time,gFx,gFy,gFz,ax,ay,az,wx,wy,wz,subject_number,foot
8.579,-0.5961135037641965,0.9570480694841162,-0.24858038324732906,-2.8212108425751317,-1.3538184837761875,0.05588052990980112,0.13658104631835596,0.032727787811891236,0.5375911735202754,2,right
8.583,-0.5984583213747489,0.9566538502857386,-0.23262543055603493,-2.806668015608313,-1.1176076393089862,0.09412098395458299,0.12022261071171911,0.05593148994719645,0.5026496880482401,2,right
8.584,-0.5943391193690575,0.9653553519898753,-0.21805367036647416,-2.830890395245741,-1.5092713743124127,0.03064408858620518,0.130088121804431,0.0419347316265906,0.5237222161988263,2,right
8.588,-0.5887126091730801,0.9742165179921257,-0.20682336443936855,-2.7989310158798943,-0.9926717891416378,0.11436798999521722,0.12607140174283016,0.047628825718040904,0.515154154782522,2,right
8.588,-0.5865310777419086,0.977371318190839,-0.20337301248503567,-2.6653547469565613,1.175774271628516,0.4656423389668586,0.12602461960740857,0.04771500588365579,0.5150174501511988,2,right
8.589,-0.5746649109708182,0.988351462504995,-0.18762155133999706,-2.6334432231563496,1.692369303016342,0.5493396179141568,0.1281094042692698,0.044715786503753685,0.5195409448762979,2,right
8.593,-0.5522990000037065,1.0033271751865214,-0.1689655008339357,-2.657604373032562,1.3006952366670719,0.485862273788596,0.12561651312555788,0.04831221561755704,0.5141182457293634,2,right
8.594,-0.5246854877429339,1.014764238906213,-0.1577284241184398,-2.6430753371885096,1.5369620000796411,0.5242172959994429,0.1275518825312486,0.045506730310979335,0.5183485547019142,2,right
8.597999999999999,-0.4892138735678849,1.0283573109646709,-0.13993077872026577,-2.6489241048968872,1.4407607164569027,0.5084748610328542,0.1265050647154779,0.047017579324419884,0.5160718669988973,2,right
8.599,-0.45211775152393946,1.0409868196285805,-0.122777451447654,-2.649109986409198,1.4395287024410386,0.5084995950823441,0.12677182731953632,0.046691248989994806,0.5165568580419182,2,right
8.603,-0.4176376786960093,1.0501839934227144,-0.10843591653368326,-2.645906698934901,1.4898005054806753,0.5164201190840874,0.12697312967974106,0.04623811495908221,0.5172571254000653,2,right
8.604,-0.38319603062012886,1.0573620933761185,-0.09439751623192089,-2.649671125537085,1.429483032153032,0.5067433293443109,0.12662397803223369,0.047022187435223045,0.5160465179771361,2,right
8.607999999999999,-0.350001731316095,1.061447576583959,-0.08364093328787188,-2.6468412144863565,1.476614555854058,0.5145786803201804,0.12691204795703473,0.04625907088504744,0.517231949499855,2,right
8.609,-0.320244797452244,1.0614033353531607,-0.07397395760141404,-2.648176508051591,1.4508973582168687,0.5097750634179024,0.12674019470136227,0.046785492186743695,0.5164105046434142,2,right
8.612,-0.292597076933552,1.053980727363895,-0.06547899723247938,-2.648211242400925,1.4573167558422504,0.5119120170931122,0.12687511626363757,0.04659663054306467,0.516694383573773,2,right
8.613,-0.26793869962284944,1.0407027550885668,-0.05642872580487542,-2.6473172433500314,1.4632687771674764,0.5115300966358216,0.1266263575205785,0.04642489487245846,0.5170068955336735,2,right
8.617,-0.24816772823663472,1.0288285674853492,-0.04703774184506668,-2.6484162440301713,1.4522502248982367,0.51081815734572,0.12712126094623757,0.04692179226376491,0.5161358458807215,2,right
8.618,-0.23198966353852338,1.0189594196524454,-0.03910540247739015,-2.6477460075867114,1.463166545147188,0.5125970637306224,0.12636589471777976,0.046204646231925106,0.5173987555350485,2,right
8.622,-0.22185855453541142,1.0097014391767791,-0.03565730238452266,-2.6474922571480537,1.4547159412348365,0.5092339257427148,0.12719377169944132,0.04693707718335113,0.5161008896810766,2,right
8.624,-0.2179261142360252,1.0024998963848408,-0.03563565773546889,-2.648905887534483,1.4605142337710357,0.514729527938334,0.1267157078881081,0.04651341845060758,0.5168513053427144,2,right
8.627,-0.2204364653168595,0.9952516664026454,-0.03090371138293858,-2.64650357769409,1.456623376388314,0.5073023982279463,0.12625320968336368,0.04621985259043721,0.5173908625314801,2,right
8.628,-0.2331295686207944,0.9853083672548101,-0.024886062377698172,-2.649171913191613,1.4590296825355071,0.5149374027029314,0.12821197839756732,0.04759766315677687,0.5148905874887271,2,right
8.632,-0.2516516544298702,0.9702675969961351,-0.021650326880366534,-2.6475577543891955,1.45880697727655,0.5107158004779354,0.12458276998233811,0.045037601034786726,0.5195342771126611,2,right
8.633,-0.27501165111083287,0.9510717959853715,-0.01584980570128264,-2.646391763589466,1.4549846382423817,0.506486037197625,0.12924691104805294,0.048319244040741824,0.513580447552201,2,right
8.637,-0.30038208663754984,0.9277033987690397,-0.007827702438857217,-2.651910756972293,1.4650155133544724,0.5239073565533703,0.12535131622012202,0.04558178755640477,0.5185469736936175,2,right
8.638,-0.32662145178464586,0.9005219628282402,0.0012922489339447295,-2.6415770342775895,1.4479954075951968,0.49185769005271046,0.12545108606259758,0.04566450425173034,0.5184011747630178,2,right
8.642000000000001,-0.3565167681205491,0.8769718162650839,0.011429515064819977,-2.654882272361435,1.4692800046481278,0.5329167605821717,0.1329026936730791,0.05084953949981783,0.5089793817944862,2,right
8.642000000000001,-0.3809002916565821,0.8570558102161702,0.018520273079711394,-2.643757954065098,1.4517510921631898,0.49868031007764135,0.11459229635697005,0.03809751138447101,0.5321456934644364,2,right
8.646,-0.41002043472068117,0.8494353208356785,0.025974750639175412,-2.644085644031345,1.4518552045117814,0.4995407207314857,0.1449516656589111,0.05924185121685053,0.49373563447872265,2,right
8.647,-0.433727945460576,0.8527520427978319,0.03206105832274328,-2.66522776001173,1.4862646942273723,0.5649972020667428,0.10490688879735423,0.03135333003170217,0.5443955890482424,2,right
8.647,-0.43882491616691277,0.8520470712294785,0.03375779011911167,-2.6132222615612175,1.4022252998208624,0.40421282735350805,-0.06320629089873504,-0.08565422497894482,0.7570056378908195,2,right
8.651,-0.46283905198372643,0.8681027731618218,0.043183735304622196,-2.699468435254959,1.5413655255398497,0.6707576224581151,-0.10325356598961555,-0.11353853187988477,0.8076609671402728,2,right
8.652000000000001,-0.48601763480137244,0.8887610712222267,0.052876969183783304,-2.585698627873604,1.3579118417012719,0.3192097718688216,-0.07288891800189834,-0.09240472510245011,0.7692589624742078,2,right
8.657,-0.48726090949699685,0.8930113330536575,0.054104100406903985,-2.108206524712876,0.5875886626038351,-1.156517980532808,-0.09120741073431049,-0.10513732917088381,0.7924163741748578,2,right
8.657,-0.5021295718770387,0.9162552759748521,0.06024417256183232,-1.9944175902195076,0.40414245850981234,-1.5080347660766236,-0.08374596016785371,-0.09998078901744575,0.7830002534137721,2,right
8.658,-0.5151980870499118,0.9522086309889085,0.06869791060232974,-2.0806959416924125,0.543234005736589,-1.2415445222530268,-0.08365480321326046,-0.09986590216763791,0.782857129140522,2,right
8.661,-0.5117134100719833,0.981361553248592,0.06930792836480767,-2.028657639139591,0.4593352898025552,-1.4022675067821484,-0.08754810908778674,-0.1026261536432751,0.7878079077018589,2,right
8.662,-0.5026670091507868,1.010869950343823,0.06380623857101433,-2.0498149650573025,0.49347525569308937,-1.3368524518122418,-0.08287368099005202,-0.09935095386488851,0.7818846400237779,2,right
8.666,-0.4831298553328203,1.031528602546919,0.05718823760967266,-2.050165949605769,0.49396129135759487,-1.3360050645232073,-0.08653066379059479,-0.10185411909006716,0.7864875090272831,2,right
8.666,-0.4582174613276909,1.0482621173918298,0.04537626770919551,-2.0389633796812,0.47604329182599237,-1.3701410520026451,-0.08452695668354887,-0.10059547481471853,0.7840246668848405,2,right
8.671,-0.42884065468067734,1.0645146437913422,0.02286701099092202,-2.052402566630604,0.4975173412275557,-1.3292841888969722,-0.0850417083092565,-0.10071969933160524,0.7845531847410143,2,right
8.672,-0.3939327479518237,1.074390239792488,0.002664563108894246,-2.04190700374376,0.48078316167356866,-1.361056878891546,-0.08548225096396157,-0.10131335429323286,0.7852604401350249,2,right
8.676,-0.36129130713156254,1.0806166487614917,-0.005135475918369161,-2.0475507238830506,0.4898041528425322,-1.3438991132051439,-0.08464465628711931,-0.10050162971386542,0.7840815676329393,2,right
8.676,-0.3276035223965792,1.0802423407797477,-0.006866200129493362,-2.046395390577254,0.48777741689888066,-1.3480319940114092,-0.0854910766597071,-0.10108876979533976,0.7851509912713652,2,right
8.682,-0.2913485415752947,1.0734977209589356,-0.006474883932549554,-2.0445287533713787,0.4852882848088968,-1.3519936012122313,-0.08480520774869395,-0.10103554985209426,0.7845052158915242,2,right
8.683,-0.2564662984518826,1.0605277388837604,-0.0077196797333332935,-2.0477555212617595,0.4895972141101206,-1.3451309943215717,-0.08532495521757011,-0.10042797927740174,0.7846560766886199,2,right
8.685,-0.2194774156690811,1.0423200595587923,-0.014254425884540421,-2.0445367254561297,0.48550265594965014,-1.3512652216469108,-0.08491854848662822,-0.10159114391078386,0.7848975823685207,2,right
8.686,-0.1812657909546726,1.0240867831820912,-0.023431884336337968,-2.0467976476564314,0.48827562917864953,-1.347316665293942,-0.08521678078235902,-0.10025724452924187,0.7844694507642711,2,right
8.691,-0.1445606579984089,1.0039698527885195,-0.03596143088896439,-2.0460988490111776,0.48714038552091454,-1.3495038810522688,-0.08513497130510637,-0.10109095297469015,0.7848312259243326,2,right
8.691,-0.11000996812477337,0.9828580360165071,-0.048834243502202446,-2.044895306470682,0.48682018348110334,-1.3475849808109204,-0.08478306273683403,-0.1016137938773367,0.7847873866157506,2,right
8.695,-0.07991595074705785,0.9611879652652751,-0.05823779247869872,-2.048032922438755,0.48817745795907297,-1.3507721044695702,-0.08580406933396313,-0.0989643376625085,0.784323114212192,2,right
8.696,-0.052012239058155316,0.937957371453608,-0.06951476373250504,-2.043442588278996,0.48629772771925106,-1.3457392989413286,-0.08403322293221568,-0.10396309093931333,0.7853390157206384,2,right
8.7,-0.028924364792243282,0.9166952074825823,-0.08006062274007131,-2.048216090896594,0.4881088676007549,-1.351473546731065,-0.08626292958865556,-0.09751375486507217,0.7839788921124426,2,right
8.701,-0.012854563443650435,0.894412411592127,-0.08367007415701645,-2.0454573209921216,0.48706049865316037,-1.3481642666508562,-0.08442003029701346,-0.10291086698335013,0.7851376204931122,2,right
8.705,-0.002004683520600503,0.8730389002357892,-0.08064794307028933,-2.0433422204722844,0.4865834821808254,-1.3444927389613819,-0.08444139012006385,-0.10274501713595845,0.7850707882947681,2,right
8.706,0.0026108814309408835,0.8559122863904148,-0.0731489392673573,-2.052937784940549,0.48922303711642,-1.3595010279978208,-0.08803134762811102,-0.0925064606677863,0.7829558794316268,2,right
8.71,0.0026655788396633736,0.8377265445404589,-0.06495524109420495,-2.035127396083798,0.48430100252300845,-1.3317207239976503,-0.07924878862731571,-0.11770003118401892,0.7882048997320156,2,right
8.711,-0.0036999364450371296,0.8214954295181233,-0.05914350703449666,-2.0579731071363794,0.4905850966916848,-1.3674599565166052,-0.09379530873139345,-0.07591736661451992,0.7794831423069895,2,right
8.715,-0.008857053442302733,0.8116022077847138,-0.056932731765520675,-2.038912879177948,0.48535587454676726,-1.3375920085642972,-0.07461395964496192,-0.13103217478032458,0.7909933719878617,2,right
8.716000000000001,-0.010984084630041569,0.8098978979497791,-0.057054975667918346,-2.03945088261224,0.4855402361869971,-1.3383146125367862,0.005914047888583823,-0.3623677602012537,0.8393064722277805,2,right
8.717,-0.022977738153686533,0.8124608967181672,-0.060044621235946546,-2.0756898063387683,0.49532467827653437,-1.3956334088035383,0.02509414224551771,-0.417483494211474,0.8508189173800849,2,right
8.719,-0.03648373042497563,0.818032737348908,-0.06641281576154368,-1.9866095193788917,0.47124595919260864,-1.2548154501690216,0.01055331154656131,-0.37569663016013743,0.8420871138043927,2,right
8.72,-0.047632618018489295,0.8382019847057849,-0.07364562964570434,-2.13429784641737,0.5111630814517429,-1.4883047248766634,0.01932104326278808,-0.40090114631423135,0.8473623159636198,2,right
8.726,-0.056959668916366724,0.8552403554190802,-0.07818288896819225,-1.939513273579419,0.4585266666193585,-1.1803123876293822,0.01575821500078036,-0.390642561667712,0.845199502252135,2,right
8.726,-0.05933872391695944,0.8596641143404202,-0.07893180792158216,-1.1218794752373553,0.23766730000045394,0.11270368949861742,0.015699615463364913,-0.3905042051599902,0.8451984282910924,2,right
8.727,-0.06515054527144301,0.8782046648089805,-0.08464283008828563,-0.9271193549395973,0.18505213389057334,0.4207275475801885,0.01757899022496602,-0.3958743867802209,0.8462927475496935,2,right
8.729,-0.0707934927323538,0.9032001008490433,-0.09276860573381157,-1.0747760587715656,0.22493794017039567,0.18718820857279447,0.015334094641913971,-0.38943626749695226,0.8449594455771201,2,right
8.73,-0.07048049443158394,0.920212739068932,-0.09090640102424954,-0.9857040119247608,0.20087996912297573,0.3280497301254655,0.017072251609166138,-0.39445915017837263,0.8460330690968113,2,right
8.735,-0.070435069627688,0.9344214827211945,-0.0854878850895639,-1.0219929612291514,0.2106798703757168,0.2707275092927796,0.016154713433412793,-0.3917333100216002,0.8453860925354171,2,right
8.737,-0.06701967972447975,0.9419181569860754,-0.08273220103849022,-1.022398121031753,0.21079035110298486,0.26993441082145486,0.016328887995783685,-0.3923873658889646,0.8456560968803113,2,right
8.738999999999999,-0.06064370303535719,0.9429698002147082,-0.08185704616530327,-1.0035485457915714,0.20569957996150803,0.29996577355326537,0.016628622009667894,-0.39306018209035043,0.845633058035008,2,right
8.74,-0.05530537108075135,0.937762219715479,-0.08408511177680084,-1.0261592802385473,0.21180518213421295,0.2639859413197078,0.016156742062818683,-0.3918544945408251,0.8455115582580438,2,right
8.745,-0.049806331152533856,0.9266230335801002,-0.08874914715094126,-1.008497096959856,0.2070356044665036,0.29201467449754137,0.01656143816827153,-0.39301890168693915,0.8457560788085849,2,right
8.745,-0.045040191942642784,0.9158250745738938,-0.09768053699390997,-1.0181865547697087,0.20965459046807028,0.2768797484221682,0.01636435982867239,-0.3921731370980509,0.8453371747970133,2,right
8.749,-0.03993441462051377,0.9049605414612634,-0.10342151712880279,-1.0155834113749198,0.20894478108228154,0.2803859492728268,0.016313027722153886,-0.3926641554053628,0.845993149635794,2,right
8.75,-0.03030497331932017,0.8920505758331194,-0.1050612488992498,-1.0137709010248428,0.2084672694906476,0.2843054844048037,0.016566312055740988,-0.3924394091540267,0.8451207051063042,2,right
8.754,-0.019693304365668844,0.8795994208605533,-0.11368186001961052,-1.017271266160748,0.20939760720238215,0.2774768372359969,0.01623163556286017,-0.3924931818536417,0.8460118500679764,2,right
8.755,-0.011609165284066383,0.8657399256811789,-0.11982702713106827,-1.0138629646995845,0.20848923854368878,0.2838980801189856,0.016468379099704143,-0.3925867277439648,0.8455231224021733,2,right
8.761000000000001,-0.003384169548665556,0.8501934451166072,-0.11969893705603524,-1.016626705658946,0.2092357380709105,0.27953592320474896,0.016537638024386944,-0.39227991720702676,0.845020428131888,2,right
8.762,0.00250931227586461,0.8362003247250669,-0.11820816046930958,-1.0141113209274082,0.20853370230210103,0.28160174157934437,0.015985784594494137,-0.3929078486025178,0.8470701726398628,2,right
8.764,0.00547537091636732,0.8201280525369341,-0.10718029551593383,-1.0171080622659865,0.20939508990198963,0.28123342550351355,0.017067988926695123,-0.3919122613579292,0.8433045777379716,2,right
8.764,0.007586434912311108,0.8021367029285162,-0.09291733719358364,-1.0132963255162317,0.20828781950340872,0.2807401861202165,0.0156571762161333,-0.39312971815729386,0.8481266781578362,2,right
8.767999999999999,0.006165760790267283,0.785698733381416,-0.08325259316789269,-1.0172372485052483,0.20943530076071296,0.28146039074404616,0.016843989655388247,-0.3921391452042178,0.8441068954843247,2,right
8.769,0.00019225606690137574,0.7754886196191302,-0.08438692569736833,-1.0151535660441333,0.20882425987575454,0.2807373394708748,0.01679796456601467,-0.3921260774522227,0.844206085873252,2,right
8.773,-0.00557359587430192,0.7722334655300714,-0.09869160920652245,-1.0123986323125718,0.20803933524412332,0.28163361352492544,0.014571897343455846,-0.3941209114423427,0.8518962180740479,2,right
8.774,-0.012033863901446923,0.7731826728325129,-0.10892862221925781,-1.0228868756056457,0.21105248428559487,0.2801989132731349,0.02006347128793496,-0.3892756750389892,0.8330094828778781,2,right
8.777999999999999,-0.027206636306080466,0.7881186035272387,-0.12001010329321266,-1.0037187095837246,0.20554014398332193,0.2824100391293153,0.010950488304431454,-0.397287280097414,0.8643179895292066,2,right
8.779,-0.03951200286018793,0.8028587929057236,-0.13246071773710563,-1.0282692491584449,0.21260213129223507,0.27967241341530447,0.022973377647168402,-0.38672825739901806,0.8230259225495494,2,right
8.783,-0.04182625695063509,0.8069578410649201,-0.1374888408810191,-1.007796974793271,0.20671178255470535,0.2819158062765703,0.07342648766662395,-0.34237143579395585,0.6496730006578386,2,right
8.783999999999999,-0.05296939139404129,0.8299795686013479,-0.1494321861125859,-1.008257090191588,0.20684834573783317,0.28201465022249594,0.08545016752722573,-0.33181442671063754,0.6083846076372208,2,right
8.785,-0.07059269656852873,0.8634360260064176,-0.15915200567189364,-1.0476060314212672,0.21815828192402223,0.2772161356920694,0.07633473322921992,-0.33981926813000546,0.6396881811659418,2,right
8.788,-0.08579672255146023,0.8914852797076115,-0.15670987164900563,-0.9509982125496067,0.1903838833940525,0.28881990039565186,0.08183163504660244,-0.33498944346736864,0.6208033279140733,2,right
8.789,-0.10487726792082194,0.9254220456415629,-0.1488037732673924,-1.1111547155918733,0.2364319860989117,0.2696318907891736,0.07959675034509688,-0.33695802305687816,0.6284996489464069,2,right
8.794,-0.11645694397360032,0.9441580225977915,-0.14017021723615658,-0.8999066368044996,0.17569163083653586,0.29493403681948877,0.07956191123792461,-0.3369790776380933,0.628580849178034,2,right
8.795,-0.11910298507935194,0.9477729903200093,-0.13859039625514136,-0.013196931974447906,-0.07919085564087733,0.40145948355997874,0.08073891974972343,-0.3359574876935605,0.6245906028765038,2,right
8.795,-0.12978361565025748,0.9622184084357668,-0.13340543251192355,0.19805856185719434,-0.13993050886172204,0.4267852514320838,0.07933008448943858,-0.337183462829389,0.6293786169632609,2,right
8.798,-0.1427242364936872,0.9764763757190376,-0.12249630894911898,0.0379120971338702,-0.09389740371729356,0.40755916758358335,0.08042589426522966,-0.336225736757892,0.6256364096142847,2,right
8.798,-0.1472956164541972,0.9832397308816543,-0.11962385390941069,0.1344528925361834,-0.1216216597696666,0.4191975474362459,0.07983902658225141,-0.33675064307562164,0.6276954238493258,2,right
8.802999999999999,-0.1441246414407898,0.9888465966774003,-0.12297692624713319,0.0952624479396106,-0.11041317319219061,0.4143924070869812,0.079963759535109,-0.3366110466073403,0.627128460626291,2,right
8.802999999999999,-0.13407215887618906,0.9926889321286051,-0.12641060467439796,0.09454941413114405,-0.11012778600708625,0.41444444558275795,0.08013745892289068,-0.3365099558683572,0.6267700055616559,2,right
8.807,-0.11772924641934047,0.997780427108355,-0.1263326539345498,0.11531378271910402,-0.11617590966363081,0.41680383461632564,0.07984559377471509,-0.33670331413910576,0.6274805264284511,2,right
8.808,-0.09438540672898335,1.002857165983786,-0.12315899597457108,0.09056048847125442,-0.10902627155129264,0.41388963703535364,0.08011638377814931,-0.3365156252721976,0.6267830829333398,2,right
8.812999999999999,-0.06854701316698107,1.0053710609709827,-0.11924665066308142,0.1096525222995027,-0.11444744699505419,0.41629034353078903,0.07994631842214037,-0.336665430870975,0.6273692455968731,2,right
8.814,-0.04451198951348927,1.0068571025844157,-0.11363383927457202,0.09971539908382672,-0.11180677550268618,0.41474598311624244,0.07998953686185789,-0.3365345426111771,0.6267893429022466,2,right
8.817,-0.01811511058926882,1.005546546801476,-0.1067987102575219,0.10134362789980328,-0.1119031629927616,0.41554599423665245,0.08006062765135263,-0.3366844561434833,0.6275312001558171,2,right
8.818,0.011515961788559046,1.0010281531003609,-0.09916831425393297,0.10500044193178795,-0.11341029634779004,0.41524400418125673,0.07991388980530276,-0.3364965490484906,0.6265641728032524,2,right
8.823,0.038827709215138506,0.9955975931674426,-0.09094783890956934,0.09951997567406722,-0.11147138843131808,0.41517642537193256,0.08007790146405036,-0.33669022224656614,0.6275690887405369,2,right
8.823,0.06626451665006429,0.9861099631314296,-0.08376969988935684,0.1039747768756028,-0.11274897376967843,0.4157162102367151,0.0799711445589879,-0.33658877805509724,0.6270294155210829,2,right
8.827,0.09900046415735587,0.9733219628329227,-0.0786632623491024,0.10232914028471059,-0.11294970435453836,0.41442470539044185,0.07993847377200917,-0.336449447164208,0.6263610533319487,2,right
8.828,0.13142880870939405,0.9632988956625752,-0.07226526462463717,0.10056430569987898,-0.11090221107439466,0.4167128147941025,0.08017865165035859,-0.3369743689580706,0.6289537824284677,2,right
8.833,0.16126604737832023,0.9535806242433954,-0.06495332939326148,0.1051430515125667,-0.11451637235403483,0.4135331319331095,0.07971565539903176,-0.3360161324654677,0.6242053214857728,2,right
8.833,0.18779367034054179,0.9453610132652792,-0.06723290609474822,0.0995500864633723,-0.1104585847438398,0.41683713938186373,0.08031416813011569,-0.3372432471384979,0.6302894408036832,2,right
8.837,0.20644502100004408,0.9431450944146925,-0.07784908594466747,0.10325884235477469,-0.11294097971046284,0.4149854319693327,0.07981279994425494,-0.33621997704945406,0.6252150573560851,2,right
8.838,0.21641976834530052,0.9471680576249353,-0.08784759542084249,0.10497247629342174,-0.11465239020777958,0.4132110941551701,0.07983272363518394,-0.3362427997575885,0.6253326395982963,2,right
8.843,0.2195583568692644,0.95508117642739,-0.09828128171246449,0.09473637001768645,-0.10637152869438586,0.42064771873207957,0.0807681165926005,-0.33821040097956223,0.6350743999259949,2,right
8.843,0.21311558678059617,0.9615899390790166,-0.10880357056532285,0.11436542722148499,-0.12191597614667704,0.40693414047799537,0.07846132340263469,-0.3333795817201126,0.6111525483771854,2,right
8.847000000000001,0.19214368218578834,0.9721750174727735,-0.11873506419459791,0.08892853053135802,-0.10188761452454734,0.42451501530965297,0.08228836765348566,-0.34138849369317603,0.6508117310104724,2,right
8.847999999999999,0.17930892664167375,0.98238432469111,-0.12566616973859715,0.11026161355165966,-0.11863881979109708,0.4098494622066814,0.07723988972680931,-0.3308239793271536,0.5984996785575016,2,right
8.852,0.17534710537169232,0.9855323477140322,-0.12685501232558877,0.10953568263089539,-0.11813663539622854,0.41022821222339007,0.056060223744666696,-0.2864768979175684,0.37890279700559515,2,right
8.853,0.1540585217270531,0.9945531457723726,-0.12919733833979297,0.06925371763559399,-0.08632389029372314,0.43824083910633604,0.05101124280436553,-0.2759093075655753,0.3265821543562982,2,right
8.853,0.1273390554926884,1.0050942024685883,-0.13110566862122786,0.1684747224826857,-0.1645892458191979,0.36941554666635423,0.05483944897355747,-0.2839226977564416,0.3662534747385283,2,right
8.856,0.0929962303281542,1.0113477849038168,-0.12432262087470966,0.0038840063700760694,-0.03479000417386497,0.48352110414616833,0.05253067489845066,-0.27908907020629203,0.34232508549268276,2,right
8.857000000000001,0.06505959742203397,1.0168652533382438,-0.11679999867151253,0.2210032698501551,-0.2060111415311487,0.33302002312524437,0.05346877309616691,-0.2810540310903709,0.3520567820411458,2,right
8.861,0.058394696112060746,1.0176994987026031,-0.11574413229293884,1.1322989227097031,-0.9245845368382624,-0.29871999176744335,0.053485889450704094,-0.28108814593519516,0.35220989049284024,2,right
8.862,0.030879251889316103,1.0175418973803285,-0.1142629750855079,1.3494150830511487,-1.0958206898632787,-0.44922069998303554,0.05298613382975313,-0.2800441927411964,0.3470734626464831,2,right
8.863,-0.006126183334715743,1.0172858426855442,-0.11293061489628158,1.1848101500977264,-0.9660001503951511,-0.3351176578865832,0.053586054492391635,-0.2812975152942874,0.3532332397037801,2,right
8.866,-0.03131721852013472,1.016620953351856,-0.11731938623454494,1.2840946802668192,-1.0442772208662485,-0.4039356228590183,0.05311685408209622,-0.2803175490503528,0.34842636802647076,2,right
8.866,-0.05736367922609494,1.0184201928729513,-0.12516816530424885,1.2436732473709364,-1.0124814753477411,-0.375937080572566,0.053368719607258655,-0.2808439806692262,0.3510135023325658,2,right
8.872,-0.07073004359777135,1.0212429989304526,-0.1346032700761376,1.2431616663319667,-1.0119180696586043,-0.37553832895650163,0.053320585113603464,-0.28074109763268235,0.3504652993134998,2,right
8.873,-0.07572027520529429,1.025898066650083,-0.14498028627223303,1.264256053770504,-1.028776784513549,-0.39022431145602354,0.05322788006412721,-0.2805534033551945,0.34966061261695247,2,right
8.876,-0.07894788426201027,1.031879589270852,-0.15466486532548748,1.238971112126859,-1.008616720366346,-0.3726333967596389,0.05338801618262838,-0.2808778225020882,0.3510523171658877,2,right
8.877,-0.07352267818180375,1.037481357765381,-0.1619754210982384,1.2586938116889703,-1.024263760544268,-0.38633217375633344,0.05322440137900292,-0.28054849852741126,0.34968500104509315,2,right
8.883,-0.06674140493813668,1.0398695381740541,-0.16478976677436777,1.247960366791502,-1.01599053899462,-0.3789482580913015,0.053341294986637894,-0.28078272095194556,0.3506348491406666,2,right
8.884,-0.05804712600893596,1.037424102316911,-0.163244335489395,1.2506449385375364,-1.0174959172878109,-0.3806286533693755,0.053310432174681004,-0.2807179997270388,0.35031253723071853,2,right
8.885,-0.04540608561329262,1.0319597785206853,-0.15881684037796642,1.2530390334949986,-1.0204363115204116,-0.38259916736504723,0.053226280787041974,-0.28056131856979183,0.34992612794477784,2,right
8.886000000000001,-0.033883331132851205,1.0229836916630002,-0.15343782920469848,1.2486789419518374,-1.015707053998156,-0.3791950874974681,0.05343578704798095,-0.2809554060202176,0.3509875308937777,2,right
8.891,-0.01843083791912133,1.0123205165850466,-0.15257448982905253,1.2528433691946819,-1.0200199873534799,-0.382386221313756,0.05312723070015422,-0.280375845784694,0.3494454741561993,2,right
8.892000000000001,0.0007964299349728487,1.0029590340410857,-0.15805769244183993,1.2497657222243408,-1.0176024071500072,-0.38025554116175464,0.053450872863051155,-0.28098259152766214,0.3510344426916303,2,right
8.895,0.016281538621498327,0.9956507387296618,-0.16467596088723815,1.251892631168892,-1.01736982637401,-0.38116482026259235,0.05326378258076516,-0.28063186107372007,0.35011566396888116,2,right
8.896,0.03254004568948664,0.9917689434831,-0.1708928542927804,1.2500994187969157,-1.0203199506685636,-0.3812133055967618,0.053114370400591845,-0.2803542421919612,0.34944578293835277,2,right
8.901,0.049834705590566505,0.9918698426666688,-0.17336939286930053,1.2520400576497992,-1.0153397445178527,-0.38063160799683193,0.0537837131633595,-0.2816013196105852,0.3525358110362437,2,right
8.901,0.06310011545157486,0.9934387565942143,-0.1670279763725609,1.2501079331359835,-1.0207564857860034,-0.3813466745076973,0.05254156012547214,-0.2792869259818587,0.34679725363476244,2,right
8.905,0.07452305693440328,0.9943118271532111,-0.1601918440816122,1.2510084875353882,-1.0174564887542887,-0.3807835207355035,0.054135663517749004,-0.282256769317329,0.3541559515600152,2,right
8.906,0.0840534993808811,0.9970543418085218,-0.15939947766660206,1.2528543846644649,-1.015455293802444,-0.38104064115636715,0.052805134105504095,-0.2797781945915806,0.3480168333781956,2,right
8.911,0.0869967762842127,1.0007946096098104,-0.1586972350604428,1.2465262602540044,-1.0255938562086464,-0.38113115196403624,0.05284269715314577,-0.2798481713227614,0.34819653669264944,2,right
8.911,0.08251854267468874,1.0019217536946168,-0.15669134963804493,1.2579462971311814,-1.0065429218405197,-0.3807435397900218,0.055373732041673715,-0.28456255888910065,0.35984622157770585,2,right
8.915,0.07127306145678197,1.0021924258720523,-0.1524640405490911,1.2433526805452195,-1.0310607489858437,-0.38129100215225536,0.04915116701338246,-0.27297257973504724,0.3312014997163811,2,right
8.916,0.05370781349621991,1.001884505683338,-0.1451338931833024,1.2555084278538764,-1.0105700145352754,-0.38081320098226656,0.05946890799676938,-0.29218962405731763,0.3786960805032053,2,right
8.92,0.04220692997942675,1.001023981280115,-0.14287293136022738,1.2552873071122437,-1.011210120335162,-0.3809044701059744,0.04585954890253703,-0.26684246769117026,0.3160525953647815,2,right
8.921,0.0373254379242938,1.0011923878686697,-0.1422851956562815,1.2317527211712829,-1.0500000811152352,-0.38156025549033973,-0.01125922022594674,-0.16045773142629516,0.05314728920548957,2,right
8.922,0.020502589166733844,1.0002760148224998,-0.13524336003303494,1.289472705572134,-0.954559582795544,-0.37985448058574256,-0.024869762861716042,-0.13510985803138426,-0.009495780318747208,2,right
8.925,-0.006254548616504038,0.998547908263708,-0.12833412349116413,1.1938002102762442,-1.1128284842169616,-0.38270889624809773,-0.01455017186916623,-0.15432802323269165,0.03799815097623617,2,right
8.925,-0.021992799292334584,0.9977571633913123,-0.12503572322841944,1.3199927385356713,-0.9040727187642665,-0.3789391262213273,-0.02077426703909171,-0.14273711677738524,0.009353965874632508,2,right
8.93,-0.027954222307149865,0.9980012792391939,-0.1255779980130694,1.8498010571741137,-0.027922855236142408,-0.3632594717939129,-0.018243321176394975,-0.14745145100810597,0.021003683191169988,2,right
8.931000000000001,-0.04243564084951665,0.9998643737933902,-0.12838104536918155,1.9760135168344097,0.1808186918428547,-0.35949420541654165,-0.01820278836936033,-0.14752322602920462,0.021182341906269005,2,right
8.932,-0.05769491951541815,1.0010777546633187,-0.1274673468823495,1.8803194549345412,0.02256517424647575,-0.3623437490733989,-0.019539800153332,-0.14504072502149573,0.015045501944806501,2,right
8.935,-0.06587594463119185,1.0018315445338937,-0.12445348392838299,1.9380312452453126,0.11801152165276985,-0.36063611864919076,-0.017936463112345438,-0.1480161618581795,0.02240095629652235,2,right
8.935,-0.0734695540610115,1.0023377422437814,-0.1184035031275013,1.9145681750749317,0.07917053635026564,-0.3613080718115867,-0.019187760270934204,-0.14569622791143153,0.016665608968826955,2,right
8.939,-0.07524467962454084,0.9987128622264255,-0.10712385582266362,1.9141931688001341,0.07864021851354872,-0.36136455710088744,-0.01851445618287509,-0.14694570741722074,0.019754250267978658,2,right
8.94,-0.07393169401686928,0.9921876419746523,-0.09837183107249206,1.9265695650031491,0.0989735374920437,-0.3609366263443824,-0.018656174527764805,-0.14667274562517763,0.019081659470154118,2,right
8.945,-0.07567572204267442,0.9856073452703076,-0.09522332204033315,1.9117562178437073,0.07461246556571016,-0.3614344313640948,-0.01886813177984361,-0.14630695531147753,0.018171623571046888,2,right
8.945,-0.07687262699852733,0.9806517455354943,-0.09518085566549157,1.9232710835617544,0.09359575876305534,-0.36106823950525446,-0.018501645206544008,-0.1469396528001119,0.019745537370851413,2,right
8.949,-0.0788638444529451,0.9777787817216208,-0.09910763593556413,1.9171316002082675,0.08332259848014623,-0.3612014052706721,-0.01886276794326322,-0.14632824728803318,0.01822194228574224,2,right
8.95,-0.08277668307295036,0.9769756260703127,-0.10283041129922008,1.9183697567712399,0.08575738674497746,-0.3613211457960468,-0.01861136256136133,-0.14674772474448636,0.01926864374409981,2,right
8.955,-0.08105512622935282,0.9792816221548198,-0.10339845246574259,1.9203175163088166,0.08831027521467956,-0.3609946899388583,-0.018695140853634724,-0.14659125338051712,0.018882071929062456,2,right
8.955,-0.07379586389441836,0.9828859611895536,-0.10807901866446709,1.9171001632490872,0.08381043311759892,-0.3614192830053482,-0.018803736128554432,-0.14647946527813627,0.0185871071088607,2,right
8.959,-0.06737427194420073,0.9899604665514115,-0.1159856777611103,1.9200655158571822,0.08805962867771787,-0.36106914354419184,-0.018509211437123523,-0.1468212725422735,0.01947452021445807,2,right
8.96,-0.056288198347349584,1.001041862631351,-0.11887131397776372,1.9182812799891977,0.08510302276602388,-0.36111974152929815,-0.018937806184206013,-0.14633143605446935,0.018200294747435355,2,right
8.964,-0.040230068788184005,1.0117685021143479,-0.11685726066339848,1.9185069474035585,0.08669209064691519,-0.36159919726673684,-0.018495215596399772,-0.14682698167144426,0.019492826829336,2,right
8.964,-0.02464634430443164,1.0222117597920621,-0.11434344457783747,1.9197745511658155,0.08600958715126052,-0.36045071740911283,-0.0187510893956895,-0.1465403820836073,0.01874533160601735,2,right
8.969,-0.0075463666540866335,1.0305418360461118,-0.1148952080407695,1.917456345009373,0.08632152266272163,-0.362176639255752,-0.018939982086237178,-0.14635233030401879,0.018246776763039464,2,right
8.97,0.013014884565963065,1.0342347180729128,-0.12117501110243248,1.920007170132916,0.08612050165101262,-0.36033442304590424,-0.01807231160535968,-0.147251689388683,0.020617356308291562,2,right
8.974,0.03449114604565692,1.0347939167206524,-0.13578151733333857,1.9184077182647872,0.08602888637518195,-0.3614026520057976,-0.0196834328738777,-0.1455800466960392,0.01621178954072612,2,right
8.975,0.050526997679222474,1.0358419337946911,-0.15280409709366322,1.9176510109841645,0.0869790658076251,-0.3623047411166695,-0.01761733017892883,-0.1477215963919639,0.021856556375280157,2,right
8.979,0.06629400935373658,1.040678055445086,-0.16372326714049595,1.9219809091328255,0.08450524754037998,-0.3583259847950026,-0.019340971808966545,-0.1459359826249198,0.0171496890635282,2,right
8.979,0.07836760949774343,1.0477383103651006,-0.167033114288974,1.9137673544359997,0.08878885585085824,-0.36571030896122625,-0.019291107455757496,-0.14599047064506074,0.01729204543831929,2,right
8.982999999999999,0.07906289790519141,1.0538108605633298,-0.1638858832712451,1.924355099760849,0.08335682188100815,-0.35622701171281057,-0.016018364877904288,-0.14936889350358704,0.026202639526816063,2,right
8.984,0.07527862838885893,1.060075169590676,-0.15700091279489556,1.915499380294478,0.08786394616959955,-0.36414501504414976,-0.024064704061967895,-0.14106057717644505,0.0042905067780467775,2,right
8.988999999999999,0.053806305588074456,1.066089334454039,-0.14107888590221143,1.9158027652484275,0.08784835409396205,-0.3639278972455219,-0.01072377391193203,-0.1548355331564996,0.040620498981532076,2,right
8.99,0.034222643348987405,1.0685399201212422,-0.12769548399187985,1.932479560279579,0.07890548980157265,-0.34883827715426213,-0.02831978676732709,-0.13666820814002856,-0.007295189494324105,2,right
8.99,0.030746734514308705,1.0706587961489982,-0.12516236088194388,1.891415315665933,0.100760228905466,-0.385930780307578,-0.10218003077230872,-0.06043084037202505,-0.20840519621606715,2,right
8.994,0.0003131888413919759,1.0698050219774768,-0.11084487500794413,1.9595205751938778,0.06455690283503028,-0.32442775545479074,-0.11977705428781532,-0.0422671303841647,-0.25632031915859665,2,right
8.995,-0.02764846072418212,1.0646106489133738,-0.09752166492255467,1.8696891384654544,0.11230571776837905,-0.4055513793866544,-0.10643313728314907,-0.05603568449819965,-0.2199879347700623,2,right
8.998,-0.0304438067473667,1.0629758751559133,-0.09562066010805911,1.4927081079959255,0.3128905038318213,-0.746047932511142,-0.11448576703058125,-0.04773470252842089,-0.24191094072692987,2,right
8.999,-0.05139373436651666,1.0593376232267984,-0.08157356171750531,1.402885516889333,0.36065145722513514,-0.8271737668853589,-0.11120282553049543,-0.05110791203848469,-0.2329763803900622,2,right
8.999,-0.07749845814769808,1.0530034488717301,-0.062385869571231586,1.4709812058611507,0.32443499559490907,-0.7656683506841868,-0.11116566903836125,-0.051161467079858726,-0.23287093608137155,2,right
9.003,-0.09463495633706981,1.0477267206220728,-0.05020566774215461,1.4299133219406412,0.3462847487986954,-0.8027599435264381,-0.11287848456535428,-0.049386918555681364,-0.2375366103430532,2,right
9.004,-0.11186768210748227,1.0401152965234377,-0.04192787456540852,1.4466218615620416,0.33738542939330873,-0.7876782579418548,-0.11081392690217885,-0.05150529899291625,-0.23191821180696903,2,right
9.008,-0.12250865726915679,1.0358408982061682,-0.033922623375545025,1.4468569432175455,0.3372761326507846,-0.7874440690620639,-0.11244153001737284,-0.049866216551380564,-0.2363396040161324,2,right
9.009,-0.12822479892189517,1.031797335768581,-0.02176506399970725,1.4380991574660427,0.3419176203015323,-0.7953865480499959,-0.11153302142679086,-0.050733480550715054,-0.23388370783664694,2,right
9.013,-0.13132143071034652,1.0233670002897104,-0.007147429969968305,1.448589380443844,0.33635177611803335,-0.7858788791669568,-0.11178548260536235,-0.050559371968433325,-0.23454924623861317,2,right
9.014,-0.1335104891173554,1.0160318892537274,0.006163892295153552,1.440417906329654,0.3406931439839087,-0.7932737173644067,-0.11197043120013965,-0.05029952700132882,-0.2350702785479807,2,right
9.017000000000001,-0.1350491540521625,1.0080909734826484,0.012236776560163294,1.4448315446135354,0.33833417728805093,-0.7893158935773629,-0.11157386012419193,-0.05070830689622974,-0.2339905538933172,2,right
9.017999999999999,-0.13502886880239776,1.0009475330860829,0.009617055662427033,1.4438050814626848,0.33891429742871326,-0.7901505606979742,-0.11202710257585,-0.05036822476641484,-0.23519253510324226,2,right
9.022,-0.13720730484054622,0.9986698752711013,0.005389589728347778,1.4426704334136646,0.33946036112218897,-0.7913349562904615,-0.11159149360680412,-0.05052583754123566,-0.2340799542642022,2,right
9.023,-0.1429141280087748,0.9972584939520663,0.0021422371692562713,1.4446508244049137,0.3384766936949969,-0.7893501790570344,-0.11197872125966678,-0.05056182744297352,-0.23502459431994965,2,right
9.027000000000001,-0.15011385198003382,0.9946517098826124,-0.0010094094534389845,1.442787400720036,0.3394126739196275,-0.7911897505884097,-0.11168160765965263,-0.05040400903687216,-0.23433261986929627,2,right
9.027999999999999,-0.155524020837902,0.9911127816854067,-0.0019028167756845798,1.4440590462899463,0.3387355448371887,-0.7900422993349792,-0.11179422831000274,-0.050556238127733494,-0.23457155350693348,2,right
9.033,-0.16234019300033053,0.9859491656754957,-0.0016848076623766097,1.4434407827912041,0.33916697913011484,-0.7903108149706757,-0.11201565969919877,-0.05055882259659261,-0.23511643376869087,2,right
9.033,-0.1729191726093793,0.9789404295715372,-0.0017377687500414064,1.4435852299623932,0.33885628995366923,-0.7908434526957497,-0.11130905865880247,-0.050275976617576226,-0.23344717256929257,2,right
9.038,-0.18390467393493792,0.9694651089127703,0.0027571491710498774,1.4436732841294715,0.33915793568857844,-0.7897742108874157,-0.11254293604487621,-0.05087974388173644,-0.2363342049903614,2,right
9.039,-0.19573988347690974,0.9601644493481247,0.010954725042874126,1.4435232210831543,0.3388666091796564,-0.7909653569493535,-0.11099252658867376,-0.050069198734125894,-0.2327198182988859,2,right
9.042,-0.2059271415693203,0.9510509503057776,0.015481156572863567,1.4436986839746044,0.33898727682921337,-0.7901960377772131,-0.1122723845752302,-0.05076119188444992,-0.2356974222890032,2,right
9.043,-0.21961303811892052,0.945024583493284,0.012540304503919715,1.4434091072590227,0.3393270956501762,-0.7899338545895652,-0.11225027080007399,-0.050728748670054016,-0.23565181274962765,2,right
9.047,-0.24156974996528907,0.9464226835966758,0.0041912943612420804,1.4439557760622117,0.33822602911269933,-0.7917381521763825,-0.10978664751850654,-0.049435048098576045,-0.22990890587013535,2,right
9.049,-0.26319176339771466,0.9519693733633098,-0.006409746022796159,1.4430710885296776,0.3401981204734743,-0.7882729810055398,-0.11581948725018468,-0.05263960135343669,-0.2439613382984148,2,right
9.052,-0.28833701664657596,0.9645626489017217,-0.019519585138167227,1.4441793702662278,0.33768171893319554,-0.7927498629722544,-0.10582745831115775,-0.04731394642004298,-0.22069235503710669,2,right
9.052999999999999,-0.3071469332754557,0.9747529139860559,-0.027189440283947087,1.4432636449034608,0.33977587955558114,-0.7890002681282537,-0.11900172320870858,-0.0543452901859241,-0.2513682849005756,2,right
9.056000000000001,-0.3115252817981897,0.9767572473820658,-0.02929959843502132,1.4432482146740986,0.33974419099040887,-0.7891459862423812,-0.1742988476506861,-0.08385303722798378,-0.38013446474449764,2,right
9.057,-0.32661481244276447,0.9870115285918794,-0.03979945766781986,1.4451311837590035,0.3356697462101318,-0.7961533977842772,-0.18747058454181142,-0.09089089157308623,-0.41079920711724954,2,right
9.057,-0.3434013119949735,0.9982593284686172,-0.05301252240224294,1.4405455990488594,0.34565411088275644,-0.7788751679286018,-0.17748438673202263,-0.085553119295883,-0.3875528288992587,2,right
9.062000000000001,-0.34295426945163743,1.0025682812934433,-0.06273429079196355,1.44814393796273,0.32910819510242306,-0.8075409162238674,-0.1835073006168326,-0.0887729633427953,-0.40157267036291944,2,right
9.062999999999999,-0.341585224535883,1.0072225873499994,-0.0709548541573477,1.4381126169937983,0.35093017974943863,-0.7697241198724003,-0.18105721240410133,-0.087465581805569,-0.39586629329134426,2,right
9.067,-0.33981437406334025,1.0072333132512294,-0.0714976537096689,1.3959964807458678,0.4425698927677333,-0.6110785092114401,-0.18102107930570627,-0.08743782567453898,-0.39579331176135196,2,right
9.068,-0.33108646761680444,1.0038334474862431,-0.06906292885406684,1.3859331039443694,0.4643912409994996,-0.5732516087108939,-0.18230894689142435,-0.08814291281434067,-0.3987691500330862,2,right
9.068,-0.32484125707742384,1.003433158533365,-0.07093942356730794,1.3935787466288787,0.44784781323475953,-0.6019356854987585,-0.18076566377842213,-0.08729457927078854,-0.3952077470803143,2,right
9.072000000000001,-0.3260113945762569,1.0046111674068305,-0.07872538300911057,1.3889616472360597,0.45782606607963894,-0.584635415012045,-0.18196842370226562,-0.08796060965458258,-0.3979767978301673,2,right
9.073,-0.3355269143332712,1.0045860852440898,-0.09208371025904002,1.3908217361821895,0.4537624772548378,-0.591660574405565,-0.18132031671224197,-0.08760431604633215,-0.39648121158902394,2,right
9.076,-0.3509741523631064,1.00612914699409,-0.10483479667481507,1.390917107651041,0.4537162091656507,-0.5918041885313071,-0.181464491214342,-0.08766130876772055,-0.3968437153404053,2,right
9.077,-0.36496875359727166,1.0112635672274939,-0.11377630101186526,1.3897932181092951,0.45582424552012035,-0.588028721160369,-0.18164710351638888,-0.0878232270589098,-0.3971827900605116,2,right
9.081,-0.3756462359958308,1.0146594187825748,-0.11415011131567618,1.3911703678776042,0.4533028061872669,-0.5925674540673567,-0.18133116000344712,-0.08754365009956049,-0.3965953572929507,2,right
9.081,-0.38488045300437823,1.0177399680112802,-0.10502317331502806,1.3900553106393205,0.45526076706276897,-0.5890085788035431,-0.18163314439838113,-0.0878408896042027,-0.3971167271545507,2,right
9.086,-0.3888545053928461,1.0212072883827226,-0.09233092510092776,1.3906346201446391,0.4542015970720882,-0.5909141936783606,-0.18142769707379322,-0.08762278643825916,-0.39678320973137404,2,right
9.087,-0.382754938695439,1.0206575337847879,-0.08191584537784358,1.3906932192846144,0.45447108616993703,-0.5905912962177382,-0.18150911502145847,-0.0876653668790702,-0.3969741361082644,2,right
9.09,-0.37076975382303595,1.0211666011949014,-0.08404682162189511,1.3900114497955642,0.4546762496189579,-0.5897757998857516,-0.18154397092818575,-0.08788489596643492,-0.39678642071698056,2,right
9.091000000000001,-0.3612969217170206,1.0276435048034336,-0.0891043905769686,1.3911866101670713,0.4543201739840329,-0.5911837096299515,-0.18141945044854996,-0.08735915547252204,-0.39711081403893395,2,right
9.096,-0.3598241133078996,1.0386848446165773,-0.08344867887966964,1.3898101475614058,0.45461527365335574,-0.5897025642264514,-0.1815947774154093,-0.0881379644923063,-0.39660267915085956,2,right
9.096,-0.37078541513095503,1.0510721544731996,-0.0778740414838701,1.3908805162697866,0.4544383974361891,-0.5907817925975569,-0.18142171832053716,-0.08731503762862378,-0.3971764793095335,2,right
9.1,-0.3943509680456901,1.0597675017373955,-0.0733356241573666,1.3908263373616387,0.4545749259674265,-0.5905525872579702,-0.18152184222876422,-0.08779076330751537,-0.3968454283451284,2,right
9.1,-0.4184978587865277,1.0625114826606332,-0.06888909258467231,1.3891050106629066,0.45432883316817724,-0.589544094897883,-0.1815775296690943,-0.08818395624975435,-0.39648817385506574,2,right
9.105,-0.43515536790678666,1.0616719542597037,-0.06434067994353426,1.3930733092986443,0.45481662918316307,-0.5919772783477887,-0.18129421880569332,-0.08644088135599381,-0.3979582665683744,2,right
9.107000000000001,-0.44664630297269176,1.0605045346556041,-0.04608017410727239,1.3871609937334808,0.4540717941987421,-0.5883775489611294,-0.18182154777635923,-0.0896749265555854,-0.39523696154215354,2,right
9.111,-0.4490061557845924,1.0596337871142718,-0.021757086878674253,1.3934534378827967,0.4548885759953103,-0.5921750302302007,-0.18114702473331767,-0.08552317338112006,-0.39873678258296996,2,right
9.111,-0.4458379879670844,1.0565443091568105,-0.005859321286198798,1.389816954514513,0.45441712388868283,-0.5899807022686123,-0.1817089201548966,-0.08898929585459281,-0.3958128300936087,2,right
9.116,-0.4365548991373285,1.0555332433211921,0.001203735035411437,1.3867075078303281,0.4539591394664214,-0.5881763518207292,-0.1816906486446341,-0.08889224061090692,-0.3958831371337373,2,right
9.117,-0.4233751248959925,1.0588267685242791,0.002507853195127651,1.4003501673122698,0.45589612297401766,-0.5961852448807825,-0.1806325989657049,-0.08229403093904825,-0.4014937387911881,2,right
9.12,-0.41463615039120066,1.063054891966838,0.0038729017310559395,1.3750465887017296,0.45230788022459817,-0.5813277472058318,-0.1832352687295653,-0.09851599567207885,-0.3877119333772484,2,right
9.121,-0.38945970686096376,1.076556870081328,0.004672663787526485,1.4075372828270016,0.4569189590697435,-0.6003974852677723,-0.1789204068177745,-0.07161703418999235,-0.41056130686340886,2,right
9.126,-0.36816386427907727,1.0882447373261632,0.006391298489513714,1.380410984811269,0.45306835815956314,-0.5844814426224303,-0.18461066108771718,-0.10709855968700946,-0.3804233370044495,2,right
9.127,-0.36286296748266644,1.0909995557838452,0.0049041796704546725,1.381153004632367,0.4531652379095255,-0.5849192453139695,-0.20848977996393228,-0.2560003715962196,-0.2538763371353926,2,right
9.127,-0.3325274371251533,1.1049768629643628,-0.0005725976967398403,1.4328542501390573,0.4605350834381631,-0.61523374408014,-0.21417848327008698,-0.29148525841617084,-0.2237391018321336,2,right
9.13,-0.2868009882853506,1.1214480640836726,-0.016609569634112694,1.30576592054176,0.4424291126717015,-0.5407220770864674,-0.20986589754535165,-0.26458298073870545,-0.24658907324292711,2,right
9.131,-0.23128426563661045,1.1376074198777562,-0.06231277325378872,1.5164930381637534,0.4724466510373182,-0.66426138967558,-0.21246708687685079,-0.28080242696379,-0.23280203271410793,2,right
9.135,-0.18993417467157842,1.1534339804290865,-0.0980191683330899,1.2385353610791592,0.43285620241767053,-0.5013200882046943,-0.21140783875442082,-0.27421862128172847,-0.2384254401137171,2,right
9.136000000000001,-0.17910106917516244,1.1571150617534967,-0.10640875436678593,0.07187192261585529,0.26664157660226473,0.18262387581638145,-0.21139506382513723,-0.2740921377468491,-0.2384749879447156,2,right
9.137,-0.1443093988200304,1.171441574668021,-0.1167626340074178,-0.20611198261250968,0.22705912614762036,0.3455515380115538,-0.21194674202092076,-0.27759920245225866,-0.23557536044592425,2,right
9.14,-0.10859565865342595,1.194343909398036,-0.1119499095270341,0.004656132819505283,0.2570641602083925,0.22203354654231772,-0.21128531154868951,-0.27340824326694535,-0.23905775369090215,2,right
9.14,-0.09968424436669718,1.2058876002435892,-0.09149586806328136,-0.12246610674468351,0.23896853790665415,0.2965275750729942,-0.21180157175169168,-0.27665630085274884,-0.23633134999944788,2,right
9.144,-0.09268458979666114,1.2137923649138722,-0.07018851945490931,-0.07076683223484223,0.2463389684863337,0.266212060517547,-0.21151950670525765,-0.2749535850914055,-0.23784548542407458,2,right
9.145,-0.09720398082859168,1.218010407055087,-0.05910077607517949,-0.06995900316932481,0.24641580370838806,0.2658084666263254,-0.21159266441810518,-0.2752282828968834,-0.23739637730282923,2,right
9.149,-0.11337579501123121,1.2191284946639052,-0.0629361966594618,-0.09722895227626951,0.24260898313967055,0.28164982180624765,-0.2116504920543834,-0.27590164579471643,-0.23719520185893278,2,right
9.15,-0.13970768051515903,1.2195981542315608,-0.08330765882263,-0.06453363548670901,0.24715767781729592,0.26268648411077355,-0.21154228761877183,-0.2748431065422371,-0.2376397558574147,2,right
9.155,-0.17586143963271336,1.2221171770051256,-0.12865047251382633,-0.09003985606811281,0.24363124342107131,0.27743859525521386,-0.21164657444183055,-0.2757993955285539,-0.23718964442479606,2,right
9.155,-0.21283393378322707,1.233863722264517,-0.1454271093429744,-0.07630940387574162,0.2455413965668527,0.2694753900176138,-0.21156591991886378,-0.27529908388469637,-0.2376181629422127,2,right
9.161,-0.25210988305090937,1.2479879390104935,-0.12429683066657743,-0.07924836238961463,0.24503153171251,0.2713683358089055,-0.21163054248293228,-0.2751345598311185,-0.23708513092987085,2,right
9.162,-0.2899879639870929,1.2580580800558452,-0.11476239454796686,-0.08343589908961829,0.24472797750346212,0.2732761849347184,-0.21156318619369818,-0.2760115567169713,-0.23787721432919803,2,right
9.165,-0.32162502385527336,1.2619705165304858,-0.1007280864945455,-0.07619400665443624,0.24525535769071166,0.2699723661035704,-0.21164445504852308,-0.2745833492127101,-0.23679767188210768,2,right
9.165,-0.34034183536087387,1.2607838969112934,-0.07497587725956535,-0.0832712280705194,0.24486572417020935,0.2729663342347245,-0.21156136799760616,-0.2761280261675175,-0.23792939470946806,2,right
9.17,-0.3482143415131588,1.2645669264546047,-0.05774418647316881,-0.07837439501309038,0.24507020404237506,0.2710161050879213,-0.2116037738797507,-0.27520049084926024,-0.23730562539272415,2,right
9.171,-0.35395829997840306,1.2714355524936907,-0.05752298827508842,-0.08008750482870262,0.24482203870290606,0.27202862195057653,-0.21166818811476112,-0.27457493992995496,-0.23661889442126957,2,right
9.173,-0.35106210395105575,1.2752443994063867,-0.06953357525324573,-0.08186420970327922,0.2454831503472904,0.271362469853593,-0.21143179469339832,-0.27759704789381023,-0.23938021292483355,2,right
9.174,-0.3319427963848449,1.2833339865364328,-0.07289938228606202,-0.07685750149532136,0.24410670205538432,0.2723297762203139,-0.21186206766325322,-0.27194163925585624,-0.23430360039487116,2,right
9.179,-0.2968483221728774,1.2983990271962456,-0.07234656184339172,-0.08410604496408824,0.24619190754643466,0.2707576177802292,-0.21131126825674054,-0.2792142553138355,-0.2408119909264937,2,right
9.18,-0.2544138375975883,1.3137050141883855,-0.07759925631635099,-0.07667147136516281,0.24392687864113818,0.27260485438917686,-0.21177060325652824,-0.2731392203148214,-0.2353830139910969,2,right
9.183,-0.20441957049892323,1.334889825592265,-0.08593636385523806,-0.08096933707567619,0.24523616294804096,0.27153908406760024,-0.21176045538610405,-0.2733188044302053,-0.23551332414577214,2,right
9.185,-0.15277361838075723,1.3629478672095867,-0.09207872016532104,-0.0840297180663923,0.24645388585159866,0.2702416934970734,-0.21087659777242973,-0.2848505715920119,-0.24591874527293245,2,right
9.187999999999999,-0.10642064474891182,1.389045323882708,-0.09256231008549368,-0.06980416054466737,0.24123733516480508,0.2754301701209204,-0.21304677544143064,-0.25649120772693124,-0.22036409820762126,2,right
9.189,-0.045613515986932376,1.4222489026316327,-0.10666994573118704,-0.09622463429548019,0.2509083288448049,0.2658317692843518,-0.20944861500087936,-0.3035140735696361,-0.2627284951260957,2,right
9.195,-0.0036383977008201934,1.4468099952468396,-0.12239550119742398,-0.062355836279794345,0.23847979420249188,0.2781888422194593,-0.21419509456394892,-0.24149355251972882,-0.20685174136716644,2,right
9.196,0.006261354526024808,1.452023432153687,-0.12893517733409898,-0.09060271178684708,0.24886359635408947,0.26785701296946013,-0.23410483592584155,0.01889405802501446,0.027751033077876158,2,right
9.196,0.04102211816335047,1.4748896040447617,-0.14380784745884423,-0.08977958651945178,0.2485818399019427,0.268099574475289,-0.23885103786322942,0.08091528597917633,0.08363116053827001,2,right
9.199,0.08178439326561503,1.504494926050306,-0.14900642378993428,-0.036185742376058344,0.22876610583529214,0.2879636566449043,-0.2352554119573811,0.03388125969004541,0.041258214698475904,2,right
9.2,0.10146375835355655,1.5183843832546797,-0.1552764602752018,-0.16794594280436567,0.2774835257871806,0.2391648980509256,-0.23741779040713762,0.0622771542374016,0.06682882517610286,2,right
9.203,0.11501240437871532,1.538840796127873,-0.17030425217961526,0.05050098668676512,0.1966935990810046,0.32008212492438654,-0.2365492507957214,0.050672012830416904,0.05639973969877859,2,right
9.204,0.11768805238424301,1.555338835846916,-0.16957797520757129,-0.23760316789809305,0.3032676871482758,0.2133400893044146,-0.2365170432861195,0.05059958939962739,0.05629644844846772,2,right
9.204,0.11656020041215912,1.558413529285513,-0.16557624095410686,-1.4470034759292933,0.7503320547492396,-0.23473599989865285,-0.2369992814993522,0.05656157928569204,0.061705818688376136,2,right
9.208,0.11893437765933586,1.5677887006745115,-0.15124666854833793,-1.7350905232951752,0.8568987730521559,-0.34149085446452965,-0.23643657463308942,0.04935081751171234,0.05519305355876602,2,right
9.209,0.12648338637428994,1.5785785710338818,-0.1175750826400731,-1.5166432111174495,0.7761533877883797,-0.2605611767972498,-0.23685174578160045,0.05507371296695099,0.06031593269765392,2,right
9.213,0.1380312196119927,1.5824039302880304,-0.08827319826775454,-1.6484773656090181,0.82474431608479,-0.3093496361812046,-0.23667221439817757,0.05178148680601899,0.05745611093626562,2,right
9.214,0.14492188350887383,1.5849428934483625,-0.07439125984839841,-1.5946841745892595,0.8051691597328643,-0.28954191789783695,-0.23663369366817905,0.052903834762587046,0.05828422233309035,2,right
9.217,0.1502958890717393,1.5906230787930813,-0.07176777023324607,-1.5941978105737358,0.8045481597962196,-0.28918500176932904,-0.23680791047405922,0.05318731506365704,0.058764264348769676,2,right
9.218,0.15641716446817266,1.5992292415237124,-0.06618709333019188,-1.6220356203074107,0.8152755477620895,-0.299675253599589,-0.23661143594342204,0.05220795277772956,0.057702854640507874,2,right
9.222000000000001,0.1596269913748663,1.6062057664412885,-0.05536034667834653,-1.5884820100373989,0.8026832686979654,-0.28716734120007337,-0.23671081990152232,0.05352179853276331,0.05888483295066621,2,right
9.222999999999999,0.16158300883285862,1.6131316178153923,-0.046764538358504595,-1.614937610135555,0.8120936431143451,-0.2968179869721618,-0.23681004960221225,0.05186940397449921,0.057728747348688894,2,right
9.229,0.16603591285478939,1.6215118621814368,-0.037707477739743346,-1.6000470999369236,0.8077810284138666,-0.2917886157011197,-0.23645920644303253,0.054022907662300626,0.05890895628926539,2,right
9.23,0.17304186057885695,1.626919654172997,-0.030717409106334338,-1.604571099975098,0.8074001418985058,-0.29262438984729666,-0.2370262922859757,0.051381730777005793,0.05766303442125465,2,right
9.232999999999999,0.183658556422209,1.6261020155389143,-0.030775716916989562,-1.6067322686431962,0.8107183460551369,-0.29445661508007837,-0.2364057864353417,0.053988182414983966,0.05880298079944472,2,right
9.232999999999999,0.20147452416944756,1.6197125975246403,-0.033907589462950666,-1.6015107735662029,0.8067797088953981,-0.29169952827175266,-0.2367750218842283,0.05262235977903584,0.058270336909397855,2,right
9.24,0.2260640590351225,1.609921664411607,-0.03593450831547937,-1.6076065133956994,0.8090160487339777,-0.2939509584968416,-0.23706002029929513,0.05100915134934868,0.05741942708230984,2,right
9.241,0.2546098708703681,1.5947392688811135,-0.03969242304253398,-1.6011810774919095,0.8103650854132437,-0.29309607638577784,-0.23575132726220271,0.05726527411497441,0.06042090457234135,2,right
9.242,0.2855263372669884,1.574541809147758,-0.04681019408688518,-1.6083294064974072,0.804495294022251,-0.2922571904594584,-0.2381928007724804,0.045853157107069054,0.05502497309431224,2,right
9.243,0.3183973344450357,1.5524989360877308,-0.05197970285908762,-1.60031873674704,0.8142336037300023,-0.294492174368154,-0.23505263216109118,0.06043849440614939,0.06189276071976239,2,right
9.247,0.34835038330746615,1.531487167773364,-0.05600362745932069,-1.607888084127639,0.8034928457446258,-0.29174970920810384,-0.23767635954514071,0.048290696783080414,0.0561840266520803,2,right
9.248,0.37051586354357907,1.5096235280956618,-0.06295913523536686,-1.6041640345389925,0.8099404471682694,-0.29357566914519484,-0.23760205583753102,0.04857529699972392,0.05630118794555882,2,right
9.253,0.38648639050359335,1.4843982965085056,-0.06764332642950921,-1.5989344194728594,0.8147472135974305,-0.29439931438473765,-0.23260792007863662,0.07185638029054507,0.06728678166653271,2,right
9.253,0.39669155349676477,1.4619458247940504,-0.07326692558861647,-1.6180976039487232,0.792323977580208,-0.2894102331674936,-0.24488757362235286,0.014697994813821155,0.04033776811222799,2,right
9.256,0.40298347185056055,1.438704610571043,-0.08839860694342326,-1.5834370198285073,0.8342366684549192,-0.29898969328311875,-0.2245256892805818,0.10944554395141617,0.0850032963343155,2,right
9.256,0.4062546235330733,1.4210888975128335,-0.10052193043685277,-1.627629801482501,0.7802987762512172,-0.2865711891833894,-0.25138336245810705,-0.015517940185186752,0.026092264085782545,2,right
9.262,0.40665074253547584,1.4167447406746392,-0.10230449124270141,-1.5908622491168343,0.8253821339210088,-0.2969888047768733,-0.3641167752113223,-0.5400815572019394,-0.22118848021103404,2,right
9.262,0.40760374068741917,1.4023776351443682,-0.1076369419539706,-1.591668486602702,0.8240765835281743,-0.29662953537161474,-0.39097403793992463,-0.6650457350218228,-0.28011213208993435,2,right
9.263,0.4097242259881295,1.3821492953019567,-0.12159416817274486,-1.6622832112556931,0.7383367825681058,-0.27697073829861363,-0.37061245581844904,-0.5703015428017667,-0.23543088010434843,2,right
9.267000000000001,0.4115800480646526,1.3698482432249888,-0.13583344403602132,-1.4889852458996742,0.949202299717136,-0.32540171756415914,-0.3828927807277851,-0.627445094173269,-0.2623820332404388,2,right
9.267000000000001,0.40460224682747287,1.3530881549921283,-0.1407701576418725,-1.7762317307891435,0.5995245944343817,-0.2450583479458288,-0.37789613602398736,-0.6041964939263462,-0.2514266133786792,2,right
9.271,0.3934160061930734,1.3432405282710171,-0.139593187620969,-1.397378290854038,1.060771323165328,-0.3510465608947516,-0.37782653860742604,-0.6038620397180184,-0.25123443003013446,2,right
9.272,0.39090298972350646,1.340619939831026,-0.13665080582729203,0.1924801609317962,2.9965291769029303,-0.795853305523538,-0.38044407212993747,-0.6160652758590053,-0.2570588169181956,2,right
9.273,0.3842130314832013,1.3253424907526925,-0.1259907677822556,0.5713069769760055,3.4577688013441636,-0.9018434036840025,-0.37730937937902564,-0.6014447709851399,-0.2500657607013089,2,right
9.276,0.3702003146021462,1.3055418042166191,-0.11121920849101237,0.2841812482520044,3.108123303333743,-0.8214915001084249,-0.379749774914632,-0.612834853662495,-0.25553450676954936,2,right
9.277000000000001,0.35897170213568896,1.2869353745338086,-0.09231603012895567,0.45716447680016925,3.3189048901916345,-0.8699447065389875,-0.37843341956425636,-0.6066946657532094,-0.2525973565314962,2,right
9.281,0.3466250553041768,1.2670094203691313,-0.06582470276566726,0.38712564870534283,3.2333186500610305,-0.8502452525114426,-0.3787380071439278,-0.6080819176503364,-0.25316667613590516,2,right
9.282,0.3344931492513214,1.2493028970601021,-0.042287915079605845,0.3855288635381336,3.2318023151361377,-0.8499417804384102,-0.3790763821999389,-0.6097533286306202,-0.2542267093944503,2,right
9.286,0.3255184250057121,1.235706004053406,-0.027054725762096627,0.42307077392809384,3.2770921252647205,-0.8603047583058604,-0.37849067574275463,-0.6068607936827972,-0.2523947590547181,2,right
9.287,0.3170964988589159,1.23182355141848,-0.020735512313607634,0.3785554755811325,3.2230682746984813,-0.847908979621114,-0.3790346147136652,-0.6095971300182463,-0.25425916340981847,2,right
9.291,0.30889290837670624,1.234694571578499,-0.029933900002447337,0.4125222206245922,3.2647959158857356,-0.8575374669907883,-0.37867297388498217,-0.6077505413282792,-0.25293090228357396,2,right
9.291,0.3013963939315558,1.241848972279493,-0.0526566313080916,0.3955554108970613,3.2429583541614395,-0.8523933064570541,-0.37883947391854333,-0.6085240359672311,-0.2532911991155072,2,right
9.296,0.29674037661212666,1.2571959727861848,-0.08148929079156379,0.39701204062481266,3.246759097728993,-0.8534832819824651,-0.3788042966727491,-0.6086639724764334,-0.2542070498032314,2,right
9.297,0.29830104211426856,1.2753806188065362,-0.11489739212802114,0.4053623986262988,3.2544401841898747,-0.854982749747855,-0.3787932739926667,-0.6079183897575569,-0.2519138606977269,2,right
9.301,0.30696525716943734,1.2965671660476963,-0.1455403111250646,0.3941064741597565,3.2427165954187163,-0.852500348064231,-0.3787883735761113,-0.6089317012665582,-0.2552878230338999,2,right
9.302,0.3196881290983195,1.3227209305333871,-0.16774559907355988,0.40208133385051015,3.2524451298404236,-0.854738109123568,-0.3788219060198193,-0.6079828046954896,-0.251753505156577,2,right
9.305,0.3376058478896364,1.3490208233072227,-0.18446023092049624,0.4017821777608951,3.2484018319412025,-0.8534154840915468,-0.37880266213302594,-0.6085323523503134,-0.2537954101789842,2,right
9.306000000000001,0.3587654466049711,1.3754073830281617,-0.19236945827842208,0.3925584130729528,3.24557805458773,-0.8536654086327332,-0.37872405102775064,-0.6087154151623231,-0.2554211348710327,2,right
9.311,0.3736348046600023,1.4032200200739695,-0.19071738381922337,0.40980779044727905,3.2540389695119236,-0.8542690794313603,-0.37898823366015905,-0.6075383085461123,-0.24813439918886027,2,right
9.312000000000001,0.3766969195106697,1.431955237245825,-0.18562065638802477,0.39014278091294896,3.2434651815803486,-0.8532680979965048,-0.37850186212162373,-0.609739634710932,-0.2616541200036545,2,right
9.316,0.36238730779699985,1.4586185679563575,-0.1804924257420446,0.40236148543378414,3.2506165954321853,-0.854086383549192,-0.3791320440352351,-0.6069375422056957,-0.244307937130762,2,right
9.317,0.3346373616235844,1.480707288534168,-0.17615045967405638,0.41023206529632217,3.25354190875637,-0.8540457800803927,-0.3786028848530647,-0.6092653172648321,-0.25878067410309197,2,right
9.32,0.2936804713545751,1.4961039469848145,-0.17446415430941453,0.3708750849537993,3.2347636448671913,-0.8528469716544319,-0.37861222392803534,-0.6091729790779087,-0.2583826996985156,2,right
9.321,0.24280599647192494,1.5030396508758446,-0.18322749972764338,0.4450235763342677,3.270999219710199,-0.8553957890831256,-0.379645464932185,-0.6048619039898067,-0.23082805684992064,2,right
9.326,0.19187997520404804,1.504732657702874,-0.1997106969529034,0.34939474923642433,3.2239634459457296,-0.8520050467987363,-0.3771076386366504,-0.6154785979010498,-0.2985483619510737,2,right
9.327,0.12539784969665424,1.5022405091334732,-0.20632238046556756,0.42940777437026956,3.2634440600035606,-0.8548865846063283,-0.3813183954013471,-0.5978798058026785,-0.1862786124184578,2,right
9.33,0.07209429608892515,1.4985658000673299,-0.20344150651936385,0.4269682814981589,3.262049161059716,-0.8547293371610291,-0.3757603816743184,-0.6210831968772969,-0.3343457379576004,2,right
9.331,0.05511629895684323,1.4967115556154675,-0.20230643372569485,0.27512746174939906,3.187637088246402,-0.8494447431570546,-0.35244154176317943,-0.7184207832174769,-0.9559621856804085,2,right
9.332,0.00797442483490058,1.4909938307927326,-0.19337271824457447,0.6487306171980516,3.371001418158757,-0.862550190725986,-0.34687707566740533,-0.7416101165495226,-1.1040032574067604,2,right
9.335,-0.07905938781612601,1.4790287726764082,-0.1751808663369672,0.029128240616002055,3.066802858375363,-0.84077400920688,-0.3510960330254568,-0.7240322068707995,-0.9917643705925611,2,right
9.335,-0.12910468161608712,1.468820311263749,-0.16630787138453307,0.8464377650901341,3.4680950195912743,-0.8695176231979416,-0.34855654215879617,-0.7346345920631198,-1.0594859246086004,2,right
9.34,-0.1439072481986955,1.4663383262936736,-0.164154929782922,4.276858760745132,5.152310937119216,-0.9900779548196394,-0.34957553181259776,-0.7303144897922683,-1.0318573053393778,2,right
9.341000000000001,-0.1935003997940783,1.463047265800269,-0.16003038239249376,5.09418761202228,5.553589947004571,-1.0188393995286793,-0.34962148388753667,-0.7302692490734717,-1.0316315462044585,2,right
9.342,-0.25909457422430254,1.4552666107123158,-0.15628300555633462,4.474527902911775,5.249378925767703,-0.9970277569424989,-0.3490350657615212,-0.7325073387921543,-1.0458469165748636,2,right
9.344,-0.2999930732372367,1.4523405190915954,-0.14893104781593408,4.848252113840054,5.432843205308935,-1.0101831396681114,-0.3497282158035991,-0.7298222320018644,-1.0287700644309128,2,right
9.345,-0.3327331360739562,1.4517479738396726,-0.13523829504622234,4.696214692533735,5.358189034544119,-1.0048444655332789,-0.3492036248166767,-0.7319216813935068,-1.042149344299995,2,right
9.35,-0.3509720415760381,1.4468513050452785,-0.11093903551508834,4.694020533088805,5.357184836259268,-1.0047246983397708,-0.3494391987079959,-0.7307625603033516,-1.0346871648557898,2,right
9.351,-0.35380857746093985,1.4406481626263834,-0.08330674030565463,4.773824052683706,5.396209505664666,-1.0076156501829434,-0.3494965463496126,-0.7310914370286856,-1.0369740896841666,2,right
9.355,-0.3603250324609809,1.4322952165152572,-0.06278877074275349,4.678226161292956,5.349497554546671,-1.00413664746574,-0.34921817723693593,-0.7312740898321535,-1.0378222016742225,2,right
9.356,-0.3744718265055184,1.4215719373800828,-0.037221345152199735,4.752691266624177,5.385835181559298,-1.0068700396455148,-0.34959611768508153,-0.7308982511719124,-1.0358108478036878,2,right
9.361,-0.3924995559574176,1.4100750907690094,-0.009233563947490203,4.712547406032575,5.3662217512013015,-1.0054094619666434,-0.3492772171625803,-0.7312713196912035,-1.0378841885380088,2,right
9.362,-0.4076273180098078,1.395479662320795,0.013826454551966598,4.7216447259981535,5.370878915634087,-1.0056313792484515,-0.34935412423439866,-0.730942063846464,-1.0357783522031099,2,right
9.365,-0.423317356048971,1.3818072239488126,0.041496241433419595,4.7324922788427255,5.375590457949594,-1.0063269842210978,-0.3496935502383747,-0.7313021288015955,-1.0386515070865983,2,right
9.365,-0.4414292460050849,1.369437548098475,0.06909453266293475,4.713721390799504,5.367432957274859,-1.0051265045752733,-0.34883932311806387,-0.7308067405721299,-1.0341777120625666,2,right
9.369,-0.459278970334948,1.355131683658806,0.09143312653636287,4.731436173844103,5.374831350819845,-1.0064121494050606,-0.3501324976918042,-0.7314673955108675,-1.0403506967307208,2,right
9.369,-0.47817493916510034,1.3408951827652094,0.11207909694553903,4.719503908868251,5.370008803361507,-1.0054643847179299,-0.3487504259667504,-0.730777674838906,-1.0338635048694882,2,right
9.374,-0.49403600147260945,1.322617465734703,0.13014263714626767,4.724564768475831,5.372502246572655,-1.0056377233146432,-0.3495545521480599,-0.731153180481713,-1.0374644338211676,2,right
9.375,-0.5064320299761631,1.3014743482724942,0.14549498531729915,4.725208951972408,5.370897535002834,-1.0066400463090492,-0.3502202195778473,-0.7315910172697319,-1.0412984687700133,2,right
9.38,-0.516478512445091,1.2847680730023998,0.15623914059336508,4.720950815525315,5.373197919772884,-1.0042513858376645,-0.34726186706719353,-0.7298615805724797,-1.025713743528755,2,right
9.38,-0.5244009021576548,1.271053141181178,0.15951180746124208,4.726657141181928,5.369448165730004,-1.0077922376847486,-0.35275635040567443,-0.7330352190965279,-1.054400123358152,2,right
9.383,-0.5363185218504876,1.2605380676832483,0.15519850242536057,4.721431135621685,5.37386719502307,-1.0040475484869775,-0.3456992486074876,-0.7289675407115075,-1.017613763449567,2,right
9.384,-0.5527121376342381,1.2546851044021294,0.14638552242868735,4.724462356256359,5.371318076837165,-1.0062120502379377,-0.3515917640347753,-0.7323605925655239,-1.0483053474080835,2,right
9.389,-0.5715426748989969,1.2502643589392795,0.13346605486421848,4.725163834812647,5.36818690108797,-1.0080093492421853,-0.35142906402009966,-0.7322800050915032,-1.0475495349850485,2,right
9.39,-0.5903736397571764,1.2494148576212636,0.11715432694113148,4.719613056996684,5.380682365430973,-1.00005349375084,-0.34020343536477327,-0.7257727920059833,-0.988780931203055,2,right
9.394,-0.6028068407460243,1.256670108265609,0.10518958680478996,4.73003636138977,5.35756876432816,-1.0148134111112257,-0.36779872848563505,-0.7417538639031691,-1.1331389085038164,2,right
9.395,-0.6086228894719211,1.266800388266804,0.09621396041471486,4.716803501182616,5.3873261004378605,-0.9958651039900894,-0.32204311998589197,-0.71525941337095,-0.8938092754983472,2,right
9.398,-0.6107402754500433,1.272357999777602,0.09071528331415812,4.727788940086695,5.362446677969388,-1.0116836569327052,-0.38239496904640297,-0.7502056929022869,-1.20948230940885,2,right
9.399,-0.6095022626312934,1.2739531026638047,0.08979607740647025,4.727268311156817,5.363024547563837,-1.0112435820681376,-0.6357051746301952,-0.8968938749886523,-2.534614721904644,2,right
9.4,-0.6079503059454062,1.2765820817429985,0.08316657919102138,4.707230721907176,5.41087729937693,-0.9811225340391081,-0.6960562102329719,-0.9318411106174894,-2.8502970135409704,2,right
9.404,-0.6041854963614441,1.2771993391802223,0.07299463533375854,4.756679021915618,5.293329942505009,-1.0551715921230351,-0.6503030513687145,-0.9053475525326891,-2.610958608680243,2,right
9.404,-0.5924491302648114,1.266384837072719,0.062267595179652975,4.674670478085472,5.4882401688685425,-0.9323878858157939,-0.6778931199145134,-0.9213214059336918,-2.755308368794685,2,right
9.408,-0.5833406909388508,1.2553441362055784,0.05370891315337671,4.78282694035782,5.231126666354172,-1.0943448388908186,-0.6666760329118895,-0.9148316947047572,-2.696582076734307,2,right
9.408999999999999,-0.5808497167616316,1.2512071656163208,0.05145269629435985,5.235873781832625,4.151685171204008,-1.774051842050358,-0.6665026111217741,-0.914722849747384,-2.6957412959218594,2,right
9.41,-0.572037070549807,1.2362671772530434,0.04746519089792465,5.344019603315392,3.8945295566991707,-1.9360191647872755,-0.6724043693915569,-0.9181488913852702,-2.7265498471074254,2,right
9.413,-0.5587672487871549,1.2107307870670936,0.04653721367645177,5.262059683549769,4.089503562778753,-1.813225544303523,-0.6653457205900575,-0.9140577623628062,-2.6896530830872143,2,right
9.414,-0.5470055394163769,1.1856352648624453,0.050563118389576465,5.311380912768096,3.971909008690464,-1.8872657125805414,-0.6708266528080346,-0.9172240634233966,-2.718375826950225,2,right
9.418,-0.5340751929762192,1.1630109128319852,0.04735308228242071,5.291576129768521,4.019743651950797,-1.857191410219911,-0.6679023917830336,-0.9155549867485699,-2.702911883342707,2,right
9.419,-0.5174510668104182,1.140523825463553,0.03973491018035769,5.290735632552362,4.020449355194225,-1.8566571230616025,-0.6685146060625953,-0.915867585614186,-2.706401536653015,2,right
9.423,-0.4959651155141093,1.1156154302239387,0.037686389063879666,5.302034747193478,3.9953154918760663,-1.872605659724544,-0.669378834591189,-0.9164195959115162,-2.710570478292868,2,right
9.424,-0.4700146172613399,1.0923540986944198,0.04505474925065596,5.288670597985698,4.025415079986788,-1.85353428366148,-0.6679569880537604,-0.9155549837000294,-2.7034131385355202,2,right
9.427,-0.44078468772089024,1.0694391990457885,0.06078237581088723,5.298814298305414,4.0019887435784804,-1.86833547771072,-0.6692310934341452,-0.9162927292226324,-2.7100801361551037,2,right
9.427999999999999,-0.4091472243063309,1.0463078980608977,0.08405607705615978,5.294151103191735,4.014570667447151,-1.860512552516529,-0.6684936116400712,-0.9159415632302398,-2.7057034415309094,2,right
9.433,-0.37609747585566733,1.0245918614322806,0.11066419065322028,5.2933263550919065,4.011815286365433,-1.8619285224928361,-0.66860017158207,-0.9158292374254059,-2.7074471502756907,2,right
9.434,-0.3447538464553432,1.0032110052358818,0.132355232535033,5.298230742587808,4.008247266130944,-1.8647234624198732,-0.6689972811509872,-0.9163193141610808,-2.7077544074445767,2,right
9.437999999999999,-0.3181422021441107,0.9867857493428811,0.14794750919261776,5.291509151534612,4.014311047049745,-1.8602333167041638,-0.6683703688273281,-0.9156783832947479,-2.7063623365094553,2,right
9.439,-0.29805973529787033,0.9752533161613309,0.15609089437124007,5.297208208112686,4.008661148878006,-1.864326293869412,-0.6688692710098023,-0.9161288869371845,-2.707880765139145,2,right
9.442,-0.28269999784970007,0.9659238869352257,0.15816757750294336,5.295710926109036,4.012299875832073,-1.8620396504714243,-0.6688743976176661,-0.9162679329596188,-2.7069695807834604,2,right
9.443,-0.27052751800471087,0.9595224938307259,0.1553042976973859,5.29003602530633,4.011112806823839,-1.8617946691092602,-0.6680677930560144,-0.9151985137757774,-2.7068610893740965,2,right
9.448,-0.26158360886924176,0.9549830416910311,0.14413296735641035,5.304528156759301,4.010192526941884,-1.86464232211031,-0.6697492245997985,-0.9172920552641346,-2.70803068091849,2,right
9.449,-0.25277545120571676,0.9512696288167481,0.1343080777265307,5.282544535861707,4.012435331710982,-1.859846241012951,-0.6675228542144411,-0.9145620401277319,-2.7061790112407094,2,right
9.452,-0.24285361809565634,0.945818798716936,0.12912110857957773,5.3060464125842675,4.009882887991874,-1.8650609772190188,-0.6694107246116631,-0.9168622294146975,-2.707874072135278,2,right
9.453,-0.23079409272596102,0.9361516262553271,0.12705665222163876,5.292361006996286,4.011612657304111,-1.861886738146541,-0.6693138398343166,-0.9167638634218838,-2.7075967742657325,2,right
9.457,-0.21840788368337882,0.926116659101957,0.129200915754975,5.28109203530846,4.011839128776429,-1.8599488274982532,-0.6658352121834732,-0.9124710231234139,-2.704979010211278,2,right
9.458,-0.2068007693969055,0.9151645348019779,0.13278296557576547,5.331272810224705,4.008779396897207,-1.8697368414253308,-0.6744528583365106,-0.9230808667728592,-2.7117504290514747,2,right
9.462,-0.1971597774675911,0.8959573915433908,0.1489859212019663,5.238058564865837,4.014825474662027,-1.8513489977618218,-0.6601370402764969,-0.9054586795117385,-2.7003923651276596,2,right
9.463,-0.1952679568902823,0.8814322894969169,0.16497151883508476,5.357781817147915,4.006980814251413,-1.8750128573757072,-0.6790318408334688,-0.9287242154858278,-2.715425478090155,2,right
9.467,-0.19501906875009029,0.8789139453427656,0.17002344611447046,5.25782195044939,4.013559630077999,-1.8552355430697405,-0.7582661013284218,-1.0261668609704717,-2.778270305187411,2,right
9.468,-0.19555731472806115,0.8635637707711098,0.18736816691566596,5.260569777450567,4.013261355760214,-1.8558533637946946,-0.7771686383937584,-1.0494617153303776,-2.7933228533704773,2,right
9.468,-0.20258314913495315,0.8391003542845938,0.20720515851248353,5.451023886909709,4.001119856369575,-1.8932942411444076,-0.7628394286689022,-1.0318048994324458,-2.781917495258895,2,right
9.472000000000001,-0.21396275223407218,0.8215786445135366,0.21902317489229245,4.982870769318854,4.031095982001091,-1.801171713471515,-0.7714716767660885,-1.042412979186435,-2.788773953448038,2,right
9.472999999999999,-0.2310066091236658,0.7970563683442096,0.23003717726330902,5.759090197942418,3.9813680417022463,-1.953940373473995,-0.7679841480232998,-1.0382041236231143,-2.786034135578622,2,right
9.477,-0.24148072726129777,0.778519308759039,0.23203073357570297,4.735271990778115,4.046951791130001,-1.7524371302728914,-0.7678819196950191,-1.0379108675019726,-2.78589131508958,2,right
9.477,-0.2450011320628644,0.7747602459206686,0.23145905361234967,0.43752672699381834,4.32235264187371,-0.9067595581979235,-0.7697970629090347,-1.040501847439216,-2.7874961503600826,2,right
9.478,-0.2593301508081979,0.7577742162141129,0.235742838911299,-0.5862972980029132,4.387930592432564,-0.7052673859626284,-0.767519038251227,-1.0374680786345016,-2.7856061852405465,2,right
9.482000000000001,-0.27666993262526884,0.7302648903665421,0.2363368288852551,0.18997274465989564,4.338171274514318,-0.8580221372649823,-0.7692682461752192,-1.0397190286387827,-2.7870302538001224,2,right
9.482999999999999,-0.29057528089556905,0.707585327348852,0.23519919732521896,-0.2783349598600293,4.368283149362332,-0.7659018923371692,-0.7684011814899832,-1.0388497425201382,-2.786406346859619,2,right
9.486,-0.3040662336777121,0.6877403988938462,0.2365473750743822,-0.08757809846381451,4.355845897739343,-0.8033684040428546,-0.7684207430534168,-1.0382396715480988,-2.7862121729825615,2,right
9.487,-0.3151083193607135,0.6681408730495668,0.23155526737225454,-0.08526547525652563,4.356000294677957,-0.8039216509627012,-0.7689971470909377,-1.0400402238761133,-2.7870306871374986,2,right
9.492,-0.32694918231686576,0.6495482603151967,0.2179463638840124,-0.1847744441496508,4.362077125482912,-0.7842444627396985,-0.7681663925168416,-1.0376794761920758,-2.7859288230364587,2,right
9.492,-0.34035518430896017,0.6370423925687416,0.20337445581888736,-0.06528397913763022,4.354548653901401,-0.8077991990875439,-0.7688884698120236,-1.0396347575731202,-2.7868545257558477,2,right
9.496,-0.35195683711871095,0.6244019234134962,0.19018791494668214,-0.15879927954377523,4.360799394806849,-0.7894759300167521,-0.7686238887340042,-1.0393188704838563,-2.7866471323275297,2,right
9.497,-0.35955828736401446,0.6091826695861187,0.18074011311446236,-0.10749346056836483,4.35668218985985,-0.7993173484725508,-0.7681415529339848,-1.0367456871632363,-2.7856120713509194,2,right
9.501,-0.3670396691992102,0.5949025666725185,0.17546853427419468,-0.12079490433905048,4.35896292640105,-0.7971380743610813,-0.7695107149803531,-1.0429542229590647,-2.7881897746250246,2,right
9.501,-0.378006513025123,0.5782221090046644,0.1701775737439267,-0.13188186663818113,4.357920756563621,-0.7944190763036211,-0.7674042216234797,-1.0336137030806358,-2.7842933772036,2,right
9.506,-0.39076885625563273,0.5641769955388174,0.16390491155527837,-0.11060925548684265,4.3579548849542205,-0.7990333128936653,-0.7696617739797422,-1.0435854752607812,-2.7884567518291465,2,right
9.507,-0.405239290328485,0.5495235605418267,0.15591980862359878,-0.13224948852590332,4.359353710419212,-0.7947784411637204,-0.7683383731316171,-1.037800651609195,-2.7860355801922627,2,right
9.511000000000001,-0.4200880901614662,0.5308542288043082,0.14930714157308725,-0.11445289824037395,4.355621207720175,-0.7974871041336273,-0.7672913154541491,-1.0329286611654438,-2.7840246167034923,2,right
9.512,-0.43321488354212856,0.5151544764358369,0.1489402626586553,-0.12833985273424298,4.362435522395087,-0.7965677497378978,-0.7720274561690019,-1.0544384933528252,-2.792951082217451,2,right
9.517000000000001,-0.44439450688009896,0.4977599853500394,0.15003639662703833,-0.11705547953234731,4.35287350689798,-0.7960830139898069,-0.763216193999483,-1.0145143913360246,-2.7763732188426706,2,right
9.517999999999999,-0.4545349103578975,0.4765435054734463,0.14775543769261973,-0.12563328352113343,4.362846528917806,-0.7972791231233007,-0.77453698966307,-1.0657865788733865,-2.797666672046375,2,right
9.521,-0.4635476806629275,0.45600598795374964,0.14538361922865584,-0.1229914640251782,4.357230927415611,-0.7961322047841846,-0.7650825430115437,-1.0229787289426961,-2.7798852718255205,2,right
9.521,-0.47301468209153513,0.4376295379072861,0.14304928137793899,-0.11351845557139637,4.351933723524448,-0.796560766590253,-0.7653498323824709,-1.024149696217438,-2.780380100618284,2,right
9.525,-0.4815949533794199,0.42269664485852804,0.1384607486261672,-0.1417015747226053,4.374275976246635,-0.797300062444414,-0.7833418332355955,-1.1057357167978592,-2.8142466029285234,2,right
9.525,-0.48735900619553363,0.41078524438892794,0.13143815943612214,-0.09257219742385368,4.333038946348298,-0.7953108058092664,-0.7391046487221384,-0.90519229588836,-2.7309855760761232,2,right
9.53,-0.498618838021332,0.4021418283455188,0.11964051486071947,-0.15452634220404643,4.385920906357015,-0.798088545360537,-0.8124578781555494,-1.2377069204256985,-2.8690484751493655,2,right
9.531,-0.5090195331749261,0.3981126801630954,0.11209411947594133,-0.10328145110083214,4.341797173276522,-0.795674122429938,-0.7157016498295217,-0.7991204428576936,-2.6869326956808965,2,right
9.535,-0.5113055403103688,0.39605221914129884,0.11053596329373526,-0.1039327021168716,4.3429576422602665,-0.7958876212879539,-0.30960051763608176,1.0418198800583973,-1.9225752411687775,2,right
9.536,-0.5171346209246455,0.39418355341022965,0.09998682658412802,-0.20360356747180416,4.4271865832120785,-0.8000983304750863,-0.21283633611699837,1.480408566679083,-1.7404307639752163,2,right
9.536,-0.5267279188832894,0.39492444707481256,0.08531388807879842,0.04031130293612989,4.220202542974466,-0.7895325711596046,-0.28620258736206317,1.1478897631855922,-1.8785389890791775,2,right
9.54,-0.5375832994171592,0.39341180013509014,0.07243682958142672,-0.36370943419998913,4.563388371087042,-0.8071357118812951,-0.2419530305158619,1.3484386114234863,-1.7952392018460062,2,right
9.541,-0.5452605311706396,0.38991834177015805,0.06320557558469508,0.1690466299769723,4.110711760971862,-0.783882251191611,-0.2599487419509081,1.2668474559295153,-1.8291069647212326,2,right
9.545,-0.5455584931059017,0.3899301905525782,0.060536113613122264,2.4058547175860605,2.210706702376339,-0.6864226928682929,-0.26022959521647493,1.26567881010903,-1.8296687296802332,2,right
9.545,-0.5510599422924459,0.3881685892299411,0.05087116768149906,2.9385875055699247,1.7579647863035621,-0.6631478035323359,-0.2507384488039628,1.3084903186803762,-1.811735593408791,2,right
9.546,-0.5607454784969139,0.38519987878345485,0.038057680073764324,2.534676458055456,2.1012480027784353,-0.6807988649128782,-0.2621173401668022,1.2572057598396222,-1.8332498012633527,2,right
9.551,-0.5661654663734828,0.3820718475633338,0.03429511908316559,2.7783015829014994,1.8941961517400592,-0.6701543068935445,-0.2532409902376216,1.297151408443363,-1.8164473281998572,2,right
9.552,-0.5746223110709612,0.3775272717391728,0.033107591352782406,2.679164266752728,1.9783859166154085,-0.6744687409219766,-0.25801946471665416,1.2756148493998638,-1.8254823151866364,2,right
9.554,-0.5858091772387349,0.37474396651054714,0.031542214945599056,2.677777266720226,1.9797610848763125,-0.6745797346940234,-0.2569946815095042,1.2805086828003847,-1.8236345554821525,2,right
9.555,-0.5914276574561728,0.37133056334321324,0.027472844673052662,2.729747021542711,1.935225107082704,-0.6722156709339859,-0.25554285277133215,1.2862923402307183,-1.8206411152309134,2,right
9.559,-0.5939579025943762,0.36698689760970293,0.017434470780128646,2.667483327483798,1.9886480026461482,-0.675063943056387,-0.2580536214874912,1.2762832793347836,-1.82581582426023,2,right
9.56,-0.596847604314919,0.3601878779457188,0.006327908912464878,2.71598071298956,1.946935356579211,-0.6728201512435035,-0.2556024741625166,1.2857113535641154,-1.8206516430676054,2,right
9.565,-0.5946556413451494,0.34996902866636964,-0.002137965656321954,2.6898274292897586,1.9693712487995778,-0.6740152710499232,-0.2572971661897252,1.2793705120765966,-1.8242801841385214,2,right
9.566,-0.5873301973819373,0.3409840357534726,-0.006423710287310173,2.69579656917401,1.9647325413735481,-0.6738638650652665,-0.25670072161050217,1.2820864697495378,-1.8231616308185732,2,right
9.568999999999999,-0.5824743134654036,0.33105138121593725,-0.0057399560534999875,2.702752777064056,1.9574373586500793,-0.67321194048072,-0.2561006399303416,1.2823175665420692,-1.821217703113497,2,right
9.57,-0.5788771496728122,0.31900437537219584,-0.0036495079050629054,2.6907100050152586,1.9700501891716848,-0.6743361237554177,-0.25780151563239184,1.2802950691040553,-1.8262799934024594,2,right
9.574,-0.5760709274291236,0.3096693399479127,-0.0004486422020432768,2.7020227286670995,1.9575196561290529,-0.6731086564406237,-0.25534082532535113,1.2829650131309496,-1.818872645044718,2,right
9.576,-0.5778894497216067,0.3025088983178296,0.003275982137107943,2.6944310317083016,1.9662956924625659,-0.6740245431931937,-0.25786223509535516,1.2805794889185829,-1.826577192052496,2,right
9.579,-0.5807869370161014,0.29479213539688165,0.005746591949787685,2.69773154785692,1.9635121175333052,-0.6738859702896316,-0.2564044556155106,1.281962699829792,-1.822124372290209,2,right
9.579,-0.5873143624105761,0.2896747377079791,0.010568420936206331,2.6978065464663916,1.959133978511582,-0.6727976733603074,-0.2553726363031661,1.282133704916156,-1.8187072993249944,2,right
9.584,-0.5990955308014381,0.2840500407230008,0.016017248232635325,2.6958192456003314,1.970681945544277,-0.6753634819848413,-0.2601789578628425,1.28006330811071,-1.834205189880814,2,right
9.585,-0.6120307998476795,0.27500398301473106,0.018656848262936822,2.698362273973,1.9538126090309356,-0.6715544717015531,-0.25125156192436765,1.2839684350122453,-1.805439384866825,2,right
9.589,-0.6273019024290126,0.2696299295702643,0.018527486951023325,2.6962111979324925,1.9713205632794037,-0.6755902654438642,-0.262695605773298,1.2790390211589313,-1.8423384366027835,2,right
9.589,-0.6405637969435449,0.26424107750336817,0.010539309469952778,2.697459263930947,1.961198720802056,-0.6732584883184004,-0.253150748804411,1.2831154131081801,-1.8115528748330059,2,right
9.594,-0.649187851988275,0.25927575755104104,-0.0053788984361579405,2.6972969088395353,1.953530001910562,-0.6713015141253635,-0.2534312236360343,1.2828983785379195,-1.8124224963634812,2,right
9.594,-0.6555236556207891,0.2602795904653629,-0.01959705655646568,2.6964067042121957,1.9884613950140273,-0.6799339574754217,-0.2715339996000572,1.275582078686963,-1.870953808379045,2,right
9.597999999999999,-0.6577408670138487,0.2600194598046415,-0.02921586074497886,2.6981350322168214,1.9236110349802928,-0.663922491146073,-0.227024823953178,1.293644533934382,-1.7270739154747168,2,right
9.599,-0.6546602159339685,0.2626239616551817,-0.037962973134602035,2.6960213001576783,2.0067965597614905,-0.6844765415816694,-0.30081894513438046,1.2637050376013321,-1.9656174632375638,2,right
9.604,-0.6511507891935421,0.2692144528166837,-0.04330794673125972,2.697735057686247,1.9373859007067296,-0.6673204639671448,-0.20349298826301657,1.303168145929651,-1.651003171563873,2,right
9.605,-0.649812804854485,0.27128429949692434,-0.044525227261904735,2.697567692529616,1.9393829988408393,-0.6677871666651941,0.2049965049226539,1.4685428173691348,-0.3303860064379154,2,right
9.605,-0.6440158182715269,0.27408829244031485,-0.04626553864889563,2.69483337924357,2.0712436102127043,-0.7004842263830191,0.30231017975557833,1.5079662426895764,-0.015808333047804365,2,right
9.607999999999999,-0.6356542211703302,0.27811159571842997,-0.05202071438603015,2.701634268166919,1.7470480389022889,-0.620121034169216,0.22853373999736468,1.4780895907851979,-0.2543039966148364,2,right
9.609,-0.628288338162174,0.2776601735617076,-0.0611794134920422,2.6903802640760093,2.2845804152673024,-0.7533620788719876,0.27303240931487527,1.496097853683124,-0.1104383124732014,2,right
9.613999999999999,-0.621484675140054,0.27574317336236087,-0.06511182526482447,2.7051826000162356,1.5755981584280858,-0.5776225486208804,0.25491763359998476,1.4887845231117756,-0.16904068593914115,2,right
9.615,-0.6195344795156976,0.2755342466692621,-0.06590782400382056,2.76723075942766,-1.3998107203781172,0.16012291737059303,0.2546844087382827,1.4886582282859355,-0.16971708711596167,2,right
9.616,-0.6164072367856368,0.27165524939780544,-0.06992859588061628,2.78199131497787,-2.1087402838564087,0.3358636743351858,0.2641443603754326,1.492526753080983,-0.13924084798348763,2,right
9.618,-0.6089128584628729,0.26125415749315095,-0.07218273540689626,2.770777447618702,-1.5713199504802495,0.202610547792851,0.25280629820963707,1.4879014722993635,-0.17579155117335815,2,right
9.619,-0.604964564994267,0.2512366172458149,-0.07658581812300316,2.777613476216266,-1.8953422793277626,0.2830113283624849,0.2616481612016513,1.4914949744503532,-0.14725094346543277,2,right
9.623,-0.6039285709009394,0.24260309314422587,-0.08316552308916095,2.774692217495903,-1.7636944151502263,0.25024013843453236,0.2568425537314477,1.4895791122422142,-0.1628753893115898,2,right
9.623,-0.6002301916355419,0.23159141271645237,-0.0850887312506767,2.7749023721137225,-1.7615080307847157,0.2498804717460963,0.2580298567809264,1.489967420275025,-0.15875377449781336,2,right
9.629,-0.5963392459898023,0.2202057209141831,-0.08537113320851528,2.776094628268416,-1.8309751483059824,0.2669250849163297,0.2591301709701396,1.490570307784083,-0.1556834183358274,2,right
9.629,-0.5967650234774484,0.21108474030484836,-0.08658772087513425,2.774475495648355,-1.7480018874610974,0.24642956392564896,0.2571425460322031,1.489573377552074,-0.16151243212088695,2,right
9.633,-0.5972829138547348,0.20345851278581129,-0.09346672073895437,2.7760362804555467,-1.8122620833696788,0.2625132023278607,0.25903567303434677,1.4904926816148047,-0.15586753147927368,2,right
9.634,-0.5958789348713246,0.19764708465515718,-0.10463851180109726,2.7746156929317687,-1.7782972743901941,0.25360600666897953,0.2576565608652611,1.4899357896954046,-0.16033061114653646,2,right
9.638,-0.5954741304264227,0.19490213118629868,-0.10995534690609479,2.7759799960580693,-1.7848287740495477,0.2560618184508299,0.258560277182874,1.490018247271288,-0.15652644812666772,2,right
9.638,-0.5933562563491139,0.19360956262507403,-0.11015076968257057,2.7747009024426705,-1.7957881173274632,0.2577533450909667,0.2578697685096347,1.4903861113823047,-0.1607749736191461,2,right
9.642999999999999,-0.5893207281127948,0.19388698683272115,-0.11226816090731484,2.7755413481162914,-1.778443796056945,0.25427041390946437,0.2585706967074623,1.489704169435127,-0.15550168119864816,2,right
9.644,-0.5881960402350532,0.19634305949824082,-0.11955031130304601,2.7758640176197025,-1.7934027845626384,0.2579866347069785,0.257884719987876,1.4904559514588434,-0.16092461762868465,2,right
9.648,-0.588803267770854,0.20177370189489227,-0.12974222942029545,2.7734771761898083,-1.7859352194279197,0.2546187782260936,0.2581843640808652,1.489982200365962,-0.15810478676970569,2,right
9.65,-0.5871744429771552,0.21126933198235293,-0.1414060249124224,2.7785452932546173,-1.7844584091334763,0.25771767160045134,0.2589219897173589,1.4897686666705925,-0.15412172180357475,2,right
9.652000000000001,-0.5822638640289985,0.22194783320852943,-0.15443497888195928,2.771120626359771,-1.793191281904042,0.25471390056669163,0.25647818045032567,1.4910223742157172,-0.16901194764938887,2,right
9.652999999999999,-0.5727030484877742,0.23293366338935487,-0.16393295310928474,2.778985630434199,-1.7814928865372464,0.2573234065145822,0.260868878601779,1.4886394548525388,-0.14185729212755813,2,right
9.658,-0.5612980132051186,0.2423324142223968,-0.16877090000218517,2.7744748580616116,-1.7898537370865704,0.25621307005656524,0.2552624553645712,1.491712669123348,-0.17662118059274112,2,right
9.658,-0.5503458186204748,0.2474224344876613,-0.1702750523995606,2.770481770089209,-1.7920815234091791,0.2540202896622174,0.2599306141431356,1.4891409273842506,-0.14764194116688284,2,right
9.662,-0.5354843084249594,0.24940408287923374,-0.1654175924689284,2.787764129105437,-1.7731459302210943,0.26133718598795364,0.25985246770446074,1.4892325546975018,-0.14826256613975908,2,right
9.663,-0.5210685815235054,0.24831785085087682,-0.1568602947657635,2.7557597682448427,-1.810431437271387,0.24830673499017694,0.2507920274962992,1.4940658744514743,-0.20405375007205656,2,right
9.667,-0.5132288973611097,0.24625669465436767,-0.15296529338359974,2.7968379510435426,-1.7617746109014658,0.264844033335323,0.2730056986097965,1.4821585216302533,-0.067122185758716,2,right
9.667,-0.5083279039576913,0.24283663619196133,-0.15164881815610742,2.762551706661209,-1.8027232683722094,0.25112042388767364,0.236187573775398,1.501910623892257,-0.2941063002764506,2,right
9.673,-0.5067197060872581,0.2383535257867396,-0.14786449786247352,2.7634668303323537,-1.8011125507621464,0.25136423124099816,0.2847511724388022,1.4758541022938862,0.00527458305606808,2,right
9.674,-0.5070820057013943,0.23718099859290787,-0.14609573816097077,2.8288774888392085,-1.7243699735521036,0.2778715683049303,0.4886459278648904,1.3665467609992672,1.2622223474049603,2,right
9.674,-0.5078333742381957,0.23429693775139032,-0.14639184776854347,2.6681260295726483,-1.913716192061326,0.2129051296596442,0.5372188420618703,1.3404874673589124,1.5616130919192985,2,right
9.677,-0.5134207529208429,0.22785596489514967,-0.14445508967671528,2.934650029277737,-1.599504494162709,0.32055150178106406,0.5003906365241861,1.3602425632707664,1.3346183061707504,2,right
9.677,-0.5180162605729828,0.2255034096526658,-0.14256406276519917,2.5831117888751107,-2.0140379338213936,0.17859350549554107,0.5226004811049154,1.3483363706725258,1.4715458200292038,2,right
9.682,-0.5192828131784086,0.2260996097934096,-0.14115768897520875,1.10748651304405,-3.7537663608659195,-0.41739482529632355,0.5135734592846299,1.3531597016144594,1.415790011494411,2,right
9.683,-0.5253237798809216,0.22346422531381607,-0.13918480203720396,0.7559540013875145,-4.1682992246640715,-0.5593453036113438,0.5134233997064142,1.3532727941870821,1.4150932617925247,2,right
9.683,-0.5353654587221486,0.22166379226654387,-0.14248087324676847,1.0224705819711806,-3.8540291848788675,-0.45172168644657174,0.5181946747478676,1.3506702971834978,1.444181656715645,2,right
9.686,-0.5461227062316427,0.22304573036832237,-0.15058024877311002,0.8617210901520326,-4.043584495691306,-0.5166394307040545,0.512485559973315,1.3537741103448635,1.4093090620591648,2,right
9.687000000000001,-0.5581457479807428,0.22222065702199023,-0.15451749762268496,0.9271433924491508,-3.966409276236462,-0.4902118785255198,0.516920584815565,1.3513780381463494,1.4365106410384123,2,right
9.692,-0.5707925222990033,0.22287667468596112,-0.15381416552953675,0.9280275066525799,-3.9654417926811125,-0.48986772996545525,0.5145649183565815,1.352605354803023,1.4217137192703462,2,right
9.693,-0.5826035055264567,0.22754181230428044,-0.15244323072451488,0.8937904922948644,-4.005698478876853,-0.5036781039746349,0.5150185436747177,1.3524766351190023,1.4253961518909237,2,right
9.696,-0.5953233381494121,0.23356024259692276,-0.1509999432911357,0.9348136956748277,-3.9574430509824374,-0.48712573479730537,0.5158075706908981,1.3518568585404613,1.428734026832391,2,right
9.696,-0.6088583609225948,0.24264581240268204,-0.15005689876891423,0.902844118551368,-3.9950895358671588,-0.5000302343406628,0.5145209575940419,1.352787730884526,1.4226752759144088,2,right
9.702,-0.6203494654773489,0.25254439566797127,-0.1506938016073505,0.9201482015893528,-3.974578394843016,-0.4930314852584455,0.5157008030245627,1.3519631880677494,1.4284555367296665,2,right
9.703,-0.6308164748610565,0.2593462298722671,-0.15283130744805276,0.9160412864796939,-3.979763903194429,-0.49472449569375976,0.5150144221093952,1.3523293703637425,1.4242113764221136,2,right
9.707,-0.6383124490994196,0.2635136220072021,-0.15189248873700004,0.9117515365605277,-3.9842306584436527,-0.4963978623422988,0.515029716106226,1.3526774001865294,1.427075090290124,2,right
9.708,-0.6447860546038682,0.2682374260506435,-0.14831817652964718,0.9193188519758648,-3.9760344929858,-0.4934139737969733,0.5156811986483211,1.3515143331982329,1.4247615268834615,2,right
9.711,-0.6522393570200907,0.27394093086742866,-0.1502210273059215,0.9121710200731485,-3.983882939175403,-0.4962431810966456,0.5145448044464418,1.3533373537095268,1.4271994759812956,2,right
9.712,-0.6561185241671977,0.2798232325769757,-0.1534354956916129,0.917150651435757,-3.9780058996432826,-0.49423186151344456,0.5157869708827834,1.351377773916861,1.424789422087032,2,right
9.716000000000001,-0.6627706744956372,0.28787492461669,-0.15047312045427103,0.9144587623690736,-3.9822575144284746,-0.49542473505168977,0.5150207081409283,1.3525356184163388,1.425883859619372,2,right
9.717,-0.6735897654534677,0.2966819776479693,-0.1478592702143972,0.9156434683940149,-3.9783978499866115,-0.49470442109901264,0.5146002167657329,1.3534062884141123,1.428303551734324,2,right
9.721,-0.6839290499163566,0.30427811913594577,-0.14857964611475688,0.9150658997831458,-3.9827533204049397,-0.4952985920623743,0.5168337018549134,1.349387734895641,1.4201304112984765,2,right
9.721,-0.6963825772388108,0.3109715980808051,-0.14680833665628412,0.9154597681459167,-3.9783713803519993,-0.49475463686383697,0.5126204017885407,1.3568772340766992,1.4348513030568706,2,right
9.727,-0.7054291622494666,0.3161477874606219,-0.1448652324976918,0.9155825564645643,-3.980490727540016,-0.4949277559337576,0.5180469067322733,1.3472527295427374,1.416046971364017,2,right
9.727,-0.7092482891656647,0.3200803697791421,-0.14810138962755376,0.9139538210901361,-3.9843613494649244,-0.4957764284363124,0.5135093291504955,1.3552898570210778,1.431705938858292,2,right
9.731,-0.7114644195388764,0.3238281776957497,-0.1518136291900241,0.9182419404735866,-3.9707668594431142,-0.49320697498383964,0.5136587882013303,1.3550622644553194,1.4314345334174132,2,right
9.732000000000001,-0.7097877581588232,0.32594121970057627,-0.15225889130427195,0.9108029274980146,-3.995374210383561,-0.4977656091485218,0.5222252835367085,1.3397727182534769,1.4010763453861388,2,right
9.735,-0.7037018394616913,0.3268070914920865,-0.14849547448804779,0.9202388009582558,-3.963912664527266,-0.49195818416558534,0.5011370002446347,1.377361999080785,1.4755131423561925,2,right
9.736,-0.6957948325771115,0.3301083326160016,-0.14004570683796552,0.9124096047885106,-3.990123411841723,-0.49678817336863845,0.5361123864580077,1.3150373686744514,1.3521402042398907,2,right
9.74,-0.6918616127013496,0.33395441674724813,-0.13695239088640623,0.9124390210278144,-3.9896245587225505,-0.4967284857709065,0.4899775217592657,1.3972404187274325,1.51486452126192,2,right
9.741,-0.690006924989471,0.3361555893193932,-0.1372857278382013,0.9279625336759725,-3.938955216702074,-0.48728463605001027,0.29642134297619116,1.7423598729782515,2.198129388919339,2,right
9.742,-0.684836801541661,0.34290570355484973,-0.13382086289625944,0.8900266364491911,-4.063246009008671,-0.510413747676999,0.250291823331666,1.8245645723292996,2.360873711595592,2,right
9.746,-0.6803319941993455,0.3585125451107437,-0.1390453148211311,0.9528642308880699,-3.8572303680009057,-0.4720845940782576,0.2852538529469192,1.7622266219810288,2.2374771552398176,2,right
9.746,-0.6779933896245165,0.37024830923746865,-0.1471709068754049,0.8699957856614351,-4.128958542701364,-0.5226412248926803,0.26419019608796324,1.7998560832117494,2.3119127099554415,2,right
9.75,-0.67506719540874,0.37308615684665414,-0.15039544305164215,0.5219023825604236,-5.269833639392667,-0.7349538816061165,0.2727205699918611,1.7844882211810753,2.281611909305321,2,right
9.751,-0.669909313927842,0.3856236419757685,-0.16348753441294933,0.4390450562369349,-5.541586600652216,-0.7855274182018417,0.2729108023720724,1.7843728610000813,2.281207400703188,2,right
9.752,-0.6613536902128172,0.405750722392111,-0.1805545843796346,0.501847274812798,-5.335545605163379,-0.7471746853723321,0.2683443438504668,1.7922941235630399,2.2970649185693826,2,right
9.755,-0.6490657897020994,0.4207763663214313,-0.19066351203944076,0.46398949393753786,-5.459821016152519,-0.7703155715628032,0.2737626603894178,1.7827287203107134,2.27805324484037,2,right
9.756,-0.632711973658093,0.4369361785845267,-0.1958498823384136,0.47938243484068666,-5.409251312784203,-0.76089377865089,0.2696215040155787,1.7902972206123884,2.2928814783519487,2,right
9.761000000000001,-0.6131335961731973,0.4533377271508039,-0.19505967021500578,0.47957890174644113,-5.4085452115082955,-0.7607608347234299,0.27170392573581903,1.7859871183983693,2.284845190983706,2,right
9.762,-0.5960776000456514,0.4661503752451106,-0.19111117483780374,0.47160137548371406,-5.43504739640564,-0.7657165140404834,0.27149806783187447,1.7873826833286066,2.2867531725722507,2,right
9.765,-0.5848596604445604,0.4782412067042638,-0.18746053185429434,0.4810710452639808,-5.403302777691482,-0.7597581254073084,0.2705163938097833,1.7878712990687702,2.288769542513569,2,right
9.766,-0.5746800245718557,0.48946822891064573,-0.18489180156501722,0.4738289924534068,-5.428019012972225,-0.7644298157661362,0.27185892865616784,1.786483245855341,2.2851853154421775,2,right
9.77,-0.5666545691269601,0.5011223244468967,-0.18486769414416926,0.4776006131853856,-5.414698148799241,-0.7618795742737627,0.27088754775246937,1.7882238314112895,2.288623218037559,2,right
9.77,-0.560676547005333,0.5143932836978777,-0.18862564203812887,0.4767971074710663,-5.417739894942672,-0.7624764123499546,0.27097633790549447,1.7862007402982671,2.286171566456513,2,right
9.774,-0.550229882848158,0.5277815331382565,-0.1924555142886658,0.47597392901060775,-5.4212576045313305,-0.7631912608793914,0.27197984111931106,1.788673324021401,2.2875169103082924,2,right
9.775,-0.5388706804268371,0.5400505271898535,-0.19158714231687468,0.4770235096405397,-5.41519118382778,-0.7618680255298127,0.27005793217724305,1.7857421338313122,2.287009247942217,2,right
9.779,-0.5259021405107667,0.5496185292790203,-0.1879093460268261,0.47667755756260266,-5.420842329253877,-0.7632543563890353,0.27226221950675955,1.7885896544819868,2.2870019231988463,2,right
9.779,-0.5086932334328227,0.556702060468997,-0.18102429743224766,0.4761284063467982,-5.417102994812003,-0.7621478868358054,0.2708842469103865,1.7871302406270604,2.287373622342379,2,right
9.783999999999999,-0.49384319797911175,0.5623905194841854,-0.1739341353560289,0.47698773603672384,-5.418700703637535,-0.762772491918259,0.2700208329750459,1.7852942790502964,2.286551721059581,2,right
9.785,-0.47995003707645867,0.5660129905657911,-0.1701678713318406,0.4770027257587335,-5.4186912547822255,-0.7627736257823021,0.2743981318899248,1.7922631031428629,2.288041605828388,2,right
9.789,-0.46933513805216276,0.5679668462530296,-0.16416830365674542,0.4747316700376856,-5.417944736977351,-0.7620275678085864,0.26613886207950177,1.779591299182134,2.285775934312792,2,right
9.79,-0.46337333992662905,0.5677954741791207,-0.1566110579898607,0.48020646703801473,-5.41871634163061,-0.7635586152719533,0.27679533360718866,1.7957716653366926,2.2885067038998823,2,right
9.794,-0.45572016297933293,0.5657801004049631,-0.1489600776781844,0.4718043015849924,-5.418335085964484,-0.7614178774685263,0.2678768940941282,1.7823019382228307,2.2863010471433913,2,right
9.794,-0.45530821334716587,0.5635091208219701,-0.13946210462509118,0.480898429589932,-5.418291701637065,-0.7636161721156876,0.26815230706610826,1.7826072080513895,2.286247874878741,2,right
9.799,-0.4603533399135802,0.5599578459562249,-0.13225455927964364,0.4756000123926443,-5.418459887920632,-0.7623727439853077,0.2850677261899613,1.8084489593249022,2.290755042607138,2,right
9.8,-0.46232779783907935,0.553975462269409,-0.12577159896240842,0.4710142320506335,-5.418667275740236,-0.7613121527106199,0.24344194297522073,1.7450190000473471,2.2798376043144755,2,right
9.804,-0.4704153255557222,0.5444531947279294,-0.1147901575745828,0.4911362624131816,-5.417591770621926,-0.765921829952213,0.312478955816093,1.850156173219597,2.297882307065369,2,right
9.805,-0.47833895427887996,0.5372870845767551,-0.10760859724221743,0.45376939867145566,-5.419749621103389,-0.7574038485004563,0.22141124035156978,1.7114928437813477,2.274096764438998,2,right
9.809,-0.48106958585646753,0.5352476985794474,-0.10636961184846297,0.5017851648365724,-5.416866441733298,-0.7683201132526873,-0.16080989660419767,1.129406807220843,2.1742085588182127,2,right
9.81,-0.4905452750701688,0.5292571706847087,-0.09910056164407018,0.46168391494614064,-5.419320373939266,-0.7592158835831893,-0.25188328064699805,0.990746213697201,2.150406775875002,2,right
9.811,-0.5071033543147079,0.5205275789102557,-0.09048957026370323,0.46276738559099273,-5.419268219722927,-0.7594638216452707,-0.18283410532874986,1.0958732247302851,2.168465212385885,2,right
9.814,-0.5247447750698988,0.5133876050492071,-0.08776758809315953,0.539264145842793,-5.414465438788105,-0.7768035213357314,-0.22447891240460185,1.0324676495208793,2.1575680484080184,2,right
9.815,-0.5407878592859997,0.5044217525589263,-0.08495183772984449,0.3512356812726722,-5.426283641743762,-0.7341893889303748,-0.20753980878440467,1.0582666285724232,2.1619889111291983,2,right
9.818,-0.5568883774504996,0.49359886862606056,-0.08068858942016019,0.6630049323477695,-5.4066676106723355,-0.8048401853336962,-0.20728594227197783,1.0586287942130428,2.1621027163240507,2,right
9.818999999999999,-0.5673498383309215,0.4872143599186325,-0.07850189754803867,0.2517756550292365,-5.432557205349127,-0.7116562861091873,-0.21619703775983887,1.0451056187597043,2.159672632819892,2,right
9.82,-0.5693068329887294,0.48614175392038333,-0.07735982102190245,-1.4743738834992792,-5.541536339996712,-0.32054259664320167,-0.20551846361498127,1.0613040728819887,2.162608169588948,2,right
9.824,-0.5749563939162734,0.4806849744777265,-0.07227997049134302,-1.8856095535322956,-5.5674561573668,-0.22736314477295327,-0.21384189527352743,1.0486897095420498,2.1602888927350508,2,right
9.825,-0.5819155106382443,0.4723071210500706,-0.06468893212290266,-1.5738302559799053,-5.547765112300793,-0.2980053015155935,-0.20935770510614315,1.0554926605180228,2.1615228839980567,2,right
9.828,-0.5828048251327973,0.4647812346719026,-0.054537124071360896,-1.7618671764118576,-5.559720759580399,-0.25540289759955337,-0.21034890531965889,1.0539323796496203,2.1613875295078837,2,right
9.829,-0.5844319046121265,0.45599572003635935,-0.04386004253581665,-1.6853705032621058,-5.554717450990867,-0.272730606142527,-0.2116296229010446,1.0521447922079028,2.1606545256948944,2,right
9.833,-0.5894450776431261,0.450649818879474,-0.03914245166194232,-1.6842715758035234,-5.554890329673915,-0.27298567064099344,-0.20941415284533765,1.0552391172440454,2.16191977111217,2,right
9.833,-0.5945961494830359,0.44554993633249224,-0.03510668698403224,-1.724407213357514,-5.557186881397534,-0.26388617427357275,-0.21153998757247897,1.0523441636633697,2.1605219797988813,2,right
9.839,-0.6017019538678967,0.43882061698038216,-0.032391706519558666,-1.6763419313887251,-5.554253975584132,-0.2747790491623383,-0.21008937347588255,1.0542806181049844,2.1615726258143666,2,right
9.84,-0.6094989684285629,0.4340946379705395,-0.034363552764610256,-1.713758524864784,-5.556816652707134,-0.2663058436083414,-0.21065205633661616,1.0534211103697342,2.1614313433032444,2,right
9.843,-0.6139914684244203,0.42920311430324826,-0.03596582540889698,-1.6936136489352958,-5.5549004501797405,-0.2708556827100235,-0.21094878709968926,1.0534751802091193,2.1601080973609244,2,right
9.844,-0.618794733872144,0.426931691309685,-0.037131469084062424,-1.6981605863388443,-5.556296235900431,-0.2698503594334436,-0.20996050451765033,1.0538244709013238,2.163213602339746,2,right
9.847999999999999,-0.6228022369824462,0.42428639947634433,-0.03757266580668313,-1.7035897374695865,-5.55527945810859,-0.2685897409906844,-0.21136265825369238,1.0534129031023411,2.1585992401494614,2,right
9.85,-0.6219604024328849,0.41766946048794473,-0.03667124479769239,-1.6942674508030984,-5.555774247590951,-0.27072628113952113,-0.20996366864839092,1.0537062908810566,2.1634936441624304,2,right
9.852,-0.6190509847740289,0.4101206899154064,-0.032892197041326184,-1.7029525916683412,-5.556332348788115,-0.2687585072853621,-0.2107729002673805,1.0535347553892978,2.1606647590815538,2,right
9.853,-0.6188573297496811,0.39378812309220623,-0.023194284755723528,-1.6972477933102899,-5.553962319567999,-0.27000633856628475,-0.21125874364649977,1.0537112906031667,2.1582835740875117,2,right
9.857000000000001,-0.6232897267033464,0.36552142337372323,-0.006386455805274212,-1.6995268453863397,-5.558698799301334,-0.2695924257135381,-0.2088586864960031,1.0533598005171845,2.1687806532762437,2,right
9.857999999999999,-0.6361791823760468,0.33333307393601674,0.019520148113463906,-1.6999159132397827,-5.551872490575679,-0.2693512410455533,-0.21332292471479847,1.053989592387206,2.1493084041884023,2,right
9.862,-0.6693044381354456,0.30087836808613394,0.0477303431882137,-1.6981142583641593,-5.559061442718987,-0.2699228066452508,-0.20760856799846011,1.0531553921802006,2.17430891526306,2,right
9.863,-0.7174283783074852,0.26570597208239966,0.06900226537964504,-1.700085840755058,-5.5549670953860275,-0.26938131626932654,-0.21237066612315608,1.0538620949260362,2.1534366008380568,2,right
9.868,-0.7748875412440954,0.23307470478450573,0.08358963542932248,-1.6988921222467925,-5.551253007140371,-0.2695713267061888,-0.2122206747141659,1.0538815562477164,2.1540139179763047,2,right
9.869,-0.8374595665310617,0.21005886199858712,0.09190710484885416,-1.6987778183136797,-5.5671662713887855,-0.2699519552802623,-0.20323253549377532,1.0523777818501192,2.1937723160389675,2,right
9.872,-0.8945190956849622,0.19570678226209304,0.09488935756761022,-1.7002523456690093,-5.537736522461739,-0.26895891672106687,-0.22533880961534203,1.0560392491745318,2.096033982481904,2,right
9.873,-0.9617573474707922,0.19732015267060593,0.09833307186659745,-1.697902111647383,-5.5754950519033155,-0.2703386619329612,-0.18868885151389053,1.0499718175814388,2.2580966391295147,2,right
9.878,-1.006564021168368,0.20261342298680327,0.10331425665549844,-1.7000603614349963,-5.543987507001312,-0.2691406313551955,-0.23702324454153045,1.0579785937629183,2.0443318789838187,2,right
9.879,-1.0171958134893209,0.20540738828494096,0.10359280170184076,-1.6996959949782613,-5.544814445807557,-0.2692464514500148,-0.4398790734825444,1.0918173928473565,1.1472669898317869,2,right
9.879,-1.0571690900617128,0.2247138848622507,0.10061598282418821,-1.6963922746501914,-5.604960209564863,-0.2713369880979072,-0.4882058420149341,1.0998426756058255,0.9335117096452791,2,right
9.883,-1.1101870085131802,0.25215122982120297,0.09626142275561594,-1.7049599046966493,-5.457170218441342,-0.2660894420128572,-0.45156492690659655,1.093730183093052,1.0955380354976116,2,right
9.883,-1.15106775985873,0.28861256093749466,0.08483316962977064,-1.6905796646454387,-5.702193195636081,-0.274834984400426,-0.4736715268677681,1.0974727203466965,0.9978881561415103,2,right
9.886000000000001,-1.1782826623987517,0.3183933848103514,0.07818833094604785,-1.709615751158926,-5.379019959475671,-0.26328011699147624,-0.46466182053259597,1.0958525306558737,1.0374901775479564,2,right
9.887,-1.1841989030988436,0.32400853319804024,0.0757683762806232,-1.7889843430507475,-4.0222805378890065,-0.21501955282361127,-0.4645621060501306,1.0960003302245274,1.0382767607345778,2,right
9.888,-1.1935762794151579,0.34789283198517407,0.040998839079818314,-1.808019106158424,-3.6991003179689392,-0.2034693711246453,-0.46924901630006804,1.0966208125197752,1.01720623748966,2,right
9.892000000000001,-1.1698424083633059,0.38393740804473314,-0.03035916408237593,-1.7936448506378067,-3.9441548731919225,-0.21219367601430345,-0.46361340553906666,1.0957503188372606,1.042276920148368,2,right
9.892000000000001,-1.0852826672048446,0.40254214539995103,-0.08993710617349027,-1.8021968995015234,-3.7962826690790066,-0.20700146879946224,-0.46803646932126897,1.096622603521726,1.02301060474944,2,right
9.896,-0.9825848295774754,0.42148240792104696,-0.09564863002123378,-1.7989216744432925,-3.8565787835989953,-0.20899076038532383,-0.46558537990099186,1.0957795964116972,1.0329031389572538,2,right
9.897,-0.8897099878022622,0.45224161068064417,-0.052428162676435595,-1.7985182063428036,-3.857199411240062,-0.2092355498534151,-0.4662641379963941,1.0966402480282125,1.0315329807936138,2,right
9.902000000000001,-0.8248275564688403,0.5070160548084632,0.008438857988597365,-1.800714738776911,-3.825893853177373,-0.20790141125744557,-0.4667247910551924,1.0958004206438887,1.02749365409882,2,right
9.902000000000001,-0.7930078162460925,0.5951694770172296,0.0769063073738746,-1.7983485935403656,-3.8635684375048243,-0.20933781670660034,-0.465770745467124,1.0963718653051608,1.0333089862429796,2,right
9.907,-0.7894368188852359,0.7140771011684488,0.15328498756825149,-1.7997887426444152,-3.833957289256123,-0.20846679786544506,-0.46679260530102995,1.096548502410612,1.0288039717005302,2,right
9.908,-0.80547259520468,0.8615387682037434,0.20433076572672293,-1.7997831369282125,-3.850444086068114,-0.20846127589237012,-0.46585966779136073,1.0950385362577504,1.0299682742447418,2,right
9.911,-0.8331959457621707,1.0260223522440637,0.18562718788815963,-1.7984027679886347,-3.8457451725757337,-0.20931456255672382,-0.4667276022652925,1.0982786428714593,1.0328982270541966,2,right
9.912,-0.8755129819468563,1.189477035949722,0.08550137720211373,-1.8006031361487138,-3.8428579562890675,-0.20795985154357943,-0.4658779343813083,1.0935191404896099,1.0265583691347246,2,right
9.916,-0.9148555637819931,1.3341424039032552,-0.0845458471617586,-1.7986192857301697,-3.8490856188439677,-0.20917935095396736,-0.4666208586006716,1.0985658401391614,1.0340372759200354,2,right
9.917,-0.943207475647706,1.4467262892491402,-0.29225863685927056,-1.7990063134619585,-3.8422485007025156,-0.20894468829280782,-0.46630074385981535,1.0956677481696107,1.029232757208128,2,right
9.921,-0.9602129171846098,1.5321317290999525,-0.48506308389914854,-1.8016244807133721,-3.8487743044786797,-0.20732647676076343,-0.4656854272673236,1.0931140082409256,1.026593543379244,2,right
9.923,-0.961244272898642,1.6053130527990171,-0.6174712830507156,-1.795145351961621,-3.8423186425386953,-0.2113255126208553,-0.46775233290031293,1.1041881809077148,1.0409157864643057,2,right
9.926,-0.9506133834213867,1.6800957626054527,-0.6568756220360903,-1.80498522730137,-3.8489694524752243,-0.20525388770189332,-0.46406702917132525,1.083674792501506,1.0137000582995286,2,right
9.927999999999999,-0.9060814573122608,1.770784299451052,-0.5960700007861349,-1.7944324470577833,-3.842971888452517,-0.21176483162259616,-0.4687460333943373,1.1100070022543753,1.0488826356181922,2,right
9.93,-0.8365405039204603,1.865186999680225,-0.45886795422739884,-1.8005717713582494,-3.8457019987463656,-0.20797730392738328,-0.4648619464371962,1.088025944151883,1.0194103004508421,2,right
9.931000000000001,-0.7172743271583355,1.9667671410955616,-0.2777905713567659,-1.8057334415063107,-3.8503415726374075,-0.20479173270045678,-0.4649331764594408,1.0886183382404877,1.020362793365753,2,right
9.935,-0.5422757631627781,2.077089431413814,-0.09624094264706967,-1.7829035331930565,-3.834258067395523,-0.21887925610016867,-0.4724297427347772,1.130539415831831,1.0761491720300418,2,right
9.936,-0.3590533979510976,2.1851723071706655,0.0489614477874598,-1.825297361937623,-3.863082245290281,-0.19271995175765377,-0.4540526360785807,1.0275043784313962,0.9388085880007146,2,right
9.94,-0.10861769522140373,2.3287599354011803,0.14957715158131787,-1.7708431943183884,-3.82643987703471,-0.22632110345281303,-0.48450505396145893,1.198342970337551,1.1666111415291747,2,right
9.941,0.06440860896472077,2.4351943990132368,0.201115422122571,-1.816309531421211,-3.85686211875461,-0.19826577594989048,-0.44434404269325,0.9730038751882681,0.8661085188448254,2,right
9.946,0.10791799234047197,2.4612088466155795,0.2077817999558178,-1.8150733138865909,-3.856311735231972,-0.19902899005166624,-0.27575656190495146,0.027198803713674585,-0.3951070722651923,2,right
9.946,0.2711439656968191,2.5427556979369594,0.21147764853690393,-1.7283954916214255,-3.797588390436921,-0.2525132718204048,-0.2355945095851518,-0.1981487465099196,-0.6956183285374825,2,right
9.947000000000001,0.46605857356892055,2.63902765715104,0.18945910411358013,-1.9414419432963816,-3.9415024461254364,-0.12105269609025446,-0.26604403445233415,-0.027301679093421752,-0.4677886537336514,2,right
9.951,0.5956974198055682,2.635714121392885,0.07933879999189018,-1.5882073164387416,-3.7030818252983875,-0.33901739586689833,-0.24768159288062586,-0.13033085588586413,-0.6051886633829939,2,right
9.952,0.6890260822661574,2.6122203576830145,-0.007447253961306373,-2.0541094597524445,-4.017433883305284,-0.05152979450083241,-0.25514507261459074,-0.08844503200025644,-0.5493034337541401,2,right
9.955,0.7066473764003631,2.597127768719227,-0.03319398003112767,-4.0098011902448505,-5.3375221984644945,1.1552356270153168,-0.2552678847151466,-0.08778006497821661,-0.5484768930515276,2,right
9.956,0.7449845978428545,2.5075040344844,-0.12595455852422044,-4.475665324613987,-5.651666491627955,1.4427024329097817,-0.2513255377251388,-0.10986255204693839,-0.5778380817349955,2,right
9.956,0.7583361090697358,2.3429183518259125,-0.21899961700811296,-4.122488753403086,-5.41359378119096,1.2247694151415944,-0.25604294829812546,-0.08343262019394199,-0.5426794419400045,2,right
9.96,0.6684885537751639,2.1425775170477994,-0.22641827840381198,-4.335490870431228,-5.557157228534704,1.3562060228859283,-0.2523774850970055,-0.10398208308061169,-0.5700459163444402,2,right
9.961,0.5354424343789443,1.9090868606817681,-0.18130645710815513,-4.248800282714539,-5.498587305876201,1.302714162297928,-0.2543275085683125,-0.09300586015863375,-0.5553319634884828,2,right
9.965,0.3743993626300708,1.6588505697097404,-0.08902996500002004,-4.247674134619773,-5.498307451448314,1.3020120515391604,-0.2539443579222239,-0.09526822197194515,-0.5585944557709195,2,right
9.966000000000001,0.21788808199686208,1.407339437727603,0.01882165339358575,-4.292916519215181,-5.527860920887966,1.3299439033001588,-0.253306158846469,-0.09865466283248206,-0.5626875459720226,2,right
9.97,0.07858597303699637,1.159396641311511,0.11217125591230306,-4.238767975616596,-5.4926843684957944,1.296510510299779,-0.2543524186283267,-0.0930231952870034,-0.5556967337946364,2,right
9.972000000000001,-0.059394774542295005,0.9256615601110747,0.1674263219636717,-4.280876512544552,-5.519760547783033,1.3225142278708806,-0.2533909575011734,-0.09822715020075296,-0.5622227127557655,2,right
9.974,-0.18423972596161742,0.7113024548718698,0.16433711010778784,-4.258137697464374,-5.504988861681649,1.30847437537499,-0.25395848956437606,-0.09504108782496315,-0.5579699509573391,2,right
9.975,-0.2927282440052096,0.5206659268842497,0.12106379737965618,-4.263614095950272,-5.509824728067231,1.3118362008381288,-0.25391997615909945,-0.095611354872591,-0.5594991501488314,2,right
9.98,-0.38520798386556726,0.3559926155424138,0.05858218530023588,-4.268865933721339,-5.509706511651194,1.3151328311833375,-0.2534406194275549,-0.09749143833686252,-0.5602499512742316,2,right
9.981,-0.46562216505293275,0.21706471522934398,0.0035089142698083563,-4.2597688016546424,-5.50986972196068,1.3094230866415622,-0.2542916192896302,-0.09392438729864713,-0.5581131047922885,2,right
9.985,-0.5487122510708645,0.10820976868747599,-0.02236369046029714,-4.267900871734879,-5.507628193363521,1.3145591568160526,-0.2533591416340931,-0.09786876149074795,-0.5605804408424188,2,right
9.986,-0.6441504039406041,0.024929180914985,-0.0162055422483364,-4.2626660653475135,-5.510255561938216,1.31123483758272,-0.25393786167673404,-0.09536571213247713,-0.5588555637293693,2,right
9.99,-0.7571609634683758,-0.03727705198902993,0.01408397412357218,-4.26556461491922,-5.5122666107239215,1.3130225624806373,-0.2542388704322386,-0.09431803556432439,-0.5588507246762578,2,right
