time,gFx,gFy,gFz,ax,ay,az,wx,wy,wz,subject_number,foot
0.9440000000000001,0.4026859606832136,0.3999175749404319,0.2949832337178666,0.19738725407881938,-2.0838792187980086,1.410350342709778,0.07245673855377752,-1.4942323568475246,0.0669063373490962,4,left
0.9490000000000001,0.4021813693138517,0.3952369915713386,0.29663571876797845,0.2157370655720537,-2.122734122615558,1.4223145881403916,0.07419215983031521,-1.49413792624954,0.06445687006646067,4,left
0.95,0.39920587445653455,0.38781844917134745,0.29718009941508394,0.19372627199801573,-2.0761138181286003,1.4079842733502577,0.07119022405883049,-1.4943011003876594,0.0686920527720613,4,left
0.9540000000000001,0.3989877570232443,0.3821273805929674,0.2935542396234812,0.21092093024668268,-2.1125422120638424,1.419137061735852,0.07408350937146765,-1.4940852138442144,0.06451956195916889,4,left
0.9540000000000001,0.3979588879740583,0.3784320669569722,0.28885722011584614,0.20148289885066162,-2.092530706169212,1.4131520230172627,0.07210244842549363,-1.4942638040501501,0.06742402260532446,4,left
0.9590000000000001,0.3954312459884247,0.3748952518144687,0.2886941393257383,0.20403077991548557,-2.097965953077538,1.4144496227846515,0.07285241414536879,-1.4942800194959525,0.06645512384939357,4,left
0.96,0.3991045117663774,0.3726871661768003,0.2915860488831814,0.20577209476051173,-2.1015963977255225,1.4161730602062015,0.07333463929105458,-1.49388728053498,0.06520463031704202,4,left
0.965,0.4024604285756304,0.37113676931429795,0.293413818249575,0.20239298073972312,-2.0945068844957593,1.4132552805018501,0.07181890803411461,-1.4947771921087825,0.06859853423811574,4,left
0.965,0.4052798374138564,0.3699113882244859,0.29298104860278235,0.20568826705848398,-2.101434007638317,1.415970005225816,0.07398392777931445,-1.4934474975807346,0.06366000481353776,4,left
0.9690000000000001,0.4107870348344791,0.36958635340096574,0.2877642603895098,0.20299706004645857,-2.095730907072473,1.4142380704254174,0.07180354562487642,-1.4948676636357587,0.06875938281335775,4,left
0.9690000000000001,0.41584944624128806,0.3715638336644983,0.2781195047675273,0.2054895682598501,-2.101114144212593,1.414755914149432,0.07306470327556247,-1.4940468147710944,0.06581099223672801,4,left
0.9740000000000001,0.4190573455260466,0.3790253602345288,0.2695781386962557,0.2024727037185033,-2.0944897039437897,1.4153022418389298,0.07386908036092388,-1.4933346669830563,0.06363662923020058,4,left
0.975,0.4178960575127424,0.38817323335480847,0.2631545951209086,0.20633171686845228,-2.1030122016252886,1.414072823310794,0.06998276348764756,-1.4964462183666678,0.07362858197265132,4,left
0.978,0.4175432505748141,0.394320595430346,0.2562587158866223,0.20233735173928258,-2.094180281452789,1.4154605986113087,0.0772081052440072,-1.4906753597095772,0.05507422120971992,4,left
0.9790000000000001,0.42168782857876097,0.40118748119792924,0.2489130637207763,0.20445664268265662,-2.0988837030075147,1.4145370201661005,0.06795395112234098,-1.4980866904943855,0.07886914548124724,4,left
0.983,0.42546171065806726,0.40872649171745823,0.24408868685428892,0.2072181950556864,-2.1049181113975894,1.4143438579372576,0.07566899437260746,-1.4918979102765935,0.059016820345413355,4,left
0.9840000000000001,0.42753546339590465,0.41341709924186487,0.23998085754672346,0.19666213444783578,-2.0817492029688944,1.4161760821116116,0.07543063224688082,-1.4920677611121445,0.05959511135372664,4,left
0.988,0.43040864797930994,0.41668627504435374,0.23455126338726814,0.2159624644186648,-2.124131769053722,1.4126002929238797,0.06084602403892665,-1.5038638349219497,0.09727911196633067,4,left
0.988,0.4356029606295361,0.42127281651289733,0.22920195149350978,0.19124165249470548,-2.069840879059829,1.4172313870358586,0.09671530277580428,-1.4748653261388567,0.004622652710834896,4,left
0.992,0.43894747507074294,0.42738388754296996,0.21931933861513564,0.21185505906352164,-2.1151139406440462,1.4133495545385928,0.03724491171705431,-1.5229500004056562,0.1582514971545227,4,left
0.993,0.43812216107777,0.4314790977881797,0.21000101205406213,0.21139257949679166,-2.114088865407248,1.4135152177035049,0.11567848075779,-1.4595235681284202,-0.04437695448009114,4,left
0.9940000000000001,0.4377886451284029,0.43389796281262294,0.20839451556087188,0.17177312900205416,-2.0271020854287407,1.420717027006706,0.4448247163578929,-1.1933762729126505,-0.8947273955614037,4,left
0.998,0.43593234283928683,0.44101456854321697,0.2048000220035998,0.26904104603660495,-2.2406717054588747,1.4029456342080628,0.5232465995423496,-1.1299527726978322,-1.097337767412411,4,left
0.9990000000000001,0.42921687793221464,0.4530628424941574,0.19766048317078144,0.10779455032565692,-1.8866206642676218,1.4324282544652918,0.46379516420384514,-1.1780234749344825,-0.9437467951170773,4,left
1.003,0.42522856739193576,0.4602923543599161,0.19398438789266115,0.32047640046575354,-2.3536109960824456,1.3935409142941273,0.4996468929855107,-1.1490620125580207,-1.036345836069243,4,left
1.003,0.42388216426352027,0.4624113505898378,0.19332349021526757,1.2133198259702276,-4.313981160218317,1.2303567230208134,0.48506643997822846,-1.1607897470453286,-0.9987306602510554,4,left
1.004,0.41652259287579846,0.4711845069581835,0.19213913216279188,1.4260131290257148,-4.780993635211839,1.1914757666479343,0.4848499315793898,-1.1610539539355393,-0.9980936114453115,4,left
1.008,0.4058492611956407,0.4828120432291358,0.18892408980159747,1.264757227772937,-4.42693225877826,1.2209568597698663,0.4925089861523808,-1.154772066120848,-1.0179586659133042,4,left
1.0090000000000001,0.395824814573739,0.49050348154904144,0.18706727910634302,1.3620098563542613,-4.640444516740889,1.2031637849805141,0.4833413827622217,-1.162223426205288,-0.9942403996356098,4,left
1.013,0.38314142358053294,0.49892329821246434,0.18752117243904565,1.3224533116953574,-4.553636678561912,1.2104277888844654,0.49047218650647395,-1.1565331321552552,-1.0125957909803027,4,left
1.014,0.36855695026116864,0.5078027793027845,0.18807744684837968,1.3218700478625158,-4.552293041255888,1.2104858765698063,0.48664333916525715,-1.159384871677902,-1.0029202746767418,4,left
1.0170000000000001,0.3547681723006758,0.5160893451492223,0.189560660246117,1.3426449732061858,-4.597969652606767,1.2067372742193623,0.48748930735623314,-1.1591218096310625,-1.0047329274127572,4,left
1.018,0.3393120115930892,0.5234441655471496,0.1929473516297658,1.3177778883842366,-4.543343367413172,1.211261943894061,0.48855011139266274,-1.1577473533608318,-1.0079312426579716,4,left
1.022,0.32296507482578674,0.5284529702143634,0.19911479277976404,1.3371142837608634,-4.585747243950836,1.2076833390091894,0.48675224886504176,-1.159613080918644,-1.0029215778463203,4,left
1.024,0.30792629920437475,0.5325545600275297,0.2106341530944718,1.3267461558368412,-4.5631507006252665,1.2097192500193388,0.48840823632095676,-1.1582775749009009,-1.0071963646426,4,left
1.0270000000000001,0.29081403915396997,0.5366059601353443,0.2244196403831369,1.3290095505913775,-4.567830566402385,1.2090631533295622,0.4873576556828329,-1.158362943785649,-1.0051598628575285,4,left
1.028,0.272994015311791,0.5385864411590573,0.237137336921472,1.3319263134407846,-4.574590189220089,1.2088275478352388,0.48770716804950515,-1.159826840808587,-1.00451447106642,4,left
1.033,0.2575672756666575,0.5370586330397152,0.2544361464928946,1.3270179033391933,-4.563529765452591,1.2094874981554886,0.48790822842366416,-1.1570585999261365,-1.0073435123742789,4,left
1.034,0.24110220008180988,0.535452963207177,0.27264946183934125,1.3315090364546769,-4.573388205756331,1.2086642840037873,0.48742943218175866,-1.1602236291656616,-1.00364484053366,4,left
1.038,0.2233851029313993,0.536692803731825,0.286430491515387,1.3287202196931571,-4.567790406150467,1.2096149719057343,0.48788359255616237,-1.1582510559536519,-1.0062398266334704,4,left
1.0390000000000001,0.2056765790509526,0.5394910972676072,0.3024472745225694,1.3295293661052658,-4.568366251441743,1.2084595388997046,0.48772313430643216,-1.1569978367328402,-1.0070530558678064,4,left
1.041,0.1864297275196475,0.5426073603586961,0.32004501533970964,1.3302819512232271,-4.571809868520452,1.2098250328605347,0.48740689328212977,-1.1633079055439772,-1.0008674763712873,4,left
1.042,0.16725227368172607,0.548199551643091,0.33574286172038686,1.3287624461287706,-4.5665642525672325,1.2085004901366014,0.48823430184594624,-1.1514102374769524,-1.01295918283494,4,left
1.046,0.14773874764998574,0.5577931840502008,0.35073535439080583,1.330121496494458,-4.570651216864134,1.209177822291294,0.4870845752273296,-1.166758767382077,-0.9972092787066557,4,left
1.047,0.12873727984300434,0.5685244917394208,0.3644867481255163,1.3297973882151055,-4.5708910934763445,1.2100353125904983,0.4880820697788112,-1.1539134931751,-1.0104524600822455,4,left
1.052,0.11035294916312795,0.5797266336150294,0.37641210773002853,1.3284562917147147,-4.563783814551304,1.2067873712622665,0.4879962125192409,-1.1543113609320477,-1.009948633395462,4,left
1.053,0.08940846644213482,0.5912709054797326,0.3851559246188086,1.3315956847776345,-4.5783959490634,1.2126913258626397,0.4862501083635332,-1.1786724086919214,-0.9850833460620209,4,left
1.056,0.07110148748817907,0.6022832387274843,0.3903182522345546,1.327329002311287,-4.559116692349377,1.2051535473627084,0.49062837307608353,-1.1187206899158288,-1.0464092713894257,4,left
1.057,0.05513109648107534,0.6147840743115771,0.39385286684272935,1.3309912583654548,-4.575431155849662,1.2114279563120909,0.48333443005064974,-1.2181553272892418,-0.9446490066994204,4,left
1.061,0.04278978535145611,0.6237732751378842,0.39584645225062254,1.330737018332283,-4.5746509119953025,1.2112869037812186,0.4929701106371997,-1.0869853870636792,-1.0788987318211194,4,left
1.063,0.04017855763835397,0.6262088161445173,0.3962720050876192,1.32416566760209,-4.544442325042632,1.1992466009944578,0.5333277352304417,-0.536518497104459,-1.6423010374330074,4,left
1.064,0.03540326852979763,0.6354722986319425,0.39509046629956446,1.340543168804011,-4.619183262954262,1.2287980004734727,0.5429717983112693,-0.405334896602238,-1.776555282380139,4,left
1.065,0.026081677947482024,0.6537875352276246,0.39168885949353,1.3133008572253657,-4.495070490584995,1.1798172244127763,0.535662263234528,-0.5047895880537878,-1.6747732747879454,4,left
1.0659999999999998,0.022826636690169624,0.6627484834027897,0.38994412935884215,1.3492689725862088,-4.658848345318776,1.244415153403041,0.5400601823256198,-0.4448248077888118,-1.736157033110871,4,left
1.071,0.02136456083857463,0.6654548566462419,0.38886437808828334,1.5001258176022483,-5.3460441759525485,1.515586597420322,0.5382965313461754,-0.46917534650162385,-1.7111849042201768,4,left
1.072,0.019221808438596416,0.6765209167611701,0.38345115079191444,1.5361174767907284,-5.509858683586474,1.580177189880205,0.5382166082469066,-0.4696215567515693,-1.7108287473995674,4,left
1.073,0.01932927195904731,0.6870969433949823,0.3770106130754973,1.508819329813695,-5.385649933581886,1.531211987626476,0.5392310698733451,-0.4566863687540572,-1.7239260209124874,4,left
1.0759999999999998,0.019896982605223386,0.695259612156421,0.3707692290504506,1.525294687602687,-5.460575281477878,1.5607393585971443,0.5380326264210364,-0.4721501658889533,-1.70823919443255,4,left
1.077,0.023055027379947714,0.7044309356101401,0.3621933484209677,1.5185861193595183,-5.430086964937082,1.5487284866731914,0.5389401460086914,-0.4601549791329843,-1.7204563560692345,4,left
1.08,0.027770026618147967,0.7091751093019059,0.35370378395722973,1.5184790008840388,-5.429633838108645,1.5485613619452518,0.5385295800245232,-0.4664761699315902,-1.7138648188135102,4,left
1.081,0.03189102898155545,0.7138972736055398,0.3460439522046589,1.5220489026669175,-5.445699258357698,1.5548433279509741,0.5384387237991173,-0.4653765431684837,-1.7153805333145902,4,left
1.085,0.040758422499920885,0.7172338773509579,0.33726590441908033,1.5177260534163264,-5.426393219670324,1.5473352802786358,0.5389059430156323,-0.46303178608914725,-1.7171087033936445,4,left
1.0859999999999999,0.05392116024320533,0.7174415036361312,0.32815096901968727,1.52116476659033,-5.441527172935324,1.5531572202834918,0.5382698800303141,-0.4667677905286116,-1.7141089101760367,4,left
1.092,0.06791747674885551,0.7206288259002315,0.32023179082226505,1.5192380220948336,-5.433267101445091,1.5500431765301887,0.5388073537490847,-0.46337369162217124,-1.7169260162410822,4,left
1.093,0.08227244922645824,0.7225551440094945,0.3148525177165795,1.5197099840829693,-5.435197702202074,1.5507436049491172,0.538673981026504,-0.4652249145921,-1.715025143461089,4,left
1.097,0.09757809426180786,0.7226777098360174,0.31133153148826426,1.5203163834562918,-5.43751973712571,1.551535882351421,0.538113929063018,-0.46557022288683003,-1.7158911549606561,4,left
1.097,0.11523815222107714,0.7250915473200271,0.3078865652910754,1.5190632746988757,-5.433220791642718,1.5502355669352013,0.5395298283042831,-0.46292831314229455,-1.7158087975768979,4,left
1.1,0.1321972512741688,0.7261512296810534,0.30140734463747293,1.5205852972428302,-5.437731170903442,1.5513348671208762,0.5373849801888335,-0.46731320081519073,-1.7154773684687368,4,left
1.1,0.14828440763343986,0.7290553224862785,0.2912020191989018,1.5191412762902772,-5.434123431904714,1.5507452932851484,0.5396775450545126,-0.4625563212324179,-1.71591537452516,4,left
1.105,0.16674013395815251,0.7370181402127589,0.2835274623342162,1.5201090122032743,-5.436165315677815,1.550886560926876,0.5383431903382337,-0.46543518482925506,-1.7155284416286656,4,left
1.1059999999999999,0.1848230850000654,0.7445398773886285,0.2744924111288248,1.5201147587713573,-5.436169653267722,1.5508821983597953,0.5372408549745821,-0.46727081123122327,-1.7158575400013634,4,left
1.111,0.20032426928025998,0.7534158536563917,0.26076483796085836,1.518612254102388,-5.433716817236355,1.5511471741777116,0.5421438048737938,-0.45818007946435885,-1.7155022634966024,4,left
1.111,0.216716049377704,0.7639860161260705,0.24911326544997617,1.5219217751441527,-5.438758543595201,1.5503195835131,0.5330368342171377,-0.47522944576329706,-1.7159648870319968,4,left
1.115,0.23475632023890355,0.7738020108972957,0.23583278457382903,1.5170867091894489,-5.431701295967341,1.5517371094155439,0.5447341746916035,-0.4532948576531203,-1.71541547229117,4,left
1.1159999999999999,0.25117279689455874,0.7851286902576108,0.21979415486686887,1.5221812626537947,-5.438953463868097,1.5501191815674176,0.5349667500766919,-0.47162359191319825,-1.7158552319084641,4,left
1.12,0.26756676931589446,0.7946612366581798,0.20230798031152364,1.519256810902025,-5.434849113316394,1.5510878758481463,0.5352375274543809,-0.47106257117813677,-1.715914245768612,4,left
1.12,0.2831525644546727,0.8027597326979861,0.18249839916853472,1.5167434270131448,-5.43134968558649,1.5519382401660602,0.5538422722415873,-0.4363277685543251,-1.714845348723086,4,left
1.125,0.29637220973290335,0.812174769290681,0.16378367291203344,1.5277194826368476,-5.4465658018004985,1.5481777953671045,0.5081053993000648,-0.521776885656518,-1.7173869353391433,4,left
1.126,0.3138055486053276,0.8202946022216574,0.14321990836428605,1.5073865087352873,-5.418444839629823,1.5551899407342642,0.5839426624368829,-0.3800803348027595,-1.7131971211118346,4,left
1.13,0.3268997658660521,0.8255401384206842,0.12857268102115227,1.5334795750873509,-5.454486840428945,1.546159753343656,0.4839121169060027,-0.5669772341171693,-1.7187191797808774,4,left
1.131,0.3292598284384799,0.8267443946706523,0.12523832878913832,1.511702841820646,-5.424423781348127,1.5537090549062134,0.06408756917224213,-1.3514253067753508,-1.7420778929482097,4,left
1.131,0.3404759591924144,0.8280047787553354,0.11702094581975715,1.512292166449853,-5.425250132288314,1.5535097678493597,-0.03594065467285909,-1.538315268492468,-1.7476117266535922,4,left
1.135,0.3587987258396377,0.8315611674917163,0.10361343291673325,1.553804484386359,-5.482489885795081,1.5390813404163999,0.03988823942816842,-1.3966207606243235,-1.7433985961843752,4,left
1.136,0.37163773849920234,0.8336324425166551,0.09509472304765709,1.4517779308901164,-5.341801926722393,1.5745446636821692,-0.005828842785199469,-1.4820920827377102,-1.7459727994188103,4,left
1.139,0.3885984471837983,0.8356089735593026,0.08755812271047866,1.6209372454304327,-5.575061614794433,1.5157420451792687,0.01274146417475722,-1.4472924895455446,-1.7448689300411082,4,left
1.139,0.40218548532417864,0.8371366755675537,0.08039393215052362,1.3978210980273857,-5.2673990816296286,1.5933045961261523,0.013057765915799865,-1.4468442233585268,-1.7449515960599324,4,left
1.14,0.4039243484515802,0.8372153434873826,0.07578367688982277,0.4612781885228131,-3.976296713679959,1.9189937481096269,0.0032479444152586382,-1.465032627172446,-1.745398750952487,4,left
1.1440000000000001,0.41027982161508014,0.8394247699765789,0.07429953023733524,0.23816403976228032,-3.6686569279042693,1.9965652217368488,0.014958929362305768,-1.4432111274212034,-1.7447903750140168,4,left
1.1440000000000001,0.4212650713018967,0.8403775537771802,0.07802425956460687,0.40732249993281633,-3.9018507933009383,1.937736876959448,0.005899132080936906,-1.460261188898754,-1.7453742528263294,4,left
1.149,0.42566943248194744,0.8407464033810103,0.07951885702289922,0.3052904909098265,-3.7612994459194264,1.973253457849637,0.01066810094207276,-1.4509593085861592,-1.7448488298866984,4,left
1.15,0.4267584064980153,0.8461918102747494,0.07618537256519926,0.34681953338521787,-3.8183199017065084,1.9587396877792782,0.009787014184666033,-1.4532789133493091,-1.7453461962622483,4,left
1.1540000000000001,0.4286314545279683,0.8492793569458998,0.07441875591395697,0.3473792539124957,-3.8194170555319737,1.958645618895372,0.008190854457071921,-1.4554352433231916,-1.7448849633898864,4,left
1.155,0.4273728178835225,0.8509378932983144,0.07105827279204704,0.3256398587290297,-3.7891266795948164,1.9661068333225706,0.01067789216671921,-1.4514467989778863,-1.745185137300528,4,left
1.159,0.4209334485775598,0.8565300641803677,0.06436837681453864,0.351702123949376,-3.825193983813165,1.9570859499983335,0.008567499024235184,-1.4553958018874953,-1.745305777869191,4,left
1.16,0.4130131262326868,0.8626200019346988,0.060817594403265667,0.3313705946422994,-3.797435464754754,1.9642396920757716,0.009547403611153766,-1.452343059759353,-1.7444396041411665,4,left
1.1640000000000001,0.4016534765928369,0.8717164584799488,0.059865016516272,0.34240039151973384,-3.811769527593718,1.960135729962788,0.0099244744457954,-1.4544309672093594,-1.7462743463465022,4,left
1.1640000000000001,0.3867961893435472,0.879731480150707,0.05842960889770625,0.3397608528531224,-3.8096313870203544,1.961515437152639,0.008440503709244776,-1.4530375906394084,-1.743588008062217,4,left
1.168,0.3727821470005035,0.8880354656907293,0.060507223086724696,0.3370270991547235,-3.804021689053134,1.9618997330602963,0.010359648924511754,-1.4538933072301878,-1.7464335088743628,4,left
1.169,0.358409704321241,0.8966453264031107,0.0617502871915891,0.3419159678435256,-3.812229038717171,1.9606510280506513,0.009024609460480853,-1.4538207558045935,-1.7448009337476282,4,left
1.173,0.34258977969408594,0.9068806409635153,0.06668696764066828,0.33720248206009446,-3.805743233104941,1.9622940452316957,0.008576934578018534,-1.4524465256892989,-1.7433578176051767,4,left
1.173,0.3249900949240817,0.9253375398210792,0.07619259418682109,0.3406107975653848,-3.8077214256550866,1.9602717026391892,0.011833466332689497,-1.456041379433787,-1.7496082966961652,4,left
1.179,0.3032517977689422,0.9454949744177519,0.07938836970568192,0.3386583148178734,-3.811248122364596,1.9628638077868692,0.005487615755364164,-1.449945637437811,-1.7380309877462812,4,left
1.18,0.2749130980997125,0.9843948705838811,0.08506076382738147,0.3395155837884941,-3.803152323159959,1.9597115651753156,0.013746606590973405,-1.4575680678009422,-1.7528933805290228,4,left
1.183,0.23875479780400155,1.0331369131468393,0.08336249100689892,0.3393538897621494,-3.8128207067387687,1.962810484567577,0.006804662311869799,-1.4512894556113198,-1.7404842043814381,4,left
1.1840000000000002,0.17641576410592497,1.1119868004764073,0.11461121572876279,0.3389429125222727,-3.806536877205264,1.9611950635362796,0.007065086258647209,-1.4513300713852642,-1.7408250109485395,4,left
1.189,0.09859016222749659,1.2369934669907237,0.16530868035847276,0.34015687177785237,-3.803288645706291,1.9592580795798344,0.0201092312322753,-1.4636476089469492,-1.7644763029070738,4,left
1.1909999999999998,0.029156221569532407,1.3868687917475695,0.15099777191044073,0.3377372615063253,-3.821506887212259,1.9667309719865675,-0.012056973813545466,-1.4335564411072155,-1.7063315222515865,4,left
1.193,-0.045898821806481194,1.6281175489788522,0.1700873716106866,0.34154081104753653,-3.7867728572147015,1.9531093998611724,0.04131637057232968,-1.4833841323461758,-1.802751101505645,4,left
1.194,-0.0849618461653356,1.806665042496685,0.2131909557883575,0.3369033479455472,-3.8317183959828873,1.9705151985772236,-0.029098263435105333,-1.4176786839717748,-1.6755579242840282,4,left
1.198,-0.09670750792793532,1.8547349035136165,0.24116209827591775,0.34067064379431267,-3.7940438118334607,1.9560191412039791,-0.32460062572194387,-1.1418278591338977,-1.141754352012499,4,left
1.198,-0.10908977209478854,2.0291037361638393,0.3886334414628044,0.34072954911167225,-3.7953036970779332,1.9563580766459683,-0.3950210595476485,-1.0761022122122958,-1.0145170682198799,4,left
1.199,-0.0875972898309312,2.249725156095106,0.6157936311831698,0.33311830187161107,-3.866508305635657,1.9841419247253231,-0.3416314883460341,-1.125948096096663,-1.1110051950521616,4,left
1.203,-0.031965104241755526,2.4058836950598534,0.8209504823101734,0.3515928524233575,-3.6911366584550005,1.9159283927346922,-0.3738305563029237,-1.0958782067745378,-1.0528047937768967,4,left
1.204,0.1322693339353672,2.5497819538818502,0.8728648248854047,0.32104955584874795,-3.982063697068529,2.029003078558429,-0.36073455594251724,-1.1080965213101879,-1.0764498765321175,4,left
1.208,0.285316350576735,2.605949502814808,0.8088110312955397,0.3613033153786567,-3.5982521960024973,1.8798646748078163,-0.3605371572214743,-1.1083327696360963,-1.0769056456956496,4,left
1.209,0.331141862447632,2.605582784530831,0.7698753924980898,0.5303977668037118,-1.9875747398558226,1.2538384893786891,-0.36742760451248224,-1.101787956017756,-1.0642502894732404,4,left
1.209,0.5262973642540782,2.526647685426619,0.5425699762404461,0.5706436149774021,-1.603660707636351,1.1046900878250947,-0.3591713433089969,-1.1096576137656435,-1.0794594419574288,4,left
1.214,0.8268534001801193,2.2875060761934454,0.13037161718087345,0.5401286580538739,-1.8947700452616814,1.2177748459401263,-0.3656061734884513,-1.103488345019609,-1.067543805114447,4,left
1.215,1.0579536846285686,1.9777537307593103,-0.24656495044296514,0.5585364025151323,-1.7191878054500271,1.1495680656858496,-0.36213955227231465,-1.1067945345970323,-1.0739313656579368,4,left
1.218,1.2364143145457327,1.6796302619320929,-0.5926648590740848,0.5510412010707821,-1.7905455789276723,1.1773105948477074,-0.36290658648272023,-1.1062187573956215,-1.072794716682954,4,left
1.218,1.3193374566622675,1.407167992117086,-0.8670451756231925,0.5509469129963385,-1.7918240644095638,1.1777348006486856,-0.3638942524495089,-1.104845091708219,-1.0702094875222568,4,left
1.222,1.3284018478087445,1.1628417234144737,-1.0190859846868536,0.554856602998953,-1.7538440695421271,1.163119390339815,-0.36218594474967136,-1.107218222935506,-1.0746749219909257,4,left
1.222,1.290902110594399,0.9404711920583888,-1.0477626579052077,0.550173842768715,-1.7994419201015157,1.1806404095622183,-0.3638237535554202,-1.104733872941779,-1.0700238756160307,4,left
1.228,1.2007437412441386,0.7423214707190846,-0.9598207689648721,0.5538177441789689,-1.7637798374035816,1.1669758598730264,-0.36270689305531245,-1.1065382198711924,-1.0733905018766179,4,left
1.228,1.0895971369069894,0.5663785483128689,-0.8011702398405867,0.551849935170897,-1.7829278782202302,1.1743342910383743,-0.3631419494019593,-1.106139026968601,-1.0726165746454739,4,left
1.232,0.9593889155271123,0.4064338142243824,-0.6000844083895616,0.5523188667952788,-1.779247654193723,1.1727393018529702,-0.3633626380539887,-1.1045189142211287,-1.069714834540699,4,left
1.2329999999999999,0.8141713615957951,0.26321626166530254,-0.3857122394668856,0.5527883266715264,-1.7722531879272008,1.1705497995319176,-0.3626185783160544,-1.10844500348504,-1.0767792273177963,4,left
1.237,0.6588857742505555,0.13971471063795993,-0.17884953182840385,0.5519744136162197,-1.7843386342139196,1.1743370837580498,-0.36367270680666,-1.1026402114220906,-1.0663413192286004,4,left
1.238,0.490005453332909,0.04342142987072632,0.012604306680859313,0.552711744249199,-1.7720081818655216,1.1706603002840237,-0.36262305532938577,-1.10875893856474,-1.0773345772495921,4,left
1.242,0.3030129471770132,-0.01978428310741253,0.1760442027493941,0.5522315098790253,-1.780808942957089,1.1731917128341185,-0.3632301744869058,-1.1052233107814406,-1.0709814744978836,4,left
1.242,0.1001242685276153,-0.044927289739734706,0.3114621736322929,0.5524820521627577,-1.7784606501922138,1.1722716399429913,-0.36358999412686943,-1.1023269631387618,-1.0658005512908018,4,left
1.247,-0.11116338208130334,-0.0295553949735818,0.4205454182635373,0.5523137830281535,-1.7722264814152227,1.171496516366836,-0.36180395489605377,-1.1151974946215093,-1.0888568212035405,4,left
1.248,-0.32491683179143716,0.023199707578600157,0.5031643567325027,0.5525605245870614,-1.7877818064686792,1.173775780902896,-0.3651263113838156,-1.0913205529144132,-1.0460802815522796,4,left
1.253,-0.5145121092190842,0.11611655724724163,0.5637614134580768,0.5521609936727255,-1.764879162620728,1.170493845915824,-0.3608742769546696,-1.121965555614524,-1.1009822852697733,4,left
1.254,-0.6700245731767265,0.22915923273676747,0.60203719848513,0.5526287460470507,-1.7888919262460603,1.1738354964853248,-0.36441725240913486,-1.0963895612566976,-1.0551593764895482,4,left
1.2570000000000001,-0.7740696904144481,0.3587610631834446,0.6244944969165144,0.5523596006326508,-1.7750107591417277,1.171903567964102,-0.3643056076256651,-1.0970927072769712,-1.056428920754982,4,left
1.258,-0.8157073630458573,0.49920990320932657,0.6395273758256435,0.5520317654020798,-1.7639462068428369,1.1705838481527397,-0.35761979469157634,-1.1458050229731036,-1.1436756086324102,4,left
1.262,-0.8177888083619993,0.6291547952546593,0.6515203962823456,0.5533407987882608,-1.8135426066211187,1.1768056131480766,-0.37406284639584964,-1.0260740157006072,-0.9292140291375148,4,left
1.263,-0.7513719274987767,0.7874189590007046,0.6775127834370533,0.5509210189260014,-1.7215016700235934,1.1652464551862103,-0.34680276403766014,-1.224585494746181,-1.2847962774934816,4,left
1.2670000000000001,-0.6775517376020266,0.8971822644332244,0.6995921551427433,0.5540341434659249,-1.8396189915614425,1.1800586406685445,-0.38275292862706445,-0.9627590054463268,-0.8157947500024891,4,left
1.268,-0.6589102504613402,0.922442947731903,0.7059368851331349,0.5514341856418321,-1.7410329792244523,1.1677080457802775,-0.5336488211150788,0.13636035793849277,1.1527979885265673,4,left
1.2690000000000001,-0.5638518502367523,1.0236858221399476,0.7308748398056117,0.5514887330149731,-1.7438177374803887,1.1680737134944454,-0.5695936965919265,0.39818588453364817,1.6217888488883472,4,left
1.272,-0.4136198228294902,1.159520590081361,0.7614560065790379,0.5565026836717605,-1.9313466732908806,1.1914803094688735,-0.5423378566995387,0.19966036261024595,1.2662193171529712,4,left
1.273,-0.29248786212514555,1.2501887933476898,0.7799842162913386,0.5441985465193961,-1.4703070515684367,1.133932522113125,-0.5587883270879366,0.3194451956099651,1.4806811225431527,4,left
1.276,-0.1294511669243217,1.353399691447585,0.7918214868370017,0.5645909225142969,-2.2347593456751165,1.2293388310332163,-0.5520727246928072,0.27061927454187196,1.3934047350839187,4,left
1.2770000000000001,-0.02052373342857489,1.4108256726970931,0.7910785522783874,0.5377003265169221,-1.2264385845019137,1.1035151253824882,-0.5520179558836439,0.2700869780095723,1.3922048278941181,4,left
1.2770000000000001,0.0032380408126115,1.4197082099680536,0.7877683571809613,0.4246958380566519,3.00532924112223,0.5753772432907965,-0.555485162558119,0.29547692282914445,1.4379232992216924,4,left
1.281,0.09490707978166613,1.4484469769502863,0.7729347293411089,0.39781715453818867,4.013676111459714,0.4495795716489236,-0.5513013593701879,0.2649435985524681,1.3831310308462934,4,left
1.2819999999999998,0.2013765842627115,1.4559018469673919,0.7409789170405916,0.41819846442757225,3.249212989586593,0.544950939439745,-0.5546076783939676,0.28890900159997723,1.4258495644978915,4,left
1.286,0.2532070011601,1.414505518216586,0.7093438834724698,0.40588297032908666,3.7101801633013904,0.487416433023515,-0.5527321676467236,0.2756277032311936,1.4027236261805018,4,left
1.287,0.28911368215740085,1.340313265350494,0.6742649694574212,0.4109529810437531,3.522872138915725,0.5108669965478798,-0.5533270644090367,0.27930554422224824,1.4081712113347868,4,left
1.2930000000000001,0.30754937575908753,1.23852164303737,0.6315404621216576,0.41089579862303915,3.5196970465209176,0.5111050162843438,-0.5535593145718013,0.28180217365032045,1.4140408860349596,4,left
1.294,0.3185648685702783,1.125032501562741,0.5836284376022792,0.40844892058224375,3.6187746768559315,0.49896390076754676,-0.5529376448163216,0.27663189862015847,1.4036663163376717,4,left
1.296,0.32323967983490426,1.013633748161482,0.5316387963041089,0.41141850122501145,3.500252801786386,0.5135344381056197,-0.5536985407951394,0.2821686587791945,1.413573111072452,4,left
1.297,0.32121061569694576,0.9101513932493644,0.4749235966931341,0.40904414555575946,3.5923104535481056,0.5021409236798384,-0.5528413148375522,0.2771162422102485,1.406590995200499,4,left
1.3019999999999998,0.3188147293539406,0.8195408562395904,0.412068740125727,0.4105144919378473,3.543425171852016,0.5084287612313484,-0.5538600067985928,0.2818127186890328,1.410279038270125,4,left
1.3030000000000002,0.31144548379876347,0.7437675155177587,0.3508339057198583,0.40973247892675135,3.5528247109722204,0.5066529031902404,-0.5526714339319958,0.2772188205905417,1.409097588414781,4,left
1.307,0.30610735872721906,0.684537030077448,0.2925704665343657,0.4102087469899515,3.569219612063818,0.5056450203208089,-0.5538173250151485,0.28123312724774285,1.408776159837565,4,left
1.308,0.29686138851652255,0.6426380866334824,0.24230885123168808,0.409801136070305,3.542498929775176,0.5077060153909293,-0.5532364565908514,0.2795058616967958,1.4100218619248546,4,left
1.31,0.2860411546044517,0.620314331794595,0.20738681823577917,0.41004057674160954,3.5669973349276507,0.5056640487558233,-0.5524831769415434,0.2761757272630785,1.4078000964926198,4,left
1.311,0.28277712059134785,0.6157836046589523,0.17937271181353642,0.4104285940970526,3.5527522513374725,0.5074504108038639,-0.5553139775122866,0.2873529337305792,1.4114437527330832,4,left
1.3159999999999998,0.2851749400512882,0.6237272868329975,0.16070787837005673,0.40876358644358524,3.553052495193217,0.5055301228176172,-0.5501742725070373,0.26742766121163125,1.4061228317231804,4,left
1.317,0.2991030720509746,0.6472480723349467,0.15399225764736124,0.4121886488947414,3.5666100328207864,0.50814159906854,-0.5567342955005017,0.29272278233037774,1.4124377721269197,4,left
1.319,0.3179761509150619,0.6829179795010736,0.1510479335639106,0.4071698880692596,3.5429732828797103,0.5046710012352519,-0.5512743155822373,0.2717284479498555,1.4073839369749408,4,left
1.32,0.34578397370844083,0.7269720355915876,0.15088453671877,0.4125033990005748,3.5688060170258815,0.5082919964312249,-0.5513965185100369,0.27210585826659783,1.4071848967425737,4,left
1.3259999999999998,0.3808182281271995,0.7745031496709787,0.14995475309652107,0.40944778588267744,3.55287587191539,0.5063240804863789,-0.5618757212231548,0.312644661461577,1.4177152296442885,4,left
1.3259999999999998,0.4106484022673493,0.8152685803487998,0.14405461473131642,0.4066833391784914,3.5441160616184977,0.5040103364098403,-0.5361559483859327,0.21328288296020376,1.3923178074211966,4,left
1.329,0.46228599288302563,0.8603514539938313,0.1337840423326327,0.4185693760120805,3.590593071639974,0.5131271951035105,-0.5787868495870689,0.3779221366839389,1.434246100797611,4,left
1.33,0.5039993040567665,0.8917724315980187,0.12682981432280066,0.39656386354445883,3.5029307984520432,0.496400619113501,-0.5225615128465639,0.16080600335526482,1.379007191054699,4,left
1.335,0.5165922258865028,0.8985262493322843,0.12457328946499713,0.4248131668393209,3.6158248655125913,0.5178397412077389,-0.28653881309187745,-0.7507099388324462,1.1468936926099524,4,left
1.3359999999999999,0.5673209536836384,0.9238204926891825,0.11751029449492002,0.4012299107195443,3.521438790247476,0.4999542687532342,-0.23031294953494363,-0.9678071890416189,1.091660039814179,4,left
1.3359999999999999,0.6416212954562623,0.9564648461344223,0.11163596378577187,0.4018613113359437,3.524512559330973,0.5003830392973986,-0.2729421003908899,-0.8032161993587701,1.1335465381138006,4,left
1.339,0.7038289339624905,0.9735928369695848,0.1122077750153681,0.44685846527213335,3.7027912536957093,0.5346760855725359,-0.24723076299603391,-0.9024871603357387,1.1082748460891616,4,left
1.34,0.7653314299252756,0.9897881849506561,0.11525484780620841,0.33626341684683714,3.2639863602325,0.450445938996154,-0.25769113144549594,-0.862083836122886,1.1185603807980786,4,left
1.344,0.8194276953743871,0.9925103062827857,0.11963522195766149,0.5196412665315595,3.9917113918846074,0.5900970984105947,-0.25784253938883694,-0.8615507080874707,1.1187119111512684,4,left
1.344,0.8481309738608849,0.9865650618936486,0.12111478296865004,0.27775669348015397,3.0318223036661247,0.40588623035629295,-0.2523497476470344,-0.8826596004650675,1.113296450931355,4,left
1.345,0.8555186287990303,0.9850262012587274,0.12106051055576035,-0.7374506299450938,-0.9964359009163044,-0.3672767986973499,-0.25893112498566934,-0.8573861933744426,1.1197953458738752,4,left
1.35,0.873270638863582,0.9687791749262067,0.12459301903203028,-0.9793546816665438,-1.9562813078729466,-0.5515179657969175,-0.25380322525656307,-0.8770499372078286,1.1147221510564465,4,left
1.35,0.8906554125951547,0.9346583984021112,0.13186528864711755,-0.7959557577142264,-1.2286035404290372,-0.41183402306976163,-0.2565672559093522,-0.8664351255825173,1.1174541328484926,4,left
1.354,0.8914990400601082,0.8906497224616978,0.1402276570210952,-0.9065427894502402,-1.6674263944909702,-0.49605170790572845,-0.25594573602204507,-0.8689532257578803,1.1168724449311016,4,left
1.355,0.888766012391117,0.8376326558223057,0.15367133387066712,-0.8616155448277936,-1.488990962237437,-0.4618673885506229,-0.25518514792742475,-0.8715121911451105,1.116028389959497,4,left
1.358,0.8775116933864138,0.781015541026181,0.17906269378287432,-0.8608337274211294,-1.4862544535643878,-0.461204669999431,-0.25650135069879476,-0.867079824738922,1.1174897370374617,4,left
1.359,0.8550643089438935,0.7257256545955706,0.21229086560249794,-0.8846326491575854,-1.5801569505779731,-0.47942558307968497,-0.2552520869093297,-0.8711066765771294,1.1160552548100344,4,left
1.364,0.8230083685966337,0.6777921960055892,0.24881682862089435,-0.8561685898364392,-1.4677444455971105,-0.4576524238147323,-0.2560973309961927,-0.8684779247272908,1.1170510957783457,4,left
1.365,0.7872091426716561,0.6399976343919893,0.28547063163796316,-0.8782667619930957,-1.5551988982624518,-0.47452314609304425,-0.25574949259833035,-0.8698271442064436,1.116710595134733,4,left
1.371,0.7513552939192677,0.6125452913401528,0.31640352405642436,-0.8665651468686747,-1.5083084468264762,-0.46569309346937315,-0.2556596822042002,-0.8689946679889606,1.1163157826023808,4,left
1.371,0.710963461175915,0.5963121370083477,0.33888391104255006,-0.8687355347902419,-1.5184002056359094,-0.4670828953501152,-0.2560563999933274,-0.8701570263485668,1.1174065502622799,4,left
1.375,0.6686088708423954,0.5886339243192666,0.35486574896734296,-0.8728147275617189,-1.5320352690721113,-0.4706428364303269,-0.25550917898395487,-0.8682512260773193,1.1158229811334617,4,left
1.375,0.6260100831806069,0.5887766232666289,0.3694213579724206,-0.8662250369569287,-1.5090192587713267,-0.4650679912087007,-0.256033340334629,-0.8705108757393962,1.117452990798184,4,left
1.38,0.5841540421642966,0.5931191765617224,0.37960265487845274,-0.872245270773155,-1.530410256797298,-0.4700963461441073,-0.2557300868712525,-0.869207602157213,1.116510838381583,4,left
1.38,0.5453565359790002,0.5979145849117358,0.3820203050737033,-0.8688291659903981,-1.516832989863731,-0.46749862903450534,-0.2555988845160454,-0.867578764995464,1.115826373334253,4,left
1.3840000000000001,0.5132769573160705,0.6029664758177684,0.3820198412203615,-0.8686356280588672,-1.5206996178026264,-0.46652841336890416,-0.25634103911672634,-0.8740533429173323,1.118986446296756,4,left
1.385,0.49153979977557777,0.6083255949825392,0.3803980768147168,-0.8724949471927032,-1.5254214966431463,-0.47134803679372217,-0.25495693842853073,-0.8620784286403472,1.1131186446030337,4,left
1.3880000000000001,0.47999333937165634,0.6169833388221899,0.3762931304239613,-0.8659192142513307,-1.515130583884476,-0.4635347667075871,-0.2567226648052293,-0.8774970915041351,1.120641620809794,4,left
1.389,0.4749261019882137,0.6267633593108023,0.3720336828584117,-0.8730814158845153,-1.5267052215001646,-0.4719799099021848,-0.25525447291741515,-0.8646051761708431,1.1143672687035482,4,left
1.393,0.4825152538674157,0.6347688127551704,0.3683059136327016,-0.8687024634018805,-1.5190624991492718,-0.46691704048483185,-0.25530572330633583,-0.864902201247979,1.1145475002505119,4,left
1.393,0.502299611773412,0.6402707585481086,0.3673956641427057,-0.8661198624515394,-1.5172051551617316,-0.46346063874798915,-0.258051935389763,-0.8897083143648887,1.1264611993275693,4,left
1.3969999999999998,0.5229501051341089,0.6413986502037858,0.36985065256154703,-0.8793737911220094,-1.5330771724081445,-0.48007352590773517,-0.2512962276443792,-0.8287756380236531,1.0971748613255703,4,left
1.3980000000000001,0.5590570127975998,0.6421065390404961,0.3690783185102581,-0.8544422760283694,-1.502244954239032,-0.4489966433952888,-0.26249303278292646,-0.9298105874087437,1.1457271679981402,4,left
1.4040000000000001,0.5904206297237389,0.6432514609392321,0.3647952677876025,-0.8865341642103592,-1.542148568286922,-0.4889609306578372,-0.24773130670525484,-0.7965312490735406,1.081695005591303,4,left
1.405,0.5978206492329814,0.6431937348058396,0.3630206041334031,-0.8597111883510651,-1.508707676770167,-0.45557256982451544,-0.18576554600127376,-0.23697497651684035,0.8129011899555509,4,left
1.406,0.6316005138013838,0.6443688057285326,0.3590212413033067,-0.8605571825414575,-1.510101596155939,-0.4565693306210758,-0.1710145027604612,-0.10367342945968587,0.748881810788095,4,left
1.409,0.677480554026608,0.6459748421442578,0.3506195037829083,-0.9113082729558286,-1.5722632461964856,-0.519928593050721,-0.1821971970897645,-0.20474226121638225,0.7974177818086308,4,left
1.409,0.7018054921716237,0.6481478836589109,0.341190562943118,-0.7864271331522682,-1.4189023865904273,-0.3640898952694773,-0.17544613506448514,-0.143783820602153,0.7681350564285854,4,left
1.413,0.7359039529986078,0.6507863285646023,0.3277627232025606,-0.9935244266588065,-1.6733265415357208,-0.6225056158853375,-0.17821204638465257,-0.1685821850543379,0.7800763408164331,4,left
1.4140000000000001,0.7615966034813582,0.6522207931943393,0.31797158044914703,-0.720352006118274,-1.3377412627299414,-0.2816541847590731,-0.17820845847314998,-0.16894395381146887,0.7801849986681391,4,left
1.4140000000000001,0.7667192504745572,0.6533999283301637,0.3186444197419734,0.4264378042504617,0.06987893463000261,1.1489566909687454,-0.17682886384826593,-0.15592072135636076,0.7740230528457585,4,left
1.4169999999999998,0.7866737236801846,0.6516135361456099,0.3233073350069787,0.6996757885718061,0.40532410553303055,1.4898013418645804,-0.17849391136584974,-0.17151822617687706,0.7814218738953466,4,left
1.4180000000000001,0.810104148990285,0.6485638047801795,0.33399471807858006,0.4924186201420135,0.15113667738849954,1.2313872890243942,-0.17717638054161122,-0.1593768617284079,0.7756303398523521,4,left
1.422,0.8229688255170322,0.6462234387252828,0.34484770073550597,0.6175878063836964,0.3042536246509155,1.3872488530294413,-0.17795169247288617,-0.1659036054069985,0.7788447245365695,4,left
1.422,0.8369595895263939,0.6419206506180897,0.34851465283276917,0.5664225586349688,0.24221085377771734,1.3238238680206265,-0.17762199770786072,-0.16446065037304602,0.7778953346629599,4,left
1.4269999999999998,0.8502294876829724,0.6417465739691668,0.355769639625089,0.5660338059334289,0.2409764834649754,1.322940867566956,-0.1777127956995414,-0.1626362029666199,0.7774607279101157,4,left
1.4280000000000002,0.8583880418337484,0.6464714572938313,0.35993420558360545,0.5925485410782564,0.2738561042156342,1.356188255441775,-0.17769810600652164,-0.16574874775136625,0.7784136322648699,4,left
1.432,0.863904769883677,0.6549322467639096,0.3542282412420503,0.5603297444402842,0.23492671368986565,1.3163366989153387,-0.17766299729717114,-0.16284445097493894,0.7774508577665853,4,left
1.433,0.8710330166662192,0.6721946021750242,0.3471216088531588,0.5861216232328034,0.2645673879621112,1.3474162805408327,-0.17787437315702784,-0.16473099871155106,0.7783607978604083,4,left
1.4369999999999998,0.8767962039027097,0.6946464435705484,0.33753516028545383,0.5711204458839056,0.24963571023148515,1.3305882948707912,-0.17726979413782168,-0.16407002428758322,0.7772413980622651,4,left
1.4369999999999998,0.8840009041819978,0.7191136831182193,0.3271982273740178,0.5761377883690684,0.25152113643274887,1.3345340615959875,-0.17844297434060782,-0.16369705121644806,0.7788949873018358,4,left
1.442,0.8979427078324831,0.7462634632972338,0.31232823152464134,0.5781349733066597,0.2573795593602408,1.3388693005321985,-0.1767426942189671,-0.16470455435695325,0.7766447192008481,4,left
1.442,0.9110800432931506,0.7750906394133402,0.2935476681479624,0.5719692624978188,0.2498389236001605,1.331194366081034,-0.17854597828049903,-0.1635466010460317,0.7790032971251076,4,left
1.4469999999999998,0.9237575292462186,0.8072456183948191,0.2796334147738386,0.5806302086673931,0.2541571130765487,1.3385771069506305,-0.17751864674052126,-0.16434813739624643,0.7777040699513574,4,left
1.4480000000000002,0.9355416359257269,0.8433094466504347,0.2616790632373184,0.5701570609780753,0.25573103008314985,1.3333309691872963,-0.17656056388093233,-0.16438258795579164,0.7762689757838956,4,left
1.452,0.9419504805458585,0.8792659960902567,0.23928425744527004,0.5817029895256389,0.24837660690059585,1.3360702174617587,-0.18063503666141328,-0.16315752246381948,0.7820340450910667,4,left
1.452,0.945080544489719,0.9146095928290499,0.21712271791547721,0.5711913402370727,0.2584218390281532,1.3353908906352312,-0.17310016031187175,-0.16562298920005183,0.7714354706833539,4,left
1.459,0.9413139313383276,0.9517617666301963,0.1924924930806156,0.5763474321815782,0.2514914297953424,1.33463945004765,-0.18277070586702793,-0.1624142240921843,0.7850240806989806,4,left
1.459,0.929873407098162,0.9854477223030291,0.16981673050945123,0.5827248983134568,0.24789009715103627,1.3364007613027415,-0.17469888450421017,-0.1651098587275201,0.7736874525927241,4,left
1.462,0.9119640680808969,1.0125271385760393,0.15235939596468256,0.5588939537094633,0.26865955059241664,1.3337776762641314,-0.17491060818108994,-0.1649711622695497,0.7739632924726283,4,left
1.462,0.889783016416961,1.0359297490158135,0.14132611820365576,0.6018988085795514,0.22868207747552652,1.337159647463601,-0.19032477463123554,-0.16004854888419895,0.7956830421138549,4,left
1.4669999999999999,0.863127194578128,1.0541929870066928,0.1376128956421756,0.5472072446844716,0.28066378369696315,1.3334749884617874,-0.1524459263898476,-0.1722234362415378,0.7423337274076474,4,left
1.4680000000000002,0.8298495138549802,1.0672761962609223,0.14391472326639,0.5926390437370421,0.23698820262420706,1.336269694800932,-0.21524976508812282,-0.15201963052819017,0.8307819972317165,4,left
1.4709999999999999,0.8089459039392219,1.074889049590843,0.15329611615136632,0.5916089847999784,0.23841433737850984,1.3364379926206023,-0.13241057076251578,-0.17866629995004163,0.7141170733548798,4,left
1.472,0.802763280294069,1.0759075090927142,0.15580088822630023,0.5046076607510932,0.3212405527726581,1.330656754320733,0.21530921560951968,-0.29043890955413304,0.22438629993494275,4,left
1.472,0.7837002167273777,1.0798089812679095,0.1632703485998253,0.7180868917092404,0.11722501050161058,1.3444289573755381,0.2981531739633708,-0.31706786668471976,0.10770973177387277,4,left
1.476,0.7510250300796592,1.089988782678728,0.18025448994119508,0.3643038894735201,0.4557053475832577,1.3218032094423444,0.23534234924168687,-0.2968875822837827,0.19617420274412695,4,left
1.4769999999999999,0.73240306667787,1.0951059425334455,0.19107609604169434,0.8308503617684647,0.009141365137647572,1.3515441427793746,0.2732257248799288,-0.30905432281951295,0.14281691842339578,4,left
1.4809999999999999,0.7251567573926903,1.0960717890075735,0.19246798379781205,2.789167747486723,-1.8653204340380054,1.476368292754186,0.2578152808336372,-0.3040999634893138,0.16452118644344857,4,left
1.482,0.7011588928367523,1.1017988923303275,0.19636906991620665,3.2556403076594873,-2.311970215687216,1.5060555940987128,0.2575866124292817,-0.3040508312566791,0.1648479127460879,4,left
1.483,0.670162677728906,1.1083983474426393,0.2032689189162976,2.902007462791648,-1.9733142734991207,1.4835489024607953,0.265689883197045,-0.3066010283532309,0.15342425201630472,4,left
1.4869999999999999,0.6468957573969658,1.1115990263304272,0.20518690321393612,3.115268495672305,-2.177587704854414,1.4971270044956562,0.25597908396591673,-0.30355835017767374,0.16711710633700372,4,left
1.4869999999999999,0.6244200146827144,1.1109418326356795,0.20445116671040023,3.0285144492971323,-2.0944649617416458,1.491598945117656,0.26354792496016327,-0.30591266944652795,0.15644090895565302,4,left
1.4909999999999999,0.6064323471166374,1.1047657638004273,0.2030564064852594,3.0272947463587294,-2.0932730371815054,1.4915202173538336,0.2594697757009148,-0.30463596807351323,0.16219168438113726,4,left
1.4909999999999999,0.592785223694924,1.0943678410782165,0.19904807692420268,3.0727243259192067,-2.1369360963173913,1.4944307581130043,0.26037391453556324,-0.30499326835833473,0.16093203490241942,4,left
1.495,0.5829529535180863,1.0795853787559897,0.19436946340772915,3.018377380921398,-2.0845630509511994,1.490928456438256,0.26153153545412317,-0.30514968045272867,0.1592570599616125,4,left
1.496,0.5806208600775626,1.060742328765203,0.19206357121518663,3.0605977101145596,-2.1254592204833225,1.4936789515007498,0.25952870848548626,-0.30487777760026147,0.16215475492039041,4,left
1.5,0.5820559266975781,1.0399713107388733,0.19117237289477648,3.0379359175251865,-2.1032980334106375,1.4921729757045075,0.26144728156617497,-0.30503801536017494,0.15935821771325887,4,left
1.501,0.5863257237925025,1.0173695185131355,0.18832003162606803,3.0430677711834386,-2.1084100045521534,1.4925271920464667,0.2601397807216721,-0.3049816870197586,0.1612749680127924,4,left
1.505,0.5928366421271194,0.9954228899766286,0.18434191061804708,3.048939057785866,-2.114425197909166,1.4929558750742322,0.26065181168683105,-0.30514942392280414,0.16055453506596776,4,left
1.506,0.5991602494586563,0.9768709043290453,0.17986918274653374,3.0390697030643326,-2.1037105190406855,1.4921503071732949,0.2608992059257853,-0.3045538091528427,0.16006633994925815,4,left
1.51,0.6064663316334399,0.9607296745968402,0.17232078359290615,3.0478321557092656,-2.1142775474751376,1.4930139241370486,0.2600515662553129,-0.30582436784225797,0.16157947781584778,4,left
1.511,0.614811211593812,0.9454960667840163,0.16121084652192857,3.042564472017818,-2.106563531523544,1.4923030751689796,0.2612505049158717,-0.3039077696498883,0.1594146016984775,4,left
1.515,0.6232785752226262,0.9329293018043765,0.14741117717310714,3.0443892385547286,-2.110438923897737,1.4927187067906442,0.2600594276389942,-0.30597891012511336,0.16159973496998398,4,left
1.516,0.6320867375128013,0.9244105388703777,0.13044301185115753,3.0443658844353463,-2.110435527586165,1.4927198847507366,0.26074854859029684,-0.3047824726545929,0.16033608512484654,4,left
1.521,0.6409792280045763,0.9185839770576327,0.11249649620192204,3.0447843134622676,-2.106887813756769,1.4921906603079114,0.2611496713392113,-0.3036891740582752,0.15951782266113682,4,left
1.5219999999999998,0.6483264884088855,0.9144685018898615,0.09558764447652224,3.042222839572611,-2.113458093489596,1.4932979929885457,0.259144468714661,-0.30839385068882386,0.16344919734729074,4,left
1.525,0.6522080000069329,0.9094669491800618,0.07951387242879218,3.0473662604925336,-2.1049225591537146,1.491730146375536,0.26287551595022296,-0.2996729073236427,0.1561415765831634,4,left
1.525,0.6553909730960329,0.9042693867661024,0.0671577333540935,3.041110434305682,-2.1132815081346203,1.4933523414176528,0.25810071892893305,-0.3108762326855855,0.16550172801478918,4,left
1.53,0.6581026097867035,0.9014497921958173,0.060164605881606215,3.0449719480776727,-2.1086881999659295,1.4924307546393716,0.262079603419227,-0.30152070132575604,0.15769862603227644,4,left
1.531,0.6561065543277045,0.8984729548235069,0.06023887074361767,3.0484038533606497,-2.104827286662186,1.491642850863617,0.26195175409341903,-0.30176762010111013,0.15793621667025715,4,left
1.536,0.6539617715221159,0.8943444801883891,0.0646057055726516,3.0330878239255474,-2.121440264431112,1.4950721444764978,0.2544510619231857,-0.319634032801705,0.17269849129389264,4,left
1.536,0.6515082720481867,0.889924498382908,0.06696016516426098,3.061775330533519,-2.090903211499284,1.488730608998315,0.2729019353399516,-0.27572507355159237,0.13639741868304,4,left
1.54,0.6414127368392526,0.8863943843894821,0.06875881959585514,3.0247426262152723,-2.1299260529243207,1.4968608151697285,0.24231122108857195,-0.3485289397612129,0.1965808246877512,4,left
1.541,0.6343916885230994,0.8847153189312471,0.07057860931839806,3.055745666313533,-2.097430278081239,1.4900791174529402,0.28265513356319427,-0.25249909823896904,0.11720946626229303,4,left
1.5419999999999998,0.6334648919097384,0.8838461690729968,0.0698668532383126,3.054916732438172,-2.098320430054021,1.4902623638295442,0.4519469231147232,0.1505982520121237,-0.2159139632707252,4,left
1.544,0.6243983696292892,0.8851054316664477,0.06567598598423707,2.9956238001804123,-2.1601118655463436,1.5031852177260112,0.4922833854860031,0.24663108333976014,-0.29526968782672847,4,left
1.544,0.6108527803629571,0.887951160716447,0.05941542211190821,3.1414078767857756,-2.0082826331182178,1.4714267114113861,0.46170449225356763,0.17382277210999333,-0.23510849295072817,4,left
1.5490000000000002,0.5994910325814159,0.8897723106858042,0.05113313020835089,2.8996408695082296,-2.2599728496596088,1.5240811692844325,0.48014511159361395,0.21773478779091487,-0.2713972391813917,4,left
1.55,0.5919665561500334,0.8916182450234187,0.0434258697562507,3.2185624194974096,-1.9280304018326349,1.4546287766399288,0.47264514177113925,0.19987026768330068,-0.25661753115793684,4,left
1.551,0.5903387821480418,0.8927957475553778,0.04151535613379363,4.557142499323605,-0.5347654655824091,1.1629785231037844,0.4725340833308812,0.19961337272037966,-0.2564432880289914,4,left
1.554,0.5895863162920418,0.8932686369036575,0.04098859661237561,4.876038457416826,-0.20283615651020567,1.0934947587539845,0.4764742053105782,0.20898793490271989,-0.2641348761786541,4,left
1.555,0.5906128197382512,0.8957896935460101,0.038682444617395076,4.6343428053982745,-0.45451276860658546,1.1462184903016583,0.47175635508059927,0.1977597540339282,-0.25491160985667305,4,left
1.56,0.5959349986112095,0.897946766153936,0.03585793831648798,4.779982744352315,-0.3026759657116046,1.1143477477589325,0.4754287584321032,0.2065023876640567,-0.26211217948456517,4,left
1.561,0.6049988472916843,0.897599023494926,0.03571842231538556,4.72091683272067,-0.36451901729912584,1.1274160129234043,0.473453169565048,0.20179378625845198,-0.25817384037654045,4,left
1.565,0.6163396017148224,0.8971868865792618,0.041825599839455024,4.719812449461705,-0.36530108742876377,1.1274587455131238,0.47389396272149825,0.20285625962824294,-0.2592047626312389,4,left
1.5659999999999998,0.6257260069838144,0.897792973134979,0.0481178133926627,4.751039899839187,-0.3329579046232069,1.1207405299120352,0.4744380654614844,0.20413048327661354,-0.2599940162621841,4,left
1.57,0.6325945272125486,0.898756636885649,0.05181526715428855,4.713996708272916,-0.3718317473799725,1.1289798690491735,0.473506355782798,0.20193768455623864,-0.258505721548884,4,left
1.571,0.636132997656056,0.8998752509377264,0.054809239556476555,4.742293298840034,-0.3413535350282513,1.1222712196717937,0.4743769570825235,0.2039903954042528,-0.25994384304044116,4,left
1.574,0.6359472507826953,0.904496320793145,0.052692275152121486,4.7278973656245515,-0.35810695813189364,1.1263441780217573,0.4738061536383578,0.20263101350821328,-0.258818246721943,4,left
1.575,0.6314028649251047,0.914135662406437,0.04308589730717984,4.729933081639889,-0.35381529554788993,1.1247515191993167,0.47402117954024026,0.20318055032008298,-0.2597513680646405,4,left
1.58,0.6193986985044329,0.9234423242405236,0.02724630060796478,4.735309890994342,-0.3499516606020266,1.1244961747008135,0.47409952895181806,0.20328149578121488,-0.25874001511422884,4,left
1.58,0.6028442792930495,0.9325435947807932,0.006734416411757186,4.728140829538869,-0.3574288670662572,1.1260660832970524,0.4738462100300677,0.2028059440233826,-0.25998030897030366,4,left
1.584,0.586280144726007,0.9445198678567924,-0.01136372459468732,4.732596782124407,-0.34957488134492476,1.1233958524186756,0.4741416590010741,0.20337340712286928,-0.2587080888251958,4,left
1.585,0.5688183426326643,0.9551832185184961,-0.022927393946827527,4.733291220374063,-0.3562022650323852,1.1271284828071106,0.47393079220360845,0.20294996236501558,-0.2593642518073984,4,left
1.589,0.5503729075244636,0.9630093305105258,-0.030064112738031598,4.727495256064269,-0.3512693325534476,1.1225969237151088,0.4739479219209498,0.20305832530330836,-0.2603209485700543,4,left
1.589,0.5355224893105228,0.9697438793345619,-0.03239577678933296,4.735770716385428,-0.3543457152701372,1.1269710357459255,0.4741985555822599,0.20335892467312833,-0.25677403742796323,4,left
1.5930000000000002,0.5234216372763781,0.9754239134600606,-0.032229036659637264,4.7299185602434894,-0.3536824228708164,1.1246765787247406,0.4736749478711052,0.2026616251241255,-0.26323637321597004,4,left
1.594,0.5094882557729925,0.9780060600432456,-0.030036632232995422,4.727128508256205,-0.35076389675829633,1.1222085655148057,0.4743605401528938,0.20358834677242138,-0.2549642195489948,4,left
1.598,0.4965234054145809,0.9766725421085827,-0.025545939436532557,4.744098503882057,-0.358583058186135,1.1319750981330912,0.47378271342987,0.20280200443919594,-0.26185992256986756,4,left
1.599,0.48408426901278595,0.977100496063376,-0.019245916798413615,4.711239679096659,-0.34552675384520426,1.1141643996754111,0.4738191274175157,0.2028719441222843,-0.26171308917451985,4,left
1.6030000000000002,0.4695595566696913,0.9788353249878936,-0.009923767902160492,4.7540482799247705,-0.361650314297815,1.136900855638857,0.4748530180052153,0.2042116345626683,-0.24843337215672207,4,left
1.604,0.45514130506969797,0.9778693979451077,0.0008614658549878887,4.718045280285452,-0.34846453617718987,1.1179755670807383,0.47228714236611224,0.20086158958545353,-0.28102674945213113,4,left
1.609,0.44125525230287155,0.9762036274677556,0.02036287549644391,4.719250088979905,-0.3485818193042841,1.1184406894932946,0.4765480776312625,0.20643077596681658,-0.2269970464552871,4,left
1.61,0.4345822221556069,0.974662307156835,0.03673066062085074,4.787472487962675,-0.3741697295074604,1.1546134196651643,0.47092716060089046,0.1990840174343097,-0.2982614745621541,4,left
1.61,0.4333026106046618,0.9743886071394098,0.03887776776039014,4.619376520303874,-0.3117080314791676,1.0657890186118877,0.4473719990167381,0.16831404393597493,-0.5974369556232245,4,left
1.615,0.4244990791524056,0.9729013857296511,0.05270175653383884,4.898286761552564,-0.41506506032485335,1.2130256645467172,0.4417540568302625,0.160973489453623,-0.6687060435195595,4,left
1.6159999999999999,0.41732783925086603,0.9701220422095412,0.06799294566545189,4.530305398822273,-0.27884152468428935,1.0188371917285965,0.44601054625211234,0.16653606909790367,-0.614673007814043,4,left
1.618,0.41751937776140163,0.9706446274440469,0.06948453582278422,2.9857098960465533,0.2929568926795851,0.2037638569684991,0.443447793460111,0.16318309701702954,-0.6472584147428169,4,left
1.618,0.41361062139562954,0.9697481799958617,0.08126583779863411,2.6176648952680566,0.42911617878002334,0.009573472960692643,0.4444833986827451,0.16454582443113094,-0.6340078997621962,4,left
1.619,0.40875838143473686,0.966918297642814,0.09782100251964584,2.896708678669571,0.3258950332542384,0.15680568522885235,0.4445101364652703,0.1645667125243393,-0.6338065709883361,4,left
1.6219999999999999,0.4063337762159924,0.9639292434431546,0.10682117338657648,2.7284097638298745,0.38814808661577893,0.06800509904172766,0.4439509766722436,0.16385028760919562,-0.6407737350435472,4,left
1.6219999999999999,0.40115905145573927,0.9582779548382484,0.11421640411959463,2.7968761565867912,0.36281424036396404,0.10412349438337086,0.4446119934242195,0.16470790148656028,-0.6324387578848595,4,left
1.6280000000000001,0.3914924062201773,0.9547364791400397,0.1175152302579967,2.797871557866533,0.362474075911295,0.10467380981563108,0.44411010751789803,0.1640394636093997,-0.6389127197763105,4,left
1.629,0.3772091965004233,0.9531908585384729,0.11839076302154566,2.7619161590480408,0.37572021442297254,0.08565176086148306,0.44435622617222176,0.16440161190554603,-0.6354554279309799,4,left
1.632,0.3608134757205259,0.9522705276923056,0.12007152849609827,2.8049929251892043,0.3598603057519847,0.1084528616485669,0.4443438267766614,0.16431550277491552,-0.6361848057720139,4,left
1.633,0.34037676417873086,0.9561249954208167,0.11960464031438285,2.771432424640139,0.372201670545125,0.09067314168739746,0.4442088612088384,0.1642249875073313,-0.6371978077817935,4,left
1.6369999999999998,0.31559460622056484,0.96120725618258,0.11835737892971347,2.7895223015509885,0.3655413136448399,0.10024852747795268,0.4443845859923685,0.16438615039327795,-0.6355246602301594,4,left
1.6380000000000001,0.2944606759554192,0.962734423670179,0.11516590212026866,2.7854477227335765,0.36711023351520433,0.09816285558598484,0.4442664227303188,0.16423110252453824,-0.637029304225903,4,left
1.643,0.2749023841982684,0.9627470421913421,0.1047245276623502,2.7804898971043173,0.3687457440571803,0.09534218318417198,0.4442545578533514,0.16434277443554013,-0.6361476038386622,4,left
1.643,0.25297316612430476,0.961447637255272,0.09174574192002735,2.789068989462248,0.36591380088026354,0.10022115068658864,0.44442852405271804,0.1642794830245887,-0.6362980880075,4,left
1.6469999999999998,0.23402207038419268,0.957601390406553,0.08385451401713925,2.780936638880081,0.36850311445119344,0.09549795794447143,0.44411730309873726,0.16430634819980516,-0.6367302819192693,4,left
1.6480000000000001,0.21873829703198266,0.9551586884548559,0.07965310539958252,2.7864336488463106,0.36680363040411856,0.09874285627470356,0.4444679737425853,0.16430242572458176,-0.636029177896982,4,left
1.652,0.20469965769732185,0.9539360789312396,0.07665148770706248,2.7841556049809517,0.36764916796298264,0.09754444256508236,0.4442526835447298,0.16428808659233832,-0.6365955487622208,4,left
1.653,0.18871465147000865,0.9525585834348473,0.07640172550390881,2.783636385047294,0.3672220078242492,0.0966298834442941,0.4441065203990557,0.16432740065816484,-0.6365823931703043,4,left
1.6580000000000001,0.17228251721590399,0.9522808586212901,0.07832522913134873,2.7860777209324743,0.36773418801099733,0.0993812845296258,0.4448189038624663,0.16425067547542066,-0.6357148272255708,4,left
1.659,0.1603039850706604,0.9533694584471105,0.0822338112699538,2.7827265428133336,0.36686239151583133,0.09543059984360883,0.443480627961266,0.16437041626911228,-0.6375425181340038,4,left
1.662,0.14668315903355789,0.9602142675872767,0.08763493935752867,2.7859130525522495,0.36793467609168984,0.0994379562430798,0.4452051934536914,0.16422483472592986,-0.6351165346106968,4,left
1.663,0.13137190774279384,0.9692812415872087,0.08748416411334263,2.784066616056521,0.36731672621267514,0.09712067525380375,0.4437628820382258,0.16434283824634557,-0.637175774363689,4,left
1.6669999999999998,0.11859399655788054,0.9787344065243243,0.07797329070183921,2.783335834761853,0.36646666281403484,0.09557431451234183,0.44380582191038254,0.16434519044532997,-0.6370672722445606,4,left
1.669,0.10421191750700683,0.9911958991404071,0.0630325176591888,2.7876514139210924,0.36977587424203795,0.10292511707197707,0.4465456014539506,0.16410549197850138,-0.6332806633741102,4,left
1.672,0.08975795370741671,1.00225528397733,0.046555618157085164,2.7795898501223473,0.36365954660745514,0.08926482300808715,0.43980599650387464,0.1646864681523787,-0.6426648829998609,4,left
1.672,0.07608805126215487,1.0146982540996419,0.030713967606004994,2.78987319201841,0.37153930948203895,0.1067668541307481,0.450982562588087,0.1637264738956842,-0.6270751008348372,4,left
1.676,0.06745173911205354,1.0227100880289453,0.021701027484882188,2.781316212369425,0.36494918758304706,0.09217371761165105,0.4362401388712731,0.16499124176225038,-0.6476504653508952,4,left
1.6769999999999998,0.06598380207593485,1.0247675699203929,0.019040944965815557,2.781647853553059,0.3650935833857702,0.09261322389363714,0.3743597682518832,0.1703089883001077,-0.7339481557059611,4,left
1.6769999999999998,0.06041847019330874,1.0326345322570607,0.011865095797586735,2.797556354198404,0.37780335275513754,0.12024370043843458,0.359617538351951,0.17157288051077546,-0.7545292796666558,4,left
1.681,0.0537627990511199,1.0399285109448422,0.002931604783803711,2.758366296310229,0.3465908815318044,0.052301643527582604,0.37079436101714586,0.17061444287739377,-0.7389273357146642,4,left
1.682,0.05276280583519943,1.0440261854300372,0.00062251908095734,2.8233555359964715,0.3983438749447122,0.16494421245724272,0.36405302474308543,0.17119362150141376,-0.7483301911579785,4,left
1.6869999999999998,0.051749645420438306,1.0477284306842143,0.0005423550074257904,2.7376374572311635,0.3300752567899101,0.016386202770059886,0.36679690474252835,0.17095522908551003,-0.7445209467460995,4,left
1.6869999999999998,0.051113199643402815,1.0475171470310283,0.0013931861432474532,2.3781680329535053,0.04342692273744515,-0.6070945174815423,0.36683329662547737,0.17095774312799383,-0.7444322172117331,4,left
1.6880000000000002,0.052455955423964,1.0466737754183346,0.008535094586129645,2.2924301840505326,-0.024849543865664,-0.7556225862173853,0.36539855258215037,0.17107313520224654,-0.7464862692589942,4,left
1.6909999999999998,0.053235410532064126,1.0464072732632255,0.01712800340927947,2.3574503281466987,0.02691571804393391,-0.6430268193875059,0.3671178572908962,0.170933126196401,-0.744036519947325,4,left
1.692,0.05461543985424121,1.0446036728563532,0.022371679224133176,2.318234705298272,-0.004306901763754766,-0.7109301635648007,0.365777627221223,0.1710449435080711,-0.7459281902686945,4,left
1.6969999999999998,0.05858579349304613,1.0383438144600072,0.029473219857957617,2.3341417294299553,0.008402280788617556,-0.6832974422374012,0.3665042615004138,0.17097615027893398,-0.7449572374362723,4,left
1.6969999999999998,0.06367560155044688,1.0262984667095494,0.03886841551718496,2.33452296241078,0.008566364775609318,-0.6829330532833986,0.3663289375661314,0.17101179167602443,-0.7450641452962534,4,left
1.704,0.06837967649858746,1.0097079616610163,0.0456505372588116,2.3258577166678394,0.0019332618032559996,-0.6973622120476212,0.36615438608957285,0.1709913598763632,-0.7455445521504673,4,left
1.704,0.07317036711590189,0.9883205003451851,0.04793836169504608,2.3362952897426372,0.009874252754855303,-0.6800937648020676,0.36646515670148816,0.1710081063971305,-0.7448205324713657,4,left
1.706,0.07845089120642863,0.964811691169089,0.05158277568193841,2.3280809715893214,0.003697284486065197,-0.693522726857682,0.3661706602577435,0.17099878291827775,-0.745462865890604,4,left
1.7069999999999999,0.08278171326687525,0.9423114439309077,0.057259218045675145,2.3324627602376538,0.007032777681235341,-0.6862721638367288,0.3663795089550419,0.17098055019006067,-0.7451734599215413,4,left
1.71,0.08681117175307798,0.9219919942725774,0.059808463060445675,2.331860426095508,0.006233710384747615,-0.6880131110575838,0.36625691447167497,0.17105525493024845,-0.7449153883705573,4,left
1.71,0.09257482956542809,0.9056947392047072,0.061274489825281477,2.329598701385308,0.0054508913970455625,-0.6897013795163917,0.3663288314566925,0.17090241068202722,-0.7457957736334879,4,left
1.716,0.09777803055128026,0.894611798494194,0.05818910839305456,2.333500808221837,0.006807262558152879,-0.6867778314883604,0.36627139590800484,0.17112614763703532,-0.7444127916449171,4,left
1.7169999999999999,0.09999619473902584,0.8884064455958163,0.051882548638025515,2.3292715708028915,0.005586888506047975,-0.6893987187985552,0.36632337379719426,0.17088842873004007,-0.7459000756515346,4,left
1.72,0.09844417446089432,0.8871325896460182,0.04679914180975368,2.332412906725499,0.006376951165902303,-0.6877073471018551,0.3663079453667598,0.17102454226467134,-0.7450201518892345,4,left
1.7209999999999999,0.09586036889014213,0.8905842866474359,0.037544148152741125,2.3318996327311328,0.005952169975803485,-0.6886311448135507,0.36622217970666127,0.17114805026633068,-0.7443633874449069,4,left
1.726,0.09511445897061002,0.8975389915627243,0.0263407661449227,2.3283235873692663,0.006282390551505007,-0.6878634216348906,0.3664790145947622,0.17061760040843632,-0.7474043945337423,4,left
1.7269999999999999,0.09443666763219288,0.907390555836428,0.013931727819847584,2.33678725920037,0.00576066201009858,-0.6891118230270716,0.36602399491693255,0.17159953687869864,-0.7417345655698013,4,left
1.73,0.09625392684222005,0.918242576819893,0.00035526940742027033,2.3242289930440085,0.00659292601934164,-0.687131877088245,0.3666036367103438,0.17033903856562033,-0.7490219321047309,4,left
1.73,0.10275485432779483,0.9285442554743697,-0.010558100261620594,2.337526387998457,0.005634079338623188,-0.6893984499838495,0.3661213821408252,0.17139128741919055,-0.7429348709546819,4,left
1.736,0.11060434576964043,0.9396626169493667,-0.024711725913619677,2.32984200820512,0.006187231033194726,-0.6880906778749734,0.36612764685492616,0.17136323334293568,-0.7431112348492285,4,left
1.736,0.1165882976268585,0.9508233766021685,-0.03889009171638337,2.3234181158441736,0.00682342046740227,-0.6866167968894688,0.3670700592555901,0.16935522849217607,-0.754680913001063,4,left
1.74,0.12176281400623772,0.9608223645209195,-0.044207971969240936,2.351791833367387,0.004245697661834251,-0.6926180915841622,0.3647611966717373,0.17429031813994578,-0.7262295098259965,4,left
1.74,0.1297217717883582,0.9713548797594427,-0.04747920005896368,2.2991590381563913,0.00901561301382154,-0.6815114378634382,0.3685880296528543,0.16610763043414964,-0.7734079051802942,4,left
1.745,0.13500136171960253,0.9776053672299264,-0.051886275259254086,2.366726270174639,0.0028778601460448224,-0.6958010722975243,0.36353994728958594,0.17690074839365452,-0.7111784715269385,4,left
1.746,0.1356319929633315,0.9793508416041764,-0.05337357825083011,2.310324139474725,0.008007614679621976,-0.6838591356325331,0.34236029846272376,0.22219924279114178,-0.4500210206719263,4,left
1.746,0.14066993181716692,0.9851703904623363,-0.054929594210076094,2.3118746573823623,0.0078863457418478,-0.6841439792023827,0.3373120002410315,0.23299220536280185,-0.3877942271243562,4,left
1.75,0.14644471041898688,0.9913972086335723,-0.05463646406757815,2.4193254235802515,-0.001968503514566187,-0.7070749702037921,0.34113650843043086,0.22481050512231476,-0.4349652666121824,4,left
1.75,0.1495722917484088,0.9918481227321906,-0.04580265410856574,2.1552031033316306,0.022239217014330265,-0.6507447905689145,0.33883679636609493,0.2297427565666051,-0.4065287142028331,4,left
1.754,0.15718384400485017,0.9864943718583505,-0.03556643888595577,2.5931321183282643,-0.01789844037961729,-0.7441429221487116,0.33975975251350327,0.2277401771006993,-0.41807501138306374,4,left
1.754,0.16313602592952806,0.9803900178095638,-0.03502711320221123,2.0155084114721538,0.03504622230144906,-0.6209442516771393,0.3397953994041705,0.227704446662236,-0.41827973262646295,4,left
1.755,0.16480586407303938,0.9773443621502443,-0.034071542200331054,-0.4089109197708829,0.25735191096064003,-0.10365982143454229,0.3392810086992625,0.22876450179156954,-0.41216958599893205,4,left
1.7590000000000001,0.1712147731910431,0.9695158404488454,-0.021400265951340966,-0.9865227824610001,0.3103041226898335,0.01955544604662135,0.33988017052789943,0.22750022723620472,-0.4194579903140911,4,left
1.76,0.17792766528940307,0.9559717292845882,-0.0061358970778476185,-0.5486234697583408,0.27015137450374416,-0.07387630790252717,0.3394399047448027,0.22847637048599476,-0.4138284748213937,4,left
1.765,0.18022441831489722,0.9424580440454247,0.008214264765068199,-0.812690847217221,0.29438051084145167,-0.01749747029211876,0.33962657360371185,0.2279662667468676,-0.41677466723346124,4,left
1.765,0.18044823436723417,0.9282438673282858,0.025031298171601768,-0.70532089136514,0.28450219938841326,-0.04048328943831073,0.33967495693683736,0.2280536586774839,-0.41626174280345296,4,left
1.7690000000000001,0.17587528495267152,0.9140625763902595,0.040258181144525326,-0.7036788836357291,0.2843976384604713,-0.04072658506202215,0.33948054383081017,0.22823529680656385,-0.41522571175268136,4,left
1.7690000000000001,0.16885312900756122,0.903983164411515,0.04963310818918935,-0.7601462343014401,0.289530477221567,-0.028783034790597926,0.33969678366259537,0.22795944956498837,-0.41680714960971466,4,left
1.775,0.16132184821531703,0.8980572903113346,0.05240020224874426,-0.6925964452785377,0.28335587667512496,-0.043150703452444594,0.33959116163975367,0.22818707559866797,-0.41549467608669644,4,left
1.775,0.15267251280462654,0.8953915277355587,0.05201584151013036,-0.7450687200690108,0.28820441421263454,-0.031868453252114,0.3394720765317252,0.22809529974648096,-0.4160405227068436,4,left
1.7790000000000001,0.14664215400713432,0.8974685897806265,0.04915592317286595,-0.7170325623813479,0.28551380102916357,-0.03812977714134716,0.33987615836783847,0.22802274996784028,-0.4164206220360129,4,left
1.7790000000000001,0.14030447289970222,0.9014912071272816,0.04275523663529565,-0.7229755706476777,0.28626500030140767,-0.036380881485443176,0.3392268953904321,0.2282303852268595,-0.41528045974748196,4,left
1.784,0.13559533026988668,0.9077889858317131,0.038461763334695434,-0.7311442312220778,0.2867611324002858,-0.035227590389439886,0.3399359854386604,0.22797268120515596,-0.4167055580894239,4,left
1.784,0.1366292149845918,0.9191168191759209,0.04039081201867449,-0.7176181452936314,0.2857223789860168,-0.03764372859920997,0.3395149496401831,0.22814594477027422,-0.4157416164165443,4,left
1.7890000000000001,0.13770510735131236,0.92999313161646,0.044992332782026995,-0.7298124720594708,0.2868422494232081,-0.03503790307312246,0.3391872087655847,0.2282195580394208,-0.41534757865595284,4,left
1.79,0.14056641789834995,0.9403666594611201,0.04598164428991511,-0.7226031608268839,0.2858076647309753,-0.03744701579506717,0.3406864355310029,0.227757679622357,-0.41787799817388205,4,left
1.794,0.14731298760360761,0.9551994934767183,0.04099714124464047,-0.7239693279983805,0.28678657539063235,-0.03516518706941489,0.33789087385175803,0.22864720790304394,-0.41299504978217283,4,left
1.794,0.15250803230054277,0.9686449783027687,0.03675606833288214,-0.7272523579846809,0.2858141591471258,-0.037433902338385824,0.34148585941995646,0.2274931837256813,-0.41933335059085214,4,left
1.7990000000000002,0.1549044893730065,0.9784532317365172,0.03475907060471332,-0.7218053720781576,0.28667220586864484,-0.035430880203891804,0.3384825573115736,0.2284615260842112,-0.4140132840438421,4,left
1.7990000000000002,0.15732275766403675,0.9885266210737171,0.025502264005588256,-0.7262585257173007,0.28629616726812324,-0.036309661899456155,0.3385667232459654,0.228427855494351,-0.4142008895411916,4,left
1.8030000000000002,0.1608303338028247,0.9948371633256962,0.014677312509090082,-0.7260370845487951,0.2855997649356278,-0.03793319104085792,0.34428556498088947,0.22660134607270974,-0.42422888510006634,4,left
1.804,0.1654296747961691,0.9982063827071922,0.01016910756643486,-0.7195154959702981,0.2879607609181405,-0.032425557488040796,0.3302256247553197,0.2311013008865036,-0.3995188792010347,4,left
1.8090000000000002,0.17098354834359647,1.001085166266586,0.004555483902856929,-0.7333799529487183,0.283744567877268,-0.04226203428164013,0.35353847537391675,0.22363639267028795,-0.44051188832321186,4,left
1.81,0.17376543054639937,1.0008822493127818,0.0008907117625875638,-0.7149388833628585,0.2890998373072707,-0.029767542081473933,0.32278938227927534,0.23348364676708733,-0.38643518496621854,4,left
1.8159999999999998,0.17487861885569034,1.00095172683671,0.0011650591728663093,-0.7306049556963974,0.2846537707093035,-0.04014115037481114,0.19371003611425439,0.2748165679352563,-0.15946405387035897,4,left
1.817,0.1796153186751619,0.9986802861532978,-0.004562670216804687,-0.7297630847589728,0.2847358773913147,-0.039948775715275185,0.16296271728925837,0.28466333363119556,-0.10538863528932403,4,left
1.817,0.1842437933784722,0.9926669063193623,-0.015598977514297894,-0.7010018180087862,0.29331527901687,-0.019933213650247198,0.1862740679916968,0.27719805593673436,-0.1463854299325561,4,left
1.818,0.18695108266825589,0.9883067352888384,-0.026663622030468202,-0.772299295321796,0.27228354972537816,-0.06900126530407918,0.17221191097968425,0.2817013920957627,-0.1216565633699917,4,left
1.818,0.19416938342755197,0.9805688703710609,-0.0362585738978516,-0.6538541814851067,0.3071340876136298,0.012307733628889088,0.17794018529703834,0.27986657321928704,-0.1317269630006614,4,left
1.8219999999999998,0.2009441235632966,0.9734939266484419,-0.040838983016540306,-0.8101689988459683,0.26117419530181096,-0.0949211645227514,0.1780061034154795,0.27984640123605276,-0.13184857889812934,4,left
1.8230000000000002,0.20278246446624718,0.9713983482740455,-0.04113372407390085,-1.4659277254292373,0.06822559203146922,-0.5450788776397274,0.17502732566203516,0.28079889619264486,-0.12660291414687797,4,left
1.824,0.20971397523764077,0.963332912188097,-0.04162251410731281,-1.6222638385634527,0.02226737089228309,-0.6523053416389948,0.17859993773898747,0.27965627233118073,-0.13289237529915754,4,left
1.827,0.21985802210971211,0.952160898984758,-0.041710306150898796,-1.5037476369086344,0.057111694144205735,-0.5710092287404043,0.1758102274076766,0.2805490157911527,-0.1279836139404615,4,left
1.828,0.2271038522965958,0.9449996378263131,-0.04024185637919746,-1.575206535546311,0.03609488524604289,-0.6200419676160833,0.1773374281749684,0.28005860466727467,-0.13066400988588797,4,left
1.8330000000000002,0.23246027594229568,0.9413200343454258,-0.03824356829210142,-1.5461708450503457,0.044648106953096275,-0.60009253537113,0.1769346486807784,0.28019188433671743,-0.1299727219281568,4,left
1.834,0.23334562166673306,0.9417138669532839,-0.036819880948810224,-1.5456850415358887,0.04476504650288596,-0.5998078888289753,0.1766343500446805,0.28028064661896224,-0.12941543475258618,4,left
1.837,0.2332323882412694,0.9437990860184684,-0.03566738822857074,-1.5610282404143785,0.04028624698578867,-0.6102737539350939,0.1772043540058743,0.280107204181932,-0.13045353558379097,4,left
1.838,0.23167284913403285,0.9486162638565715,-0.032214630065796626,-1.5426742872272001,0.04565261428121306,-0.5977374097420661,0.17665239738621458,0.280276712120841,-0.12945445882416112,4,left
1.8430000000000002,0.2248918073114577,0.9559665341297451,-0.029499089237205994,-1.5569364229702103,0.04147155231123654,-0.6074990662180503,0.17708861258775843,0.2801369374664213,-0.13022134784886016,4,left
1.844,0.21997481878131708,0.9604480907824486,-0.03002026706831775,-1.5493370668853383,0.04373103428490144,-0.6022413857964909,0.17671721455380607,0.2802693787678985,-0.12962080133511317,4,left
1.847,0.21846116475488742,0.9627165534164145,-0.028424405530998734,-1.5508619396865733,0.04320338882710874,-0.6034279331263237,0.17713152414065308,0.28010586047195324,-0.13022922566935735,4,left
1.848,0.21786298865260495,0.9625749135938862,-0.02344677461816,-1.5532857117674124,0.04262641596470067,-0.6048506249701197,0.17661748677805963,0.28031646711066327,-0.12950451632244114,4,left
1.8530000000000002,0.22037008358691504,0.9594544171611546,-0.01679104998940425,-1.5492888936626235,0.04363564222732216,-0.6024020905499275,0.17714610639961564,0.2800981757786929,-0.13024302991346814,4,left
1.8530000000000002,0.22464550227615893,0.95658623728293,-0.010849434590743633,-1.5529702713965257,0.04268526495991861,-0.6046942879080539,0.1768712304190283,0.28021447783162734,-0.12987009031700347,4,left
1.859,0.22817018091711547,0.9518489887429029,-0.008818194261018198,-1.5507609170816172,0.043336125770285644,-0.6031763808333375,0.17648282731069365,0.2803633632941953,-0.12928214797313137,4,left
1.86,0.22950797787107197,0.9478757120074981,-0.006149802269182925,-1.551024293174306,0.04301377933487151,-0.6037896352976133,0.17793481812383066,0.2797914085329569,-0.13141917478209053,4,left
1.8630000000000002,0.22889705366842492,0.9487881234048718,-0.00029029330794916905,-1.5526301000632134,0.04310107733489983,-0.6039032898910667,0.17528675297765,0.28083769039166634,-0.12753467716908778,4,left
1.864,0.2259249357116071,0.9505533245077644,0.0053941098544910936,-1.5497060853568918,0.04312637256098294,-0.6033707761676074,0.1786770676771339,0.2794975010489067,-0.13250500851154623,4,left
1.867,0.21904137476412378,0.9542642635156514,0.007858321691840578,-1.5529212972820647,0.04307045247154401,-0.6040061325182626,0.17585055988287548,0.28061495517318935,-0.12836251369119184,4,left
1.867,0.21406096455004017,0.9598131622478596,0.00594442108245285,-1.5509083262809487,0.043148469346928675,-0.603532157220825,0.17591185305049467,0.28058993476205785,-0.1284475760612923,4,left
1.871,0.21191660884340255,0.9630695955959439,0.0013471519090923624,-1.5499427821398766,0.04298927476380747,-0.6036526239838935,0.181351699693365,0.27844223967708537,-0.13643561589905712,4,left
1.8719999999999999,0.2099099293527962,0.9639081687820437,-0.004040006118285377,-1.5554278168970224,0.04331537243644762,-0.6039916004455657,0.16799878300758986,0.28371465085638414,-0.11683352017654897,4,left
1.876,0.21331689555396205,0.9630586328766405,-0.0014939295440715597,-1.5450289445849057,0.04277745573647271,-0.6032063995097442,0.19013446426963468,0.2749746508959791,-0.14932701828757033,4,left
1.876,0.2170946758477935,0.9628019451951773,0.006581342885985131,-1.5584319002957172,0.04345325122947688,-0.604250069646072,0.16093722149333295,0.28650211784527146,-0.10646816466857377,4,left
1.882,0.2188604267151158,0.9627525071282543,0.011115259429040389,-1.5472228466006528,0.042894989954173554,-0.6033640006110574,0.038363940341273155,0.33489799259880493,0.07346655248025999,4,left
1.883,0.2269640602216619,0.9615367923462589,0.020763103370456816,-1.5476031227641425,0.042887135154512715,-0.603443732960106,0.009162755278516468,0.346424984508674,0.11633078694815846,4,left
1.883,0.23674866995623817,0.9591554378703954,0.03290463158325613,-1.5687220813357847,0.04402728824077885,-0.604951560739438,0.031303638275879515,0.3376860348089622,0.08383056712246897,4,left
1.886,0.24184832981453058,0.9571736456781454,0.039444862246772336,-1.5167257755881045,0.041251680326205076,-0.601178704773029,0.017949026928973516,0.3429567418818348,0.10343363643645237,4,left
1.886,0.24410579203960794,0.9600341208382726,0.04338894373729002,-1.602958315737113,0.04584724499168123,-0.6074528171115015,0.02338156325054372,0.34081125809762663,0.09545833591614934,4,left
1.8940000000000001,0.2460282149062084,0.9628971060135822,0.044344760261952956,-1.4892199509110018,0.039785707131443665,-0.5991739640557274,0.023463153792596878,0.34078409606499127,0.09534147282909439,4,left
1.8940000000000001,0.24530482251167085,0.9641568446367501,0.04406025837203142,-1.0118750354179533,0.014315495326205595,-0.5645249884527996,0.020603886131960288,0.3419025261541245,0.09953307859877422,4,left
1.895,0.2410647877854066,0.9705370884224389,0.04441546615267702,-0.8981527779336569,0.008250094554402738,-0.5562495001271766,0.02403139169242735,0.340563981555165,0.0945094519800678,4,left
1.896,0.23914794647446674,0.9789462087545984,0.045199908622423665,-0.9843678855775986,0.012849839021231907,-0.5625199732765507,0.021358794676987057,0.34160469453236375,0.09842509993751625,4,left
1.896,0.23611272912636982,0.9873286867800413,0.04551772856225278,-0.9323649709431744,0.01007581931047395,-0.5587457283930399,0.022798400959245707,0.3410425247059459,0.0963150477945244,4,left
1.902,0.2308937879473339,0.9953115450519915,0.04232091606673613,-0.9535416972370222,0.011202111685624372,-0.5602656407470331,0.022483525540877708,0.3411791523060295,0.09678377287196888,4,left
1.902,0.22924995574355253,1.000476605747782,0.04028544684109969,-0.9537976524997317,0.011224081812994828,-0.5603193776155712,0.022062867355388732,0.3413056417254041,0.09738047654752208,4,left
1.906,0.22700115896970613,1.0040320075073745,0.043946446736742445,-0.9427668708482576,0.010623056157153149,-0.5594705760151258,0.022790666928744034,0.3410864558736033,0.09634786871854524,4,left
1.906,0.22696420014420723,1.004469187855869,0.04473444955531618,-0.9559922784559558,0.011341437906208406,-0.5604771415718385,0.022087563693054497,0.3412804398987528,0.09733613582648162,4,left
1.91,0.23043721135332568,1.0013931106787985,0.04310894187012469,-0.9456700637945558,0.010785142575074227,-0.559707939418979,0.022569854503125576,0.3411566715717427,0.09666310608885123,4,left
1.911,0.23126879869830097,0.9968133368726416,0.04694780406116024,-0.9513074484436648,0.011074678881705553,-0.560078803724274,0.022389523341839516,0.34122844790670565,0.0969281281943092,4,left
1.916,0.23456311613443886,0.9913823238500488,0.046732454412831054,-0.9498509495383507,0.011033272161928575,-0.5600965952220529,0.022262671747192528,0.34115491413549964,0.09704951825749931,4,left
1.916,0.23647940478871995,0.9865442763973375,0.03968610647722416,-0.948684023930704,0.010908327945172193,-0.5597995085212887,0.02265211966943455,0.34128367395197334,0.0966259741501812,4,left
1.921,0.23148863321253,0.9848868369153161,0.03573179939635941,-0.9508608094766464,0.011101500125013066,-0.5602178049770898,0.022094218669901924,0.3410824567128743,0.09722392516745416,4,left
1.921,0.22610297388598838,0.9861353232269268,0.033227794319810704,-0.9487648524821451,0.010928194887827366,-0.5598583018580754,0.022658309954976433,0.34130907855737397,0.09663150031993964,4,left
1.9280000000000002,0.2217314887687253,0.9876973436080512,0.031194469767048632,-0.9503776379251537,0.011013750783150693,-0.5599735904378977,0.022332012031896352,0.34117824078618597,0.09697429927327421,4,left
1.9280000000000002,0.21807940061884418,0.9915854305585774,0.030132726900898375,-0.9491052773900073,0.011059890771045012,-0.5602655713917353,0.022118867873283647,0.3410386845595993,0.09716991803692204,4,left
1.93,0.21482071227467336,0.9968532161835817,0.022993031979978158,-0.9504063182814368,0.01086858707537305,-0.5594817140554268,0.023139981322028415,0.341614858712901,0.09618446603473357,4,left
1.931,0.21239810242983026,0.9992657382806595,0.010696581462428707,-0.948850175928263,0.011174623205305054,-0.5606789620775889,0.02124183790869299,0.34054799329544677,0.0980184527228121,4,left
1.936,0.21123200899677141,1.001952709362258,-0.0025689170008393976,-0.9504373875799792,0.010844432308544535,-0.5593975066564625,0.023673604960433935,0.3419202052909204,0.09567178147533238,4,left
1.9369999999999998,0.21093925953122672,1.0058086713739558,-0.01868682792683137,-0.9496335418345161,0.011041452730351483,-0.5601461459403778,0.02164586173778284,0.3407734800116058,0.0976271634255367,4,left
1.94,0.2124070424684381,1.0076435156507872,-0.03433896605025357,-0.9483797329350363,0.011180772011144943,-0.5607507386714288,0.021708268618977157,0.34080198001896533,0.09756364518438645,4,left
1.9409999999999998,0.21444708423929143,1.0098774304008555,-0.04504310052686652,-0.9529488290107228,0.010520802453722687,-0.5580380636699926,0.025543341136294126,0.34299990176734996,0.0938801530778327,4,left
1.946,0.21714508324392778,1.0125501587580739,-0.051762139320052365,-0.9446412252659676,0.011754091898911443,-0.5630807830372373,0.016111078848261025,0.33759926220562014,0.10294184454401528,4,left
1.9480000000000002,0.21729402350489244,1.0136650206610018,-0.056569117973916797,-0.9552712300508949,0.010167983980122818,-0.5566029706571134,0.03175013994655485,0.34655435161974596,0.08791781845259115,4,left
1.95,0.21545840811844935,1.0141568551258073,-0.06192106297236989,-0.9464121157619106,0.011493696624909408,-0.562012102751925,0.011123709061705369,0.33474165708655557,0.10773192117414199,4,left
1.9509999999999998,0.21463987346755892,1.0132378407747358,-0.0633191518506512,-0.9465935005928112,0.011453031557999364,-0.561861398400415,-0.07542450962467473,0.2851586256400002,0.19086921934826956,4,left
1.952,0.2102281164095673,1.0147722132358203,-0.06127984854631808,-0.963677031114604,0.00893929296492113,-0.5515612864324515,-0.09604767955831409,0.27334511912073833,0.21067902639099265,4,left
1.955,0.20386523918565463,1.0156871760359134,-0.05734087966819754,-0.9217572159245685,0.015124929874149866,-0.5768828570570499,-0.08041522043820981,0.2823006577368991,0.19566246589847328,4,left
1.955,0.197180317151897,1.0104627398014128,-0.03846751597232359,-0.9912435301347581,0.004865051009891395,-0.5348970858804901,-0.08983793696463505,0.27690187294638513,0.20471594374895094,4,left
1.96,0.1920422768110406,1.0092138866378941,-0.021172227835426497,-0.8995940835101291,0.018401103755824537,-0.5902764180504012,-0.08601360714978637,0.2790937456075181,0.20103761226510775,4,left
1.9609999999999999,0.1910176441404884,1.0088097039352042,-0.016409375795330076,-0.5148072638613774,0.07519667510183067,-0.8227235599298299,-0.0859430812632624,0.2791331666812473,0.20097673729740337,4,left
1.962,0.1871539199844999,1.0012437526302667,0.0034990400067632247,-0.42315385825451357,0.08874077380422932,-0.8781030361528243,-0.08797045994210195,0.2779724594634908,0.20291732307478139,4,left
1.965,0.18137446271114213,0.9932911066948024,0.0305024034785537,-0.49264280840105834,0.07846812809915976,-0.836116782125542,-0.08555405229101544,0.2793565004009012,0.20059913407862973,4,left
1.966,0.1771835483644832,0.9874855637035419,0.05093982608751197,-0.45073045751291524,0.0846648405667646,-0.8614394516949655,-0.0874177200199533,0.2782884194905897,0.20239530004733064,4,left
1.97,0.1751044151400458,0.9841781519122574,0.0681769076908737,-0.46778774993465033,0.08215031903071393,-0.85113746893783,-0.08644758785556825,0.27884547655765474,0.20144422176396945,4,left
1.9709999999999999,0.18129076559020485,0.9815947449757485,0.07437612232578969,-0.4680175525708034,0.08209152434433131,-0.8509891946201816,-0.08660690134327731,0.2787520866248301,0.20163032085624702,4,left
1.974,0.1964369252911469,0.9780116494158667,0.0749341843853912,-0.459095451523328,0.08345909519929282,-0.8563961197211432,-0.08696328369308248,0.27855045597258443,0.201932072386596,4,left
1.974,0.2201929841936303,0.9736717369770815,0.0666496083050182,-0.46978014018290876,0.08181148852123515,-0.849918909640208,-0.0864288188417117,0.27885465750167576,0.20145102408422966,4,left
1.98,0.25422933444786644,0.9670164814560718,0.04941160620002588,-0.4614638680800922,0.08310811452438359,-0.8549643319031093,-0.08686368888033015,0.278605494797563,0.20186906563678214,4,left
1.98,0.2938056750302455,0.9597267835502992,0.04086294277594378,-0.46595161012504216,0.08241615243307018,-0.8522443124348095,-0.08670199062088965,0.2787017973366428,0.20165364372975156,4,left
1.983,0.33588282667753605,0.9519243965436078,0.03914859071789949,-0.4649006947078186,0.08251264777356707,-0.8528608191343658,-0.08653216160451273,0.2787907585099601,0.20162781139209324,4,left
1.984,0.37761282364881243,0.9432885024401847,0.04297427190359106,-0.4637808409681169,0.08286625951443069,-0.8535955965466808,-0.08697544462615922,0.27854919230198183,0.2018488195120658,4,left
1.989,0.41313031135869355,0.9350791401487748,0.05574198888044976,-0.4657202157132447,0.08225597972978765,-0.8523240754646666,-0.08643341173491953,0.2788465597413089,0.20154643631041746,4,left
1.99,0.44383099709782525,0.9292338688157373,0.06707217808233464,-0.46393656508127834,0.08291660776251428,-0.8535239734217923,-0.08679318028172925,0.2786479878455975,0.20176597031828197,4,left
1.993,0.46667122729066124,0.9288981922279378,0.06947489556297251,-0.4651130167992267,0.08242629787730246,-0.8527158127691488,-0.08695846806824846,0.27855999059642467,0.2018158542827253,4,left
1.994,0.4754217055904472,0.9339133785032339,0.0642469345729115,-0.46454396492724437,0.08250747143145501,-0.853058673558875,-0.08596790410215013,0.2790986009824463,0.2013404075601715,4,left
1.999,0.47368081341087614,0.9441361714152707,0.05981845766360282,-0.46477185522809367,0.08306127188531208,-0.8531018281594249,-0.08786800801687478,0.27806341775843135,0.202282931869797,4,left
2.0,0.46287591059799604,0.9598436439943389,0.060967702441816624,-0.4645635466158837,0.08174961304921896,-0.8528145290470566,-0.08540548697725653,0.2794058232449442,0.20105068838189488,4,left
2.003,0.44633242668901857,0.9776674978921385,0.061283559805537825,-0.4649468093718808,0.08369562639061834,-0.8531992744600809,-0.08747084242883885,0.27827940295505693,0.20208885939708016,4,left
2.004,0.4265585849901,0.9972057885462698,0.05671319143532998,-0.464441986410406,0.08163537247846908,-0.8528473029249637,-0.08740033976863737,0.27831885469811274,0.20204606691967575,4,left
2.009,0.4033311583210102,1.0164457202517578,0.05006940008849534,-0.46473265716263823,0.08282592055189064,-0.8530512771180221,-0.08350102198469267,0.2804429928564738,0.20010545053570722,4,left
2.009,0.3836544673546562,1.0320095007123535,0.046230362589863565,-0.4651966701796759,0.08382072000504692,-0.8530981712934073,-0.09310605342964469,0.27520888560765044,0.20489675750692413,4,left
2.013,0.36878445698981266,1.0475404957419046,0.04363056097777439,-0.46344218371060436,0.0794262963647403,-0.8527260672132837,-0.07717272582461579,0.28389263337238535,0.19694408536142244,4,left
2.0140000000000002,0.36122733929461626,1.0569350518332494,0.041524820518411096,-0.46668225622730686,0.08757778341186664,-0.8534244043992918,-0.0981912966710819,0.2724364020765295,0.20743714083452755,4,left
2.019,0.3595140669823848,1.0597420566260083,0.04077407786770045,-0.46250393866746764,0.07711352826128862,-0.8525384236365074,-0.18640883499483307,0.22436400500098114,0.25146245226439046,4,left
2.019,0.35065108939576906,1.066577598189383,0.031171136598284143,-0.466000723083464,0.08584837564011452,-0.8532732215538494,-0.20742736745477727,0.21290624559286397,0.26195718419689207,4,left
2.02,0.33334706897984956,1.0722543749341606,0.020504724114682606,-0.4659272050854727,0.08560872439506245,-0.8532396658267412,-0.19149236610897014,0.22159262967571242,0.2540010510621802,4,left
2.022,0.31656957824842136,1.0742437341060922,0.02409049522703014,-0.4591674504902213,0.06896707249898873,-0.8518968034550536,-0.201103488890193,0.21635566942101936,0.2587975025002495,4,left
2.023,0.2989727016904339,1.076170740184287,0.04386049655840073,-0.47576685432575794,0.10987254960459367,-0.8552076336729829,-0.19719150802548752,0.21848150147066492,0.2568508747074746,4,left
2.028,0.26872465858691563,1.0811687521353317,0.08188929398455093,-0.4482430476717474,0.042049777257654394,-0.8497195829111348,-0.19713988391785536,0.2185221039876942,0.2568129811045794,4,left
2.029,0.24549292574132625,1.0875311355064472,0.10872194049015274,-0.4845485023671765,0.1315067367991351,-0.8569536851583592,-0.19918487059410006,0.2173901944788139,0.25785056137613993,4,left
2.029,0.23884300202727188,1.0896134199235235,0.11445948509443171,-0.6368572224664067,0.5069936317328358,-0.8872498962098079,-0.1967342646442502,0.21874286164604329,0.25661087043189057,4,left
2.032,0.21370818643042644,1.0995239841445388,0.1271344695096991,-0.6731367307306033,0.5964492543467514,-0.8944697042497404,-0.1986447663787158,0.21769434552934597,0.25757153017390455,4,left
2.033,0.17961729175706437,1.1195746894107237,0.12894902993915636,-0.6456746957201902,0.5286286110389551,-0.8890095592834535,-0.19760816536342368,0.21824466369175366,0.2570680948863537,4,left
2.037,0.16145948091239168,1.1377004442531788,0.11163741212064528,-0.6621654122809754,0.5695322206007927,-0.8922822072153117,-0.1978601522134102,0.21815425397696764,0.2571489845527516,4,left
2.0380000000000003,0.15367326175224963,1.1561796306668548,0.1040047351626564,-0.655558620704171,0.5528907549056663,-0.890978887601052,-0.19810550581202585,0.2179397973940798,0.257348677055244,4,left
2.043,0.16024962158213144,1.1742961510645111,0.11813821871485698,-0.6553203776569192,0.5526540328567542,-0.8909209386177295,-0.19766674697168404,0.21827794473005874,0.25703497731766767,4,left
2.044,0.18220041272615156,1.1856593301145946,0.1548193268094177,-0.6589217335974149,0.5613820143918353,-0.8916421248982742,-0.19808318995394317,0.21797206346213488,0.2573182990712317,4,left
2.0469999999999997,0.21809919623166227,1.191348976658685,0.1969120760760249,-0.6548036684169418,0.5509279263805626,-0.8908303859530791,-0.19778534964981126,0.21813367572696135,0.25717032324228206,4,left
2.048,0.2637320492772177,1.1911956243350201,0.22365333183244004,-0.657712508456413,0.5590688421745843,-0.8913839981747345,-0.19796662307783486,0.21818132241670984,0.2571207870838885,4,left
2.052,0.30766332441007793,1.186297729833878,0.22617467701718263,-0.65660957805664,0.554679938579969,-0.8912078022826624,-0.1978493466817578,0.21791059484654313,0.25738218425514303,4,left
2.053,0.3499053934734191,1.1843565495143276,0.20856948070602094,-0.6561847872048707,0.555681471503051,-0.891070353661888,-0.19795315990176293,0.21835323755565547,0.2569567521675311,4,left
2.059,0.3884989872758953,1.1871744993040703,0.1876594728881657,-0.6573197948381362,0.5568465019247058,-0.8913383151286121,-0.197855766710626,0.2178741387717094,0.257416860180816,4,left
2.06,0.4194981296077275,1.1920789954451458,0.15917613216172122,-0.6565087977690316,0.5548323396530106,-0.8911772475557227,-0.19789106655530675,0.21816239513141167,0.2571405953932877,4,left
2.062,0.4458876964903409,1.1997964670553174,0.12548168933670045,-0.6560448242028405,0.55671953878432,-0.8910071350194404,-0.1980252930648682,0.21835429873661705,0.25695409402790614,4,left
2.063,0.46550452760671795,1.2089002356719782,0.10581425585335763,-0.6583427406954196,0.5554581484256885,-0.8916421556136689,-0.19760783659174339,0.21742177608811225,0.2578548080299874,4,left
2.066,0.47743604246411253,1.2149226430551534,0.08901514730204649,-0.6543730839058113,0.556004584498016,-0.8905870930212909,-0.19835124631092937,0.21916792574352686,0.2561692147385146,4,left
2.0669999999999997,0.4842857767746877,1.2142484144235088,0.06798936449031104,-0.6588433858774324,0.5560104355269977,-0.8917592469471486,-0.19740369552285106,0.21692194512268653,0.25833696032749653,4,left
2.072,0.48954517964180116,1.2069684531539036,0.055788255846204615,-0.6561386603520831,0.555706382383792,-0.8910577652540588,-0.19819174820360547,0.2187986620631533,0.25652592415359865,4,left
2.073,0.4907242080823334,1.1954438230525444,0.05038657556402719,-0.6540635656439778,0.5560779073382549,-0.8905040708352525,-0.19818161848247082,0.2187417120520787,0.25658005400648465,4,left
2.077,0.485621483276182,1.1819033118314493,0.038520947677586806,-0.6636865023970324,0.5557894401831365,-0.8930349276735006,-0.19664268445142435,0.2151830818181126,0.260016374669383,4,left
2.077,0.4740916539399712,1.1689948855568324,0.022091506036639785,-0.6456828420160781,0.5559341210340116,-0.8883100754750533,-0.20041155198097482,0.22393729571041826,0.25156447913728525,4,left
2.083,0.44679995600113276,1.1587627687058926,0.018699632012311798,-0.6688704758461674,0.5559221638870351,-0.8943909038378219,-0.1941666496488289,0.2094201245700998,0.2655793942631578,4,left
2.083,0.4286401344775104,1.1532192651385684,0.022746723980455786,-0.6494822980583241,0.5558566912411379,-0.8893084259565539,-0.20240257211053808,0.22856886272566723,0.24709399628433304,4,left
2.0869999999999997,0.422997423978637,1.1527615627505412,0.022939502921400484,-0.650033103775604,0.5559260337584293,-0.8894510308697055,-0.23699743736616102,0.3089310821442565,0.1695056322166414,4,left
2.088,0.39443161002174215,1.1526970692640437,0.019384146524489373,-0.6869541588737202,0.5559239376501264,-0.8991330014054596,-0.24523332939661086,0.32807999721893655,0.15102142746803826,4,left
2.089,0.3561989048349815,1.1539113258318672,-0.00014440418038156287,-0.5961600041366555,0.5558066382610158,-0.875326914248305,-0.23898845993518555,0.3135626354801876,0.16503505243925573,4,left
2.092,0.3125196171050608,1.1622710210498925,-0.023605002469551137,-0.7467232954393141,0.5560627372709764,-0.9148026883489624,-0.24275734017795858,0.3223167736794551,0.1565826629169246,4,left
2.093,0.2795570192997839,1.168838221199548,-0.029820238962649723,-0.548119918076477,0.5556896154181707,-0.8627324592130406,-0.24121829653919116,0.31875878434842075,0.16002327208717118,4,left
2.096,0.2715456945420128,1.1715829898986843,-0.028590783446866067,0.2855182268015822,0.5541211740891356,-0.6441675872548227,-0.2412084023898087,0.31870045933755164,0.16006817878922236,4,left
2.097,0.2442573446073217,1.182877725518138,-0.022237530975074835,0.4841287093914593,0.5537053921520825,-0.592097045666644,-0.24199611751906794,0.3205791445591297,0.15827036344806417,4,left
2.0980000000000003,0.21131421795774044,1.1955452657033683,-0.01600846544486405,0.3335502729562971,0.5540433246748262,-0.6315738856069203,-0.24104890259886375,0.31833120792544245,0.16042494796183834,4,left
2.101,0.1957749045853176,1.201253549753703,-0.029994345722499004,0.42436791949092856,0.5538172069646731,-0.6077653491681592,-0.24179216788544244,0.32007819416482164,0.1587450257880953,4,left
2.103,0.180942344740744,1.2047951666882168,-0.05440148629660998,0.38741790581600244,0.5539225382901316,-0.617451512901753,-0.24137442187411356,0.3191473682183852,0.15965705897173105,4,left
2.106,0.17367903227252612,1.2060804054450145,-0.06995532092760307,0.38689302712225015,0.5539347870794233,-0.6175886458881592,-0.24150957913016502,0.31933383561204987,0.15943412571244403,4,left
2.1069999999999998,0.17247743992224235,1.2052179099635807,-0.08113100781379515,0.4062731571369712,0.5538118275040403,-0.6125111715393977,-0.24154327636039769,0.3196314421398323,0.15922061738456367,4,left
2.1109999999999998,0.17518341906223828,1.203325534571928,-0.09038147700177537,0.38305715720319977,0.5540311765807907,-0.6185905668955027,-0.24144784880742629,0.3191408860338146,0.15960372576653722,4,left
2.112,0.18655823488810971,1.1997717696096812,-0.09226618464967379,0.4011406104945209,0.5537528223152606,-0.61385974290002,-0.24155009668128455,0.3195926366728733,0.15923965420610803,4,left
2.116,0.2012070635265204,1.1957049315834607,-0.09205630417501726,0.3913863782068493,0.5540105413127763,-0.61640701333108,-0.24143280228410294,0.31932205102461886,0.1595016610034863,4,left
2.117,0.21507118723153656,1.1927312178975453,-0.11092555176216433,0.39361661381824165,0.5539039766264895,-0.6158265726666532,-0.24161698989478284,0.3193526564617139,0.1593381119121738,4,left
2.121,0.22439252723415193,1.1937349635375432,-0.15266964270372663,0.3962060804564409,0.553696299050559,-0.6151563351037307,-0.24131249702354807,0.3195531033880681,0.15945057949329555,4,left
2.121,0.22648640767317607,1.2042763365593254,-0.1774684312192251,0.3917156970401937,0.5543563246094241,-0.6163059226598719,-0.2417388587744096,0.3191893756040727,0.15934545365696023,4,left
2.125,0.22003055029045315,1.2237509968143505,-0.1699215185182449,0.39594279466110727,0.5532272461780641,-0.6152452449263037,-0.24128953321779417,0.3195890801093117,0.15944573554703723,4,left
2.126,0.21040756026897162,1.2464917709135412,-0.16020912410198496,0.39309114733698314,0.5546074999141196,-0.6159346282809149,-0.24154098065827012,0.3193392421436322,0.15940642595545698,4,left
2.131,0.2041332927752392,1.2734534519750023,-0.1642042299798817,0.39435343677980794,0.553509367759781,-0.6156499685977084,-0.2417982565005594,0.31921774613116527,0.15928066745488345,4,left
2.1319999999999997,0.20105073851470961,1.299668230574018,-0.18340790434498627,0.3943475311026704,0.5534998348070199,-0.6156522645656259,-0.24073858512562302,0.3199028802018835,0.1596803180452539,4,left
2.137,0.20149335843832458,1.319015857349306,-0.20970931148322236,0.3936258788631371,0.5555334040854067,-0.6157548258742576,-0.2426918367596729,0.31860485681348927,0.1589667316765195,4,left
2.138,0.203718353577853,1.3339593194373192,-0.23110769439824408,0.39459205850922974,0.5508872248835359,-0.6156988991740241,-0.24018637666716336,0.3202774010425478,0.15987633557535053,4,left
2.14,0.20830762683430706,1.3419107110879387,-0.24422435124462888,0.3937132550771953,0.5578175770093248,-0.6156353300476956,-0.24227709212108595,0.3188791709762583,0.1591203134616579,4,left
2.14,0.21092967652750794,1.3509273657145635,-0.25458478721903655,0.39432150635360086,0.5504300250110687,-0.6157886442405973,-0.24222440139187176,0.3189253086326922,0.15912930817884818,4,left
2.146,0.21102109851760725,1.363850922603842,-0.26586780943979565,0.3940743415539404,0.5546989395879669,-0.6156737298122239,-0.2382247821940566,0.3215629394097158,0.16060660445453734,4,left
2.148,0.20887589124391254,1.3788358757508683,-0.26044487242770953,0.39390786150992774,0.5583768234816888,-0.6155592928627566,-0.24805102157109826,0.31507148436822374,0.15699098668760064,4,left
2.15,0.18769906969244132,1.407461842162646,-0.2470761545066072,0.39451584668163464,0.5422768732978243,-0.6160850667637058,-0.23175945604547205,0.32583515833932275,0.16297947981156213,4,left
2.151,0.1676206542547839,1.4260597014863126,-0.24481312341894687,0.39350677959046615,0.5721358373943009,-0.6150817757159714,-0.2532483960340478,0.3116404076803633,0.15508488631195744,4,left
2.155,0.1611540726264878,1.4310803234209044,-0.2510125815652299,0.39472128437531945,0.5337938859683766,-0.6163884613063306,-0.3434510393094975,0.25205728112472625,0.12191262572250626,4,left
2.156,0.1342963588357744,1.4564699505379668,-0.2692102741221013,0.39374017203222444,0.5658062925735323,-0.6152933386033566,-0.36494194790380485,0.2378707026896602,0.11402713658301353,4,left
2.157,0.09238197549449792,1.490168907204057,-0.27463442431599827,0.393780656506152,0.5649333068887701,-0.6153089162411447,-0.34864756259191365,0.24862220029486623,0.12000082015292134,4,left
2.161,0.053969439835255,1.5176778964190416,-0.26769257613751957,0.3955525168569784,0.5039082132984429,-0.6174485112923119,-0.35847543548199234,0.24213919349339427,0.11639902169872757,4,left
2.162,0.012678288711787786,1.545651598913342,-0.277019727565993,0.3912006290929013,0.65391295006293,-0.612208960218438,-0.3544778437050783,0.2447818038213957,0.11787277913971328,4,left
2.165,-0.033161519094397046,1.5762950269426819,-0.28286804957859324,0.39840552905820714,0.4051898835441218,-0.6208856699693923,-0.3544174252140091,0.24480096014024783,0.11786519510298159,4,left
2.165,-0.06096776418347209,1.5971824388827915,-0.281819966803893,0.3889106625633625,0.7332606288373487,-0.60944916091251,-0.35652191526491406,0.24345443997719723,0.11715231339269465,4,left
2.166,-0.06764066792274705,1.6005308026559484,-0.28057598618282875,0.3493843578184228,2.1101398823208815,-0.5610529325653006,-0.35399937261450143,0.245059222678948,0.11799476240007802,4,left
2.17,-0.08735156298123703,1.6084748544727363,-0.2751806600702451,0.3399153549009586,2.438203421582954,-0.5495984481455565,-0.3559662458225614,0.24382065023997823,0.11735508582686136,4,left
2.171,-0.10952426461792958,1.6174319566832782,-0.2778011794989317,0.34704826519957144,2.1895129672952045,-0.55834478288675,-0.35490683950402635,0.24449435044502132,0.11770886025710828,4,left
2.176,-0.11640103261481782,1.6154969784226858,-0.2740540489195217,0.34284160847892775,2.339432771157986,-0.5529349009507045,-0.3551384832209201,0.24428992000933794,0.11755276232925388,4,left
2.177,-0.12042023081039821,1.6132057201019685,-0.2563065670438281,0.34438494160027405,2.2785630265481966,-0.5553763872418912,-0.35544816038119564,0.24425096234744842,0.11766683172607116,4,left
2.1790000000000003,-0.12179872409150182,1.6108070889582384,-0.2355152339659236,0.3447024500036535,2.2774768474278915,-0.5549871869963229,-0.35491244022277413,0.24431968927156503,0.11747153917912713,4,left
2.1790000000000003,-0.12113426652362183,1.6095245776037206,-0.21951199310119507,0.3434960197185798,2.3096980086634886,-0.5542764603081778,-0.35542998018314176,0.24432762126529034,0.11776236548388984,4,left
2.185,-0.11878071929679755,1.6094948503484896,-0.21519785136592684,0.34472019828534284,2.271269244991567,-0.555445157399029,-0.35507497602114146,0.24428330615532615,0.11750941906399212,4,left
2.186,-0.11839819459967024,1.6092226101078189,-0.19205882627451384,0.3441056470080031,2.300940856392958,-0.5540468391131791,-0.3552076797097798,0.24419320363291383,0.11745731133937133,4,left
2.19,-0.11809683537927233,1.6101183795773504,-0.15614743111745294,0.3437866337901464,2.285433469417585,-0.5557385382804116,-0.3553011749489162,0.2446486288012073,0.11813411726827346,4,left
2.19,-0.11191727248121647,1.6120260439264662,-0.14740792508766337,0.3450258166783855,2.2880937293393853,-0.5536703063532405,-0.35501425607493065,0.24365621247941655,0.11661422969976126,4,left
2.194,-0.11028715840479249,1.6179493549973476,-0.14470088633456973,0.34325383409546595,2.293610106139806,-0.5558988576450163,-0.3554252962400529,0.2451479543294604,0.11888798202916835,4,left
2.195,-0.11493616591865,1.6214924482847912,-0.13313667259460307,0.3447806554991808,2.285228954682129,-0.5542626209713895,-0.35500966537135537,0.24354281858493174,0.11645567077908048,4,left
2.198,-0.1175356774395112,1.6162036752120708,-0.12108667904805803,0.34459284561813674,2.292148577634567,-0.5540024940485431,-0.3552500990036682,0.24447011462852258,0.11786125086386517,4,left
2.199,-0.11498156789249511,1.6068828883843085,-0.09828049810779754,0.3422885876865574,2.2893508452555187,-0.5576821295813145,-0.3554071750580545,0.2453024922447623,0.1190903953768171,4,left
2.204,-0.11252997326255457,1.5946527365079632,-0.059852698293602895,0.34780161920935715,2.287162983348727,-0.5495747001746758,-0.35465466823172587,0.24170234609283264,0.11373301310664344,4,left
2.205,-0.11448573511224756,1.578777559232511,-0.01245832637542313,0.33948985209694216,2.2934493089189276,-0.5615631222513779,-0.35605353404797174,0.24837674877999313,0.12366793777960489,4,left
2.209,-0.11526575817948287,1.5628317743476052,0.022574989390630896,0.34838284204729175,2.285641569224855,-0.5488223535173121,-0.3542613594951398,0.23980371809904186,0.11090866479534142,4,left
2.21,-0.1127724617569142,1.5490194677716218,0.02436464115020065,0.3432218353339334,2.2908954138011497,-0.5561575198652494,-0.35575584082779593,0.24696221338490593,0.12156269788281784,4,left
2.214,-0.10637135485818873,1.5350663672261238,0.017849586764740483,0.3388434581723687,2.2931156820451464,-0.5625627294490919,-0.3557097016870117,0.2467717999299174,0.12127324069139686,4,left
2.215,-0.10102959622787527,1.5220244377977141,0.03540609867851378,0.358136498850141,2.279138679521404,-0.5346824007790558,-0.35288352709096416,0.23310749199248534,0.10095730180788917,4,left
2.219,-0.10206105490490114,1.512662725353045,0.06709121765419582,0.3223247282330922,2.3060669305093437,-0.5863503387909408,-0.3598347192478597,0.2666903147432651,0.1508957699908249,4,left
2.22,-0.10078472742702399,1.501960221153194,0.1024159520711023,0.3683230762118443,2.2711246156997387,-0.5200200125766912,-0.34830917214985174,0.2110080347065401,0.06809145276888263,4,left
2.2230000000000003,-0.0974568947609194,1.4941962440744567,0.12365038026800568,0.3299110008572197,2.3004537666443836,-0.5753888867471251,-0.36351042056375904,0.2844536557914519,0.17731334818116645,4,left
2.225,-0.0954882994310309,1.4913467094775017,0.1272134889094671,0.3309717591523541,2.2994132174851103,-0.5739022796274476,-0.42729018134625785,0.5927459811514536,0.6356866778351037,4,left
2.226,-0.08864922670820372,1.4822186533320956,0.14889438573169073,0.40416278314641274,2.2441423918221997,-0.46829382382759754,-0.4424888606535422,0.6661928072552795,0.7449060234022649,4,left
2.229,-0.07861111221224301,1.4674005927124996,0.18400743239197054,0.22423078475986832,2.3803533937679417,-0.7278472029691267,-0.43096892757054817,0.6105090507775528,0.6621154647264043,4,left
2.229,-0.06997961138592937,1.4498743355177104,0.20854604991489145,0.5225884599830601,2.1543665495596,-0.2975053256377075,-0.4379111373505138,0.644091989336889,0.7120160206385755,4,left
2.233,-0.0656208718830048,1.43904949595345,0.2207279267134553,0.12904091703320894,2.4524993359122984,-0.8651186221716174,-0.43509644002372005,0.6304307450718095,0.6917712536299674,4,left
2.234,-0.0662382631012722,1.435497125489897,0.22247526656749145,-1.5224419982734414,3.703400951758586,-3.247781135028096,-0.4350394333168593,0.6302328972727711,0.6913823216875676,4,left
2.234,-0.06871331844581141,1.427134050998809,0.22744845714110157,-1.9159741662871965,4.001529662789858,-3.8153978864565374,-0.4365384261821379,0.6374027264731335,0.7021360202636375,4,left
2.238,-0.07232790801585628,1.426660191532596,0.23905666819278265,-1.6176862075484943,3.775561282423355,-3.3850403408076324,-0.4347555872313982,0.6288175667976059,0.6893311635095686,4,left
2.239,-0.07805750134979075,1.438013007194502,0.2510517429722554,-1.7974365154497147,3.911724179535123,-3.6446345558890165,-0.4361247460875619,0.6354987682714779,0.6991861082981599,4,left
2.2430000000000003,-0.0864895958120227,1.4559488498517372,0.2700535739564996,-1.724577928351357,3.8565413580623704,-3.538951381122875,-0.43542339370425176,0.6319054298417344,0.6940974824332855,4,left
2.244,-0.09248768795044485,1.4849877328807666,0.2960131709543961,-1.7230608405993815,3.8553800197831105,-3.5375673411398285,-0.43551748115716976,0.632709673296088,0.6948559114073801,4,left
2.249,-0.09225770776531855,1.5221337823565468,0.31387965654742034,-1.7619198813649928,3.884827465565987,-3.592835750490446,-0.43580865983156536,0.6336889656448975,0.696848288977505,4,left
2.25,-0.08489673857096389,1.5685480750291387,0.3095169403593616,-1.7157354087486043,3.849835919213796,-3.52654726406441,-0.43539211826362456,0.6320162839164027,0.6939340177476643,4,left
2.253,-0.0642719616155504,1.6229576838526023,0.27475657199251635,-1.75114661120296,3.8766580894858467,-3.578305228109116,-0.4357122095439423,0.6335674452872777,0.6962361206916583,4,left
2.254,-0.03237787388719484,1.684245827968693,0.22065223133397163,-1.7331214528729455,3.8630167453287405,-3.5501399313769326,-0.43563552428387425,0.6325627563762655,0.6955359025253338,4,left
2.259,0.008087231127319756,1.7538160254063229,0.17305096960383193,-1.7353219077643722,3.8646604952810826,-3.557034658480589,-0.4354136279831309,0.6329372507666482,0.6942799850189345,4,left
2.26,0.05826557907722514,1.8236343463128897,0.13609632314977296,-1.7431533284916394,3.8706211582133463,-3.5637696027694137,-0.43588436020184607,0.633055386470776,0.6971591859398797,4,left
2.2640000000000002,0.10704881863849555,1.8910810372287765,0.09743207985518293,-1.7321324810158236,3.862250307424317,-3.5515071225139296,-0.4353316656469428,0.6326816316273214,0.6937223037365435,4,left
2.2640000000000002,0.14521095987803806,1.954473732888097,0.04301474553100519,-1.740423299489195,3.8685308575112396,-3.563500217802737,-0.43568479303575447,0.6330639927345856,0.6959540832599993,4,left
2.267,0.16760707492917032,2.0064796011844903,-0.032936359488150026,-1.7388641866147307,3.8673898822480437,-3.5545041290343895,-0.4358841774177799,0.632876221736807,0.6971132632362376,4,left
2.267,0.16757840993460654,2.04796252527708,-0.1140428760367247,-1.7321349168307618,3.8622007458866943,-3.560214151263961,-0.43481829372271086,0.6327431875643237,0.6906301657281202,4,left
2.273,0.14630882656971955,2.075988103263567,-0.1833441084853465,-1.7457983278668685,3.8726873640027417,-3.5569251799431463,-0.43683997697547594,0.6332159422937709,0.7029851861463361,4,left
2.274,0.11079310377012329,2.078222437973467,-0.22915650997609893,-1.7299066648975523,3.8605042519791124,-3.55851772172838,-0.4342288073603572,0.6325267718964329,0.6870026295555206,4,left
2.2769999999999997,0.07262103822642127,2.0572110244794732,-0.2526189364483229,-1.7399780530984976,3.8682165263568344,-3.558880709832717,-0.4364135629886057,0.6331379161250286,0.7003930085747636,4,left
2.2769999999999997,0.03465688097735884,2.0180028683773084,-0.2574891254870454,-1.7458951646150078,3.8727724936112278,-3.5552042127637318,-0.4363487596058998,0.6330650271355116,0.6999603966790672,4,left
2.282,-0.005609250261823886,1.9699089928448532,-0.24620312729639293,-1.7148988327319215,3.8489743851893916,-3.5639342713095443,-0.4321993356098426,0.6320486471344471,0.6746165155365664,4,left
2.283,-0.041032663150150916,1.9286552772210317,-0.22492102229083488,-1.7735865779596889,3.894018907244113,-3.5494832688708553,-0.4424032744892219,0.6346303256559466,0.7370053572446299,4,left
2.287,-0.0707223119921421,1.8878518737675476,-0.1759388326437758,-1.6977947732517915,3.8358527536246627,-3.5674122676818474,-0.42548678562510855,0.6303155193977821,0.6335317487252012,4,left
2.2880000000000003,-0.0942381767594973,1.8629334061713958,-0.13690779033604314,-1.761252415234757,3.8845486468596886,-3.5527091558715846,-0.4477935914665475,0.6360226709456256,0.7700156047030038,4,left
2.293,-0.09919881263875599,1.8565603700443294,-0.12436653073005981,-1.7592534102237334,3.8830232854823525,-3.552698803080523,-0.5415106020172094,0.6598743294959493,1.342990835252491,4,left
2.293,-0.09965940543068738,1.8362275917808755,-0.07480471285305557,-1.6390015449950615,3.790723900660427,-3.581820677319678,-0.5638042196431214,0.6655924870676615,1.4794560398672063,4,left
2.294,-0.09286188410535917,1.8128608426945014,-0.008868770099737005,-1.9349719406377173,4.017879406797488,-3.5108333819487285,-0.5469007368784077,0.6612596621718558,1.3759935273932578,4,left
2.298,-0.033943305672667866,1.791095064899149,0.055980791764009295,-1.444087692522709,3.641141293742623,-3.6283103415162783,-0.5571145750937903,0.6638584565420548,1.4384222180459594,4,left
2.299,0.019910384358789505,1.773771070588054,0.10512141021576865,-2.0916145497792877,4.138083103867372,-3.4734403151490136,-0.5529085997857117,0.6628369530382663,1.4129450695766712,4,left
2.302,0.03816815955747656,1.7689241781416922,0.11539976395811645,-4.80938689134187,6.223830419981428,-2.8230580402531844,-0.5529593138359777,0.662745277264547,1.412754886736793,4,left
2.303,0.11875323972193673,1.7486924382209534,0.15672370494276405,-5.456915222624422,6.720726127596221,-2.6682042842151557,-0.5549833725482107,0.6634072246409637,1.4258331486643177,4,left
2.303,0.24342315367243378,1.7187727441961034,0.21881516766034187,-4.966002157350184,6.34404974896469,-2.7856146366736017,-0.5525260634529676,0.6626376532119309,1.4101170815729653,4,left
2.306,0.3597495452379881,1.6890798557819444,0.25938154440970324,-5.262068368809248,6.571182237292787,-2.714794218470894,-0.55449279774367,0.663200458608447,1.4224394059773053,4,left
2.307,0.48537544852796854,1.6476005370034699,0.30086056253759197,-5.141623009404136,6.47880395865694,-2.743616648834093,-0.5532684340602665,0.6630089053242318,1.4155378569630925,4,left
2.311,0.6052795559497106,1.600519324693304,0.3331061931345092,-5.139907532334684,6.47750618019527,-2.7440115311914255,-0.5539329799305839,0.6627901881583408,1.4177187763143673,4,left
2.312,0.7124338559254668,1.5476327663517138,0.35832138458405505,-5.203064972152189,6.525829457150339,-2.728918785564235,-0.5535103589168906,0.6633504588639512,1.4183752524393767,4,left
2.316,0.8041070238179369,1.4878114077058708,0.383067394074058,-5.12743930569421,6.468092209376787,-2.746996712642974,-0.553882359864732,0.6626260433332041,1.4166749712137987,4,left
2.3169999999999997,0.8749029044628038,1.4265961421317122,0.3977233649502668,-5.186301966286239,6.512844199697203,-2.732925387009189,-0.5536567335157665,0.6632214486837174,1.4184635544563435,4,left
2.322,0.921618429417224,1.3648014076326063,0.4077443407375827,-5.154594750791466,6.4889254658693645,-2.7405046221653793,-0.5533345704538097,0.6631449967721676,1.4165212761451154,4,left
2.322,0.9425382108685865,1.3034324840531109,0.41826220956381455,-5.161824240098516,6.49429596206722,-2.7387754105610984,-0.55476595901527,0.6622990432279192,1.419397460673399,4,left
2.325,0.9545691473841463,1.243968647289834,0.43306584042238794,-5.170189368466023,6.500363143240229,-2.7367822329796176,-0.5518101379388776,0.664312743731011,1.4147530829892225,4,left
2.326,0.9533567065569556,1.1865268643366675,0.4509056276746021,-5.1558021829029625,6.490455198698561,-2.740205299524513,-0.5561442156312248,0.6612894006603727,1.4212198275274197,4,left
2.331,0.9396353767091294,1.1324552609842262,0.46927053419724696,-5.169147111406968,6.498745886226965,-2.7370423115797378,-0.5515379669365608,0.6645159709855154,1.4144120553745079,4,left
2.332,0.931150572014509,1.083796992007288,0.48765241511303625,-5.160386446789353,6.4944153045550586,-2.7391033735369463,-0.5541774485759371,0.6626458715257626,1.4182099439539448,4,left
2.335,0.9226858175677384,1.037219312505742,0.5020994885788264,-5.164073177079388,6.495337596835858,-2.738248193817191,-0.55656210216948,0.6610623037733292,1.4221560622522857,4,left
2.336,0.9153968383112274,0.9917929896678203,0.5110777964893757,-5.164052499379844,6.495304917063992,-2.7382546946688398,-0.546304434426029,0.66803956781006,1.4059860501031394,4,left
2.3409999999999997,0.9166455169204637,0.9489445761962175,0.513325548924803,-5.162489464706767,6.497643013411706,-2.7385761386262155,-0.5652954509491015,0.6550915202267786,1.435775276421378,4,left
2.342,0.9202073314046175,0.9038280407179504,0.5115818402019019,-5.163830531213664,6.490587613905182,-2.7383729565273893,-0.5409167618355315,0.6717196646261353,1.3975684613517465,4,left
2.345,0.9290605240532163,0.8579013701219337,0.5112865242641064,-5.163667174309651,6.502523079888398,-2.738238114052626,-0.5612672457708747,0.6578363580090193,1.4294482657369412,4,left
2.346,0.940253872982858,0.8106473920576884,0.507111660687229,-5.162766304972399,6.488974430860489,-2.7386373732781095,-0.5607256583952644,0.6582163230369602,1.4286525214590042,4,left
2.351,0.9474935215284214,0.7640033420618589,0.4989805637916736,-5.163633233784863,6.497069129520262,-2.738326450585224,-0.5218892597317811,0.6846763759647473,1.367642020216573,4,left
2.352,0.9516497032558533,0.7231563305586115,0.4955377624029993,-5.1645122656125615,6.5041465340581075,-2.7380187201089807,-0.6173352736882947,0.6196347702401348,1.5175210975935531,4,left
2.354,0.940487918941618,0.6793094575600571,0.4947904391334334,-5.160229584616767,6.472835052428989,-2.7394524531783118,-0.4590816382392314,0.7274795934616991,1.2690324532097599,4,left
2.355,0.9272471803024941,0.6527552748082526,0.49553998716285097,-5.168575732536709,6.531213711610267,-2.736704103698455,-0.6678203748064419,0.5852307316205203,1.5967894383818844,4,left
2.36,0.922939495562261,0.6444563658676281,0.4949670038051274,-5.157576390183523,6.456034584578221,-2.740293651023343,-1.5439774056411184,-0.011829737756567427,2.972605992566818,4,left
2.3609999999999998,0.9019284839899396,0.6170657697656494,0.4896319266740708,-5.166892713881781,6.518902307387272,-2.7372752719810673,-1.752723272827672,-0.15408179212783968,3.3003776566099545,4,left
2.362,0.8704036060049212,0.5830972889166482,0.48575082825007104,-5.166623624162774,6.5171830524785115,-2.737337164630378,-1.594461920571535,-0.046233515690778805,3.0518731259271776,4,left
2.365,0.8463721566681786,0.5558987684161146,0.4823639532293919,-5.148687652127465,6.397186446463012,-2.743190830738551,-1.689905007208087,-0.11127380454618879,3.2017461797652205,4,left
2.366,0.8265644570253711,0.5292797829187366,0.4763055572325608,-5.192905845958341,6.69223547900987,-2.728819513437609,-1.6510941852669123,-0.08482521573767071,3.1407883247084163,4,left
