time,gFx,gFy,gFz,ax,ay,az,wx,wy,wz,subject_number,foot
2.655,0.4370224480365487,0.4155846287380855,0.16540872752226787,-0.19649070412344738,-8.210762157145528,-0.014824868740665867,1.4124919196819565,-0.1305050049487444,-2.48801467051603,4,left
2.66,0.43237514828556534,0.4417662952988438,0.16682191904084404,-0.19780151654868147,-8.210418993987822,-0.014031250837872059,1.4132770484149706,-0.13033890722397498,-2.491160184072691,4,left
2.661,0.4252041754782009,0.46590608005042755,0.1730406605820738,-0.1507596020256034,-8.22736706827724,-0.046799983881633804,1.4114859275682345,-0.13101916237437317,-2.485706725776368,4,left
2.6630000000000003,0.41714340372442416,0.4898252607816673,0.18332674542387878,-0.2070803237963264,-8.206980783776505,-0.007475161356246667,1.413515023035652,-0.13006337667665546,-2.49082925239946,4,left
2.6639999999999997,0.41144985709998666,0.5110280800653159,0.19275853238793872,-0.16325551085410112,-8.22297955165657,-0.03821694877462428,1.4114739471065256,-0.13132460501458895,-2.4873829586574967,4,left
2.668,0.40687012011066903,0.5285279303858875,0.20459546910541776,-0.18681812703536332,-8.214122562899094,-0.021415781722697216,1.4136291249160582,-0.1296223168157376,-2.4889139538314398,4,left
2.668,0.40304095042297977,0.5428255185689503,0.21813530345084658,-0.18155675260921283,-8.216556749315071,-0.025657737992348384,1.4112976821123127,-0.13174640566752302,-2.48886450890728,4,left
2.673,0.4010483999228807,0.5563852303845419,0.2320366287226304,-0.1751163916974167,-8.21825218723674,-0.029469478092758065,1.4134598146864477,-0.12963390470378153,-2.4880996532717523,4,left
2.673,0.396471644530781,0.5697632692753707,0.24966455540959434,-0.18610115564107382,-8.214776243189993,-0.022340175566080506,1.4124269846644806,-0.1307529671095084,-2.4890895147694065,4,left
2.678,0.39015163386635376,0.579621078603245,0.26762741267159956,-0.17592656674845647,-8.218473382450806,-0.029458673195157707,1.410863843402856,-0.13203332703549414,-2.488239442889844,4,left
2.679,0.3836446754314252,0.5864528709834309,0.2850981764423127,-0.18249381394019543,-8.215144367820232,-0.023845556991578934,1.4164638865797698,-0.12701192957941893,-2.4888174767937237,4,left
2.6830000000000003,0.3740820283755676,0.5928305540406322,0.30203886483822007,-0.18008883998125252,-8.218176993883603,-0.02786150190648125,1.4063712994248991,-0.13618716238605894,-2.488487513332803,4,left
2.6839999999999997,0.3621143996932693,0.5972108771129699,0.3156203806025374,-0.17923832972521286,-8.21526496102859,-0.02497366528423089,1.4192258672670846,-0.1244543321638023,-2.4886444140006025,4,left
2.688,0.35122673812744964,0.5979499927602949,0.3269081432008607,-0.18176893774281266,-8.217778373548647,-0.026916559123295138,1.4085373622647088,-0.13423016245127647,-2.4886250988580754,4,left
2.6889999999999996,0.3399230394509706,0.5984443255814884,0.3338503395632416,-0.17921787322879418,-8.216723496399506,-0.026555567507837732,1.4087614329200777,-0.13399406035457456,-2.4884546490965804,4,left
2.693,0.3275386205195471,0.5983536209941726,0.33778466551733977,-0.18040436272495525,-8.214578982059985,-0.023876404084103547,1.4293168445189264,-0.1152765589061638,-2.488947226374247,4,left
2.694,0.3162305844614088,0.5970285439640202,0.3385235354987244,-0.18145746052512365,-8.22168373294798,-0.03123292656181934,1.378886135369755,-0.16124318293373527,-2.487981660175291,4,left
2.697,0.3016936313769465,0.5998956814513017,0.33911009590151187,-0.17802908519152563,-8.209049306020418,-0.018622580808492543,1.4624712031273053,-0.08503946862519929,-2.4894931439124965,4,left
2.697,0.2921198481652759,0.6034244123874756,0.3451623805133584,-0.18296269136618254,-8.225073738718937,-0.034442485941033295,1.3522294648920656,-0.18555288957427618,-2.487527619722132,4,left
2.702,0.2897764820453513,0.6046560652735504,0.34690303163412417,-0.17861985909498204,-8.211785680637812,-0.021393103585536283,0.8894755117075556,-0.6074417432722904,-2.479176513185345,4,left
2.7030000000000003,0.28286933104055645,0.6094881176035379,0.3416804645532292,-0.1790821009855549,-8.212000307810797,-0.02150245086630364,0.7792175791583391,-0.7079736791801041,-2.47720047089227,4,left
2.7039999999999997,0.27806105943000325,0.6149513591697569,0.3359226097140279,-0.18644565854243814,-8.237718592931907,-0.04703319962840619,0.8628210925605171,-0.6317442539282555,-2.478711030813356,4,left
2.707,0.276807834170139,0.6207143479745719,0.33125829259451156,-0.16784940600808496,-8.174727158928292,0.015364613751738506,0.8123937728770005,-0.6777233741666587,-2.477793372882086,4,left
2.707,0.27852209729121463,0.6314873292891228,0.32478860409316745,-0.19886930551919718,-8.279071490444583,-0.08795904613183082,0.8328978153175062,-0.6590308518531189,-2.478158357098155,4,left
2.7119999999999997,0.28310927237922334,0.6377255185910488,0.3179643802130019,-0.15788818944757266,-8.14149667197675,0.04827376108893976,0.8332369234295518,-0.6587132996672584,-2.4782024187317373,4,left
2.713,0.2850379008201583,0.6411475640498552,0.3146811532472329,0.013888601895451713,-7.563587458707245,0.6203281871342664,0.8223798659255013,-0.6686280944922243,-2.4779235902967267,4,left
2.713,0.2954713827600358,0.6519404429693434,0.3030655939012959,0.05487737746348837,-7.4260668830382395,0.7565484543128058,0.8354067912139835,-0.6567291751115771,-2.478278892230362,4,left
2.716,0.3122168174610498,0.6626587000944577,0.28295387144619416,0.023809119384570924,-7.530337971714069,0.6532663779280532,0.8252314473809301,-0.6660275326707985,-2.477974772488879,4,left
2.717,0.3287367981950148,0.6730286699022827,0.2651810082345263,0.04254415437566603,-7.467375773756144,0.7155701180649776,0.8307028213013221,-0.6610301715939835,-2.478125637409692,4,left
2.722,0.3541659988990665,0.6848495319142376,0.2439701641759356,0.03491547449466482,-7.493182440647859,0.6901989438994998,0.8295873995787995,-0.6620291166253861,-2.4782097795334748,4,left
2.7230000000000003,0.3856521671175661,0.6943782500120728,0.21800854257803298,0.034828194837856444,-7.493135896088336,0.689882922925126,0.8277642937796628,-0.6637488397438513,-2.477840810863874,4,left
2.7260000000000004,0.4179864680295612,0.7020638143623383,0.19467350213661716,0.03878991218931001,-7.48027915436764,0.7031192130511499,0.8309162296049067,-0.6607762933906614,-2.478477089647278,4,left
2.727,0.4543557667821171,0.7073124195786662,0.17129660002066882,0.03404032812116713,-7.495803076288395,0.6872498628060235,0.8277660143466684,-0.6637695153275722,-2.4777088865972026,4,left
2.7319999999999998,0.49557212108401966,0.7120399083783567,0.14568906394223596,0.0377523161002014,-7.483516472602497,0.6996277414034247,0.8299819062170819,-0.6616528445208588,-2.4783162087327275,4,left
2.733,0.537495753876617,0.7130852503016466,0.12351272948392966,0.035704724869254724,-7.4907471766376235,0.6928984971234551,0.8293047268911894,-0.6622691860293695,-2.4783088003498865,4,left
2.737,0.579164901293701,0.7105840132314685,0.09920058836572002,0.03628272343945438,-7.487674210388498,0.694563135961479,0.8280925406894133,-0.6635535997453523,-2.477234488080608,4,left
2.738,0.6194108361846229,0.7078615901680587,0.07166662865652713,0.03661048291691257,-7.48851585549013,0.6961010032078061,0.8312383902170152,-0.6602762442112093,-2.4796969603213492,4,left
2.741,0.6555459402747009,0.7021174610255012,0.050636715522648965,0.03594073705226179,-7.488386579641714,0.6933204336192198,0.8266326223067382,-0.6650855915561833,-2.47602448374081,4,left
2.741,0.6909494579453498,0.6957848204930688,0.03261084979454988,0.036604129304201476,-7.488052348322312,0.6959696922366876,0.8314266709758962,-0.6600646561504379,-2.4799378564120484,4,left
2.7460000000000004,0.7246560839647271,0.6887632434343748,0.014922156369924878,0.03602247828837955,-7.490023691257632,0.6940385535606386,0.8286554450967172,-0.6629662885505287,-2.477675881295977,4,left
2.748,0.7531695019132917,0.6775939985114092,-0.0007581037085861416,0.03665123722180222,-7.484398702476022,0.6953060952745675,0.8265233294728171,-0.6652352824977532,-2.4757330920666134,4,left
2.7510000000000003,0.7777399770322659,0.6649876592134827,-0.013261632987413001,0.03579245367165003,-7.495308721489545,0.6943349555349885,0.8361868076794391,-0.6550059037780027,-2.4842468741023698,4,left
2.752,0.7990527694365333,0.6526408714250107,-0.017740824986452845,0.036935640419566346,-7.47949876136625,0.6953221496092485,0.8182493056782858,-0.6739898110000463,-2.468455469352935,4,left
2.7560000000000002,0.8147130327655406,0.6379895093666217,-0.018722922600870228,0.03574208435636486,-7.496265821320625,0.6943562078450232,0.8412605969673974,-0.6496346374427072,-2.4887342845861604,4,left
2.7569999999999997,0.8270143312488274,0.6229365196916108,-0.020863421511987473,0.03639198393081154,-7.486714482509855,0.6947779075171849,0.8220593614113455,-0.6699561924904385,-2.471801251093089,4,left
2.761,0.8362733975326857,0.6068601933306145,-0.020008535157941532,0.03715109737684763,-7.477803670155554,0.6958155396385005,0.8226060340970534,-0.6693874818950429,-2.47226826994727,4,left
2.762,0.8378874653635691,0.5916820223447951,-0.019728709051899704,0.03415283775055485,-7.515693337301116,0.6923790502472345,0.8591037962153514,-0.6307288851689151,-2.5045339769379105,4,left
2.766,0.8363554956929031,0.5797906378117881,-0.01514237743259967,0.039656306156197425,-7.445626085786475,0.6985513665956544,0.769376436121207,-0.7257540971535799,-2.4252125727735185,4,left
2.766,0.8277039824571999,0.5599821475530253,0.004162815310318401,0.03260007790683781,-7.53555190647567,0.6906726315599685,0.91814638496644,-0.5682075525891375,-2.5567416933328446,4,left
2.77,0.8178366500596244,0.545356708694702,0.01632338094241277,0.038489920511772927,-7.460493885800959,0.6972287000226047,0.721926342750081,-0.7759986752991828,-2.3832475441461733,4,left
2.7710000000000004,0.8151134282833488,0.5426060329340328,0.017413873055108,0.038340903465802115,-7.4624597179909955,0.6971286317707567,-0.10162926104799522,-1.6483035408897742,-1.655251776744873,4,left
2.772,0.8024352902316666,0.5303689965434536,0.030778086683208687,0.02706734858696613,-7.605799255256641,0.6843805344257572,-0.297838472200333,-1.8560911195356768,-1.4817667477390981,4,left
2.7769999999999997,0.7844620638198705,0.5132923705856285,0.04801609039992809,0.054771980895878994,-7.253562579032412,0.7156164120788338,-0.1490867366361845,-1.6985324631906065,-1.613255054165533,4,left
2.778,0.7654188820503852,0.49476031573693613,0.06418032105809096,0.008829234399878174,-7.837571152687355,0.6638575602607443,-0.23879554899955768,-1.7936156155195495,-1.5340395111125094,4,left
2.78,0.7486502285353716,0.4812969911292669,0.07656094362456492,0.06943720864479885,-7.067264530184083,0.7321175417587553,-0.20230634170129608,-1.7548278563712438,-1.5661119693980101,4,left
2.781,0.7440368003741917,0.4784280008417087,0.07942503382918951,0.32356274700391363,-3.833937915817215,1.0189790790926296,-0.20177294614060526,-1.7544592643252646,-1.5668438191020653,4,left
2.781,0.7265344884017114,0.46483970595115354,0.08914122613439629,0.38416219964323656,-3.063627138308701,1.0872568053901674,-0.22092977786387974,-1.774556169409499,-1.5496519385658523,4,left
2.785,0.6976667319423755,0.44646802393646,0.10470280332329157,0.3382673155385468,-3.647623693339737,1.0354480271666808,-0.19799439075936112,-1.750346908900152,-1.570037537931913,4,left
2.786,0.6759338491225473,0.43483798615484615,0.12692097604241598,0.36583858142334597,-3.2954472201376452,1.0667854412510174,-0.21584029696466972,-1.7694123104572261,-1.5544804095001992,4,left
2.79,0.6540949190057759,0.4227922575219741,0.15976507369607332,0.35481662054468016,-3.4386512560607168,1.0538766470835892,-0.2062472356983528,-1.758724785144496,-1.5622564983732148,4,left
2.7910000000000004,0.6295858108909131,0.41391878474859384,0.18858210665857772,0.354314778404918,-3.4408280754174507,1.0539724385915579,-0.2083857828992522,-1.7618969551385433,-1.5615786627488402,4,left
2.795,0.5925898281208903,0.4124105514673917,0.21926901472751387,0.36055957662314597,-3.365532039987317,1.0603676951795422,-0.21101351725000722,-1.763567496617072,-1.5577680637884188,4,left
2.7960000000000003,0.5385616444597479,0.42130198422361476,0.26121398563988263,0.35333840447261317,-3.4556143097803274,1.0524991901785792,-0.20653615820053006,-1.759712084383135,-1.562911880961056,4,left
2.8,0.48067278953440734,0.44578029552792403,0.3219477458798371,0.3585629732142528,-3.385629157293419,1.0589454599995825,-0.21067946110412222,-1.7641082668403625,-1.5592596643148542,4,left
2.801,0.43051415581483865,0.49079742527594566,0.4151961964918572,0.35651299630035516,-3.423039757120766,1.0548587616169982,-0.20801281233196933,-1.7596389454760937,-1.5594170819521538,4,left
2.804,0.4028614409705373,0.5609107154216781,0.5252826231636104,0.35560516355336036,-3.4150790983728156,1.0568874022323838,-0.2089745548012447,-1.7644167784625453,-1.5635943595627,4,left
2.805,0.41590844689745243,0.6562520052775375,0.6329727145891345,0.35833943248733835,-3.404227295935704,1.056228031714979,-0.20934722004509082,-1.759203398874995,-1.5557648516973632,4,left
2.8089999999999997,0.4669641787514628,0.7766614489806762,0.7408307432069039,0.35542458190675263,-3.4222327620613955,1.0559234706719351,-0.2082886292366532,-1.764060612188548,-1.5646958765734884,4,left
2.8089999999999997,0.5464938039606999,0.92258797738289,0.8301484336996809,0.356689847151952,-3.4059697725295512,1.0573775261044722,-0.2093436919000825,-1.7617235486049492,-1.559143542759887,4,left
2.8139999999999996,0.655830537517557,1.074058911469415,0.865986298328971,0.35871066755203507,-3.4156456065202683,1.0541216188270512,-0.20887454752197582,-1.7582494601165872,-1.55557608824015,4,left
2.815,0.7984855688517447,1.2057986295164649,0.8284891021731422,0.35250833827227357,-3.413683804236139,1.0597745654987902,-0.20838442493930115,-1.7707613814863001,-1.5734373873511762,4,left
2.819,0.9761832013207619,1.2943110654526555,0.6998700157191337,0.36231908555704306,-3.409513873958905,1.051971272697545,-0.20989414439318,-1.7481936477067328,-1.5397823059036964,4,left
2.82,1.1696880353214798,1.3044113936317099,0.490079246210982,0.3516562775822709,-3.4165561208968818,1.060058924979204,-0.20773922336245454,-1.7769431292605034,-1.5831883883873434,4,left
2.824,1.3756932916431466,1.25691557713554,0.24765899227349147,0.3579545740762758,-3.410745396277381,1.0555410384836947,-0.20962943404665893,-1.753037337707951,-1.5468701331915555,4,left
2.826,1.536268709685148,1.1830601531038836,0.027403456166737873,0.3629568094113834,-3.411151522519841,1.0511642234028409,-0.2094380078191238,-1.7535378212367763,-1.5479773923662914,4,left
2.8289999999999997,1.6108033604627716,1.0973826034459155,-0.14156119833808936,0.3402764781611708,-3.419364773946599,1.0694288349188723,-0.2062070935543695,-1.7995120314320667,-1.616898344396049,4,left
2.8289999999999997,1.6210463975223053,1.017710044490933,-0.251419701165128,0.382524113768415,-3.401772200080279,1.0357681527993414,-0.21435064095564937,-1.6867232141145165,-1.4473196608472452,4,left
2.833,1.4875407637980453,0.9044896264829171,-0.286434046842779,0.32820799190300237,-3.4252136743873995,1.0789128159200905,-0.20077260244120346,-1.8736554692218697,-1.7285562032830897,4,left
2.8339999999999996,1.3588937230405826,0.8199109754426805,-0.2896741958093474,0.37358387975264984,-3.4052823458431085,1.0429280028467893,-0.2187084342321562,-1.6271169331801993,-1.3575826582136097,4,left
2.839,1.318209420272694,0.7974325525952192,-0.28343969528202784,0.3723079364308094,-3.4063799025816417,1.0438469349897845,-0.29389222255206826,-0.5921866805983869,0.19948264126910376,4,left
2.84,1.1410982105504364,0.7142445373182383,-0.24026822730540964,0.2859111041180381,-3.4429017341342587,1.1126073803653638,-0.3118292196082687,-0.34563887082269135,0.570459368262544,4,left
2.84,0.9072060843051362,0.6077601875270149,-0.17336169831980586,0.49833574000584246,-3.352325656435598,0.943686017454002,-0.2982353129067966,-0.5325707437579011,0.28920543430664647,4,left
2.844,0.6854151171328997,0.5445807352862553,-0.05547373045450131,0.14609504264047832,-3.5028145146382137,1.22372853920217,-0.3064301207810509,-0.41982263541387665,0.4588322158421255,4,left
2.845,0.5219658559120715,0.5055972488973175,0.036741760317483003,0.6107155701566643,-3.304202392943271,0.8543748431083427,-0.3030967214910728,-0.46568750486334587,0.38982082533166135,4,left
2.8480000000000003,0.48439869926860013,0.5017988422010191,0.062058933736996114,2.560878175771226,-2.471005256856647,-0.6960828486420505,-0.30305454489721506,-0.4663724377123299,0.38884010874099834,4,left
2.8489999999999998,0.353113035803888,0.5160261124401507,0.16928711389192813,3.0255223127845,-2.2723517272821954,-1.0654064870256144,-0.3047878130207914,-0.4422428622277125,0.4250314067934877,4,left
2.85,0.178581298337546,0.5730500198598413,0.32027695719739546,2.673240378000248,-2.4229604642758416,-0.7854158442889737,-0.30271791243537793,-0.47116437602650474,0.38168369771590166,4,left
2.853,0.07796308344085706,0.6949931027983052,0.44015092121392974,2.8857108854099254,-2.3321354968467904,-0.9542810074001622,-0.30432327611167964,-0.4486167617113257,0.4154399568566103,4,left
2.8539999999999996,-0.025116310382660788,0.8539186424235079,0.5594274609698827,2.7992841876224626,-2.3690569583735708,-0.8855540485633757,-0.303455230119692,-0.46076356349588454,0.39723735820773315,4,left
2.859,-0.08895508438239219,1.0423479805971407,0.6443633351992784,2.7979959451459866,-2.369660917278337,-0.88465750384903,-0.30367890591690805,-0.45809160696886286,0.4014033018246963,4,left
2.86,-0.1188437925855429,1.2472510287531255,0.7061818327951498,2.8434507624390273,-2.3501440776574487,-0.920534608063684,-0.30383803072891347,-0.45458480267902135,0.406208805788176,4,left
2.863,-0.12078315722651464,1.4578182462638007,0.7566162436701391,2.788979477406312,-2.3735390817975,-0.8775916478174958,-0.3035626615180071,-0.4606519806558752,0.39789228099785756,4,left
2.864,-0.07498089690668973,1.665167716412634,0.7758285045862496,2.8314362484589948,-2.3552863966806497,-0.9109899068173704,-0.3037835551569123,-0.4548111414448537,0.40568318806617887,4,left
2.8689999999999998,-0.01625615928035824,1.8574693736884083,0.7715903327197957,2.808561518187359,-2.36510681767322,-0.8929562491265206,-0.3036556608334753,-0.4588068478008177,0.400466457001692,4,left
2.8710000000000004,0.05141241818675046,2.0325517002712523,0.7448604560940365,2.8136263317655823,-2.3630320693270424,-0.8972843661866534,-0.3037677474633671,-0.4572840264485236,0.4027648600966641,4,left
2.873,0.11680565843095653,2.1819333942222174,0.7034708024618024,2.820136749794665,-2.3599653085242887,-0.9014914955190558,-0.3035336401684296,-0.4563535929432767,0.40268861824420576,4,left
2.8739999999999997,0.1661094270907882,2.2896778459203526,0.6597359086813253,2.8088738926167314,-2.3652656334744515,-0.8942042769976362,-0.30400778584686816,-0.45931980765526575,0.40159915417946096,4,left
2.878,0.20444098829858914,2.3348370792844504,0.6212631266724636,2.819670460450199,-2.3600557255151555,-0.9007435026241786,-0.303286103459219,-0.4550901077538234,0.40293051004187963,4,left
2.8789999999999996,0.2308763608418884,2.2969861248632384,0.5885972600920213,2.8123089164730466,-2.3636762350516056,-0.8965200148058561,-0.3040743732940011,-0.4593398301240256,0.40190112496167063,4,left
2.883,0.2494776025363164,2.1618898103097095,0.5541377569070545,2.815179586042488,-2.3624531632285715,-0.8988168553160552,-0.303618989518147,-0.45688209986929096,0.4024997175033226,4,left
2.884,0.2724721966286131,1.9329146852457453,0.5160457608235306,2.81662152931902,-2.360958696847987,-0.8969409128257084,-0.30318501893065064,-0.4553360567930705,0.40215270916676893,4,left
2.888,0.3023737406652044,1.6535987066529851,0.48136803674973966,2.811744642489918,-2.365050402708719,-0.8999700719129129,-0.3050309583137681,-0.4628421316625182,0.40255507509675964,4,left
2.889,0.3308414825121865,1.3671248370881703,0.46387043376035303,2.8186510749764153,-2.3591035212868254,-0.8951581282837497,-0.301610022942263,-0.4488865798033007,0.4018635425511161,4,left
2.8939999999999997,0.36096543525618396,1.0851867410913996,0.46801228128444927,2.811778055386455,-2.3652347877500475,-0.9006764775370724,-0.30600644320165266,-0.4667570108668387,0.40282416211009475,4,left
2.895,0.39164080345778,0.8311750497567818,0.4902192116178724,2.8157521904325065,-2.361689013333809,-0.8974907143426152,-0.3023340577173888,-0.4518619207972574,0.4019880666127764,4,left
2.898,0.41984817713569644,0.601396873583927,0.5182567279208494,2.818102984092299,-2.3590980574317673,-0.8938886617647182,-0.30243014388050904,-0.452319941206428,0.40192327755002044,4,left
2.898,0.44775897964457273,0.39535997543421475,0.5385246651008737,2.8064290626128905,-2.3710423965913945,-0.9085486433769112,-0.3094487450155214,-0.4804777361674444,0.40389681520254683,4,left
2.903,0.46997986137038694,0.22631397190187041,0.5541547113287069,2.8281416972665947,-2.3488590752584195,-0.8814129720049696,-0.29219911686400435,-0.4112343514138178,0.39910814662062255,4,left
2.903,0.49466630150249735,0.05431687297310721,0.5589829806735953,2.800357939072817,-2.3773079483709525,-0.9163319591889001,-0.3208015160142953,-0.5260313061350178,0.40705929132335317,4,left
2.907,0.5101276256547798,-0.05223163752246838,0.5585650278338645,2.8235023959043652,-2.3535705706959846,-0.887141075402019,-0.28307295870328664,-0.3746351046277986,0.39654590679782,4,left
2.908,0.5134008523076701,-0.07587612995837813,0.5550988721483597,2.822785688798997,-2.354272117245999,-0.8878556353842453,-0.12472743300555895,0.2608412081700644,0.3522636387244078,4,left
2.908,0.5308451065307873,-0.15310619229099742,0.5359505867186972,2.7790818589546085,-2.3993014307272693,-0.9438662094056625,-0.08699830095514172,0.41221919544164926,0.34171772797897715,4,left
2.911,0.5501271288880627,-0.23936967926302793,0.5094708436560653,2.8865410551901114,-2.288567992316456,-0.8062386285534542,-0.11559827300665523,0.2974357342322828,0.3497123676152114,4,left
2.912,0.5755967170998051,-0.2727939045627674,0.4588141973750683,2.7084079528214238,-2.472178913024673,-1.0344576000953247,-0.09835968074995713,0.3667086210629876,0.3449076715793322,4,left
2.917,0.6005680186769021,-0.29350038439827564,0.4139232381867486,2.9433133060304666,-2.2299989117003367,-0.7334009601590114,-0.1053539551974296,0.33844008751911914,0.3468251114406453,4,left
2.918,0.6076221882345267,-0.29509910082114976,0.40046889310060585,3.9296971984005356,-1.2138950374002637,0.5300923421338264,-0.10548750966121684,0.3381900261470837,0.3469215327956774,4,left
2.918,0.6441223239783237,-0.29151644277687716,0.34844159601124547,4.16458237770691,-0.971745795888276,0.8311688105504759,-0.10177331011563964,0.352811209352205,0.3458218601350256,4,left
2.9219999999999997,0.7113949689719984,-0.28025243776365216,0.26787798589114836,3.9864105744062797,-1.1552729409489308,0.6029634262721786,-0.10619649465087583,0.33518322724532157,0.3470854653649889,4,left
2.9219999999999997,0.7917860834952108,-0.254775661766459,0.19775877813616882,4.0940924631901225,-1.0447057015621595,0.740458733762421,-0.10279163060616539,0.34909043632817954,0.3461879512724528,4,left
2.928,0.9015051764646094,-0.22886193808750266,0.12232025603372308,4.049874243047119,-1.089476678448643,0.6847751953540472,-0.1045509459208432,0.3412465209618032,0.34650354795624116,4,left
2.929,1.0216990174744471,-0.19472515361946333,0.05437305014004552,4.049969038260018,-1.090487734529329,0.6835279146497538,-0.10428652583259601,0.3436577681767501,0.34673432784398034,4,left
2.932,1.1447615070097803,-0.15500935837071306,0.0006552312154421043,4.072186361486727,-1.0665038019570967,0.7133457596338733,-0.10360116238686043,0.3447514034016639,0.34616809260102066,4,left
2.932,1.2729026007546032,-0.10570404044476994,-0.04418976136306914,4.045030560439982,-1.094951845337678,0.6779733862389826,-0.10460564736075317,0.34204113010011344,0.3467478945301601,4,left
2.938,1.3909620184267613,-0.041222908934425775,-0.07585270713592773,4.067020544689653,-1.0732263430501212,0.7049872724675306,-0.10381025459271792,0.3452448435495459,0.34652815941694204,4,left
2.938,1.4906168073481278,0.033601684822549736,-0.09035539536819423,4.053543994749417,-1.0841172876802874,0.6914479959544677,-0.1040565482611304,0.3418055952925483,0.34604180889596364,4,left
2.9410000000000003,1.5684642377365963,0.12210355112675172,-0.09166601646493878,4.0595279731753156,-1.0831061659789247,0.6926982425487178,-0.10448055768382794,0.3457050000200862,0.34742944403562454,4,left
2.9419999999999997,1.6264177456746218,0.22672097919753448,-0.08826384186842182,4.058476052639767,-1.077867767482469,0.6992218371951084,-0.10350045315500413,0.34128251553157385,0.34526193845475506,4,left
2.947,1.6568684991036038,0.348474444598312,-0.07973311808312164,4.056460429962154,-1.0849829819990646,0.6903660332817578,-0.10467246012986398,0.34548651905203903,0.34760826857193183,4,left
2.947,1.654742891734512,0.4836805916212036,-0.06691411857452145,4.0614531986251095,-1.0798850953793706,0.6967045984495597,-0.10390995992757876,0.3433999169397399,0.34622858354541935,4,left
2.95,1.622725779287285,0.6290495949513717,-0.048850817544040276,4.052048478443144,-1.0802237784300956,0.6963008340863005,-0.10351791887471498,0.34053638733450664,0.3451136824383745,4,left
2.951,1.5645495046211897,0.7832628429466513,-0.029823699190083028,4.067392549655277,-1.0857816720976277,0.6893502386550101,-0.10572306672877017,0.35110386677741434,0.3501304652216559,4,left
2.9560000000000004,1.4860694120959572,0.9383090393339898,-0.017857299824274454,4.046668121283975,-1.075260799774028,0.7024915654527664,-0.10151792532172135,0.33197088147114134,0.3407941668897391,4,left
2.9560000000000004,1.38103524809088,1.0891562751264994,-0.008492694978259151,4.067966796602237,-1.0872915636638367,0.6874690178123302,-0.10695929523240243,0.3563706721584918,0.3527943896383665,4,left
2.96,1.2688058190626528,1.2299521295813705,-0.0037716889756533745,4.0561948348399,-1.0797941417154664,0.6968274805871331,-0.10239879403771471,0.3360722714379074,0.3427706265650981,4,left
2.9610000000000003,1.1466074314385075,1.3563487104633465,0.004783432195065878,4.044385481365828,-1.0750290148736945,0.7027854938996334,-0.10254977854331832,0.33651013599779195,0.34305059349399636,4,left
2.965,1.013083061120045,1.4640335838964147,0.01793967275346292,4.093000626394007,-1.0990147413676699,0.672820790791589,-0.11117254776093033,0.3755112216426468,0.36214110425520796,4,left
2.966,0.8942819534805386,1.548966048830839,0.02501924011116845,4.003572102717081,-1.053794553621951,0.7293072375738024,-0.08993879173798869,0.2798139656838399,0.3152059145134928,4,left
2.97,0.7526078273738968,1.6153061573438292,0.049467641065359946,4.118134559909914,-1.1121236717692538,0.6564489349655676,-0.1251606772232103,0.4384214569612694,0.3930321342003975,4,left
2.97,0.6572886027328757,1.6520641300771883,0.07013720032120335,4.0226141846965575,-1.0633190605465699,0.7174073712999556,-0.07869741271187791,0.22924321810747206,0.29037720308842885,4,left
2.975,0.6344385635743106,1.6572095766830874,0.07751216665705554,4.025002337707903,-1.0648041813043432,0.7155586034864836,0.11629738355462628,-0.6489432740254539,-0.14047726901587307,4,left
2.975,0.5522893119251452,1.6636186582215302,0.11168463019930339,4.207656763121588,-1.1574251629042471,0.5998572186255424,0.1627610612143019,-0.8581207083753083,-0.2431312421250682,4,left
2.9760000000000004,0.45514943506513333,1.664220952733206,0.15662689086500148,3.7590178008001747,-0.9295430133685648,0.8845134763428795,0.12753730380995315,-0.6995168744970695,-0.16530938711810184,4,left
2.9810000000000003,0.387834930615206,1.62263852904018,0.21325315414672746,4.502741754067134,-1.3074603606837192,0.41245187209102,0.14877593692807628,-0.7952045899523286,-0.2122331825574221,4,left
2.9819999999999998,0.3369822872483861,1.5847655564012686,0.2567756175047281,3.5218608666107762,-0.8089735250976131,1.0351083119421063,0.14014424535621423,-0.7562209682038812,-0.1931635368087726,4,left
2.984,0.3278168731729676,1.572551932914838,0.26781830105238724,-0.5957994024042539,1.2833862003835803,3.648714650202179,0.14000550719634283,-0.7557591236623741,-0.19285491214328554,4,left
2.985,0.29838802964319566,1.5201485044686738,0.30872271341882707,-1.5765372949024083,1.781831748438791,4.271293820557095,0.1445540148393158,-0.7760810218763619,-0.20290676590972773,4,left
2.985,0.2587984434498706,1.436563070615625,0.35724809847889333,-0.8330536906862678,1.403961608882668,3.7993314491194745,0.1391176365318692,-0.7516714288645697,-0.1908948072362429,4,left
2.99,0.24291392075352963,1.3572715469636323,0.38451199976069267,-1.2814481633793275,1.6318517607538463,4.083964133075067,0.14333353275390953,-0.7707833959637745,-0.20020601880490713,4,left
2.991,0.22505627570140646,1.2738178082884906,0.4112453641929197,-1.098905891509232,1.5391011307179856,3.968099586375152,0.14109435410015597,-0.7602825105989297,-0.19526878786678686,4,left
2.9939999999999998,0.21799402300557652,1.1934067722741402,0.42579704784091177,-1.0966941987484649,1.537907344056023,3.9666781431673814,0.14154484596165207,-0.7630316084083747,-0.19624695240729356,4,left
2.995,0.21661002064334675,1.1185782448880157,0.4363791538219889,-1.1916270837108194,1.586284327404341,4.0269628216703826,0.14223568437751205,-0.7652585600955453,-0.19779438491676815,4,left
2.9989999999999997,0.21350115596243013,1.0516017367018093,0.44557930840507254,-1.0780674609658116,1.5283934269714279,3.9548517232633493,0.14112076980463986,-0.7609426604763132,-0.19531425363385574,4,left
3.0,0.2170390868315199,0.9948162127692682,0.44642068015797387,-1.166287376529454,1.5734015129410346,4.010874091203904,0.14210145856682732,-0.7653641855216383,-0.197480753634676,4,left
3.005,0.22423262291791846,0.9442238564625298,0.4453950525004511,-1.1185990173280425,1.549092547805441,3.9805942466910684,0.1415713109977454,-0.7616723766430337,-0.19634102893890118,4,left
3.0060000000000002,0.23667481404927626,0.9035709270306695,0.43736171771196275,-1.1304986750343493,1.5549901419758487,3.9881289927386936,0.14156747122257812,-0.764637072283085,-0.19626041252130924,4,left
3.009,0.2560845383774325,0.8707574834541779,0.4176725092495734,-1.140369131921355,1.5604845731601902,3.9944520197808586,0.14200122006825244,-0.7621414712408243,-0.19732636440435208,4,left
3.01,0.28121645186262945,0.8424035721690044,0.391870066677489,-1.1232578429689324,1.5509667175385986,3.983492837177815,0.14138220387844763,-0.7640966500766833,-0.19584394690699858,4,left
3.016,0.31061879247665936,0.8215445963317339,0.36750739267818644,-1.137875102939093,1.559402737242872,3.992890063385296,0.14184492744537008,-0.7634397130928521,-0.19693263186623483,4,left
3.016,0.3459933731537406,0.8083859796955132,0.3416325972745855,-1.1288495109676933,1.5540131025316808,3.9870666682822855,0.1419171591183581,-0.7614036427016946,-0.19714933265488144,4,left
3.0189999999999997,0.38506691206124244,0.7970391010183306,0.3127680170131518,-1.1349691973464138,1.5571159834811303,3.990950490705231,0.14099839560847466,-0.7676029332916671,-0.19486927974353613,4,left
3.0189999999999997,0.4250056645710349,0.7877325709681,0.2846976729504537,-1.1259218456448914,1.554007413951529,3.98538167788677,0.14284467164919915,-0.7567468117895222,-0.19941241572358126,4,left
3.025,0.4700346793499674,0.7834322577388287,0.2530176797302488,-1.1432559820755948,1.5594131869964882,3.995986860144028,0.14042257621706133,-0.7704559472922323,-0.19346517645379246,4,left
3.0260000000000002,0.5160117933169153,0.7802677352640791,0.22079936140420553,-1.1166192576410603,1.5509538378857086,3.9796724786846447,0.14246647154691128,-0.7591080030571958,-0.19847855215703747,4,left
3.029,0.5645478123450458,0.7781350541497287,0.1866294419053931,-1.1460460694138737,1.5604955643668874,3.9977184695837678,0.14237743318670296,-0.7592658392520959,-0.19826805166848205,4,left
3.032,0.6136351832376856,0.776101457877979,0.14669005958803824,-1.1290517484601743,1.554987386781523,3.9872974962353434,0.13856973282394214,-0.7813015484035002,-0.18890723797488396,4,left
3.032,0.65702505332494,0.7737993897391311,0.10842516853954877,-1.112125694411233,1.5490799153930817,3.9768672389268165,0.14797755738447294,-0.72735574094751,-0.2120238032872837,4,left
3.0389999999999997,0.7097057570353069,0.7766430619489981,0.06486879626054298,-1.1832615657827619,1.5734345089713777,4.020644162636054,0.13236018964416896,-0.8167200736582001,-0.173653491933568,4,left
3.04,0.7457602673217407,0.7801325359041227,0.035431225170740654,-1.0514793422126005,1.5283418463762692,3.939550021027816,0.15296664627193482,-0.6988767211342272,-0.22428030859194314,4,left
3.0410000000000004,0.7546639237064524,0.7809026021413426,0.029960147259679597,-1.2208909289788958,1.586340948165727,4.043801990772312,0.2394328117407356,-0.20412439058545223,-0.43671805992043444,4,left
3.042,0.7858487892287235,0.7852975508848645,0.005438822295148757,-1.079360484151572,1.5378741176175135,3.956708193697927,0.26004205607198505,-0.08628079900183795,-0.4873525985516138,4,left
3.042,0.826374824977173,0.7952545185272206,-0.025353851152132775,-1.0829763503306207,1.5390694779409544,3.958922946268492,0.24441700428868202,-0.17563052811196828,-0.4489628674388284,4,left
3.0469999999999997,0.8524817331107166,0.8065263022757339,-0.040651431753104435,-1.3538104417527477,1.6319933368273751,4.125620054920102,0.253840215654085,-0.12173746151762603,-0.47211544803270156,4,left
3.048,0.8762795053812842,0.8181092659878377,-0.058520812670252886,-0.6882639841192186,1.40367894245572,3.7159943602462877,0.2500084337419576,-0.1436637850444638,-0.46270154780525147,4,left
3.051,0.8901044090771918,0.8347399314684165,-0.06505913268643523,-1.7918267441353768,1.782252101143328,4.395198746156373,0.24994843814098056,-0.14398447541961923,-0.4625512904355179,4,left
3.052,0.8948660990579946,0.8458620038652784,-0.062230469559163615,-0.3361359669426506,1.2828779445110943,3.4992795270570785,0.251968923440677,-0.13246107748282943,-0.4675215064225057,4,left
3.057,0.8963857619893727,0.8489767135445587,-0.061594510514687874,5.774291657647547,-0.8134613877311512,-0.2615563906303081,0.2495473666188838,-0.1462724240244802,-0.46156326293901856,4,left
3.0580000000000003,0.8929376054921851,0.8639490674379622,-0.04658159740171697,7.230134760232158,-1.3128938060378756,-1.1575562728540438,0.2514356990212958,-0.13550683641430045,-0.4662113912708115,4,left
3.0589999999999997,0.8840660891065955,0.8867626953932172,-0.020921443417560005,6.126362663092792,-0.9342349816707669,-0.47823634362508816,0.2504190289242456,-0.14130812658939326,-0.4637097989307422,4,left
3.062,0.8699155336362621,0.9079507350284642,0.0040474014473160826,6.79200416954865,-1.1626055589209257,-0.8879289827245711,0.25063900606266876,-0.14002040336507965,-0.46424275760092537,4,left
3.062,0.8502755841263478,0.9317119586499036,0.02983794096467309,6.5213915811937095,-1.0697255427901409,-0.7213149231371402,0.2509423271840697,-0.13837704919732635,-0.4650121098442087,4,left
3.0660000000000003,0.822645801022504,0.9566098137127232,0.05266626447847607,6.517081884397417,-1.068325449883266,-0.7187835630702468,0.25041786778118524,-0.1412209655401726,-0.4636820180715403,4,left
3.0660000000000003,0.7916914314108151,0.9848691384818298,0.07262316273913717,6.65978107115081,-1.1171742153189972,-0.8064417325805229,0.2509272319207667,-0.13849773809389448,-0.46498444977891884,4,left
3.071,0.758061284915906,1.0149928982944558,0.09639988862049437,6.488988395154243,-1.0586843728153885,-0.7014898313395792,0.25057642522275314,-0.14035306100109196,-0.4640819353823832,4,left
3.072,0.7170633454162822,1.0416713542559057,0.12237510274537977,6.621770011115348,-1.1041938258436663,-0.7831421337909408,0.2507035451157921,-0.13962453387352447,-0.46439383971906956,4,left
3.076,0.6718330249336482,1.0663384661181723,0.1470438976983216,6.5508903439581125,-1.0797881424283082,-0.7393759831855429,0.2508125431176894,-0.13928136073350453,-0.4647371408045404,4,left
3.077,0.6219752501037277,1.0852065045996804,0.17383213803645892,6.565391690072685,-1.085047381435896,-0.7487561344881325,0.25049326799570426,-0.1404673365324012,-0.4637802586010945,4,left
3.0810000000000004,0.5683915983517049,1.096461322343358,0.20282061825341857,6.587471726576194,-1.0921338505718068,-0.7615628405742628,0.25095324844141137,-0.138791287779086,-0.46516758365836997,4,left
3.0810000000000004,0.5194534212988635,1.1036638684787727,0.2306792441945532,6.5508396195816,-1.0801653432109881,-0.7399770457943435,0.2504845306035366,-0.1404542398305448,-0.463741903467199,4,left
3.085,0.4738363014313553,1.1054527271492385,0.25536914002961997,6.584660201692583,-1.091290958586935,-0.7600273836704057,0.2507556247873492,-0.1394920840495119,-0.4645661606620319,4,left
3.0860000000000003,0.4302903530337437,1.1039214172053355,0.27425581932253384,6.5640772085631784,-1.0842253614967738,-0.7473522690200373,0.25094118861541254,-0.13893707455615817,-0.46515896185914013,4,left
3.09,0.39218027922529636,1.1000907061235168,0.2887047276504394,6.567391786428985,-1.086247593912733,-0.7508121906632024,0.250066673048323,-0.1417211947340642,-0.46241234526113895,4,left
3.091,0.35509091441164503,1.0926513445722825,0.2964926964888209,6.58038490953513,-1.0886823717601106,-0.7555643797223341,0.25169167092558575,-0.1365404422407257,-0.46751339266333825,4,left
3.095,0.3208176632876457,1.0845768165966128,0.29343417879065037,6.556075337466021,-1.0833602283427517,-0.7454429622522148,0.24960896420296583,-0.14316990112386205,-0.4609733395662708,4,left
3.096,0.29127456378659033,1.074735669303728,0.28749324437615575,6.582907231795112,-1.0893482097124583,-0.7567972833210397,0.2513460625894772,-0.13764584512966507,-0.466428627983721,4,left
3.1,0.2641888738761299,1.0610786413158768,0.28216278890860047,6.565955087067744,-1.0853918980755117,-0.7493451002226565,0.25129361794658556,-0.1378238254353638,-0.4662690566291844,4,left
3.1010000000000004,0.24407727111072583,1.0474251934095826,0.272681498391282,6.5585179775103715,-1.084441584382814,-0.7473378642305262,0.2480037522275687,-0.14823491116060855,-0.45591867487401544,4,left
3.1039999999999996,0.23059464937092788,1.0356876760664508,0.26635906761750794,6.602812256203412,-1.0926266118505437,-0.7633519636526147,0.25609445710365064,-0.12262469072471821,-0.4813670380408111,4,left
3.105,0.22640317764330026,1.021479914789214,0.26642798803388656,6.518548324040639,-1.076721706442774,-0.7323489303464367,0.24267941105326424,-0.16508489939403584,-0.4391741751900295,4,left
3.11,0.2297996827256215,1.0114566200198367,0.2642904893927022,6.6272226602518405,-1.0973059043828584,-0.7724509504726799,0.26037332899322396,-0.10908766017556892,-0.4948225167755095,4,left
3.11,0.23039797254375413,1.0083846492740434,0.26410148603072703,6.536303764173484,-1.0800575802281391,-0.7388534734605032,0.3346265900860135,0.12589076209067152,-0.7283792158864998,4,left
3.111,0.23761973488698887,0.9986023755267927,0.2634845716183501,6.539502514227164,-1.0807721926863416,-0.7402170793346665,0.3523207993618047,0.1818768316398791,-0.7840213180766002,4,left
3.114,0.2531595918580066,0.9869895400466613,0.25272651054056816,6.710444757571844,-1.1128433625662435,-0.8027899678991046,0.33890529813627057,0.13943408198318746,-0.7418382089017056,4,left
3.115,0.2674062070261507,0.9839612242566141,0.239688565493126,6.289421209976576,-1.0337293200568616,-0.6484587870912669,0.34699637890193524,0.16502986328027552,-0.7672785026474661,4,left
3.12,0.2853380020924552,0.9846434695525228,0.22412677252841134,6.987720062364225,-1.1649721038740393,-0.9044840635168165,0.3437065366720871,0.15461793414210084,-0.756927657377358,4,left
3.12,0.2970383387533964,0.9847730817370037,0.20995734081824544,6.066651509823785,-0.9918664218321865,-0.5667781133864016,0.3436533586686482,0.15446798572537213,-0.7567837333813716,4,left
3.125,0.2997261527374836,0.986431015459019,0.20606299988100946,2.201519310270515,-0.2655191660215923,0.8500960992282618,0.3453920552374411,0.15993085921245354,-0.7622048572791105,4,left
3.1260000000000003,0.3093252594225088,0.9913757196784604,0.19832045723651404,1.2805444943033042,-0.09245978138051941,1.187744271758623,0.343307074152036,0.15338854582225686,-0.7557134768077467,4,left
3.1260000000000003,0.3184594725695187,0.997914048992176,0.18149639634213227,1.978741939587534,-0.22365247793493406,0.9317815030150246,0.34493432157876547,0.15848300343938665,-0.7607663133171367,4,left
3.1289999999999996,0.322311771488675,1.0066517824679209,0.15990869968832455,1.5576797855131006,-0.14451937196206496,1.0861364727498184,0.3440588366511058,0.15573625646632372,-0.758040601228483,4,left
3.1289999999999996,0.32534925366331136,1.017907174986247,0.13275885933650508,1.7289585089589452,-0.17675672303383352,1.0233561990136293,0.3442424958405542,0.15636389858084454,-0.7586739231114805,4,left
3.134,0.32123275487377756,1.0326083629136802,0.105076360108883,1.7314333274574056,-0.1771137929125413,1.0224387892614686,0.344519725311994,0.1570913434019538,-0.7593671387394785,4,left
3.135,0.31470883778869163,1.0453011964960575,0.08053193266753386,1.6415523640116645,-0.16037809846716383,1.0553965269923982,0.34404044838919073,0.1558327613649655,-0.7581672789877264,4,left
3.139,0.31017269224687904,1.0506029483587085,0.055357787573233966,1.749193183808123,-0.18045184143993803,1.0159315344171205,0.3445133714976827,0.15701270853339494,-0.7592774960342921,4,left
3.14,0.3033108997583268,1.0549709895250365,0.032939922145004505,1.665375105919841,-0.16476715587785035,1.0466597379089295,0.34418379874069793,0.15622212261913693,-0.7585415570624678,4,left
3.145,0.30050150670683407,1.0550463009286872,0.022529055639864924,1.710557082196512,-0.1733905908036238,1.0300985330079255,0.3442926622570164,0.15656890420494507,-0.7588866675602619,4,left
3.1460000000000004,0.3036546034450701,1.0468593994759376,0.013546355538593409,1.7002608077306993,-0.1710281733752717,1.0338680039789248,0.344438984798383,0.1565636915449942,-0.7587890342049972,4,left
3.1489999999999996,0.30857152526500564,1.0348693350215403,-0.0001884380443294073,1.6882349217192236,-0.16950490252663558,1.0382838642082937,0.3440443745320112,0.15638492211298627,-0.7588226650152649,4,left
3.15,0.3147266155866316,1.0170550710918902,-0.010339911970132181,1.7090212763645047,-0.17250701056469986,1.0306557855490888,0.34461902031103075,0.1566072900682988,-0.7587283798738382,4,left
3.154,0.31799459974436317,0.995047623981898,-0.020537286551827544,1.6895311788106697,-0.16956523306950377,1.0378065930992246,0.3440250498923213,0.1564289999195545,-0.7588873923604513,4,left
3.155,0.3216852124319106,0.972047329137644,-0.025963253332126887,1.7025679916826153,-0.17202149205031966,1.0330276306436217,0.34436839739706315,0.1565327385515965,-0.7587960432579686,4,left
3.16,0.328012389014201,0.9479542412668029,-0.021677371747765403,1.6969372000607563,-0.16962577901068893,1.0350810653409075,0.3446233072719693,0.15649146438849015,-0.758587995418595,4,left
3.16,0.33257604054381373,0.9258239860797731,-0.014162078180440688,1.69679600671592,-0.17265616964793734,1.0351568725615683,0.34345466042415285,0.15650265494193782,-0.7593313675078998,4,left
3.1630000000000003,0.3383263825540319,0.9046656895400628,0.0006247309343848911,1.7001218240429319,-0.16872060222074803,1.0339022170022143,0.345624453031251,0.15649057519101128,-0.7579608559783082,4,left
3.1639999999999997,0.3438507015780573,0.8847251852837363,0.017293346233831296,1.6959965367728165,-0.1728071951564959,1.0354519032140193,0.34284187783630227,0.1565166082586461,-0.7597316777080004,4,left
3.1689999999999996,0.347105706216908,0.8700353901385836,0.028219856319722136,1.6992966356223025,-0.1706179615857198,1.0342210008144244,0.3451631662755313,0.15649040397816233,-0.7582480064756555,4,left
3.1710000000000003,0.34657440277723905,0.8620530327177764,0.03965519226585236,1.697601069883997,-0.16787824678877972,1.0348229736721883,0.34509644250978594,0.15647629986118156,-0.7582754904962299,4,left
3.174,0.34238954860707677,0.8585699515433685,0.04953789150168611,1.6975897780188938,-0.17847338170545254,1.0349098971041515,0.3406876302797867,0.15658746897115394,-0.76116036573315,4,left
3.175,0.339239780449631,0.8572865805008338,0.055396545428861396,1.698952271564851,-0.15907610296681607,1.0342581555984496,0.35152637817600396,0.15632672762330335,-0.7540781558225484,4,left
3.179,0.3290900954448308,0.8639282816189578,0.05725998218203146,1.6969013825911414,-0.18392710589188532,1.0352043098679844,0.33355613782698545,0.15675864957922303,-0.7658230464766471,4,left
3.18,0.3200250393065074,0.8707647290584468,0.05638881040453261,1.6987362031577127,-0.1632024699830671,1.0343711028801748,0.35725728593176953,0.1561866361558851,-0.750327289503868,4,left
3.18,0.3189530811580885,0.8746994929858163,0.054317479201351576,1.6982172444071866,-0.16367707063474216,1.0345620551790429,0.45674314965720986,0.15371492720420935,-0.6852741089003755,4,left
3.1839999999999997,0.3083886447241066,0.8881865840083067,0.04592557673353567,1.6962565204753837,-0.20347950413606125,1.0355954566207064,0.48044302708806225,0.15313625799348732,-0.6697739501335271,4,left
3.185,0.29187222984660494,0.9065285364433342,0.030512430703389402,1.701630495028403,-0.10575023802211164,1.0328599821077502,0.4624735878208207,0.15358266700008955,-0.6815231996055988,4,left
3.188,0.2713393100612637,0.9311788542964946,0.01078936918320454,1.6925746905395136,-0.26776601458879434,1.0374419792829221,0.47331489067222027,0.15329885754660594,-0.6744442307082235,4,left
3.1889999999999996,0.2537056269763528,0.9495068670889298,-0.001781775489797417,1.704535199756004,-0.054066498843924476,1.0314011962799818,0.46889732879665313,0.15343934325740438,-0.6773103609100453,4,left
3.195,0.24804772683831205,0.9537909660774999,-0.004102254289525844,1.7540782775118577,0.8430598130852754,1.006286153597935,0.46884663231850743,0.15339770402414904,-0.6773762082956972,4,left
3.196,0.23083704533217575,0.9734426359211404,-0.008092320464529162,1.7659984987833846,1.056782673892001,1.0002894216467826,0.4711471814231014,0.15338252287790605,-0.6758391077999033,4,left
3.197,0.20494795258214668,1.0018777685914138,-0.011775595647420475,1.7569728717697304,0.8947333105223622,1.0048085350216356,0.46838245985488924,0.15343312483596327,-0.6776611660306442,4,left
3.198,0.1842219767747763,1.0244888222841069,-0.012888585058482095,1.7624109281199276,0.992482471660207,1.0021088554853939,0.47054974508473363,0.15334443593012143,-0.6762721998660264,4,left
3.198,0.16250069416199883,1.0472640323782225,-0.011239809513098832,1.7602076830002353,0.9527030010874483,1.0031891864680904,0.46935379482130396,0.15348662974180824,-0.6769631598374,4,left
3.2030000000000003,0.1479362743073494,1.0636632454310386,-0.00813689584318772,1.7601451125639054,0.9521383607698148,1.0032048979579742,0.4696760573549564,0.15328502218164888,-0.6769094622220498,4,left
3.2039999999999997,0.14257872717372894,1.0732311636588556,-0.013028158392256194,1.7613779486758732,0.973024627282951,1.002682411716055,0.46991505119959887,0.15351647914175315,-0.6765603938799508,4,left
3.207,0.13843460820036674,1.0760136353540382,-0.022974781980098148,1.759861073272616,0.9479720353589567,1.0032448748877358,0.4694367188356413,0.15333918963011647,-0.6770269293603297,4,left
3.2089999999999996,0.13692326266491933,1.0705188075507226,-0.027316411108159966,1.7611146742615666,0.9675317665210041,1.0028966316669696,0.46993775676646754,0.1533251081021883,-0.6767006036129191,4,left
3.213,0.13675934919065655,1.0586458517524182,-0.023248595719638894,1.7603647786921146,0.9569358247651805,1.0029951610372883,0.4694996779110161,0.15368672228114377,-0.6767018575102005,4,left
3.213,0.13511918399205186,1.0389453794970733,-0.01676583908331801,1.7605667358395194,0.9593789738594378,1.0030129437850315,0.4698808741923385,0.15287573984732328,-0.6771045186858484,4,left
3.217,0.1348087064872529,1.0135250940193679,-0.009403521547733242,1.7608707355469186,0.9622489991789868,1.0030989744617305,0.4695305030027408,0.1540801169462669,-0.676360953213615,4,left
3.218,0.1342174457641751,0.9854454291487442,0.001387605730819773,1.7601321759344344,0.9571466587747754,1.0027030067813745,0.469824152894196,0.15279825052127372,-0.6772059493477187,4,left
3.222,0.12973128616287571,0.9572304802662974,0.013336116936901569,1.7611913003547717,0.962161163570026,1.003491436094913,0.46970798620112,0.15353754316923549,-0.6766825349907033,4,left
3.222,0.12141319445152035,0.9312614053163111,0.03226088569813733,1.7600326724049775,0.9585210781413149,1.0024534950036812,0.4694414983153584,0.15417905826386658,-0.6763406935349099,4,left
3.227,0.11349146525316936,0.9073679452067843,0.05790541018248738,1.760895250027295,0.9603348496313574,1.0033114500991807,0.4703009381151675,0.15137933077206017,-0.6780386180243907,4,left
3.228,0.106484618136253,0.8877929384563448,0.07811461347783683,1.7609027538451825,0.9603327021425081,1.0033193004603893,0.46877951144109187,0.15656954833308062,-0.674841942749135,4,left
3.2319999999999998,0.0943796960460775,0.8746313568907274,0.09078226251257714,1.7593970493438942,0.9587108588352584,1.0016794263869584,0.4707071187359883,0.14990580415789484,-0.6789641136330181,4,left
3.233,0.08084256156294171,0.863705293460401,0.09562592312317247,1.7627960654126744,0.9616818638582695,1.005447929390513,0.46910864091829285,0.1554686220108005,-0.6755149545797671,4,left
3.239,0.06924358478346707,0.8578438597404481,0.08853870219140042,1.7577594137570922,0.9578554283326906,0.9998089349177574,0.469135486700067,0.15531877092541185,-0.6756206742876454,4,left
3.239,0.05818135830583642,0.8614451234940252,0.07744644570700793,1.7631087378013026,0.9615803787592131,1.0058301563351217,0.47222731988733335,0.14470978869260237,-0.6821650035375504,4,left
3.242,0.05092861428828238,0.8668599414504403,0.07526835987395183,1.7600243161346638,0.9595412425011396,1.002347926396558,0.4646513249439323,0.17078414623457971,-0.6660611852329379,4,left
3.2430000000000003,0.04851577297967119,0.8725632258244775,0.07620245467107188,1.7573677292844754,0.9578307112964877,0.9993448560649837,0.4772044159932151,0.12755239472641294,-0.6927701974084826,4,left
3.2460000000000004,0.04796620639557406,0.8779705588397149,0.07426234168000946,1.7689859088342734,0.9651809322839018,1.0124915167191413,0.4606491459873073,0.18457422485761302,-0.6575365989993832,4,left
3.247,0.04757772742622538,0.8795856922903653,0.07205562803605592,1.7474474049746513,0.951679925564741,0.98810730638836,0.3911516633458686,0.42392613859711226,-0.5096651284856157,4,left
3.248,0.05236431952384757,0.8848700777675929,0.06220705039068798,1.7750985510476394,0.9689258577783348,1.01942028468723,0.3745939054113345,0.480946649345346,-0.4744250305276172,4,left
3.2510000000000003,0.06061218252449421,0.896194609191928,0.04883014257441271,1.7520168805093213,0.9545674462700816,0.9932776319228156,0.3871491886719316,0.43771700238927197,-0.5011453123310183,4,left
3.2510000000000003,0.06831225015391634,0.9074845893233809,0.03764572239253653,1.7526398403505752,0.9549614374449845,0.9939848907185744,0.37957598697618644,0.4637895046671694,-0.4850291590855124,4,left
3.2560000000000002,0.07808373245880368,0.917819758194625,0.022817731316707092,1.7966532469448873,0.9822571770318771,1.043836432574018,0.3826552432985565,0.45318073139918436,-0.49158110564314683,4,left
3.2560000000000002,0.08804924819104888,0.9296664650869739,0.007542776076982536,1.688477415601708,0.9151895288710181,0.9213071619377546,0.3827067128227354,0.4530337336800634,-0.49169110800963417,4,left
3.261,0.09907875254418265,0.9391784206191722,-0.00832593283425822,1.8678377933539372,1.026366836663755,1.1244667858843025,0.38107488042049753,0.4585898159000275,-0.48821925767398494,4,left
3.262,0.10587393120716623,0.9411480022462075,-0.019489507740338207,1.6312560575323265,0.8797426465211327,0.8564997557176344,0.3830332655165539,0.4519360823849842,-0.49238469863254064,4,left
3.262,0.10837240023449798,0.942217576793049,-0.021217347616013876,0.6379585047654749,0.2643532885797254,-0.26829923857401683,0.38150308231685226,0.4571158459658392,-0.4891309602439159,4,left
3.267,0.11812229361436122,0.9439705366055162,-0.027242373346747457,0.40131465908012415,0.11774427182056063,-0.5362684098307647,0.38232567108238535,0.45432165832309485,-0.4908801974266547,4,left
3.267,0.12749737629020558,0.9383727579662056,-0.03581979149863501,0.580810605882896,0.22889572936438402,-0.3331043294297852,0.3821599569715918,0.45496964577561494,-0.4905252560683527,4,left
3.2739999999999996,0.13196502773378152,0.9282262759937521,-0.037892807614222104,0.4724181627452529,0.16185525153020297,-0.45564029873486966,0.3818803399449253,0.45568398301151125,-0.48993802183247076,4,left
3.2739999999999996,0.13867888222872438,0.9171743283231395,-0.03749001407959222,0.5167079224092,0.1891365606694413,-0.405780814644856,0.3823637536257248,0.45444739830267616,-0.4909530719760037,4,left
3.275,0.1444249670388782,0.9033975620400998,-0.03790251159418381,0.5170698027626779,0.18951557936540425,-0.40508020532780437,0.38187829851771393,0.45559378726953786,-0.48993691686489804,4,left
3.2760000000000002,0.14593769215570723,0.8902619637733307,-0.039323594483691715,0.49409544852999726,0.1752154831734422,-0.43122168171079567,0.38222093701959126,0.45483266305084785,-0.4906525242792528,4,left
3.283,0.14243056881798255,0.8797567453714505,-0.03997133928378018,0.521973244142882,0.19235731388416524,-0.399899435702579,0.3821193295598699,0.45518634266801394,-0.4904361978427357,4,left
3.284,0.13247443671447154,0.8709393833822308,-0.043248070217707726,0.4997176546818742,0.17898671411455985,-0.42430702937501463,0.3819189750921017,0.4550989897950093,-0.4900349854888602,4,left
3.286,0.12003895982178052,0.865245644986609,-0.04978124411499492,0.512568137832988,0.18622932167876477,-0.41112366164484,0.382433257834907,0.4551043158165454,-0.49107186910809947,4,left
3.286,0.10702835530748303,0.8637017862492626,-0.05401104546525255,0.508396991668429,0.1845265708818296,-0.41416813121114276,0.38167914748875365,0.45505122691138095,-0.4895529515299816,4,left
3.29,0.09115336331307339,0.8667995480541688,-0.06016230240670416,0.5065282070643542,0.18266633819119088,-0.4176226589995842,0.38246565182224607,0.45516771615240226,-0.4911351192303349,4,left
3.2910000000000004,0.07595193337446274,0.8728680628220706,-0.0719320096619235,0.5118666385668968,0.1859676325674091,-0.41158908835387886,0.3820110329866753,0.4551010358410604,-0.4902205718451318,4,left
3.295,0.062237403685936395,0.8797888905798821,-0.08337548470869874,0.5046249434792506,0.18278361178167987,-0.41730719273545047,0.38165767572356935,0.4549107836970866,-0.48951421408341944,4,left
3.295,0.05080903787408947,0.8866145925605533,-0.08964303938778398,0.5131029883233618,0.1850594745381365,-0.4133798882551419,0.3832539914257591,0.4555715717271264,-0.49271166361766877,4,left
3.3,0.04563706695238687,0.891563982732724,-0.09368249991517005,0.5039872331901729,0.18385244294586198,-0.4152389926518018,0.38029116391484963,0.45435465198957253,-0.4867767536239901,4,left
3.3,0.043850892272763876,0.8975082009489203,-0.09866791505778756,0.5121489059125153,0.18417523798676022,-0.41501920098625183,0.3840923227178663,0.455928272596571,-0.49439056676431764,4,left
3.306,0.04415354745047087,0.9028407200719328,-0.10110839245055572,0.5082275683865842,0.18448098781017697,-0.4142462711341022,0.380920504779664,0.4546095180753261,-0.4880374529569965,4,left
3.307,0.044249140413730556,0.9045470710638359,-0.09846748658736346,0.5031740368548139,0.18370765166178085,-0.4154756347966362,0.38101005748434524,0.45463118018311527,-0.4882175546137043,4,left
3.3110000000000004,0.04424349359714896,0.907814261714308,-0.09123314291131528,0.5217585783711733,0.1849033868268844,-0.41409688762595964,0.38704175753955805,0.4572056328279258,-0.5002961706585021,4,left
3.312,0.047633322016601906,0.9137466976132895,-0.08105960794871037,0.48832337315868807,0.18332417480177507,-0.41548669748256295,0.3722139726373034,0.45088844888723056,-0.4706025611973022,4,left
3.315,0.05060546806785392,0.9229591599468256,-0.07158274559855848,0.5307983135971222,0.18506835952797124,-0.4142208952206023,0.3967989313328667,0.4613640722959041,-0.5198353315972972,4,left
3.315,0.05231288902302789,0.9298898350197735,-0.06711348363067426,0.4955344740732088,0.18373415119990916,-0.4150542110893478,0.36437146989104335,0.4475422503990865,-0.4548985236040122,4,left
3.3160000000000003,0.05446083219552082,0.9320201066468937,-0.06606910777993275,0.4963174160777136,0.183663320429633,-0.4152284573807181,0.22823027503066812,0.38946103767338813,-0.1823031687730802,4,left
3.32,0.057218053652280526,0.9391155552899269,-0.06267745811387666,0.5638775941764571,0.18640674832114118,-0.4132719337107984,0.19579510089285151,0.37562619842137857,-0.11735855069009976,4,left
3.32,0.0612031163676213,0.9494877157425706,-0.06061102502741296,0.3981310711356206,0.17985598810038764,-0.41772672956568035,0.22039780269472928,0.3861268535546037,-0.1666103568059674,4,left
3.325,0.06653092819053749,0.9601289182503178,-0.06280346099164644,0.6727976155607627,0.190624261998305,-0.4105128565110061,0.20553990181145937,0.3797762487515586,-0.13688246620230954,4,left
3.326,0.070409621382338,0.9661873356876137,-0.06346702205705723,0.31058863034782425,0.1764683471506125,-0.41993923939545474,0.2116125521582076,0.38238392724742054,-0.14901035257965523,4,left
3.3289999999999997,0.07047408468615343,0.9677526952884701,-0.06386340021847743,-1.2097995258101026,0.11702427726976006,-0.45957532526255274,0.2116598434454909,0.3823875064057649,-0.14913608278618423,4,left
3.33,0.07288231199715123,0.9769666354250591,-0.06722127861272648,-1.5719633956868364,0.10289832199153127,-0.4689434666002156,0.20851191444825468,0.38105192185351,-0.14281958479451812,4,left
3.3310000000000004,0.0771744125853258,0.9871427186128239,-0.0702813924252618,-1.2973907738133659,0.11360623487946406,-0.46184369045294504,0.21233513059161543,0.3826957081828915,-0.1504485726064907,4,left
3.3339999999999996,0.07712296115881143,0.9933795812645904,-0.07180730317205272,-1.4629960779410587,0.1071421346551115,-0.4661415134107752,0.20927765706172002,0.38134934190915115,-0.14441123471934575,4,left
3.3339999999999996,0.07561638986575467,0.9990890895669587,-0.06963964512231921,-1.3956033968380825,0.10978900940989185,-0.46434899229481774,0.2110511788232241,0.382178387255535,-0.14781657217458594,4,left
3.339,0.07395006844717891,1.0015896991440045,-0.061362380779108945,-1.3946801265131128,0.1097895930428907,-0.46441956524425326,0.21046446571008282,0.3818392677673746,-0.14682064770244752,4,left
3.339,0.07242367652769038,1.0031705200304084,-0.05037938296747528,-1.4299689891705953,0.10846213642673741,-0.46520202235419317,0.21022030025625543,0.38180588205115507,-0.14618919866278623,4,left
3.345,0.0715065802758909,0.9999067558635052,-0.038059514477543355,-1.3876891841802235,0.11006327178828045,-0.46423605307615234,0.21095212084761678,0.3821186100156276,-0.1476532602983548,4,left
3.346,0.07004249015965647,0.9933780810742641,-0.025295741999337863,-1.4206315825070208,0.10879892223122872,-0.4650337811800872,0.20993726443776878,0.3815547412423457,-0.14588567471940167,4,left
3.3510000000000004,0.06920726686988782,0.9881434090800346,-0.01576628864360717,-1.4028209693238463,0.10953422725855236,-0.46446371087040406,0.21115022338376627,0.3823714597445661,-0.14771002764732555,4,left
3.352,0.06810565414482139,0.975832379487164,-0.008058068823323553,-1.4070012988213936,0.10924055348746564,-0.4649224035631381,0.20982480453392482,0.3813595901839471,-0.1459577046391195,4,left
3.3539999999999996,0.07093004188068153,0.9581245662901955,-0.00032577204674165525,-1.4115074317893448,0.10928963416543869,-0.464435826866358,0.21102446987255272,0.38234726714325595,-0.14739874615689502,4,left
3.3539999999999996,0.07897126434847265,0.938279451522368,0.004923890048893771,-1.4036052226869318,0.1093220659210191,-0.4649711371817062,0.21044020728120472,0.3818230590656491,-0.14678410996469837,4,left
3.358,0.08954631748058148,0.9180872067847528,0.008447503252010984,-1.4110535321217925,0.109251381110963,-0.464574267681375,0.20970717666766334,0.3812733150769829,-0.14579517294137656,4,left
3.359,0.10589429474432138,0.9039802119932676,0.011123920180482647,-1.4059246401633174,0.10945331768437386,-0.46443626528320947,0.2124310621844955,0.3834726462866476,-0.14915410534106993,4,left
3.364,0.12439567938534815,0.8915900528166723,0.01096759307916019,-1.4085399548671524,0.10894363131358369,-0.4655979218495382,0.20752079631364348,0.3794542400151677,-0.1432075034388237,4,left
3.365,0.14535801220154243,0.8828791471676365,0.006247107980878589,-1.4076796102758529,0.10990895280271759,-0.4630756792197031,0.2137630846570005,0.38458726809205124,-0.15071778107627515,4,left
3.3680000000000003,0.1714639335779562,0.8804338341651726,-0.004909198268074249,-1.4077378361478532,0.1085165681988072,-0.46680668349830357,0.2085786597172813,0.3803135094267308,-0.1445015639827304,4,left
3.3680000000000003,0.20236450165125408,0.8802010276136017,-0.013858002154738496,-1.4079037298089878,0.10999211006727676,-0.4628352347975535,0.20869540217239096,0.3804190150998041,-0.14462308789131628,4,left
3.375,0.23825703752673705,0.8841075028753824,-0.0198953456915716,-1.4074478954028764,0.10915335673238147,-0.46512069915890025,0.21862495136352217,0.3885871867787726,-0.15656291457487537,4,left
3.3760000000000003,0.2727604310300288,0.8919307346676568,-0.03499388597585957,-1.4088388803652148,0.1083614751543448,-0.46713671544338375,0.1942617491431941,0.3685291559226181,-0.12730015076493786,4,left
3.378,0.3085158019692667,0.9049238790894722,-0.04630903035706077,-1.4056706593971988,0.11171477080159342,-0.4583886620042323,0.23463645458720397,0.40177728917712885,-0.17577883008908812,4,left
3.378,0.332100959356887,0.9148308905266103,-0.04613186333939478,-1.4110199284976837,0.10551594861756974,-0.4745986266555384,0.18139301622020543,0.3579279509926374,-0.11185575764553224,4,left
3.384,0.33539674606771563,0.9194204381549156,-0.044087357003632345,-1.404268344511658,0.11347159907678914,-0.4537870250624857,-0.04209492768274507,0.17387101522360376,0.15645859094249967,4,left
3.386,0.34969088948763644,0.9308208957098101,-0.038030335516827316,-1.4098587531367164,0.1068306929411775,-0.47116078021299035,-0.09533049703159868,0.1300258632244233,0.2203696826951658,4,left
3.386,0.3631904415699755,0.94905920195418,-0.03283260044735784,-1.4098871537975697,0.10700560339132553,-0.47069425914394536,-0.054972014865804435,0.16326560836440773,0.1719168058076752,4,left
3.388,0.35722911893895026,0.9694250237867517,-0.03264499492652942,-1.3986341422384476,0.11968639724830848,-0.43755288158835515,-0.07931114780797077,0.1432195233766031,0.20113901950885965,4,left
3.389,0.34788448956450413,0.991730349501481,-0.03112134974505061,-1.426084421357267,0.08852228232565884,-0.5190068107847551,-0.06940965447058067,0.15137453989481908,0.18924995747413265,4,left
3.3939999999999997,0.3221786281388205,1.0251863950082196,-0.025061487172017564,-1.3806200621909408,0.14019521593714898,-0.3839523376784223,-0.0692701556572244,0.15148952544243896,0.1890818447240998,4,left
3.3939999999999997,0.2981255296625245,1.0516430762728635,-0.019142068742511877,-1.4405893400634069,0.07203543555428625,-0.5620899978943736,-0.07445709858422392,0.14721724606865838,0.19531471370478842,4,left
3.397,0.29069658186784,1.0597706387796304,-0.016981342416709004,-1.6925001787883662,-0.21403324909460447,-1.3098089118833314,-0.06824991213762358,0.15232997554083685,0.1878504897737876,4,left
3.3989999999999996,0.2613131191492523,1.0850443641992098,-0.008924495961372469,-1.7525031256185764,-0.2822000530135797,-1.4879500739232072,-0.0730751949377831,0.14835528571501755,0.19366091401839902,4,left
3.3989999999999996,0.22132767996262898,1.1198568441930083,0.0048623410703498736,-1.707002343854049,-0.23051952190713218,-1.352891814088569,-0.07048208528831565,0.15049149672419992,0.1905304218453875,4,left
3.403,0.19049566323706973,1.1429262050850388,0.016471165749973517,-1.734438750664343,-0.26168074133593655,-1.4343442951660412,-0.07107070018121928,0.15000650070580557,0.1912445573919443,4,left
3.405,0.16027358335554615,1.16361593436776,0.025777666695612968,-1.7233066094379341,-0.24902516512246142,-1.4012154999469282,-0.07174661105977109,0.1494494060862841,0.19207089052890775,4,left
3.407,0.1401658650240098,1.17643637480445,0.02998668471464782,-1.7230749668961858,-0.24879600312994962,-1.4007219162408606,-0.0706014368455088,0.1503938786445384,0.19064816729370615,4,left
3.408,0.12991003453294675,1.1779025201374425,0.03040504941698777,-1.7290382050302917,-0.2555146890437055,-1.4181344658375226,-0.0716338938446616,0.1495413188320991,0.1919701802643734,4,left
3.4139999999999997,0.12680735759041759,1.168724805834224,0.030989383972986284,-1.721915385240123,-0.24748159355833182,-1.3972842429185819,-0.07099291115921455,0.15007195079065105,0.19109941098325872,4,left
3.4139999999999997,0.1346845455009002,1.1496252757687104,0.036799813889609866,-1.7274247900717228,-0.2537138180953534,-1.4135108536755625,-0.07123289736810987,0.14987213848357694,0.19146823509695443,4,left
3.418,0.1512310889077632,1.1289723283847501,0.05322283713673916,-1.724575458816989,-0.2504270570620052,-1.4047960069404768,-0.0712305138101563,0.14987407942102735,0.19146609232396683,4,left
3.4189999999999996,0.17380056682111417,1.1055895792435262,0.07198903496710807,-1.7249393934939374,-0.25100466687758666,-1.406705127799698,-0.07121938251403688,0.14988725184116147,0.19130296028359484,4,left
3.4219999999999997,0.20069760744384932,1.0768782860668322,0.08970747609685548,-1.7262531062456188,-0.2522125883346066,-1.4091747362066265,-0.07106162505297714,0.1500080381652907,0.19145583381072492,4,left
3.423,0.23396347567131573,1.0487116204639508,0.11220761462245164,-1.7242474319279548,-0.2502840176951817,-1.404977340459316,-0.071447860288883,0.14970356745413144,0.19140891939115512,4,left
3.427,0.2723511899521227,1.0219755357777145,0.13430172508877247,-1.7260367718863971,-0.2520375291879489,-1.408888414970107,-0.07094792732649335,0.1501007844725556,0.1913530464299128,4,left
3.428,0.3138201964938764,0.9962239602928112,0.1552956110479382,-1.7251922338963652,-0.2510755400612692,-1.406367928433152,-0.07126496538709416,0.1498480623976492,0.19141915946068422,4,left
3.432,0.35994510906800703,0.9754091392240382,0.17595715846394283,-1.7245941871068073,-0.2509148082748692,-1.4071950745507955,-0.07155003513470162,0.14962051731667675,0.19149027844616948,4,left
3.4330000000000003,0.406648160051268,0.959424748359963,0.1851280842517214,-1.7268082069095834,-0.2522447935421131,-1.4078212660020113,-0.07026861078187677,0.1506442402537786,0.19113840181608913,4,left
3.438,0.4511031916753162,0.947568195107472,0.17802013868803412,-1.7233026348621068,-0.25003026454446325,-1.4062845612307675,-0.07267740539698996,0.14871904401430353,0.19182984580135648,4,left
3.4389999999999996,0.4973812242728619,0.9401103530183569,0.15784299076431277,-1.7270768536240257,-0.2524337251803419,-1.4080346995393755,-0.06956198144907258,0.1512096018338227,0.19091507216569462,4,left
3.4419999999999997,0.5457333196996244,0.9341568852433302,0.13173882257504693,-1.7248375694820508,-0.2509775412436328,-1.4068466477253003,-0.07217269517310482,0.14912215544665244,0.19169057535480447,4,left
3.443,0.595720926506579,0.9318039365450352,0.10886212792338604,-1.7231992571301582,-0.25005712796370727,-1.4066992327339531,-0.07210334337644482,0.1491779860653072,0.19167105258168446,4,left
3.447,0.6440619976894891,0.9333178638893758,0.09605450434374446,-1.7308455378944503,-0.2546328622462619,-1.40877877138872,-0.06710468624999177,0.15317407036858946,0.19016795182767754,4,left
3.447,0.6835633262002154,0.9340111986017916,0.09136829453779079,-1.7165813368989045,-0.24604885286021252,-1.4046640731372841,-0.07939623639477358,0.1433472101614489,0.1938690820043485,4,left
3.452,0.7190011571178232,0.9377220641382082,0.08107378626311021,-1.7349135952781873,-0.2570924295832664,-1.4100045084655781,-0.0590104192221112,0.15964512002559295,0.18772544771371377,4,left
3.4530000000000003,0.7441624691924487,0.9412975267784618,0.07117553841266763,-1.719605802850316,-0.24786511258202254,-1.405524300630337,-0.0859034617126937,0.13814634454962516,0.19583362951569339,4,left
3.4530000000000003,0.7496887044381435,0.9425390496177386,0.06908628125342706,-1.720039374456128,-0.2481461557711938,-1.4057317586384301,-0.19879594674277618,0.04795100464617436,0.22986637973954,4,left
3.4560000000000004,0.7574960594356981,0.9481824595548702,0.061255178576541905,-1.74915522340337,-0.26563520662928564,-1.4139880935308302,-0.2256909766121808,0.026463951055151685,0.23797388476119483,4,left
3.457,0.7647779890286303,0.9554218150528156,0.05006261335800562,-1.6775788402100333,-0.22261519020396922,-1.3935970607284254,-0.20530262086733136,0.04273487806386156,0.23183386861180066,4,left
3.463,0.7473796401544057,0.9667839818148831,0.03816509374118364,-1.796247776777257,-0.29394976485914176,-1.427427268036185,-0.21759472875074992,0.03295384739637239,0.23552505524147346,4,left
3.464,0.7315050014291469,0.9763930583204694,0.028864285287416885,-1.6397406512493031,-0.19986410406259966,-1.382809788630973,-0.2126003684599243,0.036887573514531494,0.23404059960988785,4,left
3.466,0.7259158654949927,0.9795042845902509,0.02586399022930245,-0.9826491996964118,0.19506806879233554,-1.195583312614338,-0.21251987659065158,0.03700781390643509,0.2339950373304291,4,left
3.467,0.6973529444153184,0.9912485865318568,0.014571635305890826,-0.8261746767536222,0.2891409935291013,-1.150987995318664,-0.2151480808602071,0.03488386653451829,0.23479660646930112,4,left
3.467,0.6576171141698189,1.0087433289295462,0.0019863014066828512,-0.9448083424165159,0.2178201966521062,-1.1847942235148543,-0.2120133421413348,0.037341015441034006,0.23386995018054202,4,left
3.472,0.6229046720519834,1.026066158524959,-0.002058604209920341,-0.8732185329865517,0.2608454602778761,-1.1643940752529058,-0.21443399836767352,0.03555975964908126,0.2345403928645899,4,left
3.4730000000000003,0.5839214188453035,1.0447695365227494,-0.0020844155324825776,-0.9024514102060865,0.24331068808895154,-1.172729938761256,-0.21316102471387088,0.03631373297197943,0.23425891526872206,4,left
3.477,0.5461473064837211,1.0612490249677142,0.004782590317143249,-0.9026331952756043,0.24312801125897068,-1.1727662753441717,-0.21340489511286148,0.03644164858178646,0.23420684813923165,4,left
3.478,0.5096400499033131,1.0763200262425237,0.009406026132288563,-0.8876864019875141,0.252214297951759,-1.1685314253672385,-0.21380083113616336,0.03586803558792183,0.2344263645683707,4,left
3.4810000000000003,0.4718230612634014,1.0876326056057213,0.008046234239981631,-0.9056591951316009,0.241311149125698,-1.1736275299064678,-0.21319572002966627,0.036349247685070016,0.23424481373204448,4,left
3.4819999999999998,0.4357547748451964,1.0946549346249328,0.009299636247720504,-0.8915500696700318,0.2498345829251821,-1.1696182662027166,-0.21367818688327772,0.036440994483033944,0.2342044212246659,4,left
3.485,0.3994593669640427,1.1015595634497433,0.00507206863490341,-0.8995050898019107,0.24513822365201032,-1.1719075907543606,-0.21349297931977407,0.03549834814020984,0.23457334610917566,4,left
3.487,0.36277555704659126,1.1068868488665828,-0.01029650019128704,-0.8968723505312812,0.2464471378991848,-1.1710843568763032,-0.21336783993367184,0.037225351958554295,0.23390191085817374,4,left
3.49,0.3279197353115473,1.1086466618722235,-0.026813964315840474,-0.8963464439942999,0.2472339557030061,-1.1710607920654135,-0.2136780695080915,0.035243040628387845,0.23467102238816692,4,left
3.491,0.29845898194967735,1.110287368019701,-0.03592371909154313,-0.8980179843860158,0.2456519354882342,-1.1713817887654765,-0.21340855802154035,0.03646055703172343,0.23419936966696753,4,left
3.4960000000000004,0.27809650217627696,1.1104641584792792,-0.03342662975864648,-0.8961886709009821,0.24721163184842582,-1.1709845004826023,-0.21336628086275525,0.03735816516936169,0.23385022897074026,4,left
3.497,0.26629349665302826,1.1075736181123408,-0.02248979607662828,-0.8984178549626851,0.24587567434884205,-1.1716207636963634,-0.2139524910661995,0.033109118871983395,0.23549948325468661,4,left
3.5010000000000003,0.2591092496695392,1.1084728929202838,-0.008060885233170074,-0.8947085965079027,0.24725191588900383,-1.1703336425485569,-0.21274839922325023,0.041082521016354956,0.2324055383471274,4,left
3.502,0.25473883806990105,1.1110671122617435,0.007078992149462133,-0.9009738016607218,0.24543630885460838,-1.172645109119147,-0.21434640312951908,0.030802766105187104,0.2363940822293936,4,left
3.5069999999999997,0.25032686855083686,1.114831192865211,0.01918264180225497,-0.8921568886685902,0.24782632089800918,-1.1693475748228221,-0.21299014582136921,0.03940261589706508,0.23305738794260944,4,left
3.508,0.24784144038642655,1.1251644531233875,0.03808821879347232,-0.9014573300097324,0.24533804013122193,-1.1728348747363542,-0.21304599973601057,0.03915433823833593,0.23315387601262466,4,left
3.51,0.25136524164575014,1.1334753243202766,0.06608791496598472,-0.8962391369826074,0.24668172829687615,-1.1708640689401117,-0.21559667283926898,0.02278497733238134,0.2395046439527814,4,left
3.51,0.2598126254623204,1.135985300292036,0.09108342837841368,-0.8909699034092297,0.24830510967262984,-1.1689460002537306,-0.20929312779544987,0.06304671457072666,0.22388405020941926,4,left
3.515,0.2765914469224475,1.1368073076233367,0.11400395049354478,-0.9127687568138434,0.24196230552623885,-1.1769819458602124,-0.21976104021259368,-0.003722509238734916,0.24978932041856358,4,left
3.515,0.29030136780315485,1.1348300420683444,0.1270105387871751,-0.8725700249554371,0.2535869544324705,-1.162143542460027,-0.20594600768641402,0.08435250246065315,0.21561723802683186,4,left
3.52,0.2944593668481703,1.133583392241969,0.12962288555786888,-0.924136546498928,0.23869218977492668,-1.1811828257056582,-0.14795488651003202,0.45404643784940313,0.07218360496171958,4,left
3.5210000000000004,0.3064711839288304,1.1347877608939467,0.13855105350548585,-0.8811061192495968,0.25111301428312605,-1.165292864727748,-0.1341359119846543,0.5421258424709346,0.038008269385767963,4,left
3.522,0.3260711133531221,1.1358295890790244,0.1506367023637948,-0.8821933505238013,0.2508283241369735,-1.1657024523589727,-0.1446128592132653,0.47534745598069716,0.0639194906666346,4,left
3.525,0.34279409498088864,1.1387720033016695,0.16305844014829565,-0.9644995584247966,0.22697866880590592,-1.1960705531788427,-0.13829404139446339,0.5156230053029609,0.04829162371680588,4,left
3.525,0.3601745767376575,1.1442126525420275,0.17344364341945573,-0.7622905373707154,0.28553436568698193,-1.1214518137495129,-0.14086539771243398,0.4992372083531486,0.05464847059857586,4,left
3.529,0.3843516377388187,1.1493103500379567,0.17871234332076835,-1.0975412896166805,0.18846658141305836,-1.2451695147116855,-0.14090001758791865,0.4990027825237797,0.05474373989534329,4,left
3.53,0.40062227107687787,1.1521617237087902,0.1830334660422919,-0.6553460011316657,0.3164915944051545,-1.0819837027848118,-0.1395555772136392,0.5075999942179821,0.05139929723255438,4,left
3.534,0.40615706879208724,1.1534728284957059,0.1842680017566839,1.2008411166446558,0.8540095095185969,-0.39701897198473435,-0.14116508114650284,0.49730135456380403,0.05540741794176726,4,left
3.535,0.4234137196289145,1.1571775363157215,0.19474153233553715,1.6430520971283271,0.9820309755496752,-0.23382456669449628,-0.1399128234703357,0.5053228498584221,0.05228300071907703,4,left
3.536,0.44271675907508357,1.1633956977781676,0.2155012747438083,1.307784363298782,0.8849670318434795,-0.3575515687761949,-0.14058870534255874,0.5009979812827909,0.05396619512981022,4,left
3.54,0.45133558622924985,1.168313735726374,0.22340473601826988,1.5099869408962836,0.9435241776926555,-0.2829363524873698,-0.14042884275667977,0.5019814831831704,0.0535950361186926,4,left
3.5410000000000004,0.4540093435828225,1.1740700453262725,0.21425459825060655,1.4277370214016416,0.919661814574344,-0.31327363953031234,-0.14026468241287032,0.5031409128529281,0.053111751045346774,4,left
3.545,0.4483513932848007,1.1837805119245166,0.19915637216934165,1.4265286597079534,0.9194044813995087,-0.3137495447267785,-0.14054894612803,0.5011343714037018,0.05394778936750903,4,left
3.5460000000000003,0.4375929252651551,1.1961174955444998,0.1905996639732634,1.469732778457412,0.9317860699022156,-0.29776448353849005,-0.1402900521279808,0.5030234568338736,0.05314432231481387,4,left
3.549,0.42231188252733115,1.2097402744171488,0.19174802299000565,1.4179932776192286,0.9169303906830908,-0.31689848458268643,-0.14045941329729109,0.5017534591184496,0.05369322428717993,4,left
3.55,0.4031494587626272,1.2228511543054772,0.1947514111479639,1.4582666817693424,0.9285381478968592,-0.3020191790843185,-0.1403735513073402,0.5022990082627811,0.05348217870761661,4,left
3.554,0.3827029880948405,1.2331978856270265,0.19261595323736147,1.436616287224621,0.9221618429594793,-0.30997386573065777,-0.1404227888373265,0.5023388912590148,0.053362235141968015,4,left
3.555,0.35878079301503485,1.2383246257285103,0.18177391989442832,1.4414071556331227,0.9238932467946716,-0.3083176857386214,-0.1403573628513275,0.5019474954676555,0.05375261289139497,4,left
3.56,0.3344137796812474,1.2365721552932585,0.16841868840698987,1.4474496701050308,0.9250507469653326,-0.3058955604234383,-0.14046590920877808,0.5024617569654992,0.05319743058665358,4,left
3.5610000000000004,0.31282185965406056,1.2304162644066294,0.154076605860316,1.4371374966781034,0.9227910300451768,-0.30993682142888,-0.1403356781942217,0.5020059328732946,0.053753209212514336,4,left
3.5639999999999996,0.2917921378710363,1.2235046701603727,0.13269940834757415,1.4467611351353158,0.9249987236958892,-0.3061975248692914,-0.14041077433821367,0.5022705037888191,0.053431973090890435,4,left
3.5639999999999996,0.26887713343419184,1.2191788002814077,0.10134074895178756,1.4405028344095159,0.9231817133693285,-0.30850532553656596,-0.14050768950610784,0.5022927622452769,0.05323379562677086,4,left
3.569,0.24652341496495123,1.2210062542887863,0.05847792758834364,1.4427156766699256,0.9248957818530094,-0.3080373770882019,-0.14012519130035422,0.501928396827287,0.054202334644845175,4,left
3.57,0.22505409331057438,1.23058232983067,0.016814934789037093,1.443906818216214,0.9227873753446341,-0.306801066626844,-0.14083247726641407,0.5026178961049435,0.05240181553378716,4,left
3.573,0.2031633805619129,1.248199781893033,-0.015980681821166035,1.4406331465453464,0.9254997631349622,-0.30919774849512316,-0.13992160422465133,0.5017489796282066,0.05470638173979342,4,left
3.574,0.18261327380949305,1.2707116830104166,-0.04667115936877597,1.4444020195332543,0.9226885493746502,-0.30653982255170004,-0.14068328311900113,0.5024675326813179,0.05278661318410448,4,left
3.5780000000000003,0.15896518723640818,1.2993269782937231,-0.07814173410871247,1.4417836206219867,0.9241862674404632,-0.30823828625680705,-0.14066600526184453,0.5024243720561516,0.05284411491449737,4,left
3.5789999999999997,0.13303752299582938,1.330696311840014,-0.10872164687713834,1.4417084732175576,0.9261058882863771,-0.3088969698603527,-0.1391993084628374,0.5011515209588014,0.056475937186408864,4,left
3.583,0.11051895716746254,1.358999778358991,-0.1363839695188081,1.4456098901780696,0.9187323611360885,-0.3046954283664638,-0.14280180069544315,0.504300479489661,0.04754850677434833,4,left
3.5839999999999996,0.09007264106219456,1.3959819381079694,-0.16920761944143514,1.4377288823868128,0.9322224533545995,-0.31272573666835446,-0.13682838879212494,0.4990782125602239,0.06234628675824974,4,left
3.588,0.07944145234621747,1.4225303538341647,-0.19187642329192411,1.4479947134726636,0.9149400926272458,-0.30236026875696537,-0.14470817136731412,0.5059631132384125,0.04283294362820796,4,left
3.589,0.07877671717910886,1.428979408571584,-0.19727811248289157,1.4393632823268114,0.9293546109562331,-0.3110366810719919,-0.17779146696441542,0.5347393769152671,-0.03913363469132805,4,left
3.59,0.07109879964911961,1.458131151236476,-0.21940295799342613,1.4398270422993233,0.9290219346723836,-0.31071624168919343,-0.1856725451381508,0.5416133717309417,-0.05864666877240377,4,left
3.593,0.06094321422253673,1.4976135529288142,-0.25130710194005734,1.4555356303801745,0.9013409178297322,-0.2944503642069507,-0.1796971349006227,0.5364158669738782,-0.04384070014495399,4,left
3.594,0.05257668112283807,1.5260975696169863,-0.2703009021605937,1.4166495662628131,0.9693165475826981,-0.3345332543614035,-0.18330120710553005,0.5395233988462079,-0.05279844648091,4,left
3.597,0.03565234759096051,1.563137337196029,-0.27680713660205525,1.4812021616335564,0.8566168843130898,-0.26804417062542973,-0.18183480370015825,0.5383060647366815,-0.049103277987150515,4,left
3.5980000000000003,0.024050244697778965,1.5852098605785825,-0.2735419203625845,1.3960413770309437,1.0052799759227111,-0.35575022439507936,-0.18181398421992723,0.5382066890084893,-0.04914049566267177,4,left
3.603,0.021075313932586496,1.5895336640167201,-0.27205318697751035,1.0389578675435513,1.6293071524340896,-0.7237490941703142,-0.18258307122335196,0.5389552146173142,-0.05095774336691146,4,left
3.603,0.010469567116362353,1.606867316171121,-0.27041629995168737,0.9537963317147642,1.778015588380375,-0.8114588827107669,-0.1816619105208237,0.5381196924370617,-0.04871368776632917,4,left
3.605,-0.003682989612457166,1.6227271417993019,-0.2696920351227826,1.0183639139449698,1.665249047795283,-0.74495886424117,-0.1823790408607408,0.5386773451648226,-0.05056530692932746,4,left
3.6069999999999998,-0.01666643229072294,1.6279368063091475,-0.27815263022635006,0.9794279540739076,1.7332691293276699,-0.7850646360899607,-0.1819929207510061,0.5385549114324238,-0.04936690001663443,4,left
3.608,-0.029015158303062713,1.6313797759137083,-0.28909014431176466,0.99523734795318,1.7056207393951226,-0.7687618212549585,-0.18208007570716325,0.5382633783445859,-0.049999473670060614,4,left
3.613,-0.03998380335106681,1.6292536435164227,-0.30117350271610555,0.995553358137026,1.7051309407387367,-0.7684872258991176,-0.18218415144460648,0.5388043447602602,-0.049745997069556375,4,left
3.614,-0.05150136847658404,1.6242594431926953,-0.3149946833474137,0.987078408812398,1.7198403332753314,-0.7771248337140326,-0.18200544280283715,0.5382899672150334,-0.0497109673333131,4,left
3.617,-0.06299597559812069,1.6151260022232203,-0.3278664514972722,0.9972575719891029,1.7021774069650966,-0.7667643713971554,-0.18217192130629836,0.5384316357817318,-0.05012677697945449,4,left
3.6180000000000003,-0.07302660393723884,1.5975482806266061,-0.3417664743314932,0.9892855336839772,1.7159931455389836,-0.7748549834372604,-0.18206263185209742,0.5390021416687578,-0.04910012245998377,4,left
3.622,-0.07985769660056025,1.5782267201202154,-0.35459504331812647,0.9935573117416248,1.7085744021999747,-0.7705052058541215,-0.18210615226413474,0.5375190597258404,-0.05093583530776878,4,left
3.623,-0.08580117683117815,1.5566642017224752,-0.35876080703454793,0.9927982162670024,1.709999724290348,-0.7713937903350947,-0.18211389038603581,0.5397946321789483,-0.0483769534902497,4,left
3.6289999999999996,-0.09025045723724855,1.5298749992633693,-0.3532575206625532,0.991069323318631,1.7127123854497874,-0.7728366712714274,-0.18207901006561553,0.537345798075565,-0.051039200248529745,4,left
3.6289999999999996,-0.09125944565081737,1.5057230641587154,-0.3428362123504496,0.9940533411708793,1.7080244775251305,-0.7703431930072215,-0.18211708019865436,0.5387761347652209,-0.04954466279732035,4,left
3.633,-0.09735392285082775,1.487001675981587,-0.32269578792994985,0.9909472182493445,1.7128090085767471,-0.7728316153645687,-0.18209419597883025,0.539961186538872,-0.04812046932437277,4,left
3.633,-0.11105190807535988,1.4741943510316682,-0.2909154772633389,0.99319434010734,1.7093935200397246,-0.7710832441321396,-0.182091502780851,0.534686514742821,-0.05410309242546893,4,left
3.638,-0.13079083844575945,1.470012642328585,-0.25621788063555895,0.9926776348038974,1.710302577367329,-0.7716214113909746,-0.1821209129928347,0.5444891904179472,-0.04306690734749384,4,left
3.639,-0.16221329812558527,1.4712002177963903,-0.22126689489515,0.9907437959864275,1.7127306123489223,-0.7725605670357094,-0.1820741815812787,0.5318947579209747,-0.057217495291638845,4,left
3.641,-0.20317257594850996,1.4792057161239391,-0.19183970746255807,0.9954508650385366,1.7066760271725139,-0.7701165627291414,-0.18211725300209763,0.5424120700841133,-0.045411331062754495,4,left
3.642,-0.24620725498297552,1.491338238636885,-0.16993872273879201,0.988497747131192,1.7155900340534924,-0.7736924336603171,-0.18210955330530476,0.5421232418103985,-0.045720636232126875,4,left
3.6460000000000004,-0.2875816462328124,1.4993317711882286,-0.15078185625777393,0.9958188209956568,1.7062444651242794,-0.7699733657888765,-0.18204454765133787,0.5220801525739796,-0.06826098365619648,4,left
3.647,-0.32554067718187774,1.5046677177271988,-0.13562631847512935,0.9915904576514954,1.7116446701825154,-0.7721219630929865,-0.1822143252836368,0.5713491387866338,-0.012871978156334125,4,left
3.6519999999999997,-0.35472235604858965,1.5057195058687733,-0.11679221680531401,0.9881353513914037,1.7159576313679867,-0.7737737877975823,-0.18192826853803523,0.48965751460669027,-0.10470821820360526,4,left
3.653,-0.3669727364197869,1.5033453885378723,-0.10317646002747947,1.0034954696003766,1.696642546471434,-0.7662884939515895,-0.18230835418513466,0.5974078852889031,0.01642778694863916,4,left
3.656,-0.3675920552399012,1.5024642837731528,-0.10047844100887525,0.9750045548025325,1.7324811812015688,-0.7801797565076773,-0.18389044188096873,1.0496930800025865,0.52486698625999,4,left
3.657,-0.3637694862453028,1.4946764161503978,-0.08300356988982775,1.0115646057071457,1.6864949910520155,-0.7623630320183923,-0.18427500488602172,1.157440097989417,0.6460214618784552,4,left
3.658,-0.3525859672446443,1.477682109595214,-0.05325304158712133,0.9810604881265599,1.724868156085565,-0.7772246521400015,-0.1839813842173348,1.075753224042062,0.5541577463897294,4,left
3.661,-0.33136123013123253,1.4594919480967627,-0.012628273158384122,0.9818825866991452,1.7238053797408077,-0.7768123739129638,-0.18415895273343086,1.1250196127653123,0.6095656868159783,4,left
3.662,-0.30571108818989057,1.439605149880959,0.041433151384107955,1.0400172983916873,1.6507614491245066,-0.7485384441677498,-0.1840901558622005,1.104972690255394,0.5870369225479284,4,left
3.6660000000000004,-0.2826106693439777,1.4199053216001456,0.08865176358565315,0.8971628697823428,1.8302972308718004,-0.818025387825998,-0.18407734568811185,1.1046975873948086,0.5866661478099285,4,left
3.667,-0.25623808200304665,1.4084891199802783,0.1344417471567198,1.1339830827640291,1.5326401839671036,-0.7028319990321981,-0.18413836707924208,1.1151908344169237,0.5985897080140478,4,left
3.673,-0.2385385838045682,1.4050124154452632,0.16334404780907294,0.8216610942532173,1.925220627960714,-0.8547486474576096,-0.18406049210075048,1.1026258443627008,0.5842856659060942,4,left
3.674,-0.23459926932848563,1.4043928287016314,0.16989075523774128,-0.48968261071082086,3.5731926147125703,-1.4925625855927502,-0.1841279815333362,1.1124056417660837,0.595455944509784,4,left
3.675,-0.21757566020449498,1.4081807484248705,0.19321712912803762,-0.8019346117712148,3.9657290032467842,-1.6444422560551173,-0.1840952501227449,1.107129133334523,0.5894486715006366,4,left
3.677,-0.19474621632862366,1.4205828318075922,0.21772738915523265,-0.5651939878672846,3.668126374650254,-1.5292928553522231,-0.1840714471821067,1.1083604325850622,0.5906831880178043,4,left
3.677,-0.17877295243015906,1.4441084919663725,0.2265804790519279,-0.7080635180358976,3.847656365024898,-1.5987809167099682,-0.18416654742568322,1.1096881926665274,0.5926572744899722,4,left
3.681,-0.15929760647724306,1.4787397052137337,0.23387127470055075,-0.6497058693028375,3.7745036378325283,-1.570403342920772,-0.18400280415096446,1.1073895437541026,0.5892443638755465,4,left
3.6830000000000003,-0.13930285262577263,1.5221984305740701,0.22576473403265002,-0.6493823135050213,3.7737078955072576,-1.5702334854918978,-0.18420121086637498,1.1095091023712054,0.5926438285828497,4,left
3.6860000000000004,-0.1198525219089399,1.5755304583623075,0.1998440928567786,-0.6791565174049528,3.811671811368737,-1.5847319769514967,-0.18404403450430507,1.1081081088214746,0.590258423950376,4,left
3.687,-0.09996050651795357,1.6351256081767174,0.16570468724883936,-0.6433421761597423,3.7661260965845518,-1.5672962728267512,-0.1840451772739637,1.108776697629457,0.5910030646291486,4,left
3.6919999999999997,-0.08175027700222987,1.6933015788401602,0.12621366908249665,-0.6714762919713424,3.80171348658652,-1.5809870679000773,-0.1843264724140959,1.108542669075461,0.5922429948771899,4,left
3.6919999999999997,-0.06702881892719341,1.7453816964046145,0.08842157245982216,-0.6555565663287224,3.7821611581710317,-1.5732576919554297,-0.18368209067491625,1.1087104553755158,0.5889964273157406,4,left
3.696,-0.0543608388323219,1.7814688036873711,0.05242476765689975,-0.660953218011703,3.787480896722057,-1.575838732273069,-0.18464329780422,1.1083747490960365,0.5937440065135695,4,left
3.697,-0.034870063408286786,1.7983885844580638,0.02418301295106806,-0.6617573791919964,3.7910087076337096,-1.5763051066364524,-0.18361876655741208,1.1088459131517863,0.5888099707732397,4,left
3.701,-0.010947896968977081,1.8039857216007797,0.014705666009778353,-0.6587223613235951,3.784107203511134,-1.574736699383771,-0.1842112067098286,1.108574667151883,0.5916626657471022,4,left
3.701,0.011080205307808233,1.7999950922888615,0.020893582616729474,-0.6621334258822509,3.7908543911522252,-1.576469298236314,-0.18471955823134162,1.108090558137961,0.5938381655901224,4,left
3.7060000000000004,0.03147801708609132,1.7904782024729773,0.029205493411074507,-0.6576824832308175,3.7852828949145607,-1.574304980573909,-0.1824905615166596,1.1098857954295147,0.5839488889568257,4,left
3.707,0.044504358570175984,1.7855611548494954,0.02283874267895992,-0.6655295741134803,3.790579648185865,-1.577985583447035,-0.18662557878041275,1.1065720662062937,0.6023080409961834,4,left
3.7110000000000003,0.04552234446615684,1.7854488451304085,-0.0028846901399728255,-0.6520104887059807,3.78402108290309,-1.5717213074667031,-0.1813148467168429,1.1108484713417797,0.5787561900537491,4,left
3.7110000000000003,0.037493855141616995,1.7875234212765816,-0.040221370901376424,-0.6711212285611015,3.792477323148861,-1.5805520762278635,-0.18575026884901005,1.1072679644484227,0.5984095409106212,4,left
3.716,0.028300144937453288,1.7873672370751208,-0.0817411728735591,-0.6509458647493661,3.783709594846152,-1.5712343546579823,-0.18562603240338194,1.1073404652331336,0.5978438985377503,4,left
3.717,0.0197209122780998,1.7821895543522388,-0.11943023951953609,-0.6622920733314243,3.788385922456695,-1.5764664425364634,-0.17717865170992114,1.1142756665886966,0.560505006560609,4,left
3.721,0.01738058551957341,1.7721053563366567,-0.14624403208869416,-0.673613285760958,3.794349067102565,-1.581727080306615,-0.19794986888647684,1.0972456719470491,0.6523103034017255,4,left
3.721,0.034045828021822586,1.7492599588773057,-0.16077245742659035,-0.6265882650296948,3.771412459697993,-1.5599331502042704,-0.16350334197608946,1.1254873831518917,0.5000882144907141,4,left
3.725,0.0489586223360219,1.7318236831685794,-0.1666633073081094,-0.7133410905325825,3.8133797756858856,-1.6001276016812351,-0.20894592532615075,1.0882267007920492,0.7008691028250411,4,left
3.7260000000000004,0.054743772886078165,1.724995345242762,-0.1664240371798527,-0.6020488440504328,3.7596169821088807,-1.5485669416413674,-0.3996484550862237,0.9317784016269444,1.5435279132667292,4,left
3.727,0.07577348007944694,1.7018119006220078,-0.1604801127139735,-0.6949191231038687,3.8044534950022246,-1.591590276426145,-0.4451112744426625,0.8944993454168093,1.744319546499006,4,left
3.73,0.10614364298382417,1.671907166133215,-0.14070482112083993,-0.6925655346235629,3.8034281750359153,-1.5905075389303462,-0.41063311532408314,0.9227697785953972,1.5920806618914487,4,left
3.7310000000000003,0.13202487604211866,1.6475303401416408,-0.10959042420371568,-0.514956750074992,3.7173072088184402,-1.5082063776311085,-0.4314304983170506,0.905716023762881,1.6838998510062537,4,left
3.735,0.1594787728871211,1.62445774264914,-0.07554192881252209,-0.9513076022311666,3.928768546081103,-1.7103927215038883,-0.42298463215292387,0.9126498545007453,1.6465617657481917,4,left
3.735,0.20201052433156275,1.5987230020030014,-0.027762406457934513,-0.22786813746484313,3.5782021418198253,-1.3751879820401758,-0.4228096305352507,0.9127684422111277,1.6459691643645646,4,left
3.74,0.23257661695169393,1.5790097005664108,0.004990195866196989,-1.1820757720402162,4.040603595796867,-1.8173149181097719,-0.42735587510198936,0.9090873182076449,1.6656813636634538,4,left
3.74,0.24042184691048157,1.5736019770317882,0.014138326993013112,-5.187617817245897,5.981489299071573,-3.673381668782053,-0.42188727456287145,0.9135070602922036,1.6420456855220333,4,left
3.741,0.2775224548779482,1.5549008446896901,0.04741375075309545,-6.14184706732381,6.443904399175498,-4.115523315155031,-0.4261786429937312,0.910051363798964,1.6604878546328998,4,left
3.745,0.3325468941518992,1.5260696116547026,0.08863278987434062,-5.41837966021514,6.09336416849781,-3.7802859530989545,-0.4238818883817297,0.9119081403386015,1.6505626092135748,4,left
3.7460000000000004,0.37625542820536323,1.5063932086795853,0.11670478826835233,-5.8547377544348596,6.304674887697786,-3.982525420435632,-0.424258743947828,0.9115433957556612,1.6526682701281215,4,left
3.75,0.4237368029828851,1.487634691553465,0.14122317893461533,-5.677173277880988,6.218901833028955,-3.9001550541774375,-0.4252762872594052,0.9108862061629781,1.6557467087810473,4,left
3.7510000000000003,0.4652106991446771,1.4740657112880262,0.15230598528013994,-5.674702130631447,6.217327645570641,-3.899139717663652,-0.4235192703400101,0.9120224146002812,1.6504237179951495,4,left
3.7539999999999996,0.4966326428027739,1.4637007814126766,0.15640912128051404,-5.76775875828889,6.262791234689033,-3.942131664637323,-0.425379234220408,0.9108706659158553,1.6556485233502034,4,left
3.755,0.5239413392048053,1.4519255167310257,0.1574452428512944,-5.65625872218016,6.208603719235457,-3.8905207552076635,-0.4240183899384464,0.911689030892542,1.6520215549979336,4,left
3.759,0.541085979279196,1.4407783679517268,0.15468255912394235,-5.743142476546618,6.250383431894502,-3.930888240015946,-0.42429351261325476,0.9114604838080091,1.6532581391311396,4,left
3.759,0.5505244213074629,1.4239157730537937,0.15793027653334613,-5.6962007879876495,6.228666093681749,-3.908788709830702,-0.42562338148678763,0.9109228155288384,1.6547084157318186,4,left
3.764,0.5549124602747534,1.3994115791770692,0.16863908019549528,-5.707089957923205,6.232171797305048,-3.9144337873855406,-0.4224294785058796,0.9122788764412619,1.6507104459166548,4,left
3.765,0.5556207230133379,1.3687571821070879,0.18404795064357748,-5.719273476779752,6.240247753726303,-3.9193440931574046,-0.42715820074339717,0.9102851672489005,1.6565155028050178,4,left
3.7689999999999997,0.5576374785715604,1.3335356205534512,0.19979979558590777,-5.6979718753134065,6.2281942786784406,-3.9100595132160203,-0.4221650188529985,0.9123715911382437,1.6505382878742152,4,left
3.77,0.5595740139566019,1.2946676676861233,0.21560920868496686,-5.718127900011563,6.237945594009643,-3.9194043883870773,-0.4250506137093747,0.9111652439981583,1.6539938459680732,4,left
3.773,0.5641840044631261,1.2549732505700182,0.23683355952909188,-5.704278769356627,6.234448063378748,-3.911900177601687,-0.4274321153088182,0.910213398478285,1.65650598635116,4,left
3.775,0.5782136100255331,1.2176853278585522,0.264667196583374,-5.710964725308417,6.230344661630477,-3.917482185744823,-0.4168723116112566,0.9144941099863286,1.6449084257943076,4,left
3.778,0.5941577262787503,1.1789398522689625,0.29669772880909606,-5.709782641232344,6.240726744079632,-3.913228902134058,-0.4364624667821816,0.9065488177087578,1.6664454267436788,4,left
3.779,0.6053528251951369,1.1383513172282296,0.3294519745696137,-5.707824589145536,6.228099492234074,-3.9162717412608385,-0.41131642998889784,0.9167448605784809,1.6388305404918484,4,left
3.785,0.6157971206584897,1.1007369550513058,0.35691510991390885,-5.711115138747802,6.236442362585552,-3.9155141290794373,-0.43230577909633117,0.9082342967908672,1.661865854362496,4,left
3.786,0.6258598107272453,1.0631070399106026,0.37706606369112244,-5.707238690323466,6.240379437815916,-3.9117503749912625,-0.43172606122344004,0.9084777985022977,1.6611962210482796,4,left
3.7889999999999997,0.6317124094876649,1.0267235857800543,0.3905255257018355,-5.711817385566883,6.21714305037929,-3.9224826257063268,-0.3917522790870801,0.9246569285607152,1.6174749447214851,4,left
3.7889999999999997,0.6308407783726329,0.9957037532448193,0.3978188743733577,-5.706255202629416,6.261656105816662,-3.903936892128058,-0.490012271309648,0.8848759362294539,1.7249678069778214,4,left
3.7939999999999996,0.6237369904854625,0.963967098710373,0.4030539176196372,-5.71233797175927,6.203984168162788,-3.9272595635424836,-0.3270929623000405,0.9508391568831873,1.5467473949091615,4,left
3.795,0.6193899515886411,0.946142473455113,0.40443378448677647,-5.707713409804583,6.2523539186936645,-3.9079989441021508,-0.541980371942189,0.8638323388581445,1.781804023927426,4,left
3.7960000000000003,0.6175203740767718,0.9411514146666498,0.4053408691560342,-5.707132895567135,6.250696851483547,-3.908193046076077,-1.4439208747697754,0.49876636865538193,2.768401064761393,4,left
3.798,0.6080630231780366,0.9215378777582668,0.4129526609588442,-5.717822892780788,6.159386720626038,-3.9457870675619837,-1.6588032070464933,0.41176756063232905,3.003441199940172,4,left
3.799,0.5981376262025935,0.9004908776853978,0.4209290282250283,-5.692580157620117,6.384327880804971,-3.8538642038966175,-1.495894174300763,0.4777049081286977,2.825239287504219,4,left
3.803,0.5888503854290872,0.8850809375695732,0.4292130563153467,-5.734029107005682,6.011159985375576,-4.006088656298283,-1.594139314729075,0.43798156687241624,2.932736619107028,4,left
3.803,0.5796229104612503,0.8717502135060978,0.4364311158959622,-5.679524495268073,6.503456350951365,-3.8053827885546743,-1.5541822362161328,0.45406379544337155,2.88896092647507,4,left
3.8080000000000003,0.5774024317020583,0.8682791281075924,0.4378745493338598,-5.449857844155423,8.56933010226121,-2.962508921085128,-1.5535899109781512,0.45443185214964127,2.8884115694143486,4,left
3.8089999999999997,0.571530729600106,0.8595452927105097,0.44325584910052607,-5.39542776520667,9.06167860864636,-2.7618379323529894,-1.5745786559009942,0.44580990586106684,2.9112718742085093,4,left
3.81,0.5631405368842552,0.8459253216037272,0.4536536509617667,-5.436716688935849,8.688415842980994,-2.913987866889849,-1.5494565550726485,0.4560329179583512,2.883834457321268,4,left
3.813,0.5603233290314626,0.8345008778307665,0.46660839064721293,-5.411724471519747,8.913471764297089,-2.8221809302104166,-1.5689930503440799,0.4482318713662887,2.9052889423013193,4,left
3.8139999999999996,0.557794815662447,0.8185261020014926,0.4807093194758926,-5.422102262395459,8.822067936341927,-2.859631544391224,-1.5585125417026653,0.4521302326149029,2.893552685927707,4,left
3.8169999999999997,0.5563187708046763,0.8020725748841394,0.4863127367546944,-5.4218062284714055,8.820424863133432,-2.8599547753136685,-1.5608103848288288,0.451792101376128,2.8965351459979853,4,left
3.819,0.5556725642417464,0.787981580277786,0.49064202220272435,-5.4170838326560355,8.868924749307883,-2.8406526646483132,-1.5637426154532021,0.44987911179697315,2.899166993970076,4,left
3.823,0.5553719830093897,0.7734985046190689,0.4973131850473449,-5.4228767391947095,8.810935609966553,-2.8638372163626835,-1.5587957475906835,0.45246018876678873,2.8942147646355756,4,left
3.823,0.5551011291850899,0.7583262649755909,0.4953031456174585,-5.41815879851244,8.855933923135563,-2.845684284779707,-1.5633328622323046,0.45062877097101595,2.8991817436980254,4,left
3.83,0.5514841053132935,0.7460793568825239,0.49524323406963233,-5.421329260810735,8.832167145483078,-2.8557673556838585,-1.5604933358518505,0.45070468734316893,2.895224178482078,4,left
3.8310000000000004,0.5485589891697501,0.7349618563213582,0.504341423343435,-5.419138205627738,8.836431675678345,-2.8527739068720344,-1.5613618882705622,0.4528062667992393,2.8981203927041923,4,left
3.832,0.5485047643468832,0.7211885780285716,0.5112891394590817,-5.421143280948778,8.844994396945252,-2.8514389213702755,-1.562045437272026,0.44886994935004476,2.895964691730546,4,left
3.833,0.5505927475852795,0.7078934233660477,0.5146619931277454,-5.419043839853494,8.83126459744669,-2.854393902636953,-1.560592716225835,0.45335921075669017,2.8974708035453753,4,left
3.8369999999999997,0.5565594840463969,0.6953051731232498,0.5171416953510213,-5.420542886612825,8.843769907308605,-2.8514006558003553,-1.5619173033150302,0.4505688944515248,2.897131211103326,4,left
3.838,0.5631509011445837,0.6801766873525672,0.5202538486267954,-5.421339215145727,8.836820719252986,-2.854254047041029,-1.56155057960338,0.4487743094005078,2.8951886364800345,4,left
3.842,0.5680536275277576,0.6630238359843674,0.5237882592042462,-5.416082751050942,8.835955900695676,-2.850697915405145,-1.560372874816206,0.45775482004274276,2.9006470760743035,4,left
3.844,0.5744446219073671,0.6461977501617762,0.523120181418998,-5.427323217408972,8.84488446677538,-2.8559876095629333,-1.5632137546962728,0.4408344402716786,2.891242533605896,4,left
3.847,0.5816399654376336,0.6246869425632877,0.5186057297571971,-5.4107399308032225,8.82990087380874,-2.848776383396422,-1.5593301492821348,0.46265655435286124,2.903060800432452,4,left
3.8480000000000003,0.5863176012669578,0.6003882152289967,0.5135643921876318,-5.428383108541527,8.84618185986622,-2.856336423228326,-1.5626704059274397,0.4443985351344117,2.8933011210808557,4,left
3.852,0.5911418783682761,0.5745630613705971,0.5120351305465336,-5.418243605349307,8.836287956595978,-2.852169092533864,-1.562430771515336,0.44495350894304786,2.893403086731168,4,left
3.853,0.5974246233059464,0.5437776954858522,0.5122175363411737,-5.409233244285613,8.830176209077887,-2.847583983618418,-1.5564596322278463,0.47960577925697034,2.9124457094548504,4,left
3.8569999999999998,0.6065615444718793,0.5136300560133494,0.5059918387546803,-5.448224453276758,8.860875818686837,-2.86602395220915,-1.57134920860031,0.39434768249613716,2.865872536988334,4,left
3.858,0.6211750372059694,0.4733042769370798,0.4986866936885423,-5.375995289586092,8.803234691689493,-2.8321220906972875,-1.5465841346157814,0.53574134105843,2.9430095653750055,4,left
3.861,0.6301414322437868,0.44028999511598027,0.49749559829053697,-5.468722383233219,8.877401182810932,-2.875585305298757,-1.579274551662592,0.34923319559349364,2.841293022686693,4,left
3.862,0.6329029632597709,0.4319766949836459,0.49574612937546814,-5.391317476265739,8.815430351549942,-2.8393306956600304,-1.7165246946989112,-0.433632926893049,2.4144060703424213,4,left
3.863,0.6464267886194305,0.4020829122166721,0.48957557747417285,-5.393382563420516,8.81732941031068,-2.840200697505379,-1.749225846682347,-0.6201449030037711,2.3127024561147524,4,left
3.866,0.6645907480507101,0.355039407849399,0.48255947900084006,-5.541074408324016,8.934742956426934,-2.9096876876293187,-1.7244120773936906,-0.4787338647934901,2.3897808295484486,4,left
3.867,0.6770311332620784,0.3190139928822134,0.4713185188682742,-5.17810325043245,8.64591743813121,-2.739036241058976,-1.7394285776004925,-0.5640372644835299,2.343360549522389,4,left
3.872,0.6931542037587682,0.27351856630693716,0.4508561448499776,-5.779914041502733,9.12483591747059,-3.0219387786336087,-1.7332251920653936,-0.5293020958336637,2.3621234006434175,4,left
3.873,0.7057607206043244,0.24239129633363862,0.4372101040487314,-4.98613282807641,8.493182424519688,-2.64880867611467,-1.7333043724353114,-0.5288609229033061,2.3626094289305075,4,left
3.8760000000000003,0.7109412513786548,0.23625146208831227,0.43336828693383755,-1.6541667257917598,5.841685470590017,-1.0822878724572162,-1.7363323376466866,-0.5470074664442772,2.352473535704682,4,left
3.877,0.7259169140839918,0.207836361775793,0.41582987896392065,-0.8603869465279044,5.210135110643918,-0.7091688591092007,-1.7325788106054376,-0.5252317912388215,2.3644485240630546,4,left
3.878,0.744301093597954,0.16496759001296418,0.39176464727826255,-1.4621961815135602,5.688942016162953,-0.9920593915310942,-1.7356994856367627,-0.5422520329630913,2.355381007244932,4,left
3.8810000000000002,0.7592273911452192,0.13454966940521443,0.3760970220675682,-1.0992244491103362,5.400074026208245,-0.821403408033002,-1.7336360386893153,-0.5329553681207944,2.359772463790509,4,left
3.8810000000000002,0.7755307886153382,0.1062987711436453,0.36390399187806866,-1.246921408808889,5.517857772192688,-0.8909301418221989,-1.734790887166196,-0.5352930720892075,2.3596628451248884,4,left
3.886,0.7891820567714165,0.07858519092160247,0.35802472825972276,-1.2489754693062234,5.518960345183027,-0.8917145941206519,-1.7342497488387811,-0.5374174111193663,2.357075672268212,4,left
3.887,0.8060851848368338,0.052869928281646134,0.3543842842696404,-1.1715863895641965,5.458131476081995,-0.8555826740218131,-1.7342838092722652,-0.5334588829215536,2.3603729248239143,4,left
3.891,0.8257666133416639,0.02944173090493177,0.3474941809013916,-1.2642977010706564,5.531160857209505,-0.8989236794117746,-1.7349817162330892,-0.5374002766752566,2.35823437815277,4,left
3.892,0.8408727434609429,0.011259235372647797,0.3414759261902793,-1.1920753870520557,5.474010286690489,-0.8650746158255356,-1.7330882180224594,-0.5343128463266043,2.3578034495748366,4,left
3.8960000000000004,0.8543384609912361,-0.005215408319360968,0.3342225388958382,-1.2310800562592639,5.505686542853888,-0.8836193727145315,-1.7365596622796269,-0.5364895757355876,2.361448285355684,4,left
3.897,0.8645072029158275,-0.020267282136205503,0.3269555124212705,-1.222026177689418,5.49642908755404,-0.878696446693447,-1.7316820936746917,-0.5349604332396258,2.3550738218283387,4,left
3.9,0.872058292550582,-0.033194752132228986,0.3219532525091433,-1.211961746943376,5.49195517600455,-0.8751113393599437,-1.736771674525138,-0.5359619427713033,2.3622123035080156,4,left
3.9010000000000002,0.8801890273749298,-0.04632499163473313,0.31850667211873307,-1.2295126963645715,5.501584680138608,-0.8819566855190367,-1.73390440535261,-0.535804606535129,2.3578571706915215,4,left
3.905,0.8845553493875682,-0.06154033151791588,0.31757334511413293,-1.213003081583574,5.491903660000565,-0.875315486067662,-1.731204242648816,-0.534359005360136,2.3548196337211924,4,left
3.907,0.8859818810182445,-0.07614487084172016,0.3165393113956463,-1.2242438750932874,5.500880193767229,-0.880609711231648,-1.7426002644524317,-0.5382691273462341,2.369436113282466,4,left
3.912,0.8813161416546871,-0.0856937791859322,0.3168913028379353,-1.2188514517787388,5.490173565247946,-0.875997019875163,-1.7215651753254675,-0.5315883751815611,2.342016376255071,4,left
3.912,0.8664899420748796,-0.0927539417076664,0.31830451602229726,-1.2199590885908673,5.505714891382331,-0.8812659966024861,-1.7485404136496572,-0.5399616168358051,2.3773387567074566,4,left
3.915,0.8542751952925267,-0.1001042609668203,0.3160275511410956,-1.2209932385335325,5.484669046793128,-0.8746682919285984,-1.7260335434775205,-0.5330571347816534,2.3477997686709653,4,left
3.9160000000000004,0.8368625995511114,-0.10164698812472583,0.30991819156565825,-1.2193899660053482,5.506704302321008,-0.8814666851841955,-1.726623459627735,-0.5331124150900334,2.3486785014856384,4,left
3.9210000000000003,0.8069777509737315,-0.09638622077864797,0.2957876898626045,-1.2211073817293703,5.494604410671629,-0.8779093430975331,-1.769592037310765,-0.5466286575206416,2.404794503662262,4,left
3.9219999999999997,0.7739568019984177,-0.08855966945698387,0.2767185981141418,-1.218671391577471,5.481049305302951,-0.873005259622744,-1.6640056809008255,-0.5135961300122203,2.266749772203477,4,left
3.925,0.728196462310174,-0.07451196426198105,0.26706896020558,-1.2229202291341446,5.535253109120918,-0.8914609126514912,-1.839067048337066,-0.5682965820818238,2.4956844964598845,4,left
3.926,0.6967413085112326,-0.06386478380686719,0.2675767678745309,-1.2161996801290518,5.43566103939626,-0.8577764388172155,-1.6081584725489466,-0.4961687832572347,2.1936945105988626,4,left
3.93,0.6886223903014604,-0.061713083110666485,0.269615279980835,-1.224566924527943,5.563326342654207,-0.900908805708047,-0.6389474512488974,-0.19333428527033725,0.9262142906252012,4,left
3.931,0.661460670731131,-0.04974984356156249,0.2766745650845495,-1.2176907929861973,5.456842236925803,-0.8649464265020522,-0.40801813266504355,-0.12119879308175148,0.6241907819484969,4,left
3.931,0.6253700100805092,-0.03015917228035284,0.29792151611688306,-1.2174641895976432,5.4593721637097214,-0.8657367342786997,-0.5831095822909867,-0.17589791676788596,0.853185188435775,4,left
3.9339999999999997,0.5994934664185694,-0.016870499711589097,0.3241422197194425,-1.231920948979182,5.663543525475887,-0.9349159345339744,-0.4775047009546028,-0.14290274306115291,0.7150713229631952,4,left
3.935,0.5721997745963816,-0.006872168931435772,0.3478258112211336,-1.1968825200964184,5.1621570129858725,-0.7650922420944857,-0.5204546227779876,-0.15632089285666895,0.7712379805117222,4,left
3.94,0.53560089493127,0.005213986674916613,0.3772875766518921,-1.254840547471103,5.99333293945453,-1.046619957131028,-0.5211219495162748,-0.1565401460208301,0.7721219376320987,4,left
3.9410000000000003,0.5108813056152777,0.013909927540060336,0.39599308460703936,-1.1784188563879603,4.897072445452225,-0.6752809595046249,-0.4984742480104352,-0.14943825677909572,0.7424840146997551,4,left
3.945,0.5034379329072669,0.01586722508678326,0.39886524440245874,-0.8568889500586204,0.29451502845340394,0.8835683261825319,-0.5256270010021713,-0.15796098989544277,0.7780191400416478,4,left
3.946,0.4719238523728609,0.02173138777181021,0.41187906375848116,-0.780442179822842,-0.8017052273292128,1.2549479064198956,-0.504446092009543,-0.1513031665788503,0.7502954859049544,4,left
3.947,0.42470616685688267,0.033958396285573754,0.4288771181939671,-0.8384273474232735,0.029427169069954545,0.9733762890242365,-0.5158492023919445,-0.15488346134205005,0.7652180722360318,4,left
3.951,0.3809625505179197,0.04579854678001709,0.4398064794439165,-0.80339921640627,-0.4719759190802334,1.1431832629581766,-0.5134006157248002,-0.15415372509402814,0.7620353494730213,4,left
3.9530000000000003,0.32849355987786394,0.0578437578577358,0.4530914246508938,-0.8177660152447785,-0.26766011041572474,1.074149747909824,-0.5099441221817707,-0.15295971925900723,0.757453056153676,4,left
3.9539999999999997,0.27792377542468666,0.07047887766252939,0.4681827632690298,-0.8177330035844014,-0.26544095456909333,1.0730460063773095,-0.5159221646389274,-0.1550244266795423,0.7653771538419788,4,left
3.955,0.23463258351814864,0.0799722167402674,0.48605070907182707,-0.8105792765572539,-0.37147949768952443,1.1094577648845267,-0.5100893936704565,-0.1529600985272015,0.7576193057390448,4,left
3.9589999999999996,0.19981183152083873,0.0866626439939353,0.5059707102120635,-0.8192229783934288,-0.24425785699724845,1.0658779363580924,-0.5141204321607475,-0.15441250492805214,0.7629944158132089,4,left
3.96,0.17738678066782432,0.09084280919963622,0.5261770237238441,-0.8123830869165841,-0.3436585406079396,1.0997554326361962,-0.5126966588810262,-0.15396954045712857,0.7611332773817776,4,left
3.964,0.167654001831502,0.08901533008120589,0.5449670770842188,-0.8163946567512875,-0.28907365238404903,1.081684133001017,-0.5112898968895372,-0.15317137179486873,0.7591020938356409,4,left
3.965,0.17352751917864287,0.08322811658589901,0.5565731799292056,-0.8147231938100129,-0.30385615252884957,1.085350302880808,-0.5152915263504285,-0.15524106080416483,0.7647729041575592,4,left
3.97,0.18787023829519556,0.07697752196898185,0.5580796156171584,-0.8151231712456701,-0.31384129614506207,1.0910405108483539,-0.5095046290309788,-0.15221070935250705,0.7565521090810825,4,left
3.97,0.20270620987328672,0.07081595131777761,0.5447390892948114,-0.8151368593536628,-0.29440125550931806,1.0816246744597713,-0.5154310622029676,-0.15536513158964743,0.7649986027043599,4,left
3.9739999999999998,0.21321009422613613,0.06473765614746133,0.5202862692640028,-0.8148816910302326,-0.31337823585509894,1.0903089545343687,-0.5120041454947996,-0.15354214023634266,0.7601145167448116,4,left
3.975,0.2193151390694948,0.060027183212653774,0.4948119103411701,-0.8159782961083999,-0.297818089655863,1.0850589792666963,-0.5095880228347869,-0.1521372772358118,0.7566087575466762,4,left
3.9789999999999996,0.22475784721311198,0.058102636899951626,0.4756440938344216,-0.8129774561997334,-0.3123648625364598,1.085798605146328,-0.5208586092744969,-0.15850014471874657,0.772864351509102,4,left
3.9789999999999996,0.22857296559496948,0.05588670360190941,0.4684061581908945,-0.8187518544799117,-0.2946130169120264,1.0893548844881265,-0.49992248476604384,-0.14669059093341913,0.7426720148743831,4,left
3.984,0.233052178332408,0.05307248486322659,0.4638384948763471,-0.8103978813689874,-0.31738481958215686,1.0827931613034718,-0.5267609787424783,-0.16183940549087897,0.781383046778011,4,left
3.984,0.23982766738433822,0.05165305932989077,0.45709763638543643,-0.8192539015535827,-0.29380091173310785,1.0900217186872128,-0.5043750004106158,-0.14920072897678852,0.7490902306546641,4,left
3.989,0.24782557223060844,0.05051418103130279,0.45147612423067807,-0.8142147468706936,-0.30633641347115315,1.0854762675112144,-0.5050379882343549,-0.14955582687392618,0.7500419236906525,4,left
3.99,0.25573659814261485,0.04953695810691994,0.4446193697593581,-0.8094886131731016,-0.3225472436443516,1.0833861135195475,-0.5474809320643014,-0.1735912421712173,0.8112932021779755,4,left
3.9930000000000003,0.2649657279781289,0.04958938034578063,0.4349545070796076,-0.8295442427087307,-0.26044826995126147,1.0955248499773553,-0.44311761472364153,-0.11451078040979668,0.6606820492683532,4,left
3.9939999999999998,0.2808421218332846,0.04980503086539728,0.414842631037619,-0.7924667362793387,-0.3740145263567398,1.0724748155741346,-0.6161531459706484,-0.21246149426054106,0.9104013708918682,4,left
3.9989999999999997,0.29210205482301466,0.04889113238445597,0.3971123146341627,-0.8400468442390596,-0.2285481590392847,1.1021913584525633,-0.387933695354472,-0.0832739680819746,0.5810376274798108,4,left
4.0,0.2940626208900326,0.049300989135635104,0.3928942741956887,-0.80034065612674,-0.3498458962559611,1.077336504241051,0.5698398465117573,0.45907552713707045,-0.8011459001193552,4,left
4.001,0.30991772543636376,0.0521389224162348,0.3779735544420156,-0.8013631170016264,-0.34711854011423215,1.0781905901246776,0.798036061131271,0.5882609467216247,-1.1304760159811287,4,left
4.003,0.33365822121182204,0.0547834761345559,0.36083204631902344,-0.8772339023771537,-0.11400428958386485,1.1249822904793674,0.6250411718959683,0.4902995698662925,-0.8808245304726533,4,left
4.004,0.3556803893022512,0.055717453023148414,0.3595166261850097,-0.6908264704902524,-0.686316510262776,1.0097668024895432,0.7293591416249695,0.549426740118964,-1.0313381125528924,4,left
4.008,0.3973065598449134,0.05269018352162386,0.3522869747119517,-0.9998641268728581,0.2624357264896694,1.2008445262020078,0.6869460067765034,0.5252892574369438,-0.9701958276952279,4,left
4.0089999999999995,0.42890975530797465,0.04875594505309004,0.3425410236705535,-0.5922713874436325,-0.988952083702097,0.9488230059107478,0.686294506406818,0.525090634252402,-0.9691630613106639,4,left
4.013,0.43716847033206385,0.048464262715690626,0.33890058914428833,1.1187879239912442,-6.242424694653925,-0.10883980775472002,0.7086034663046621,0.5375555047931861,-1.001449272512577,4,left
4.013999999999999,0.4672092103222744,0.04666130857658883,0.31780580926718305,1.5263205143866347,-7.493887515326728,-0.3608037417838519,0.6819172991654954,0.5225166277828818,-0.9628982694221492,4,left
4.015,0.5038943486733082,0.04103629977298541,0.286717792799183,1.217379273344195,-6.5450522832701425,-0.16980442938701676,0.7026472453631383,0.5343959865325874,-0.9927365958077822,4,left
4.018,0.5260637787615579,0.03556888187430881,0.2649435600731196,1.403700456280054,-7.117340150939354,-0.28498656333282346,0.691569499400937,0.5276685668926508,-0.9770002138229694,4,left
4.019,0.5473098983314885,0.029008633735591018,0.24288822422048517,1.3278426396572727,-6.884481675989878,-0.2381058075328084,0.6939211933808922,0.5297829871459097,-0.9799630641215616,4,left
4.023,0.5644295888889932,0.017544520962482563,0.22252526728946476,1.3269451535424843,-6.8811950159668385,-0.2375219103603005,0.6971430770330128,0.5306472528233104,-0.9851413496188236,4,left
4.024,0.5759418986028699,0.0034561585756146124,0.20909410516746793,1.366349752759872,-7.00330186352302,-0.2619264589244858,0.691803852904712,0.5283891528778359,-0.9770147506648488,4,left
4.0280000000000005,0.5821531119186396,-0.00970562655730341,0.19731946203906034,1.3192228623349325,-6.857020819608039,-0.23273691107386754,0.6966213507773207,0.5311237317581764,-0.9839632811292258,4,left
4.03,0.5888398326734133,-0.024581245557100048,0.19230458773550393,1.355820872006102,-6.970955254661888,-0.2554136200146354,0.6937648487630124,0.5280870188053859,-0.9806228018675168,4,left
4.033,0.596442301303433,-0.04302280501543078,0.19500484755180908,1.3360303597051035,-6.90951746109239,-0.24315863595165446,0.6943239360977523,0.5316469705083142,-0.9796429806971286,4,left
4.034,0.5986816418920266,-0.06405590790087365,0.20307954757906405,1.3410280354550221,-6.923532404696327,-0.24620175534163488,0.6955918881999745,0.527526457934143,-0.9841381243092108,4,left
4.043,0.6029269087702711,-0.08860259593865119,0.21848434913551032,1.344960429866246,-6.939888996842302,-0.24877684324521582,0.6934710586076597,0.5314834376209554,-0.9782362650247204,4,left
4.044,0.6087606459819621,-0.11658445535648818,0.23670244183140554,1.3381409768829302,-6.911575854883743,-0.24431503640952199,0.6952123074377168,0.5294891847637672,-0.9823906700897416,4,left
4.045,0.6083987425890993,-0.14099743232138695,0.2513275227425883,1.3438583067160077,-6.938177466851032,-0.2481503280271179,0.6951094375509532,0.526861971265957,-0.9836575911158821,4,left
4.045,0.5978540523665146,-0.15495522257521718,0.25868441091538585,1.340391806911055,-6.920322961184731,-0.2457680098843269,0.6926007019328061,0.5366844944170464,-0.9738434779915707,4,left
4.048,0.5774332918593714,-0.15892110283224864,0.26218417428951324,1.342938162829841,-6.928076367078949,-0.2473395399117465,0.6979523200423723,0.5188644098196801,-0.9930525160153231,4,left
4.0489999999999995,0.5515610355334919,-0.15374137719711722,0.2643415483541486,1.3386496775590375,-6.928289541637033,-0.24513340745879209,0.6908285111029284,0.5416035469494794,-0.9680236800322245,4,left
4.052,0.5226744612845713,-0.14267051021651905,0.2628928609216818,1.3470600022039525,-6.923536188240099,-0.24931651687583972,0.6968824998258292,0.5226801442949083,-0.9890725623654515,4,left
4.053,0.4960208040237954,-0.12502698828006054,0.2602180359162289,1.3341914768753615,-6.92963740548234,-0.24287666767200972,0.69655403364925,0.5230992623635227,-0.9882661646354701,4,left
4.058,0.4764056399902464,-0.10342353546574837,0.2588549362310222,1.3483368023436015,-6.924447353141331,-0.25000611236809406,0.6854479904335236,0.5594298883900661,-0.9487597814955085,4,left
4.059,0.4639944234715814,-0.08413318428630812,0.25883208310884553,1.3401695993996277,-6.927460680493567,-0.24588999717513493,0.7129836991211196,0.47026837979764374,-1.0462038881450089,4,left
4.062,0.4555227187841878,-0.059560020463599886,0.25629788688886057,1.332175606280075,-6.927141888097005,-0.24175346252892763,0.6672377441585235,0.6180512261438235,-0.8845079774854224,4,left
4.063,0.45062068963308777,-0.043564333327143094,0.25167466235434066,1.3659230696506655,-6.924760737535928,-0.25909410331528543,0.7276100351715409,0.42314512684333433,-1.0978309369665453,4,left
4.067,0.45005321305000534,-0.03928510683613175,0.24930693202782045,1.3034028889358942,-6.929365230041858,-0.2269747573156032,0.9808886789009946,-0.3950455159450337,-1.9930683094459694,4,left
4.067,0.4456352099230426,-0.018571644603361193,0.2459386901319349,1.3837570600148457,-6.9236938680399795,-0.2682650222251093,1.0412697063593739,-0.5899478889724361,-2.2063999077893977,4,left
4.0680000000000005,0.4383970305782961,0.005606679881484139,0.2399793550006253,1.316642516543431,-6.928319419330682,-0.23377341958517606,0.9954937582971811,-0.4421801187556394,-2.044666917587838,4,left
