time,gFx,gFy,gFz,ax,ay,az,wx,wy,wz,subject_number,foot
17.134,-0.4586544609414006,0.1790477622332614,0.020243608557998585,0.9334423943992941,-3.211384485338561,0.14910730198887384,0.6385738923844275,0.7852636181282447,1.727940963476104,1,right
17.135,-0.462425244719349,0.17700487998501363,0.019658261695101646,0.49455689086398485,-3.488333225576333,0.008616111009281884,0.6383739582208892,0.7807898229193824,1.761439629640862,1,right
17.136,-0.46691424357227507,0.17575685214554237,0.01693795463756835,0.8272979091305417,-3.278370722944941,0.1151300457882871,0.6386203435085158,0.7861432136820374,1.7212994677350024,1,right
17.139,-0.4699901358913763,0.17646346816439096,0.01638597137271076,0.6266253219870288,-3.405029180087423,0.050894877816920925,0.6384197231126378,0.7819823213915953,1.7525849155208717,1,right
17.14,-0.47221646818851193,0.17773419899629395,0.017567527381625984,0.7082443718707762,-3.3534115585412065,0.07701372002487121,0.6385237941080705,0.7842307053507831,1.73573021703088,1,right
17.145,-0.47481139878149975,0.18012060097646865,0.01670165641248579,0.7094584086046787,-3.3528763353790247,0.07741908700910052,0.6385374961852432,0.783677929554428,1.7394595227010317,1,right
17.146,-0.4803655291848246,0.18175380222955373,0.01670540600282478,0.6665632547483898,-3.379616043369455,0.06366404191567035,0.6384058892627692,0.7831895076597568,1.7442622217280679,1,right
17.149,-0.4872362942444924,0.1871016142500958,0.02209879610259985,0.7179272722927772,-3.347530509430315,0.08012997559948838,0.6386329814404512,0.7840361077695701,1.7359547908903803,1,right
17.15,-0.49688446803618697,0.19559693051321425,0.02451525720420223,0.6779520223345598,-3.3726169090488707,0.06732334878718055,0.6383657429248956,0.7832974564171395,1.7439201618559448,1,right
17.154,-0.5115669201226613,0.20495776906745505,0.01793739034888798,0.6994266892137545,-3.3587780051277485,0.0741765960615482,0.6385741013586017,0.7837626992039002,1.738487927384896,1,right
17.155,-0.5249294208523867,0.21720547945708424,0.011609588315218428,0.6947099834349795,-3.362674604769144,0.0727339456074247,0.6385646649743784,0.7834749534002561,1.7406033055903882,1,right
17.159000000000002,-0.5334058070716929,0.2312785762958658,0.0064174491399757,0.6886486434232821,-3.364915328873328,0.07067789861319321,0.638224820692516,0.7838258984917128,1.74167995036918,1,right
17.16,-0.5410273731183399,0.24478427569029196,0.00291387060567168,0.6989613608922882,-3.3603515998608717,0.0741211869095424,0.6390076706553589,0.7831812980537975,1.738053619193852,1,right
17.164,-0.5476938735705399,0.2540543837121734,0.00710944771383665,0.6893483444732476,-3.3648680740563504,0.07093063731546498,0.6378410808088909,0.7841794205128536,1.7431920710217983,1,right
17.165,-0.5529009059333521,0.26212161945208323,0.013676270737773326,0.6955582566476995,-3.360934911563861,0.07291755764967636,0.6390829502962123,0.7830669476124901,1.7380742139080272,1,right
17.17,-0.5609101449288734,0.2689788763416694,0.022305601725956078,0.6934782792675991,-3.365125369160558,0.07246192373633556,0.6383651935630827,0.7837091821865834,1.7410348229373214,1,right
17.171,-0.5738590186103916,0.2716852898215922,0.028681162906215606,0.6920318532452023,-3.359461824958405,0.07151837540503807,0.6377511647603165,0.7843704266409757,1.742790499851842,1,right
17.175,-0.5907043110285397,0.27608640679745744,0.026874633654471805,0.6956741416906088,-3.3669739333732918,0.0734013619142015,0.6404449845607049,0.7816159070793223,1.7340766207696805,1,right
17.176,-0.6080840097027347,0.2790551278672797,0.02442302444297561,0.691515467481191,-3.359140105963048,0.07130550558052462,0.6354485116703357,0.786717191398262,1.750287071654499,1,right
17.178,-0.6200981490543505,0.27612997322843513,0.01812176756839636,0.694354071880288,-3.3633911916348165,0.07265635113498393,0.6418643642968094,0.7801580379882187,1.7295390250207792,1,right
17.179000000000002,-0.6244251397023777,0.27399658075140104,0.009650900741497104,0.6946407742292278,-3.3684201759354693,0.07312811451174475,0.6365075571290257,0.7856379290061223,1.7468292475560394,1,right
17.184,-0.6224607765367955,0.2737472577761219,0.007979952024213985,0.6898515466402393,-3.3486438341235685,0.06992953517902757,0.6366545550271812,0.785501089412748,1.7462799876262944,1,right
17.185,-0.61544551333064,0.27205871274795224,0.010021499663580256,0.6993695495156795,-3.3849167665813944,0.0760660667839739,0.6468633356488964,0.7750033955391011,1.7136626246820492,1,right
17.189,-0.604035925543855,0.27315315792931194,0.01385273491597047,0.6870073164823807,-3.3384301702815287,0.06814041524186763,0.6217677956815172,0.80079650897578,1.7938903068122694,1,right
17.19,-0.5890375830779824,0.27754421044464417,0.017728194926770857,0.6973820488009843,-3.377204127109224,0.07477594043762298,0.6633799755470176,0.7580298422146385,1.6608793828992399,1,right
17.192999999999998,-0.577470991725274,0.2794549934088403,0.01978417492883329,0.6968874591665386,-3.3762923188630296,0.0745245524959022,0.6084908107100417,0.8144412094870355,1.836295484314615,1,right
17.192999999999998,-0.5727005410696322,0.2802016918023402,0.020167072543912104,0.6778145270676132,-3.3019038450251923,0.062107018682038294,0.3781113402242135,1.0512579728893237,2.572415428766739,1,right
17.194000000000003,-0.5609031695045553,0.2821609895108561,0.018365424832358434,0.7249372165962434,-3.4845820731566555,0.09271281043282031,0.32321442983134224,1.1076722843280402,2.7477922318794685,1,right
17.199,-0.5344716797094924,0.2876738091496023,0.014161289999015206,0.6467531713962096,-3.1817309327837293,0.041944548790154565,0.36483871763701964,1.0649010156595464,2.6148427398554057,1,right
17.2,-0.515885808285464,0.2937602157675695,0.010026608503180042,0.7498657895095138,-3.5811923598728495,0.10891027469239714,0.33973316113227187,1.0906979349043988,2.6950196002956313,1,right
17.204,-0.5105913807251957,0.29522209968394186,0.009168049374880815,1.1824549337750092,-5.258097981110321,0.38989174648335045,0.3499413646918022,1.0802004636391453,2.662399312016758,1,right
17.205,-0.4943497767905541,0.30072326568428875,0.00588975421342651,1.2854963739999468,-5.657592015200344,0.4568512972389173,0.3501077896049698,1.0800562347974174,2.66194861443804,1,right
17.205,-0.47510739469010704,0.3116059821260008,-0.002745346009540155,1.2074098796940733,-5.354698558314382,0.40608829945060543,0.3447085681258414,1.0855522531284634,2.679023645209091,1,right
17.207,-0.4629528426538009,0.32429380073501834,-0.01327695717065502,1.2544891015669077,-5.537388297155468,0.43670165216305024,0.3511848442396529,1.0789701291308569,2.6585821644164067,1,right
17.208,-0.4487294320843602,0.3414258250703347,-0.026611780301399934,1.235310715663763,-5.463065453941574,0.424251607475963,0.3461285239749392,1.0840941593039681,2.674488968087283,1,right
17.213,-0.437166280030765,0.35754665722018086,-0.039426476342559566,1.2351432301831096,-5.461978099809722,0.4240632568667549,0.34884828849195476,1.0813297897778744,2.665906732677289,1,right
17.214000000000002,-0.42323622010409023,0.37333882544478736,-0.04946803123530834,1.2449687320177452,-5.501031242365099,0.43061393486142685,0.34828457319174816,1.081971887277777,2.667917666156646,1,right
17.218,-0.4052562865264302,0.3917632297878145,-0.05811916386460332,1.2332536375341239,-5.45423229770967,0.4227658586369577,0.34740412720789715,1.0826759909931676,2.670052867817158,1,right
17.218,-0.39472360542438,0.40704050870301567,-0.06173801886771486,1.2423062975318975,-5.490703770000145,0.42888175915656446,0.3489263424563166,1.081456929506805,2.666357369279324,1,right
17.223,-0.3864192802277622,0.42221701738431955,-0.06250196998472082,1.2373902370801004,-5.471048703392805,0.4255869743413067,0.34741574874342923,1.0825858178936978,2.669750468026228,1,right
17.224,-0.3782926682107596,0.43800371690462686,-0.06402559706046049,1.238823269006434,-5.47543425068115,0.42631773878769774,0.3484728596640897,1.081837001323532,2.667515668537021,1,right
17.227,-0.3766374735396014,0.4485924171131649,-0.06683419880131829,1.239267933996513,-5.4809374842019984,0.4272512081999881,0.34813530644918367,1.0821869872445027,2.6686038702021886,1,right
17.227999999999998,-0.37534100297678585,0.458748596948023,-0.07322920535833335,1.2384918229011599,-5.471414627239294,0.4256369010064992,0.3476174000078255,1.0820926577135839,2.6681395528609877,1,right
17.232,-0.3749983003152304,0.46884856167944255,-0.07930790258927861,1.2387733861496604,-5.480500807719426,0.42718178621923075,0.34898796739556726,1.0821159699802467,2.6686038454003587,1,right
17.233,-0.3807913861597708,0.4775537200052657,-0.08051265318992458,1.238825160028043,-5.474327710666538,0.42612978679068547,0.3469867930431492,1.0820365201165942,2.6677719058032583,1,right
17.237000000000002,-0.38570246905332123,0.49005829842661036,-0.07695263281160158,1.2394767659186838,-5.476798015224331,0.42654341725854084,0.3490624345487126,1.0821805021464295,2.6688434087311865,1,right
17.238,-0.39206093925179025,0.5019573149566888,-0.07165916840462881,1.2366711363724612,-5.477746057608384,0.4267351063037058,0.34786250271395686,1.0820978749778105,2.6682255742135395,1,right
17.242,-0.405078648704324,0.512729657091584,-0.0691748565595259,1.2427320949483187,-5.474218488087333,0.4260692830590438,0.34695602401096737,1.081895457537302,2.6672866447204933,1,right
17.243,-0.41875406131258813,0.5255344927162731,-0.0694387245733423,1.2336084245735457,-5.479164420900861,0.42700934651378597,0.3510887911042069,1.082611680178129,2.670871554951914,1,right
17.247,-0.4329301212263928,0.5366443358037025,-0.0702982732007397,1.2434428191757498,-5.4743120266603835,0.42607773744984284,0.34341627187502616,1.0812916974912234,2.6642477233033004,1,right
17.248,-0.4468874793712038,0.5492889412796388,-0.07131791030566993,1.2377615249258516,-5.477119326810334,0.4266164835701206,0.3532575947376751,1.0829977312206964,2.672788825747449,1,right
17.254,-0.4579000830808404,0.5620344526896213,-0.07200689063260239,1.232624478330435,-5.4786116146549535,0.4269258336220405,0.34504632724719014,1.0815681591277018,2.665639989069086,1,right
17.255,-0.47125462447931504,0.5715367140515029,-0.0736395882477961,1.254796731799632,-5.470882081442402,0.4253719604199093,0.3452822141970301,1.081593803440688,2.665797328926682,1,right
17.257,-0.4836352440946817,0.5821905636331495,-0.0787168271941737,1.213693191635755,-5.485273910524258,0.4282628951644694,0.3608816068165295,1.0843767862677818,2.679595353367677,1,right
17.257,-0.4964557658739362,0.5898517187898881,-0.08236089067076757,1.2664923923479114,-5.466873931136497,0.4245645070458826,0.32252967673717853,1.0775455168690788,2.6457008362884835,1,right
17.261,-0.5151715126176359,0.594336039506596,-0.08040102786104611,1.222403387958488,-5.482195974849355,0.4276450494433016,0.38611815437754765,1.0888741119239698,2.7019115421652655,1,right
17.262,-0.5240933833892341,0.5984344736097196,-0.0780915954754566,1.2235727719147802,-5.481692915392156,0.42754802374124035,0.30224843172808535,1.0739275795305672,2.627752623651253,1,right
17.262,-0.5268724743785805,0.5997966071207623,-0.07699467448554043,1.307746147823877,-5.452871112775256,0.42173728764238416,-0.04974990018474669,1.0111738536772952,2.316551497464695,1,right
17.267,-0.540576966598528,0.5999467447051459,-0.07509912723753322,1.1008749116278616,-5.52376717646506,0.43602644216005737,-0.1336140091075374,0.9962226449619761,2.2423827874180886,1,right
17.268,-0.5571024504405455,0.5968200923213196,-0.07176129414699006,1.443880382530157,-5.4062379969596135,0.41233918192004126,-0.07003560314843182,1.0075566216160372,2.298588711756577,1,right
17.271,-0.5662683027754839,0.5939807021036287,-0.0680053867497807,0.9914504955382536,-5.561224807060649,0.44357579425696925,-0.10837568224809455,1.0007261355359829,2.2647526837288785,1,right
17.272000000000002,-0.5697844235241358,0.5925671967028754,-0.06669485272495684,-0.9076478831721602,-6.211785039001818,0.5747257689189764,-0.09278533684912743,1.00349468774778,2.2784032929901765,1,right
17.272000000000002,-0.580720120525323,0.5871737854468009,-0.06637019599314085,-1.3600862176132922,-6.36674297672978,0.6059587801340895,-0.09254948731953108,1.0035529529039249,2.2788028096611734,1,right
17.276,-0.5993480390229405,0.5823811326803618,-0.06695341119458338,-1.0170713601552566,-6.249232736378725,0.5822690805549842,-0.1007450859929136,1.0020753505965307,2.271366789725785,1,right
17.277,-0.6142349839931851,0.576746367982607,-0.06977516479249132,-1.2239399950177856,-6.320184243886256,0.5965821575008792,-0.0909388714512756,1.0038307851353099,2.280118862080265,1,right
17.281,-0.6292189398554453,0.5692432539979493,-0.07362283579162744,-1.139795132730156,-6.29116901200568,0.5907122338860579,-0.09856001994897254,1.002486565051643,2.273543277258157,1,right
17.282,-0.6418670776403168,0.5635290814089651,-0.07774803551401788,-1.1385631931009215,-6.291022142997345,0.5907116510088234,-0.09448057179269803,1.0031671018859627,2.2766261075263055,1,right
17.288,-0.6495204850276124,0.5562036061848684,-0.0795424839818767,-1.1827428550106274,-6.305881513688026,0.5936786576893442,-0.09535888326744443,1.0030912182651988,2.2767523931308125,1,right
17.289,-0.6583625714403576,0.5484484717426419,-0.07915788334007542,-1.1298521711930942,-6.2878822689524405,0.590062421118247,-0.09652584012513735,1.0027840038554174,2.2746126326916114,1,right
17.291,-0.6642004176752379,0.5418466831219368,-0.07649881866519577,-1.1709974286987306,-6.302212579947138,0.5929752991865611,-0.09457721535397971,1.0032105626399557,2.2772189171934696,1,right
17.291,-0.6683357230844919,0.5332775003962755,-0.07156038166677058,-1.1488985572156407,-6.29388227734082,0.5912186440508393,-0.09634784845530495,1.0028954804878538,2.2756610492593508,1,right
17.297,-0.6734758000844465,0.521807596410423,-0.0688542654144216,-1.1537903293438254,-6.29686821567539,0.59195370332601,-0.09527280183627915,1.0029404435701252,2.2749727899741083,1,right
17.298,-0.6733650513638325,0.5093731524536474,-0.0647009586830571,-1.159899270857514,-6.297352667673119,0.5918881077664293,-0.09553591199328337,1.0032290393389995,2.2784856673983875,1,right
17.302,-0.6704890824078562,0.496396487322613,-0.057928110786598604,-1.1495347407478627,-6.295084511383148,0.5915609633130713,-0.09591595428374843,1.0026605604838639,2.272561659440182,1,right
17.303,-0.664238049792157,0.48078476423650696,-0.05326653391175627,-1.1590889163768865,-6.298368596339603,0.5922241815474732,-0.0952281092282457,1.0033172169361306,2.279127138153302,1,right
17.305999999999997,-0.6526987169521504,0.4639637019207861,-0.047164182874842364,-1.1530138462741357,-6.293908329061879,0.5910836623892075,-0.095815162050053,1.0029036054944227,2.2751653226580304,1,right
17.307000000000002,-0.6372923578347434,0.44758523909347464,-0.048995973313357845,-1.1550614803115107,-6.300047399999858,0.5928727734800341,-0.0957316595233816,1.0026533711660686,2.272273346771346,1,right
17.311,-0.6108823076410719,0.4271402892252931,-0.06360355740905071,-1.1561752223831743,-6.292316589500244,0.5904915931937156,-0.0950094086434241,1.0039449793045248,2.285895815639182,1,right
17.312,-0.5784144355460408,0.4029024928311312,-0.07518935979250407,-1.1534623139794644,-6.300035476587986,0.5929246113374878,-0.09660588168133508,1.0015027725018928,2.2604037995602146,1,right
17.315,-0.5505016439037613,0.38070335606548866,-0.0780560783121943,-1.1560532778821202,-6.295925714673332,0.5915895294960419,-0.09446318271921585,1.0046563230549177,2.293220584997482,1,right
17.315,-0.5398150340713748,0.36107743980935825,-0.06431011476378157,-1.155104785148745,-6.29129409108759,0.5902187883245655,-0.09629139049463534,1.0020148886697633,2.2657859503520337,1,right
17.32,-0.5480979136572608,0.35598814205042484,-0.02833729251082965,-1.1533848864265306,-6.309555475736408,0.5958120929348868,-0.09618099896923049,1.00210122948182,2.266588900367595,1,right
17.320999999999998,-0.5630630213659653,0.36803391402950847,0.04417293881742321,-1.1579624078871291,-6.27616403974792,0.5855352215087654,-0.09285686295828739,1.0070992942581698,2.318742080692277,1,right
17.326,-0.573480310405016,0.3955504728359146,0.12523202087683558,-1.151583200182431,-6.318869453403307,0.5986964824155572,-0.10111556740991391,0.9947911948129241,2.190465172186488,1,right
17.327,-0.5447182005127944,0.45426085658839466,0.12277157007795005,-1.1571227140767748,-6.28328871984461,0.5877237331740495,-0.08738855710525475,1.0152097696098283,2.4031923977142426,1,right
17.331,-0.5123040304861385,0.5087031994333502,0.07656380791151604,-1.1566411845283306,-6.284141325984935,0.5879974707931086,-0.10550694898333507,0.9882716291304731,2.1225888236467654,1,right
17.331,-0.5053485702147922,0.5281900283299678,0.060697683045630293,-1.1469585953185173,-6.352280683452937,0.6089819192978067,-0.18149295873059976,0.8753280849047638,0.9450107542971916,1,right
17.332,-0.4791141723198118,0.5751841317296646,-0.006564254731522013,-1.171240815106994,-6.1849615724838465,0.5574388515404123,-0.19961266707951106,0.8483940118771158,0.664413190476757,1,right
17.335,-0.49227583548469295,0.6782777444138653,-0.1333007250313133,-1.1307915427266826,-6.46232516358311,0.6428860166010435,-0.18587968311705,0.8687941420014169,0.8771131542004817,1,right
17.335,-0.5319966194588552,0.7430519597923027,-0.20261369440735158,-1.1842205085830508,-6.096504118924836,0.5301875805386411,-0.19415395966993823,0.8565341128892632,0.7489073018329357,1,right
17.34,-0.544470135735694,0.766866589422835,-0.2204935678562851,-1.40816984899072,-4.5608971598231065,0.05711134557699639,-0.19080132810580888,0.8614442230348296,0.8009304643727663,1,right
17.340999999999998,-0.6328020509360391,0.8902685862220987,-0.22520648312921684,-1.4616416771671226,-4.195074296795754,-0.05558266139363523,-0.19073005527197706,0.8616512983112994,0.8019118943134861,1,right
17.340999999999998,-0.8122112422227517,1.1365224817832433,-0.14131983164975434,-1.421093015363161,-4.472429643720232,0.029855343915144494,-0.1925199427967703,0.8588916058378255,0.7743024332795186,1,right
17.345,-1.0325951913999747,1.4904738167932592,-0.029403966969400168,-1.445545378712875,-4.3051474505292715,-0.021674075659959605,-0.1903932089356879,0.8620944033217497,0.8071920359883048,1,right
17.346,-1.2879137682235586,1.9736553825523762,-0.06594519811264002,-1.435629488470321,-4.373205715026281,-0.0007056260451221569,-0.1920240064433418,0.8597581740590567,0.7818566610481685,1,right
17.35,-1.5392972914538647,2.5020748142145264,-0.29453118744425616,-1.4353913092745043,-4.374182987857861,-0.00041877226747887714,-0.19119308142715224,0.8607143330680869,0.7949832653488421,1,right
17.351,-1.745681349194236,2.966490503323139,-0.6618607684254636,-1.4407889690686022,-4.338463389662376,-0.011393268198935456,-0.19129627278618005,0.8610403256960766,0.7929431038675419,1,right
17.355,-1.841417401053761,3.2923925063677366,-1.0055218847546332,-1.434292376235633,-4.381257267868829,0.0017484230386877924,-0.19165439626987754,0.8599201806634192,0.7879368153018504,1,right
17.355999999999998,-1.7677039419769924,3.4346180930945387,-1.1091911443240692,-1.4394008433763994,-4.34792016528044,-0.008480433543501198,-0.1911489958850712,0.8611398293624999,0.7953346157437589,1,right
17.359,-1.5299817271384137,3.3889854789867764,-0.9037382093741901,-1.4366750136354018,-4.365892435607277,-0.002961506674635673,-0.19153077076044162,0.8605768762867773,0.7894186695159995,1,right
17.36,-1.1713859579709989,3.1746693572502402,-0.46117828434203995,-1.4370629466620706,-4.361825424393426,-0.0042495201771836945,-0.19145501367864445,0.8598193759926012,0.7913852562462326,1,right
17.365,-0.7526406835208241,2.846069083380126,0.09558889431344783,-1.4384320520819682,-4.3569510089390295,-0.0056380971516202345,-0.1911542931977833,0.8622543879368099,0.7942300513935474,1,right
17.366,-0.32217559631399445,2.4750838018948262,0.6200902571293074,-1.4360708426351008,-4.365387177318267,-0.0032339886128904746,-0.19176974666853475,0.8583739690776981,0.7874016204732812,1,right
17.37,0.0791091807110418,2.1198746428714204,0.9913582340877968,-1.4386189760206747,-4.357414970602669,-0.005450859338364238,-0.19105264445399434,0.8626011677458638,0.795626504173434,1,right
17.371,0.4307970544252403,1.8132652288709634,1.1476954982712753,-1.4367317214071456,-4.3627909692158315,-0.003985472827758949,-0.19150788376253797,0.8600980498308328,0.7902401443682778,1,right
17.375999999999998,0.7258760446699919,1.5601857139071407,1.0824781888519892,-1.4370515489143383,-4.36052470203011,-0.004684887896351806,-0.19177312025258703,0.8581288793312041,0.787568281290164,1,right
17.377,0.9631677260964719,1.3542961078813138,0.8487350990362863,-1.4391503613389678,-4.360174054014691,-0.004439951693465855,-0.19037772709673317,0.8670946279213875,0.8028982679407844,1,right
17.379,1.1641971947288687,1.1957428623447286,0.5370712942494663,-1.434173958362567,-4.362224850725402,-0.004615587838499321,-0.19302085920137516,0.8503856364198293,0.7736096593168859,1,right
17.38,1.313554717085764,1.0838473403761086,0.23498794560040434,-1.441554124778036,-4.359452728451485,-0.004264414146031084,-0.1896070779601667,0.8718700058848773,0.8115269753836052,1,right
17.383,1.4101575707046186,1.0110005596323626,-0.008296651462740154,-1.4337443512326404,-4.362026407663691,-0.004757082689439486,-0.19246534435670695,0.8539219356701638,0.7797414294539073,1,right
17.384,1.426011868633793,0.9680216481911944,-0.17740966155425897,-1.4382550424372194,-4.360530572723041,-0.004473764500365074,-0.1923753547213426,0.8544254896673555,0.7808021399217517,1,right
17.389,1.3583404251427234,0.9390973527724112,-0.27029042796312436,-1.4420263046688935,-4.360107776599289,-0.003966795245928749,-0.18695892635157246,0.8886011207719295,0.8408773509538737,1,right
17.39,1.2600308447543735,0.9094315357749774,-0.3013894533322045,-1.4253759954586487,-4.363091902489346,-0.0058452056932365125,-0.20028984922441423,0.8045769222748742,0.6929308604159479,1,right
17.394000000000002,1.0281975027009498,0.8795901092011063,-0.28564020125995326,-1.4562555956085463,-4.357490026887172,-0.0023787839779761235,-0.1781801342634314,0.9439007743431831,0.9383407988851954,1,right
17.395,0.8161992430619045,0.8621430010571256,-0.2606164786925464,-1.4166216522426913,-4.36462561768833,-0.006851406662744211,-0.20734456334289908,0.7601324648497105,0.614608769688348,1,right
17.398,0.7591821890889697,0.860748239868784,-0.2538334539975587,-1.4496953177771088,-4.358680614503914,-0.003107828461997092,-0.3297559248681694,-0.011234451116714811,-0.7441097561622134,1,right
17.399,0.4991151428157175,0.8572940411009156,-0.23133201770351536,-1.448810857661989,-4.358979000705821,-0.0031808036907478585,-0.3589189218342834,-0.19499609239300503,-1.0678432813924932,1,right
17.4,0.11445620466738698,0.8472706795261831,-0.2089377581313416,-1.385743624798757,-4.369815439807329,-0.010438656945836724,-0.33681014869844245,-0.05568073694456336,-0.8224109178906321,1,right
17.403,-0.16534250856698296,0.8316321047182786,-0.22368172040621193,-1.5407189885009598,-4.343020484892035,0.007377939403922863,-0.35014381311639037,-0.13970313835549727,-0.9704304897349811,1,right
17.404,-0.5022189467546554,0.7950786652726245,-0.22787105226108112,-1.2837947065563828,-4.387503140724562,-0.022163895224491026,-0.344717807993728,-0.10551293749072536,-0.9102087143748477,1,right
17.409000000000002,-0.7145893430543975,0.7668869213119465,-0.21526836582063735,-1.6226498467516626,-4.328805947329891,0.01680772474086909,-0.34464545978608163,-0.10504698657718571,-0.9093618551242111,1,right
17.41,-0.7557733873015074,0.7590393412457841,-0.20573113442186003,-3.045649788138099,-4.0840807759774425,0.18048924274394035,-0.3474808049757252,-0.12293613378581782,-0.9409220437584722,1,right
17.410999999999998,-0.9320489664261846,0.728215215239508,-0.14598360364614063,-3.3845250839248324,-4.025470764568773,0.21947264480593678,-0.3440868846000834,-0.10151669552247305,-0.9031276336281461,1,right
17.414,-1.148992091026472,0.6859111770004528,-0.0298283899165624,-3.127494330438882,-4.069660481318626,0.1899089627313642,-0.3467269504272722,-0.11818605107406635,-0.9325516960316627,1,right
17.415,-1.2897808293505841,0.6526264834794806,0.09090917587080236,-3.2827612841937643,-4.043533147072784,0.20775294319006107,-0.3453018224807295,-0.10919132255787217,-0.9166818564166351,1,right
17.419,-1.4222970661896093,0.6222908796807446,0.18880098930414727,-3.2191481473389127,-4.053232147783319,0.20047092441245298,-0.34564102592398993,-0.11129990256019387,-0.9203455452877035,1,right
17.419,-1.5105158868555972,0.6037734315214405,0.2520261270504716,-3.2190252474211354,-4.055008971789402,0.20040555138080457,-0.3459812066235607,-0.1135366782020794,-0.9244471544549173,1,right
17.423,-1.5554890400241184,0.5933870628062768,0.28181081646398876,-3.251337658835479,-4.047719905944843,0.20417377173475215,-0.34539214471321966,-0.1096640770949382,-0.9173484258135951,1,right
17.424,-1.5649705480212526,0.5895286070646661,0.2830316698494334,-3.212048731042576,-4.055224956619695,0.19963221380068175,-0.34592520286369133,-0.11322041618133777,-0.9239522636987074,1,right
17.428,-1.5343035652448007,0.5952062594166538,0.25808753415912766,-3.243546450633886,-4.051262968041531,0.20321082556516618,-0.3455783996365095,-0.11087767968567794,-0.9195553380675561,1,right
17.429000000000002,-1.4815018277851064,0.6052007659343501,0.21349136789904258,-3.224832555762455,-4.049783802000167,0.20120163099139138,-0.34575964719905494,-0.11201844490571675,-0.9215623400931545,1,right
17.432000000000002,-1.401201142976443,0.6174204291865386,0.15567268902059686,-3.232210731897987,-4.056605792318327,0.20180306907871715,-0.34563619796092043,-0.11153257139151243,-0.9212074959008716,1,right
17.433,-1.3037862968664031,0.625794109439147,0.08737729342524314,-3.232232711107474,-4.046676224922683,0.2021091383008458,-0.3458189777804046,-0.11201681875338194,-0.920915800562592,1,right
17.437,-1.1958937300082444,0.6260761836035122,0.014516994481350732,-3.228098402696772,-4.055299662421968,0.20139154795689623,-0.3455231871725248,-0.11114887064679108,-0.9210943729570167,1,right
17.438,-1.0789221406225218,0.620743952588561,-0.04584120122330552,-3.2352875691299072,-4.0541297471281545,0.20221630920809092,-0.3458691674631459,-0.11226720482748714,-0.9212442928421858,1,right
17.442999999999998,-0.9588168577653757,0.6048716644868278,-0.08130768570694158,-3.224002506306171,-4.0414015089051745,0.20136751807257375,-0.3456695385701892,-0.11162296682141624,-0.921160924319897,1,right
17.444000000000003,-0.8361658384611026,0.5705739196521761,-0.09475648718738278,-3.240926754062917,-4.072018790525401,0.20228749206711064,-0.34542967593480856,-0.11063998560335345,-0.9203361626197982,1,right
17.448,-0.715607139317585,0.5165806613435449,-0.08087308145983824,-3.2188001209486363,-4.025803504305141,0.2012740948698778,-0.3463918123054083,-0.11438872218575435,-0.9229720117155904,1,right
17.449,-0.600233992685066,0.44504842877016504,-0.032456742653992274,-3.2412468576389353,-4.075269644540475,0.20222321250234904,-0.34461175798920196,-0.1074638427884354,-0.9181313176065955,1,right
17.454,-0.49530369223227383,0.35790569952001544,0.032287221776544674,-3.229039765201044,-4.046550580925542,0.2017624464103008,-0.3469032093101188,-0.116391613892015,-0.9244105929022117,1,right
17.455,-0.4129154460063915,0.26185359470636893,0.09678799357707435,-3.216146188454316,-4.022222408846202,0.20109286463811027,-0.3449874116056565,-0.10892150715809151,-0.9191382901922438,1,right
17.457,-0.361835631811958,0.18210954862597195,0.13870086055952774,-3.26820364974962,-4.129488561209335,0.2035211346877538,-0.34503262792540534,-0.10908006155612379,-0.919205359205179,1,right
17.458,-0.336761448919751,0.12177649693288704,0.14199955921299073,-3.1726909863171437,-3.930368085057283,0.19913591825882443,-0.34871490892090495,-0.12351273235002133,-0.9295879535947313,1,right
17.463,-0.33315151422612166,0.08944946130490392,0.12074881931562452,-3.2949696713347296,-4.186128521531115,0.20472511180813768,-0.3396687377147908,-0.08807037343735404,-0.9041216917081998,1,right
17.464000000000002,-0.34204516165665677,0.11876878300156565,0.0736285102557645,-3.1930286308104066,-3.972556558734859,0.2000750763379608,-0.3546688944950247,-0.1468405887916842,-0.9463566306040077,1,right
17.467,-0.3488011046366256,0.166702250029362,0.034190018485837234,-3.1955786736388796,-3.978433288668575,0.2001777644347262,-0.334881504146578,-0.0693104999799661,-0.8906257599641298,1,right
17.468,-0.35125754484833793,0.1921193333199558,0.0245556877500213,-3.3905250463576158,-4.385430502315103,0.2091073490680882,-0.2518192277064409,0.2562057492985278,-0.6565825186905683,1,right
17.468,-0.3574338165578913,0.27381055387961195,0.0038086378305735667,-2.9116532632568757,-3.384911015404792,0.18719023292650924,-0.23202954374910129,0.33375226469310604,-0.6008239907118467,1,right
17.471,-0.3829635601661029,0.4565766933504116,-0.010804297154457847,-3.7055645699900506,-5.043923960717223,0.22352196996174745,-0.24703192593475423,0.27495907954858767,-0.643093592487095,1,right
17.472,-0.40567101136263195,0.5838831470993383,-0.0054027149761550234,-2.658394400235709,-2.855602217683437,0.17559863593373365,-0.23798760575957645,0.3104130879550461,-0.6176219242632882,1,right
17.477,-0.41353912773901824,0.6210445508958939,-0.006366958509674675,1.736666797409431,6.328857626097483,-0.025494778749462543,-0.2416597849068509,0.296001418573121,-0.6279398678324776,1,right
17.477999999999998,-0.4501722896394772,0.7562136109216995,-0.0088978191146442,2.7839193184100646,8.51732370864401,-0.07342977661686131,-0.24172548720859321,0.295772322440932,-0.6281691625339586,1,right
17.477999999999998,-0.5109696071598704,0.9364893918308559,-0.014625781342345186,1.989947106278459,6.858149728669853,-0.037088663186381016,-0.2397813168832721,0.3033638719387559,-0.6226457479890752,1,right
17.482,-0.5740937200530908,1.0569187893651706,-0.0332386466491646,2.4686851410939843,7.858627066053456,-0.0589894925313734,-0.2420997725357552,0.2942898100534892,-0.6291982068767195,1,right
17.483,-0.6449871761528073,1.1690533387864361,-0.06087271129414387,2.2742401905663985,7.452112316370666,-0.0501254499616886,-0.24031038476622774,0.3013249064971617,-0.6241966824583469,1,right
17.486,-0.7087804952230936,1.2501386816711522,-0.08012209041176113,2.2707488109317815,7.445173753493366,-0.049897560873393684,-0.24124399136689254,0.29759326445502987,-0.6266969427205005,1,right
17.487000000000002,-0.7524000262823252,1.305416912315448,-0.07808448481809538,2.3739294244134217,7.660287184418278,-0.05471444267830811,-0.24108683899223565,0.2983344950476794,-0.6264792214064743,1,right
17.491,-0.773938169461411,1.355083999529999,-0.048056062460998326,2.2505539246198385,7.402968015734331,-0.048974926591274295,-0.2407499205786578,0.2995012317168231,-0.6252532877491666,1,right
17.492,-0.776903323127075,1.3854243229817362,0.008793809631532794,2.3462844349094722,7.602805161812649,-0.05339562435912772,-0.24125883137516357,0.29762919648113606,-0.6269079137304896,1,right
17.497,-0.766985748769063,1.4126694153643236,0.06165039794433357,2.2957573424145243,7.496775880840855,-0.05116413659208006,-0.2408414693976599,0.29926594250914706,-0.6257339464091362,1,right
17.497,-0.7471998190569922,1.4316640146767088,0.09115822861788352,2.3047336608863596,7.516944908405298,-0.05131629583979379,-0.24100395977347375,0.29840219393077616,-0.6257818358366782,1,right
17.500999999999998,-0.7211047024302382,1.4415787320911335,0.09434583079769418,2.323115542757378,7.552929611189852,-0.05260248114288095,-0.2411502585339923,0.2983473549693567,-0.6271309928401233,1,right
17.502,-0.6897732779293309,1.443360069863576,0.07223696980926489,2.2937012798211653,7.494441290730859,-0.05071059275477162,-0.24074971263446554,0.29914372876239836,-0.6246045675730809,1,right
17.507,-0.6574593100889954,1.4290976271956954,0.03628553163296616,2.3204706050720807,7.5480070044788405,-0.05237068537506519,-0.2412433935409073,0.2980332345669907,-0.6274857308834898,1,right
17.507,-0.6303276577759818,1.4067791516961319,-0.018693402525167158,2.3056878861278247,7.5170925763533845,-0.051698059029249524,-0.24091345396539018,0.2988503044824325,-0.6256951167944695,1,right
17.511,-0.6126206270347774,1.375065990117967,-0.07597197318649856,2.3035386879645285,7.517012437605668,-0.0507924563476428,-0.24076797600088765,0.2990092847500143,-0.6245428203983159,1,right
17.511,-0.6034487014822756,1.336471973089148,-0.09701099823923237,2.323243578180339,7.548111260856345,-0.053539062207669186,-0.24166094980551542,0.29730727072449104,-0.6303075411202355,1,right
17.516,-0.6040234958184361,1.294572925814542,-0.08591270690051975,2.2903042613598625,7.494312439143758,-0.04927936278178144,-0.23994441722775206,0.3007015621677691,-0.6194464886242257,1,right
17.516,-0.6177635707365652,1.242719940632247,-0.06085899527098048,2.3260783667877822,7.553043327180934,-0.05385067703428978,-0.24217026139917916,0.2962571842398098,-0.6334536859210327,1,right
17.52,-0.6374421989902548,1.1892275371225896,-0.031087494967933962,2.304365351594064,7.516928110538781,-0.051161330004791186,-0.24030295399446727,0.3000042126252602,-0.6217344922675919,1,right
17.521,-0.6613755575426339,1.1303610394344359,-0.009287425430277461,2.2908122661570225,7.496592250156077,-0.04908038958872156,-0.24036732905417235,0.2998459758466631,-0.6220900860362129,1,right
17.526,-0.6900539697956953,1.0668814309984962,-0.0013278790085018534,2.35858077866269,7.603267731907177,-0.05857658968737546,-0.24389100920947848,0.2928519892100404,-0.6443336676191482,1,right
17.527,-0.7179499254785686,1.0104244808302467,-0.005310247906246847,2.231376517324204,7.402242199917426,-0.04089501439442314,-0.2352104544548581,0.31012514615562325,-0.5896071044982367,1,right
17.531,-0.7459661308399905,0.9491573177290682,-0.01069280068055432,2.3950571957417397,7.661091971443925,-0.06361568743783821,-0.24961037303712125,0.28145338952789156,-0.6803655396521908,1,right
17.532,-0.7651910473119665,0.9116751029069133,-0.01315507125148586,2.258266688695275,7.444689461176054,-0.04463948953335125,-0.23061473972248858,0.31928399470516156,-0.560650274679561,1,right
17.535,-0.7698925565244318,0.9041356036194548,-0.01322326348669426,2.2625081597796752,7.451686256223477,-0.04518095272405214,-0.15088499031272268,0.47801497908157614,-0.05814852614309539,1,right
17.535999999999998,-0.7778166715381872,0.8757299847156563,-0.009163173357291228,2.52157828680694,7.860609078914605,-0.08127649781336874,-0.1318898550291452,0.5158503277103651,0.06156392751143943,1,right
17.537,-0.7867702183898241,0.8450852614938464,-0.0025040683934036937,1.8841742262680732,6.8541599819913115,0.007477715420652592,-0.1462908815068404,0.4871669861182747,-0.029196108797085615,1,right
17.54,-0.7749165018423334,0.8335043679101332,0.014451598018918906,2.941192087618674,8.523279779045737,-0.13969361235605884,-0.1376042890458089,0.5044610473654159,0.025548056142884655,1,right
17.54,-0.7599828398326147,0.8255854027283143,0.029638276747270785,1.5469665736250136,6.321648265473723,0.054430659601265814,-0.14114178139425448,0.49743696411481597,0.0032604821641199974,1,right
17.545,-0.754231954060246,0.825691124257308,0.033480285798030716,-4.304380573693159,-2.917567291548691,0.8691673656175773,-0.14118447108199358,0.4973120048416694,0.0029768943880024417,1,right
17.547,-0.7289009199345569,0.8265870720971082,0.04748296113809464,-5.698561113462408,-5.119137685904235,1.0632979817986004,-0.13934182455331362,0.5010365225761839,0.014610979243519492,1,right
17.547,-0.6879014282911924,0.8270532025307202,0.06364108568158812,-4.641591910462905,-3.4500840116202323,0.9161197884095428,-0.14155114522783285,0.4965830802883693,0.0006658825456238209,1,right
17.549,-0.6469154042540474,0.8301369295750234,0.07132661658264498,-5.279014480499132,-4.456558273664101,1.0048713966236371,-0.13982682418493397,0.5000397404160307,0.01154219991715554,1,right
17.55,-0.6038647498289186,0.8279394485682554,0.07957383130683349,-5.019782940556286,-4.047416070801409,0.9687986086528008,-0.14076836160458056,0.4982108100361776,0.005627236230482748,1,right
17.555,-0.5653293410471678,0.823650914388167,0.07970143722495147,-5.0158887655756725,-4.04089127904928,0.9682081729783905,-0.14052558442010105,0.4985468875875705,0.007096773398066419,1,right
17.555999999999997,-0.5320375648802596,0.818411210025604,0.067427240904576,-5.152181323812515,-4.256617049053417,0.9872545936282802,-0.14032972169083174,0.4991903729136707,0.008435426727114986,1,right
17.56,-0.5055238515975709,0.8122363724480319,0.05009212460025955,-4.988996494326999,-3.9984411487515743,0.9644639857150179,-0.14069451434731578,0.4981531832911895,0.006008398929000189,1,right
17.561,-0.4845294261284962,0.8107356323256576,0.035279748381154705,-5.115986813765517,-4.199175956503238,0.982175750853092,-0.14034344685118882,0.49909988715175296,0.008322976776917542,1,right
17.565,-0.46657644010877575,0.8156600570711966,0.03191834717879896,-5.047792492149677,-4.091921724406571,0.9727395718259925,-0.14061285307247967,0.4985657098945363,0.006626084399705365,1,right
17.566,-0.45912994792133605,0.8264776129488447,0.04755562796516824,-5.062717194861319,-4.1141217449103,0.9746271114447582,-0.1404020753246462,0.49852586852060515,0.007764849122893375,1,right
17.57,-0.4626395955617152,0.8419570688673472,0.07683895673902931,-5.0820668744815904,-4.147025024089574,0.9776497280571123,-0.1406153538406509,0.49915120871910973,0.0068539582367987155,1,right
17.570999999999998,-0.47618894105780973,0.8613278225394483,0.09709703843237022,-5.049193154594311,-4.092235894470898,0.972669374604561,-0.14036147666357796,0.4980904217064477,0.0078076748963279595,1,right
17.574,-0.5011240740940177,0.8862747328365324,0.09461114805095869,-5.079820173967332,-4.142892297189154,0.9772552303615692,-0.1406201202365101,0.49924498378472804,0.006866525811119483,1,right
17.575,-0.5327782356035338,0.9169256499190938,0.07475516833745119,-5.060094608177668,-4.1117651447797074,0.9745114147919901,-0.1404896274273197,0.4985403550763352,0.007291010363854436,1,right
17.579,-0.5610510116989935,0.9495889485576217,0.04829648360275585,-5.0665349786831575,-4.117677528771676,0.9748120242579049,-0.14028334450938457,0.49811907014420587,0.008247632806871717,1,right
17.579,-0.5817499405675705,0.9818582076233936,0.026536068269996244,-5.071511066931572,-4.135263926883033,0.976867472227533,-0.14103254019929046,0.5002672837427176,0.005028144986393119,1,right
17.584,-0.5990256356906009,1.0106502156885695,0.01624432115130401,-5.059371542210931,-4.101580995674253,0.9731442653621026,-0.13967094392008114,0.49622863216134944,0.010823899261969897,1,right
17.584,-0.6108499708963869,1.0339900611178514,0.014171424541554598,-5.073190208753653,-4.138874375757226,0.9772356896720149,-0.14141296517099883,0.5014265050264441,0.0034214450383547876,1,right
17.589000000000002,-0.6161836860928694,1.052579129333537,0.013910393055509588,-5.063819152030681,-4.1151349691964185,0.9746782746256182,-0.13996133946201506,0.4970825049701278,0.009584873459426817,1,right
17.59,-0.6204001399269949,1.0596237244234339,0.013505633737493888,-5.062611481706158,-4.105525445078129,0.9734313271346463,-0.1399905546083703,0.4972182548234292,0.00948036473042424,1,right
17.594,-0.6238894694727155,1.060413066796067,0.010689542648723394,-5.079141552420409,-4.165349160979556,0.9804563299299349,-0.14279118488394732,0.5054408522193248,-0.0024751224434868555,1,right
17.595,-0.6255515635272613,1.060836178869693,0.005705940872124763,-5.046457898287539,-4.0511974595664295,0.9671450900198806,-0.13591981431910566,0.4852101765704421,0.026835281446709915,1,right
17.599,-0.6276666467429646,1.0489267101295654,0.005481362035354612,-5.088879142649912,-4.198495509934553,0.9843014212454403,-0.14730927056684204,0.5187578054285691,-0.02174189690562626,1,right
17.6,-0.6290693278083701,1.0391888897183321,0.008590974336424053,-5.053281644577496,-4.07522857940368,0.9699518390085705,-0.13228753101030322,0.47450978645415054,0.042327335910162085,1,right
17.604,-0.6290391034916483,1.0364302402201235,0.010151017813707794,-5.054947505462236,-4.079691789872127,0.970440961938881,-0.06921250159720638,0.288788657780523,0.31137151960348425,1,right
17.605,-0.6328841097932526,1.0218323690399165,0.012376701052546575,-5.120515759635325,-4.311048381019647,0.9974741898693615,-0.05419065723026382,0.24454563671291363,0.37544442921162624,1,right
17.605999999999998,-0.641004241516655,1.0046207848146285,0.009879698078080883,-4.958534030986572,-3.7410667670663056,0.9309092943634745,-0.06558022714658776,0.27808785771306055,0.3268632719351712,1,right
17.609,-0.6489524142881888,0.9848505780195317,0.0019239324595936047,-5.227313725897764,-4.686475775296216,1.041310202563245,-0.05870889875211971,0.257855127051054,0.35617216594959006,1,right
17.609,-0.652876861412945,0.9679846701028016,-0.001272568074442764,-4.8727860664413924,-3.4394450103480745,0.89568622342446,-0.06150915485197417,0.26609565803383106,0.3442298679382216,1,right
17.614,-0.6534003519749068,0.9651448877427863,-0.0019000421441090231,-3.3855823455004987,1.7931803019532244,0.28461178134487347,-0.061539176404242356,0.26619281933612615,0.3440969768050141,1,right
17.615,-0.6563856322909767,0.9539664780169181,-0.0011533088407812307,-3.0311561635434097,3.040097688704396,0.13899421183346966,-0.06008639341632367,0.261904149172822,0.35030110324182323,1,right
17.615,-0.6565277179537732,0.9379345466180545,0.0077504142622900115,-3.2998260544283537,2.0948113748500425,0.24938818494816445,-0.06182956839517844,0.26704692283723336,0.3428581180321437,1,right
17.618,-0.6474016494360415,0.9335185325206121,0.018930714955439826,-3.1378026109887207,2.664839549036485,0.18282065294073924,-0.06046747185324098,0.263032049577539,0.34867136858033637,1,right
17.618,-0.6348467518465126,0.9323797996689149,0.026777287070876066,-3.2037349676896807,2.4330762516391244,0.20987688213368047,-0.06121568246990036,0.26522756820495236,0.34548666698361435,1,right
17.623,-0.6201413839258874,0.9361865501649071,0.03533554707983226,-3.20461735781918,2.4294882502585606,0.21031651356592473,-0.06101258245721691,0.2646538847969404,0.3463312021317141,1,right
17.624000000000002,-0.6012087316638056,0.9474994079407986,0.04114555679370406,-3.170143244428426,2.5515002050719158,0.19603789319802328,-0.060876599856283804,0.26421185401990305,0.34694883548999245,1,right
17.628,-0.5819246661343053,0.958354852087959,0.03886461951895587,-3.2114457738920192,2.4054519778651917,0.21312355983362674,-0.061141986634832876,0.26504413307656405,0.34577062560456673,1,right
17.629,-0.5653355246735445,0.9682406130510702,0.033231441281996274,-3.179244932594905,2.519064163706777,0.19984281294380263,-0.060882724701344766,0.2642402998411638,0.34691336662201644,1,right
17.632,-0.5485412668681903,0.980424327388341,0.02887721311497781,-3.19673540788599,2.45816776307658,0.2069284903568131,-0.06109597537064989,0.26486789724454973,0.3460040957025,1,right
17.633,-0.5311161048394081,0.9953541330022717,0.024604046865276258,-3.1924335826022068,2.4712336503700922,0.2054860831400955,-0.060895144096447286,0.2643512925312018,0.34679222924815134,1,right
17.637999999999998,-0.5147998370085083,1.012502185578323,0.020926121706864538,-3.188394125343856,2.4890170609067317,0.20326545899849519,-0.06114178280554625,0.264906737218771,0.34589676274455394,1,right
17.639,-0.495435345682231,1.0263437269498117,0.021326016163667565,-3.1956693271525927,2.459033751604073,0.20694355048967836,-0.06082470995978261,0.2642278549196062,0.3470156496987954,1,right
17.643,-0.4714309011058358,1.0333717386497292,0.025249955568827503,-3.188746949107383,2.4868878905307232,0.20354988131763962,-0.06115322780565479,0.26492363637640015,0.34586337141909285,1,right
17.644000000000002,-0.4455551241990331,1.0348663846427515,0.02773997653273762,-3.193768654924644,2.4692515064081078,0.20560824574648875,-0.06097838522144205,0.2645657257488875,0.3464652882689133,1,right
17.648,-0.4228588161255097,1.0292569180453932,0.02720674298288535,-3.1905293879741863,2.474151329938598,0.20529736676767113,-0.06075353832971567,0.26403882756509645,0.34730031406424955,1,right
17.649,-0.4039514399597782,1.0189217874293526,0.028303999396457495,-3.1929266015217226,2.480565440137895,0.20395104239955636,-0.06161620461244899,0.2659872275629196,0.3441634858710909,1,right
17.652,-0.3854396340665309,1.0062345306604765,0.031628273613025226,-3.19054875404967,2.46677973012114,0.2064520388343038,-0.06003831875431349,0.26243855892976137,0.3498872133810392,1,right
17.653,-0.3747836235598999,0.9913597745038341,0.030418346594757936,-3.1928605706936377,2.4822603311761418,0.2036942312694463,-0.06205943933075376,0.26698054660422355,0.34255881153663403,1,right
17.657,-0.3701899193660698,0.9805762141213099,0.02411470750813639,-3.1918776248766996,2.4720752113075584,0.20543261467255658,-0.06037416788181686,0.2631948427033423,0.34866816945670687,1,right
17.658,-0.36556331535521724,0.9738964192598044,0.01701311901644823,-3.1892824304090777,2.469441237717496,0.20621324076672806,-0.060411991395689,0.2632741113249525,0.3485359639706402,1,right
17.663,-0.3660493408130765,0.9690964890616928,0.013174492723838617,-3.197779009752307,2.4910280996421044,0.20162171479387714,-0.06365087752462156,0.2705681382888913,0.3367784411161244,1,right
17.664,-0.3672695179748549,0.9705305355413013,0.014016423690582258,-3.182538808624607,2.449179728109062,0.21034890680386,-0.055699410199422296,0.25266826629631245,0.3656374033322932,1,right
17.667,-0.37142969452940594,0.9727750591109416,0.013159490619935803,-3.2019914063023185,2.5033222750663082,0.1990950478290236,-0.06888073941688831,0.2823391238646484,0.3177987555665086,1,right
17.668,-0.37859015035519283,0.9716306735394878,0.011527301614450647,-3.1857995458306445,2.457956410705234,0.20850983817349839,-0.05149506607774056,0.24320508200835955,0.3808959609874727,1,right
17.672,-0.37991572657832096,0.971573117634697,0.010678931354793088,-3.1860549310408324,2.4598174125711125,0.2081805139883633,0.021494894643285196,0.07889521266538994,0.6458032499178147,1,right
17.673,-0.38399627775358125,0.9704398358124204,0.0033173215664119814,-3.2175269311155965,2.5442439990821923,0.1904723067473908,0.03888111866076658,0.039760224094256516,0.7089029899920462,1,right
17.673,-0.3939136057522975,0.9646693447748083,-0.004962567166315355,-3.140390559312309,2.335987734780621,0.234085179091559,0.02569919384571912,0.06943210635867278,0.6610616010915377,1,right
17.677,-0.4056848802972258,0.9539823913416927,-0.006984839170701,-3.2682270322111053,2.6814785091064817,0.16174971210260639,0.033650433860710205,0.051532622471843786,0.6899195160841047,1,right
17.677,-0.4132622960796182,0.9469139003136717,-0.007608871818204395,-3.0996202315473615,2.2257625407302037,0.2571624991670614,0.030413525511412756,0.05882325480548213,0.6781710985086136,1,right
17.682000000000002,-0.4158549603978594,0.9450018020634625,-0.007848843460758528,-2.3915844149055543,0.3138132774637655,0.6575398525500054,0.030371447534481226,0.05890982941166386,0.6780193077012302,1,right
17.683,-0.4261417594814185,0.937192573692218,-0.005841256407989266,-2.2229626845649992,-0.14182500208011548,0.7529450845863221,0.03206281823592224,0.05511364860299963,0.684156742325432,1,right
17.683,-0.4380804567540122,0.9326929846916053,-0.0034183005326417384,-2.3508153247412737,0.2035816904405913,0.6806177928626321,0.030035625056514678,0.05966607110020633,0.6768003877799005,1,right
17.687,-0.44569431450412944,0.9367781257979533,-0.0010761466187881748,-2.2736850455968955,-0.004706444655050546,0.7242337697339258,0.031616129311099424,0.05611289630341953,0.6825361655235782,1,right
17.688,-0.4514968167148147,0.941810074782235,0.001420605936028421,-2.305103569644328,0.07999875616787251,0.7064984573304383,0.03075868183599797,0.058052344393538485,0.6794233656197782,1,right
17.692,-0.4535516570485877,0.9543371074741782,1.352403380843522e-07,-2.305474085195357,0.08126014996721977,0.7062274592421656,0.03096672472874772,0.0575542975490329,0.6801810326722764,1,right
17.692,-0.4538642485583818,0.9709514083199043,-0.009204840314754215,-2.2891170951991087,0.036754109349369374,0.7155586170611306,0.03117051720078937,0.0571466664819365,0.6809162174280856,1,right
17.698,-0.4453388798062957,0.9846469622885508,-0.02308919184804488,-2.3087341973444726,0.09004031708829216,0.7043880445456535,0.030806474945815475,0.05790347627224768,0.6796004119814341,1,right
17.699,-0.428406169588623,1.0008034174050096,-0.03814455114471639,-2.2934228857373,0.04856168930042623,0.7130792890024122,0.03115186304635078,0.05717592597145643,0.6808496318812178,1,right
17.701,-0.40852223592403647,1.0167088053545437,-0.05634672451217132,-2.301778502373785,0.07088332545406152,0.7084162692892616,0.03090549168051924,0.05773096748229453,0.6799554161935588,1,right
17.702,-0.38161177102366795,1.0277842361246612,-0.07109288654279829,-2.2996379021736906,0.0658814545834748,0.7094272398885777,0.031053742894495112,0.0573046076827851,0.6805014812892209,1,right
17.706,-0.3519903151670716,1.0351457364944894,-0.07541021202412454,-2.2978713795482184,0.05977687994312108,0.7107687055042825,0.03096062792066958,0.05772591005256269,0.6801452552109533,1,right
17.707,-0.3232148994464086,1.0379836241317744,-0.07721097228899305,-2.3011451512346617,0.07024903559563037,0.7084980416379021,0.031040688740214383,0.057229879902745986,0.6804630730789462,1,right
17.711,-0.2948179418159146,1.0341375819310576,-0.0805258561038602,-2.2979999240911395,0.06045718558122974,0.7106106247292212,0.0309663078804399,0.05773397912077143,0.6801640918065814,1,right
17.711,-0.2677566589016293,1.0238894113048755,-0.08688154542472153,-2.30039136392636,0.06690484977857487,0.7092609284153177,0.030991974295667538,0.05748166132637224,0.6802739849077915,1,right
17.715,-0.24023401128306382,1.0101227761812406,-0.09574511794223656,-2.2985737082038336,0.06439779838086204,0.709670636777151,0.03109982971451029,0.05707123297553627,0.6806799548676803,1,right
17.715999999999998,-0.21362194584899064,0.993651833002858,-0.0990632974358807,-2.3003446277811315,0.06369228383404071,0.7100820573072963,0.030768141128518414,0.058551675368185126,0.679412772895797,1,right
17.72,-0.19246917797389487,0.9761568738918666,-0.09587226695421479,-2.298273443276626,0.06628535124540283,0.709145490751854,0.03135792373942764,0.055863165880672506,0.6816707337309402,1,right
17.722,-0.17869624520651414,0.9602721016769016,-0.08620092273473368,-2.3003752600452523,0.06323457993377851,0.7102040934528837,0.030606308097118385,0.059302576472429896,0.6787921485085502,1,right
17.725,-0.17248575576402553,0.9452567320394797,-0.07095965579100588,-2.2993281894849296,0.06545034797569067,0.7094972623210462,0.031231478104773072,0.056436323117052975,0.6811868129342405,1,right
17.726,-0.1736688974421931,0.9308466672045548,-0.0588894782578345,-2.2975958493122226,0.06511524975459962,0.7093590115176052,0.031223415776834088,0.05649413674197547,0.6811544123642257,1,right
17.73,-0.1796679663280995,0.9169351921845026,-0.054718819572420835,-2.30381993113709,0.0629073427634874,0.7107354504423358,0.030002310319223797,0.062024440557886626,0.6764822809212774,1,right
17.730999999999998,-0.18636637802106287,0.9047813941598842,-0.05294767425510878,-2.2925215220333195,0.06766471969159908,0.7080432291052354,0.032993170702335935,0.04845482717028515,0.6879272710049427,1,right
17.735,-0.1892716471631572,0.8968082841756893,-0.05179317893227074,-2.3069755367827183,0.06140773206501292,0.7115320153813218,0.028036922284603815,0.07094800759704348,0.6689613235470551,1,right
17.736,-0.18927628897576015,0.8921079854915404,-0.05533450422129305,-2.294928833478695,0.06669095162158878,0.708605796566985,0.03457391541426402,0.041279892958188784,0.6939758189036361,1,right
17.741,-0.18850970325285438,0.8916467367051821,-0.05684084529937096,-2.295174097236418,0.06631820694733774,0.7087356796717708,0.062025787689909434,-0.08327897333471465,0.7990234622159837,1,right
17.741,-0.18489060782668465,0.8944447615306231,-0.05429415944812466,-2.318414191592685,0.056999346756460685,0.7141511805507239,0.06856371337909135,-0.11295009210431435,0.8240400505811725,1,right
17.742,-0.17995970934265534,0.8973270524307826,-0.045405601070563635,-2.2613837401707677,0.08017327307001078,0.7007787921948301,0.06360655055168915,-0.09045343887498167,0.8050728035768344,1,right
17.745,-0.17283163274014154,0.9032907857331535,-0.021311230634904074,-2.355924962315707,0.04168218154378552,0.7229693343020287,0.06659669226373288,-0.10402260428664058,0.816513514522177,1,right
17.746,-0.1664419443945972,0.9081714855217883,-0.0034032839199575715,-2.231218430666197,0.09245445796516952,0.6936946435370831,0.06537962413314505,-0.09850145697158005,0.81185594089263,1,right
17.75,-0.16477541764462722,0.909334340003013,-0.0004140110623761476,-1.7076915075122907,0.3052563753182874,0.5709066182556415,0.0653633362838068,-0.0984228564056639,0.8117969247635206,1,right
17.750999999999998,-0.16062554141569868,0.9150857175817906,0.007916475200513785,-1.5829505137971087,0.35599321739359946,0.5416266348576165,0.06599993068792043,-0.10131978316764154,0.8142259815662067,1,right
17.750999999999998,-0.15479023413143425,0.9227351337099101,0.010282744510210435,-1.6775403334949297,0.31754328696967504,0.5638284301680767,0.06523740008652984,-0.09784874255412043,0.811317856721598,1,right
17.755,-0.15045925809489719,0.9312132454832113,-0.004732863710668494,-1.6204839961849018,0.3407217935428969,0.5504386432346156,0.06583103553163816,-0.10055291604724705,0.8135798202683232,1,right
17.756,-0.14476220628681602,0.9448339504030395,-0.023940312043832457,-1.6436830117456322,0.3312963812833067,0.555875508136487,0.06551069404121877,-0.09909498861541394,0.8123581514277247,1,right
17.76,-0.13957830160687323,0.9583095928842168,-0.03734163857269186,-1.644071845145551,0.33116667061193816,0.5559863862697211,0.06558539362016072,-0.09942489765301503,0.8126521690853598,1,right
17.76,-0.1347090028179247,0.9721283522380816,-0.04218628200705433,-1.6317751101662248,0.3360904009182991,0.5530658295933714,0.0656662611426685,-0.09982049016222802,0.8129352882554559,1,right
17.766,-0.12807978667553804,0.9879883163746663,-0.04146493104735299,-1.646533294666093,0.33020516506949715,0.5565759433815702,0.06552618140767708,-0.09913574052766318,0.812444601216038,1,right
17.767,-0.11894486200993327,0.9972208485236432,-0.035856590313779475,-1.6350011496832408,0.33477655594510136,0.5538244422692951,0.0656555638713662,-0.09978298692707849,0.812884064050946,1,right
17.769000000000002,-0.10413876998029166,0.9967546837780553,-0.02987824953873805,-1.6412002151359633,0.3323083712487343,0.5552979626079124,0.06556992333940447,-0.09934647749856465,0.8126007104349228,1,right
17.769000000000002,-0.08764733079291367,0.9928616736846143,-0.031791307262118526,-1.6399547432764883,0.3329131072233894,0.555045494694046,0.06561051101956805,-0.0995301903750888,0.8127563773431933,1,right
17.775,-0.07539070617011234,0.9848647008183087,-0.038896117326396265,-1.6378381662580845,0.3334519414867886,0.5544227879998712,0.06559742116210271,-0.0995597176862482,0.8126240848004,1,right
17.775,-0.06149973881815136,0.9687454515688522,-0.04268734303719669,-1.6414973740645786,0.33252029929916105,0.5554977764145964,0.06560503058089581,-0.09939109062503738,0.8128411284941164,1,right
17.78,-0.045900690025954705,0.9486989912298678,-0.041638798047594475,-1.637818910485963,0.3333326292762434,0.554369489718886,0.06558851205305757,-0.09961917535583248,0.812497514325784,1,right
17.781,-0.035078416888263436,0.9273310757198583,-0.03761976273008113,-1.640417050554344,0.3328212918331227,0.5551903783150892,0.06561298563333663,-0.09940719873418662,0.8128901472382537,1,right
17.784000000000002,-0.02892465132689888,0.9036335599811128,-0.0263777573070206,-1.6396518756639291,0.33313704636677244,0.5550127747785152,0.06559891767900926,-0.09952999689959802,0.8126634499355941,1,right
17.784000000000002,-0.027698053115295586,0.8793308776144035,-0.010909829801196114,-1.638110989049005,0.3327525124919246,0.5542591641873346,0.06557156475572995,-0.09956679050375736,0.8124101232442156,1,right
17.789,-0.03136511892098157,0.8572581653623619,-0.0010610546365039423,-1.6420570378258055,0.33345891767907276,0.5560809600169105,0.06567156712127872,-0.09931640546851131,0.8134441386998785,1,right
17.79,-0.039165595076613546,0.840812371794414,-0.0003995353392796187,-1.6362692889476644,0.3323647789204991,0.553386382615104,0.0654870866357335,-0.09978514501755995,0.8115299625305981,1,right
17.794,-0.051029801256448834,0.831644822010975,-0.008084280086117843,-1.6423077303089402,0.33358440417880186,0.5562281293474661,0.06572523980183008,-0.09918905009634549,0.8139930447761621,1,right
17.795,-0.06603428138945168,0.8277870938145414,-0.016641628772005458,-1.638818054207868,0.3328804558681896,0.5545857752003585,0.06552582858833035,-0.09968400027328703,0.8119339955383933,1,right
17.799,-0.0844498645470249,0.8308770729027632,-0.023759257750848965,-1.6360980792751092,0.33215485897149444,0.553238422864254,0.06552965696787133,-0.09966354253184298,0.8119848963103633,1,right
17.8,-0.10381083875454163,0.8412549953680346,-0.028647072738523665,-1.6483731916757676,0.33517614359479964,0.5592237940330531,0.0659166474051902,-0.09875027638473817,0.8159340582827578,1,right
17.804000000000002,-0.12060227398214109,0.8560708750849548,-0.025970797756119247,-1.6255922192532997,0.32958133222175656,0.5481192732491251,0.06496662032509525,-0.10100006831150643,0.8062296268408811,1,right
17.805,-0.13627295021935304,0.8766315218241336,-0.027787268815917435,-1.654817965002353,0.3367745235926256,0.5623725854161954,0.06654197150959139,-0.09727062726931948,0.8223221621221263,1,right
17.809,-0.1472090831467401,0.8899940534945836,-0.03629216928048836,-1.6304328113865147,0.33076576467984864,0.5504754411979413,0.06446366307056678,-0.10218773795828914,0.8010934026350107,1,right
17.81,-0.15002774448620232,0.894222265176853,-0.03674246965517501,-1.631116507177265,0.3309137781573353,0.5508054459586171,0.05573650717589297,-0.1228130307051448,0.7120071598262313,1,right
17.811,-0.15509895715758007,0.9078363994352507,-0.035967248691619234,-1.6775002257093514,0.34242954927008074,0.5734583451764994,0.053657596921132894,-0.1277274646546607,0.6907773656269693,1,right
17.814,-0.16134412575182372,0.9252499269127776,-0.044568927861073165,-1.5634855076928922,0.3141390559964199,0.5177731997819601,0.05523384412877247,-0.12400184492492707,0.7068675764864134,1,right
17.815,-0.15614932791082303,0.9402183630171834,-0.05815021307167362,-1.7525143451242746,0.3610434982337316,0.610102459522341,0.05428319725913048,-0.12624946104222762,0.6971757692590518,1,right
17.819000000000003,-0.14855854636083238,0.950561073464932,-0.06537407423836106,-1.5032042239219598,0.2991771996318526,0.4883210733620396,0.054669816143122024,-0.12533334478285507,0.7010960694852697,1,right
17.82,-0.1447985238169902,0.9528741623777112,-0.06738144802727317,-0.4566873836973469,0.03942224833330086,-0.022821051498590816,0.05467563867303231,-0.12532353318209777,0.701192269465577,1,right
17.82,-0.13237081055465533,0.9591078252878297,-0.07268720301051654,-0.20740549208743714,-0.02244279415121145,-0.14460220980701022,0.054472411718358094,-0.12579960500637896,0.6990817208415467,1,right
17.823,-0.11157853708693188,0.9672537396040776,-0.06961313322828447,-0.3963981246240411,0.024462596082852048,-0.052274526079674775,0.054715559446329554,-0.12522682350433748,0.7015792851559401,1,right
17.824,-0.09023453062666785,0.9685436903425716,-0.05887365519477329,-0.282391846371921,-0.0038365856334739937,-0.10795505614606501,0.05452670489968009,-0.1256771197544504,0.699681427991529,1,right
17.828,-0.06930942483608435,0.9653906590336446,-0.055064039700825525,-0.3288355300679625,0.007700539929825912,-0.08531104740226211,0.05462753177557918,-0.12542603526387924,0.7006139483370185,1,right
17.829,-0.04446158999057032,0.9604685110627605,-0.05503850189848192,-0.32936258036288074,0.007813861211906935,-0.08496839943705815,0.05460631903554093,-0.12549831606043454,0.7005638926947404,1,right
17.832,-0.01430495984226656,0.9544382072434725,-0.057193523559981675,-0.3052241405213654,0.0018458330081119842,-0.09687847868987642,0.05457667867347982,-0.12554110586594647,0.7000571671843354,1,right
17.833,0.014806196531079502,0.9475488512934369,-0.0634893943522121,-0.334176584484571,0.009009721113498095,-0.08261877251829891,0.054625563714203414,-0.12544734238671298,0.7007188816234345,1,right
17.838,0.042718145627840945,0.940787263930829,-0.07186377715062714,-0.3115648407240688,0.0034066503660322356,-0.09371400616027187,0.05458166842091251,-0.1255512853568779,0.7002721977324199,1,right
17.839000000000002,0.06998944287246361,0.9348616430831863,-0.07928304592900633,-0.32395641834453287,0.00650126625801188,-0.08776188384863046,0.054607248102207295,-0.12545034609930114,0.7002316744197181,1,right
17.843,0.09272096464983534,0.9314720134134091,-0.07895240241654848,-0.32065790573448,0.005622310373136243,-0.08904988350038587,0.054603188279118184,-0.12555248280394266,0.7008795789502686,1,right
17.844,0.10938217319289156,0.9301622717078686,-0.06903734011697021,-0.3182805102381878,0.005135572770357732,-0.09076740062617497,0.0545900820281003,-0.12544537776528936,0.6997174244110806,1,right
17.849,0.11868870020164807,0.9305793953907432,-0.056436634796028354,-0.32283134721023554,0.006138560788817856,-0.08786218633108145,0.05461107160045416,-0.1255429852211402,0.7010279313233392,1,right
17.849,0.1219644713585249,0.930847631240559,-0.04623744745840054,-0.31841262026630096,0.00514256104483274,-0.09056438747000747,0.05459423101352458,-0.1254977143037504,0.7002226134691978,1,right
17.852,0.11976317747743659,0.929344526767536,-0.03954075114095804,-0.32194962308723873,0.006021473649026884,-0.08884156768355848,0.0545943645780487,-0.12542408473022026,0.6996779844559835,1,right
17.852999999999998,0.11123526263870046,0.9329102336551289,-0.03721049348188316,-0.3188343834616737,0.005061154666843419,-0.0893541703828907,0.054620819995360434,-0.12568246892817903,0.7023375880903273,1,right
17.857,0.0993136747915187,0.9402523104071021,-0.03554134858004025,-0.32243151774561096,0.006381326155996193,-0.08990307938946589,0.05456535436175787,-0.12521840206384924,0.6973399570830918,1,right
17.858,0.08392993292331505,0.9456128268468487,-0.033874681857182204,-0.3179086700856192,0.004621377170159021,-0.0886722260193488,0.05463890431875765,-0.12580880595459937,0.7037809378465283,1,right
17.862000000000002,0.0648982134077106,0.9509105978285483,-0.03584172516054335,-0.3225732188708476,0.006458412412967581,-0.09006100629716259,0.054576482887997435,-0.12531828118493044,0.6983932843350196,1,right
17.863,0.04381459523284923,0.9560037602837227,-0.036746784379647845,-0.3201258110478196,0.005458710535350419,-0.0891374784464842,0.054579776950786876,-0.125327837363842,0.6985555150065941,1,right
17.868,0.022656811409272556,0.9617864506824717,-0.03580508424779137,-0.3167881652042821,0.004291443150428219,-0.08894138719748998,0.054694566919239226,-0.12627301231418153,0.7087853846286033,1,right
17.869,0.005112840615780776,0.9669890274016334,-0.03553930274917005,-0.32938585760441197,0.008899668501194152,-0.09078156033918429,0.054410036608015064,-0.1239553873681722,0.6836171605422946,1,right
17.872,-0.012900312564021238,0.9710127313300381,-0.03242661976971311,-0.3063854431265006,0.0004442015751071511,-0.08719185936187122,0.05488280239278641,-0.12779587121412567,0.7253574935802891,1,right
17.873,-0.024632056086078415,0.9759253820841037,-0.028947439470496425,-0.33583862017771404,0.01128080366762883,-0.09184073664705436,0.05425872056340268,-0.12273134898908902,0.6702969804460208,1,right
17.877,-0.02663627068103279,0.9772330627394415,-0.0278103437235617,-0.3112811060183055,0.002242662523926667,-0.08794390267965904,0.05164143458194255,-0.10146838774247399,0.43920467099302785,1,right
17.878,-0.03754881538297923,0.9781360235726076,-0.03153342181273279,-0.31182290293846016,0.002454455524569479,-0.08811026091071918,0.05101675664649542,-0.09640490195195339,0.38413782908706895,1,right
17.879,-0.05117379522395654,0.9818428724998676,-0.04235571500939761,-0.35905534719831833,0.019794905855796647,-0.09534021028031157,0.051490603176715916,-0.10024341390569035,0.42588957487125334,1,right
17.881,-0.058010240297711305,0.9833944330178417,-0.0524354655898774,-0.24310579758149775,-0.022786028969278806,-0.07749886043004893,0.0512047745540992,-0.0979283750982857,0.40070778418102726,1,right
17.882,-0.06451595027978906,0.9855371765302171,-0.05774451526666094,-0.43532180217200045,0.04780371722193007,-0.10709816029502316,0.05132060745634721,-0.09887105887776526,0.41094827832980324,1,right
17.889,-0.06563788841396712,0.9876071255612714,-0.05916073161088688,-0.1817892389853316,-0.04530165642019704,-0.06805633315545781,0.05132378349215107,-0.09888182590119352,0.41110992078722586,1,right
17.89,-0.0649485347308893,0.9871336137765189,-0.05860614020604732,0.8824844739906519,-0.43619698562689146,0.09575873110312601,0.05125982917393532,-0.09839288699711804,0.4057052792494438,1,right
17.89,-0.06504127318951275,0.9885465079384301,-0.0615696961903618,1.1360293165128132,-0.5293079012020339,0.13479354912900035,0.051337031735042934,-0.0989775621306096,0.4121854503636091,1,right
17.891,-0.061396163925802445,0.9903818155412016,-0.06682378118786841,0.9438135313377968,-0.4587068979349575,0.10519873667703716,0.05127604172403802,-0.09852367292749933,0.40712954638717047,1,right
17.892,-0.05628253260449771,0.9915372521238189,-0.07239466015855969,1.0597101935408464,-0.5013041871285211,0.12305393680864607,0.05130845879295403,-0.09876922003233965,0.4098508098666155,1,right
17.896,-0.04763613319498734,0.992228723528163,-0.07927773576210558,1.012620433862356,-0.4839452085846,0.11577622496333945,0.05130503983743996,-0.0987063956742146,0.4092715243616748,1,right
17.899,-0.036695812426204,0.9893195173649804,-0.08248013198429965,1.011837514221906,-0.48374761617678697,0.11569753044505357,0.05128543564783815,-0.0986598471922972,0.40843284432370996,1,right
17.901,-0.025882360905805604,0.9849827948367119,-0.08120145272189522,1.0366880042913786,-0.49278594437207435,0.11948076428099108,0.05131925103356255,-0.0987406093875525,0.40988312732067933,1,right
17.902,-0.015888810589831596,0.979721410570292,-0.07768897646720949,1.0070089678712368,-0.48192348991436784,0.11492990520235802,0.05128182741434664,-0.09867443934916711,0.4084619095635813,1,right
17.905,-0.011392261603402343,0.9731121746732847,-0.06727355467306743,1.0299844935158882,-0.49043777256086046,0.11850536031143956,0.0513099886390284,-0.09871362590764923,0.40944731982572546,1,right
17.906,-0.009309995560793915,0.9670504850253213,-0.052860691801211716,1.017862656199255,-0.4857419250012272,0.11651639049887665,0.05130628413557109,-0.09868196795142786,0.40910803267739065,1,right
17.910999999999998,-0.008658889494742722,0.9617900302197574,-0.04095094728583141,1.0201524292010056,-0.48700251218597845,0.11708061320161067,0.0512704714775863,-0.09874242407497824,0.408727701367245,1,right
17.912,-0.013120778120666459,0.9604315466803774,-0.03268349435875362,1.0241300268734095,-0.48794868314550305,0.11743295679572069,0.05135445785716433,-0.09862150846372136,0.4097844790983626,1,right
17.916,-0.018975711923670136,0.9613424863710913,-0.037508984234397046,1.017879980349173,-0.4860634231143766,0.11667812326100582,0.05122964379818532,-0.09880591563796276,0.40825153496238037,1,right
17.916,-0.028493909719935373,0.9632344372338951,-0.05810020823078245,1.0232299335457158,-0.48803203260519346,0.11750373022803659,0.05136206337454042,-0.09860399459953564,0.40982788588944585,1,right
17.922,-0.04262536310378776,0.970760220791852,-0.07749481155407477,1.0206461602612986,-0.48632182022925124,0.11672058564863436,0.05128550762471987,-0.0987206446448573,0.40891638407478403,1,right
17.923,-0.05375000402867014,0.9820873147757695,-0.08547570161120052,1.0199183402162584,-0.48779410703796716,0.11748916341633855,0.051221084476819084,-0.09883287843559155,0.4082591211390232,1,right
17.927,-0.06054812613054501,0.9926865289914502,-0.0830069539219037,1.0233400907188097,-0.48645571482687844,0.11670219416239083,0.05150515685928132,-0.09835671344990042,0.4113021051009521,1,right
17.928,-0.0630468989691918,0.9990635979940486,-0.07276964213150819,1.0188374740735133,-0.48756842156943664,0.11740948757333504,0.05097814520919182,-0.09923911140674978,0.40565040998794255,1,right
17.93,-0.06528598205131561,1.00172085405167,-0.0634475783929592,1.0220125619942415,-0.48713617940098813,0.11708918355459294,0.05165483919285065,-0.09810498257060846,0.4128970295820201,1,right
17.932000000000002,-0.07101375107182037,1.0032791475166927,-0.0592087977221872,1.022966660881866,-0.48610859369350384,0.11653826861709637,0.05108979436816012,-0.09905242171601775,0.4068517128999465,1,right
17.936,-0.0769396285125732,1.0031542456693185,-0.06120150219742079,1.0155014929992974,-0.4893972602571751,0.11844226067303937,0.051105628141030465,-0.09902762121636578,0.40702961539147214,1,right
17.937,-0.0841154083908196,1.004824589491129,-0.06904539057838044,1.0301233681403725,-0.4835841529793314,0.11503125182176513,0.052181454659469814,-0.09721672542832253,0.418497333644796,1,right
17.94,-0.09079705837015734,1.0082574362042487,-0.0803884101515657,1.011067275722065,-0.49094516721285303,0.11936767403324455,0.04953634104520655,-0.10166751482683421,0.39029936360628203,1,right
17.94,-0.09583728759123883,1.0118368725729319,-0.10008287700706889,1.027095948707184,-0.4848439715299424,0.11576619171599968,0.05392255049611288,-0.09428729507039635,0.43705288826528665,1,right
17.945,-0.09994680705849676,1.0155174496416246,-0.11430462579634737,1.0264765323912846,-0.4849405409177775,0.11583427855146525,0.04813682171035377,-0.10402246208357313,0.37538780163066654,1,right
17.945999999999998,-0.10182999721491373,1.0158104152002267,-0.11662334712431593,0.9964058238184054,-0.4967562457353302,0.1227794220119995,0.023863132270312056,-0.14487743443748194,0.11661068081978061,1,right
17.947,-0.1061981806699846,1.0179952556129321,-0.12642399192418668,1.0705862497158183,-0.46781479928172776,0.10575238240016029,0.01807788413800395,-0.15461266357815395,0.05495185670713666,1,right
17.951,-0.10984192673490326,1.0205682822225455,-0.13310698490890993,0.947487144699723,-0.5157620011505819,0.1339666371435288,0.02246208915109729,-0.1472335821332107,0.1016924174382204,1,right
17.951,-0.1093783999125082,1.0173335114318105,-0.12998174986421845,1.109895486693453,-0.452535659411927,0.09675978688422032,0.01982203554276813,-0.1516800759482098,0.07351378947849255,1,right
17.955,-0.11037061221963052,1.0160913175572381,-0.12964226042455967,1.7914012908371113,-0.18706287805357083,-0.05946091545418109,0.02088874762007354,-0.14987820619154762,0.08495879493506622,1,right
17.956,-0.11043168172677614,1.0141241679328394,-0.12471162105342747,1.9538247143710978,-0.12384297165607124,-0.09666341272975912,0.020916950860979038,-0.14983986600296398,0.0851553782522079,1,right
17.956,-0.10816514645613014,1.0055463116843786,-0.11666940895185693,1.830688197930051,-0.17177546358204684,-0.0684571124253292,0.02033996827455993,-0.1508020099909559,0.07910744671620823,1,right
17.961,-0.10458706471400472,0.9954336173572379,-0.11143275263501001,1.9049371340322563,-0.14285881025627975,-0.08547445011099665,0.021021308106678335,-0.1496591192631868,0.08632647936316429,1,right
17.962,-0.09918896485988288,0.9840459564324758,-0.10839083519464815,1.8747665166314156,-0.1546410379631492,-0.07853737857421514,0.020505739362067378,-0.1505343770413446,0.08074275190571334,1,right
17.964000000000002,-0.09569141457804961,0.9739768094625226,-0.11169207620968685,1.8742591624471525,-0.15477184360369411,-0.07846775313932133,0.020754836058990242,-0.1500908997922825,0.08368023699986145,1,right
17.965,-0.09221951561272793,0.9679354267416206,-0.11594673638697847,1.8902095473373173,-0.14865181832910895,-0.08205876850447155,0.020749771186078965,-0.15014112933046164,0.08314056931813638,1,right
17.971,-0.08812344507847147,0.9632059604433058,-0.11893414599424998,1.871128505568578,-0.15599378759577598,-0.07774859891476397,0.020601202747192265,-0.15034003654456965,0.08215261014317601,1,right
17.971,-0.08741231111322104,0.9624785491044052,-0.12441245524738263,1.8859522417732897,-0.15025908222099432,-0.08111888509708666,0.020789857617958193,-0.15006327142911124,0.08368881768762958,1,right
17.975,-0.08947711576541659,0.9652463985110058,-0.12880046660906389,1.8780681683063634,-0.15340238165464426,-0.07926008294791251,0.020668234777082725,-0.15026833827821,0.08238801848502585,1,right
17.976,-0.09627291773648416,0.9668950003098626,-0.13000917648402277,1.8796141426517674,-0.1525648414594581,-0.07978195582439594,0.020641678036254732,-0.1502374296306182,0.08298613379656358,1,right
17.98,-0.10668426929331998,0.9675957984666296,-0.12729358634966378,1.8821994743888855,-0.15196309598704633,-0.08008614545071228,0.020853639955677874,-0.15005344160394513,0.08323197162929818,1,right
17.980999999999998,-0.11611960287281166,0.966205164498325,-0.12235453226155182,1.8779638726747248,-0.15311606882154793,-0.07946888965094782,0.02048416379969891,-0.15041759225117007,0.08229729654253357,1,right
17.984,-0.1255170145424708,0.9638702188739802,-0.1186675186524679,1.881855214950737,-0.15199622689066855,-0.0800790965151813,0.020897516226723735,-0.14999658360684803,0.08350148695150326,1,right
17.985,-0.13282909558157674,0.963398320347623,-0.11374395875174423,1.8795602587452844,-0.15289335774594762,-0.07955065026318903,0.020645626644161287,-0.1502618527026105,0.08266635340192664,1,right
17.989,-0.13661373411575567,0.9619923211362661,-0.10549009008387368,1.8797103273940468,-0.15210169542906898,-0.08010724081287489,0.020469082276292534,-0.15042208753758213,0.08237973495210035,1,right
17.99,-0.13966834524500865,0.9589372248338023,-0.0981605497125351,1.8816614349565275,-0.15301743351025365,-0.07936115733811844,0.021316592392327305,-0.1495945668137143,0.08443345685210901,1,right
17.995,-0.13862838502975994,0.95783894803545,-0.09665890388769843,1.8782014675123018,-0.15186534032945098,-0.08034814200599552,0.01972720928760663,-0.1511590509398557,0.08043596359786515,1,right
17.995,-0.1332949196501296,0.9601499811174338,-0.09511076455651526,1.881992007080565,-0.15305361321774494,-0.07931957657230936,0.021774393284107334,-0.14913940947323812,0.08563699380346465,1,right
17.999000000000002,-0.12943251868323835,0.9658348392909147,-0.08898594722308933,1.8796404117580026,-0.1524299709594788,-0.07987664935509936,0.02006266783463752,-0.1508300782582068,0.0812661652028473,1,right
18.0,-0.12185351708084254,0.9781565161891188,-0.0881531228584447,1.8784133343305358,-0.15158066381396168,-0.08054090322751634,0.020113016249660033,-0.15077724979087526,0.08142877714176433,1,right
18.005,-0.11208383445786566,0.9928203943051118,-0.09860294970676292,1.8850928802121119,-0.15478738093207847,-0.07793536249613249,0.023366196779747647,-0.14757226140782004,0.08964519945994597,1,right
18.005,-0.10395544005333676,1.0048333206841553,-0.11190016750517766,1.8724695749231897,-0.14893260012743795,-0.08271263058141594,0.015364564920130754,-0.1554600039427511,0.06938616518456889,1,right
18.009,-0.08643880363669734,1.0192069368670424,-0.11630509044790482,1.8887311160857234,-0.1564297513611398,-0.07659107615993385,0.028633644545205516,-0.14237781040020792,0.10300074650669623,1,right
18.01,-0.07273229636184617,1.0279042019697586,-0.11559371859362635,1.8751343271786785,-0.15017912434878095,-0.0816959596066774,0.01113129570230277,-0.1596347227040978,0.05865450010480777,1,right
18.015,-0.06872111912070178,1.0311767039856388,-0.11537080143639793,1.8755833221826876,-0.15031622359974,-0.08157845537723982,-0.06233155945945773,-0.2320650871187484,-0.1274543400688181,1,right
18.016,-0.05484041484348855,1.040337472550357,-0.1100951078773317,1.9012426866620036,-0.16234017062289385,-0.07177824408845423,-0.07983300864628542,-0.24932289362680565,-0.17180228310321471,1,right
18.016,-0.04188327661442348,1.0470768261542482,-0.1022504729672895,1.838080947640234,-0.13282457201109288,-0.09584010839504228,-0.0665651358810529,-0.2362384692006781,-0.13818059196451504,1,right
18.02,-0.03779428691690674,1.0496718489396968,-0.0951870446149278,1.9428287638776807,-0.18175306018473394,-0.05595290307936367,-0.07456631091932792,-0.24413031881499694,-0.1584576093389921,1,right
18.02,-0.03505168990743996,1.0512514731228828,-0.09149556728069627,1.8046672211905186,-0.11721736932737833,-0.10856073107312761,-0.07131160659828589,-0.2409193139108596,-0.1502087628163915,1,right
18.023,-0.03498825558064616,1.0505415413297263,-0.09006477282028455,1.2248284596415446,0.15371608589139646,-0.329439945558099,-0.07126567590858596,-0.24087326737107412,-0.15009018649760472,1,right
18.024,-0.036554782738853486,1.0506089238064669,-0.08143641524107519,1.0866807933290707,0.2182558992664439,-0.38204560020889733,-0.07297015512863922,-0.242559146797141,-0.154418476003922,1,right
18.025,-0.04418176574135015,1.0501972271612396,-0.07423151642268395,1.1914135904478946,0.16932295278770082,-0.3421607449895355,-0.07093132644665291,-0.24053811065515165,-0.14923407571080172,1,right
18.028,-0.061481544991235496,1.0516915036212462,-0.07550875972172831,1.128246161892692,0.1988368479638964,-0.3662235082831313,-0.072514987698896,-0.24211464296430055,-0.15327217341090796,1,right
18.029,-0.08986611320936866,1.0559948867031799,-0.07231575352378458,1.1539552846972525,0.18682771067502268,-0.35641548750587104,-0.07166518114507339,-0.24126194400313042,-0.15109407476306358,1,right
18.033,-0.13084619823724944,1.0631858058973804,-0.06297183958485343,1.1542971901955192,0.18665875613178823,-0.3563147799357205,-0.07185751280615024,-0.24145791014761003,-0.15159193777927954,1,right
18.034000000000002,-0.18054761674070532,1.076181837887618,-0.0502566300462998,1.1408539684770689,0.1929550493866861,-0.36139558553851187,-0.07207744106413785,-0.24168737048482344,-0.15217061816689165,1,right
18.039,-0.2343424115591241,1.0850365203641417,-0.02810300273425076,1.1569625605794034,0.18541243382755634,-0.35529800118202914,-0.07170835999705344,-0.24128295655531282,-0.15116695737014826,1,right
18.039,-0.2837354681824896,1.083305377130416,-0.0024155180963228934,1.1444053023244878,0.19128681359269856,-0.3600649385935094,-0.07203501546584984,-0.2416747345762241,-0.15211239231503015,1,right
18.043,-0.32784465672284585,1.076225629077357,0.01468289142120924,1.1512160667358255,0.18811917882635193,-0.3574387869121851,-0.07183996874619597,-0.24139694112687005,-0.15147379279800507,1,right
18.044,-0.36887541867577534,1.0668719558821542,0.023406783762366733,1.1495660909278005,0.1888426625654614,-0.35816938687755007,-0.07190636146493068,-0.24153052086703114,-0.15175708087266193,1,right
18.048,-0.4046967907202693,1.0593717206831434,0.030454226477837507,1.1479432847043287,0.18968306310344235,-0.3586121695289646,-0.07190547093303032,-0.24153027079863068,-0.15175587630231885,1,right
18.048,-0.43908151712938265,1.0545872753010053,0.04132031791678937,1.150839292627467,0.18822881670976715,-0.3577238381167923,-0.07192500510832556,-0.2414231079418344,-0.15159183102165907,1,right
18.054000000000002,-0.46449328831900966,1.0503135139731752,0.05498455332046762,1.1480926751407172,0.18959289217314063,-0.3585990641981437,-0.0718201301364845,-0.24160857072347308,-0.15181405814144144,1,right
18.055,-0.4770849118568154,1.0478443773355726,0.0640261818790962,1.1500497114140669,0.18867919200255034,-0.35785188642535387,-0.0720261939186213,-0.2413808418634513,-0.15160824998114825,1,right
18.057000000000002,-0.4893090226412093,1.0462378709107973,0.06644503294320558,1.1488769736827216,0.18907712985145553,-0.3586160968812065,-0.0717775285431813,-0.24159497720220294,-0.1517541722812928,1,right
18.058,-0.4992766062498382,1.0418316036935722,0.06379298845432625,1.149605847093771,0.18907952040756176,-0.3576133487230674,-0.07193047120901853,-0.24148044286794199,-0.1516933193330376,1,right
18.063,-0.4980662230753138,1.034064105225216,0.05599460796972337,1.1489855038900778,0.1888576388682376,-0.35893099338421675,-0.07206618177976815,-0.2413853466834469,-0.15165071268587632,1,right
18.064,-0.48346575906878897,1.026944755690738,0.05023305074878915,1.1495602295018863,0.18913471028293324,-0.35755976873540884,-0.0714611265990403,-0.24179018303442357,-0.15180909029967482,1,right
18.067,-0.456621763180999,1.0233815679759872,0.04647818359436347,1.149364884385541,0.18891063878578152,-0.35829929277887596,-0.07259385211972308,-0.24105006809309662,-0.15154230867972202,1,right
18.067999999999998,-0.41907088152760963,1.024817740768676,0.04087278461502851,1.1485177962102917,0.1890348397636946,-0.3591974139567679,-0.07113201104964885,-0.24199298479852938,-0.1518662520020163,1,right
18.073,-0.3764789682237157,1.0295843397839972,0.04072109238407201,1.1511152238016014,0.18901037409983645,-0.3556940222901084,-0.072355644291787,-0.24120920762015866,-0.15160387681642074,1,right
18.073,-0.32805051202033453,1.0342124021170367,0.033307279942104084,1.146497440479414,0.18896245214957033,-0.36211337482000816,-0.07232297866480283,-0.24123028550677303,-0.151612321957504,1,right
18.078,-0.27422907132469787,1.0398555295353382,0.013387615721453432,1.152383728760961,0.1890443826861874,-0.35388886802859976,-0.06998293366566022,-0.24271949040719404,-0.15209485439344084,1,right
18.079,-0.22663159475903502,1.0458786190004656,-0.004768844026457112,1.1474850164335382,0.18896844718597305,-0.3607466183006636,-0.07573624831902617,-0.23906208278386468,-0.15091296238766846,1,right
18.082,-0.17037652846332726,1.0539064991799174,-0.027138998610459993,1.147553920822355,0.18900096761316304,-0.3605911538120896,-0.06619504209589497,-0.24512355043946257,-0.15286790516062115,1,right
18.083,-0.12990488766660246,1.061549170704505,-0.042203006475769654,1.157109616905243,0.18904371444734397,-0.3474190462348914,-0.0787813374519579,-0.23713055472307662,-0.15029294510967015,1,right
18.084,-0.1226407652127564,1.0631516782516417,-0.04487167491712671,1.133692102488224,0.1889048277782968,-0.3797558400236405,-0.13161828263159328,-0.20356911374217707,-0.13950607583646224,1,right
18.087,-0.0864217988910847,1.0679179655055846,-0.05523910603799441,1.1725089856916062,0.18914118070192057,-0.32615387195673007,-0.14420601833921207,-0.19557692296815188,-0.13693499532990566,1,right
18.088,-0.05058010551940359,1.0731560803155058,-0.06243154553991489,1.1212991215912516,0.1888330204580384,-0.3968474092273911,-0.13466227301429617,-0.201638679772231,-0.138882465247843,1,right
18.092,-0.04820845807697946,1.0722461532344183,-0.0611517774797233,0.9063123923871237,0.18756258829522,-0.6936562283845475,-0.14041846875455177,-0.19797683200659422,-0.13771057851248789,1,right
18.093,-0.026191728717103506,1.0776635836419843,-0.06687675185087395,0.8550621508753613,0.18726973361034976,-0.7643362533108402,-0.1380764314971512,-0.19947739670656217,-0.13818311626340724,1,right
18.093,-0.0030357606867044,1.0896118707960234,-0.08435732114859501,0.893937836901061,0.18748417957959074,-0.7107570520678312,-0.1380432680428984,-0.199479691552097,-0.1381970873682134,1,right
18.097,-0.003804931781167299,1.1091035808628564,-0.1045231751709576,0.8704833924433417,0.1873579351592058,-0.7430705480193392,-0.1392714457141794,-0.19871831497342834,-0.13793958239047055,1,right
18.098,-0.012090160791050505,1.1373659426713756,-0.11758010635209748,0.880004566964331,0.18741656445217486,-0.7299094398212536,-0.13780029413050537,-0.19964458394734408,-0.13824269500620295,1,right
18.101,-0.024383559321818328,1.1569048787106122,-0.1340411587660107,0.880221495739177,0.1873888254408556,-0.7297700546368135,-0.1389459236451921,-0.19890114514907634,-0.1380145793805977,1,right
18.102,-0.0356714222934896,1.168369912833866,-0.14664628792513934,0.8750515019288296,0.18742017544562353,-0.7365729284118641,-0.13832838509258433,-0.19934448640935104,-0.13812245603916234,1,right
18.105999999999998,-0.04916299097678657,1.1748380968652543,-0.12947822542483778,0.881281686135195,0.1873691823986814,-0.7284428180261455,-0.13846908128680907,-0.19916700838362392,-0.13812488251660704,1,right
18.107,-0.07044344245018379,1.1664030150216407,-0.0877748390561302,0.876378547878889,0.1874270646802428,-0.7347476202107392,-0.13863342707522358,-0.19917076857819163,-0.13805321114512809,1,right
18.111,-0.09766208314950778,1.1519953588341794,-0.038449096438946014,0.878996294927576,0.18740509605199263,-0.7313332762560015,-0.13834954345619085,-0.19926485842286618,-0.1381415174785523,1,right
18.112000000000002,-0.12677090306123584,1.1416184314488729,0.009102711609844017,0.8786267079757555,0.18732919485911803,-0.7322371761410799,-0.13861537503527893,-0.19909526472313546,-0.13808751386472484,1,right
18.116,-0.15351370413625764,1.132908008026897,0.03776871987171743,0.8773004193219289,0.18755892275068015,-0.7328006447322559,-0.13843811057964048,-0.19936778989921472,-0.13806744222821254,1,right
18.117,-0.17621249949476575,1.125957843529975,0.02658963666396108,0.8795902973789613,0.18716332840243058,-0.7318218294415892,-0.13851396480621034,-0.198954094024603,-0.1381805228721655,1,right
18.121,-0.19093752483529958,1.1250622255559022,-0.016725434932539182,0.8771138962518035,0.1876505795474032,-0.7325632652588316,-0.1385167357927074,-0.19949762162659102,-0.1379881519720032,1,right
18.122,-0.19254068793212076,1.1372434102721094,-0.059580304150806354,0.8789508652342458,0.18726147454705613,-0.7321615053248512,-0.13847139496868413,-0.19894514097862998,-0.13820190497840745,1,right
18.125999999999998,-0.17875355238006652,1.1643156111268542,-0.08176676693405094,0.87864296301431,0.18725589677749874,-0.7326047747868578,-0.13852596011154295,-0.1992463251566089,-0.13807254049427803,1,right
18.127,-0.15247511971398153,1.197479513083413,-0.07710378644543875,0.8765828082697302,0.1879862353682452,-0.731491188381987,-0.1384848076318233,-0.19956203582598236,-0.1379792515986798,1,right
18.131,-0.11937515165527798,1.2328567361072884,-0.0691112242615752,0.8814661176550707,0.18631864477779997,-0.7337952610603269,-0.1385022821466051,-0.19828377755370596,-0.13842119103282233,1,right
18.132,-0.08229951629297524,1.2726554061158293,-0.07831607108462907,0.8742211041766591,0.18880627630583915,-0.7303018897770195,-0.13850819416490423,-0.20062991772846483,-0.1375935950908253,1,right
18.136,-0.04610056186534252,1.3062457665992437,-0.0868475266705004,0.8818912911948604,0.18615453796927137,-0.7341003765350411,-0.13848694734096645,-0.19762609747228882,-0.13865925099303844,1,right
18.137,-0.019508571702055794,1.3238682109644646,-0.0915157024353205,0.8774577571322988,0.18768594627687674,-0.7319059728940489,-0.13851020042388212,-0.20013023841297384,-0.137768172011423,1,right
18.141,-0.003402266564872373,1.3256468578248188,-0.10014684552044184,0.8737588177384885,0.18900914910035752,-0.729851058066568,-0.13850135038346584,-0.20006789974757377,-0.13779464661119323,1,right
18.143,0.008958110204640681,1.313909692401695,-0.11480522853102544,0.8901090444304149,0.18322413113948355,-0.7386340699221888,-0.138479095257377,-0.19527845801292426,-0.1394876189925218,1,right
18.145,0.020324065608603146,1.2964119166617558,-0.11763442864184318,0.8597766235919182,0.19395035745649758,-0.7223552750797275,-0.13854520599290626,-0.20704262976556514,-0.13532279923067567,1,right
18.146,0.026671124675691767,1.278379632503733,-0.09188272237845996,0.8987181111488893,0.1801793870477738,-0.743272931430528,-0.13843192476749686,-0.18753976070041056,-0.14223004981862708,1,right
18.151,0.02735128065365808,1.2683078916675141,-0.07627748230217965,0.8662077811913187,0.19167305144270086,-0.7258017741447507,-0.1385818539598507,-0.21326328449252013,-0.1331182681726838,1,right
18.152,0.027085049665399888,1.2665047829722726,-0.07806418844839472,0.8671108518171451,0.19136910480878394,-0.7262616150629606,-0.13921878928081294,-0.3212364724529768,-0.09488215047114087,1,right
18.154,0.025175584423436134,1.2592831603508836,-0.06319431997041786,0.9290225960249446,0.16943573645852633,-0.7596392139907648,-0.13936688695211152,-0.34696062810076544,-0.08576897613669987,1,right
18.156,0.02169573304018492,1.2516410686898138,-0.05249367578554184,0.7768201926094604,0.2233308974097522,-0.6776056263541714,-0.13925453985057212,-0.32745773970731906,-0.09267794680156548,1,right
18.157,0.01646233155572821,1.2486420729552683,-0.06867086679545725,1.0291940658489742,0.1339811179092332,-0.8136288761986464,-0.13932511438355358,-0.3392192984936009,-0.08851294468190127,1,right
18.16,0.00982590916478179,1.244578756064464,-0.08427393575565681,0.6963008449512267,0.2518221149663432,-0.6342041153242782,-0.13928863734385677,-0.33443697527027455,-0.09020247628904274,1,right
18.160999999999998,0.009406562577899265,1.2441286453888907,-0.0874811076558374,-0.7007934007227445,0.7465835261233218,0.11889892060688581,-0.1393052776737831,-0.3343625608970119,-0.09023739458898908,1,right
18.160999999999998,0.008817843154852189,1.2510473540477227,-0.09078454043378392,-1.0337100146975713,0.8644064041446248,0.29834108887067945,-0.1392960737544413,-0.3368814214403836,-0.08933337606768815,1,right
18.165,-0.004674590101226055,1.264559464507003,-0.09552610305067158,-0.7813131557188266,0.7750762164903513,0.1622957956234508,-0.13930203727830123,-0.33386618431383763,-0.09041295752744717,1,right
18.166,-0.030395481731731934,1.2832940246267595,-0.10858657676686463,-0.93349770123986,0.8289788749797278,0.24433358921664033,-0.1393056976958597,-0.3362112326568325,-0.08957742084335485,1,right
18.17,-0.0640160742731535,1.304947486096217,-0.116016423048449,-0.8716868824842141,0.8069803937327116,0.2109950250826327,-0.1392779411062172,-0.3349566450725675,-0.09001185430062097,1,right
18.171,-0.09770115159300302,1.3267554364541427,-0.10851306745319411,-0.8705779956559624,0.8068164882514466,0.21043553757007083,-0.1393448738856151,-0.33521996226875217,-0.08995040345295707,1,right
18.178,-0.12123826741062915,1.3450688062754654,-0.11977897469284987,-0.903374346933417,0.818109408058472,0.22806210448600686,-0.1392345594462006,-0.3355978787831503,-0.08976183237496345,1,right
18.179000000000002,-0.13177984729563796,1.3572941648815742,-0.13911388341568748,-0.8641593809128056,0.8045382798920577,0.20697403229633096,-0.13936888583509904,-0.33496561278350623,-0.09005286491421413,1,right
18.18,-0.13562591302343102,1.364959608240196,-0.13120495769356458,-0.8945887452055747,0.8151783847141145,0.2233554406145294,-0.13926230660463831,-0.3355512566993689,-0.08979198280529296,1,right
18.18,-0.1420629155745545,1.3720376828863488,-0.10736191586842765,-0.8785218813290384,0.8092215139278914,0.21465175136055006,-0.13925915972292963,-0.33518742046410444,-0.08992034006248387,1,right
18.185,-0.1553376759272943,1.375775465858218,-0.09167337942245511,-0.8813915039641064,0.8110978787446416,0.2163358632602699,-0.13946384668897643,-0.33526825073309785,-0.08999095517296074,1,right
18.186,-0.17188967221845713,1.3772322388386415,-0.09354417302257789,-0.8872066047088538,0.8116764063371695,0.21923461188588664,-0.13899825890352996,-0.3354470259098625,-0.08970089796376365,1,right
18.189,-0.18624265896545894,1.3795786014012021,-0.09948196276834675,-0.8778911928402333,0.8101938360752887,0.2145022444887718,-0.1396922945624579,-0.3350932219824567,-0.09016441460227267,1,right
18.19,-0.19366258031156747,1.376406680545537,-0.09794457364692785,-0.8863727329073534,0.811749732062869,0.21884390387710084,-0.13895256023502017,-0.33548667217335226,-0.08966457981289223,1,right
18.194000000000003,-0.18771664422704132,1.3691526812449353,-0.09182796898655805,-0.881673345119165,0.8100729596105772,0.2163086034789661,-0.13937978458301403,-0.3352336029020543,-0.0899624147361184,1,right
18.194000000000003,-0.16998850001301685,1.3619110129587404,-0.07411619189905488,-0.8810422567059957,0.8125343684559803,0.21639568505797335,-0.1397489443020258,-0.3351426781754806,-0.09017435378474713,1,right
18.2,-0.14783806901688698,1.3529583013615107,-0.04587380511105055,-0.8871867979787111,0.8085743136504482,0.21873162175428618,-0.13813483342506305,-0.33574905712688563,-0.08917352775694132,1,right
18.201,-0.12201493141908137,1.3457502302991529,-0.021134938356316958,-0.8768941739937459,0.8140833674744361,0.21463969794666327,-0.14112787969197066,-0.3345866899190848,-0.09104274004252351,1,right
18.205,-0.09492587495086133,1.342374291578544,-0.00656082650096808,-0.8880758965702917,0.8082846080446074,0.2191148418691972,-0.13728482580216259,-0.3360879998387599,-0.08863969843025639,1,right
18.206,-0.07136057848368582,1.3403507461689634,-0.0062091457812895445,-0.8812840236798607,0.8115183463048179,0.21635052282338632,-0.14049301457668392,-0.3348306856696374,-0.09064694596445261,1,right
18.211,-0.05172227770067617,1.3386941605848652,-0.01859269069083138,-0.8770696509171249,0.8148852625225456,0.2148521835960403,-0.14040663386948088,-0.33487903263786845,-0.0905883066054621,1,right
18.212,-0.037513692573254306,1.3394684340772913,-0.03400735809305877,-0.898198533829565,0.8010976291271569,0.22285756107678256,-0.1342881091947319,-0.3372306230766837,-0.08677530932270691,1,right
18.213,-0.02894706022031928,1.344682524069262,-0.03789384240205836,-0.8585305098420066,0.8264966947801955,0.2077501508041837,-0.14932584040614588,-0.3314327707625974,-0.09615200161910986,1,right
18.214000000000002,-0.02318858418764365,1.3529376680151455,-0.022645614818208218,-0.9095745416444789,0.793920164930715,0.22720749152171493,-0.12439319725301562,-0.34105176973800827,-0.0806040972851241,1,right
18.219,-0.020574608864445107,1.3593801615218393,-0.007575051130464567,-0.8669169340075539,0.8211031313027239,0.2109396930751845,-0.1572786456410634,-0.32836210293348234,-0.10111132947098184,1,right
18.22,-0.021071266051127344,1.3610676783941331,-0.005249856893312655,-0.8682393177256388,0.8204224925046608,0.21147132330749277,-0.2953216408669039,-0.2751384090021238,-0.18718909433088307,1,right
18.221,-0.023174121613846223,1.362996297854253,-0.002335388752682784,-0.9490272235591631,0.768404944825811,0.2421913704662953,-0.3282061688409752,-0.26244709760005935,-0.20769496542735133,1,right
18.224,-0.02677395239443236,1.364552173987212,0.00655346832681057,-0.7502637985724643,0.8961970437594613,0.16657744276311695,-0.3032745216214048,-0.27206787607435934,-0.19214853214404257,1,right
18.225,-0.029413665618191632,1.3589932975660912,0.015936859569686913,-1.0798719888370638,0.6843220962201975,0.29197685813012747,-0.3183126312022774,-0.26627069996331443,-0.20152579004191457,1,right
18.229,-0.03063057378541409,1.3536221811276161,0.019143180487370577,-0.64511850094578,0.9637916968204084,0.12657296831584336,-0.3121908040481959,-0.2686163892538645,-0.1977078965930423,1,right
18.23,-0.030111215129093406,1.351648191494819,0.018524318557654906,1.1795262380682658,2.1368993719146765,-0.5675759977283684,-0.31211152955502897,-0.2686774340224466,-0.19765978434292297,1,right
18.232,-0.023873186866562562,1.3414928654334264,0.02161281267435872,1.6142544784240331,2.416400208264167,-0.7329703876781608,-0.3153095290499752,-0.26740191319585693,-0.19965194423244736,1,right
18.234,-0.011771681388399565,1.3240121229912105,0.026744024839833815,1.2846753548245538,2.2044801166599837,-0.6075802160372403,-0.31147662206907106,-0.26892135388153665,-0.19726391915399244,1,right
18.235,0.005378966544114105,1.3060862001199505,0.032763296817445164,1.4834429687616155,2.3322995607657226,-0.6832017171130997,-0.3144652891802,-0.26775116221956263,-0.19912666621846195,1,right
18.239,0.020721124764428042,1.2883875383418117,0.03502674422871464,1.4025772350008312,2.280311241569358,-0.6524400219527443,-0.3128424672284753,-0.2683419752133095,-0.19811291274482024,1,right
18.24,0.02763141760790768,1.2750607801372302,0.032241057600513184,1.401430847326195,2.279512349205917,-0.65199295590025,-0.31323969148401704,-0.26830119811421344,-0.19836643860943187,1,right
18.244,0.031146907415573306,1.265790288541046,0.03562772249995512,1.443829275356744,2.306909194345604,-0.6681435470939888,-0.3136185573385022,-0.2679617193472516,-0.1985926495438765,1,right
18.245,0.03040947099235675,1.2576487037730297,0.0426147628949981,1.3930518728585963,2.274064314107182,-0.6487978729498898,-0.312938173255777,-0.26846121887030083,-0.19818068153913374,1,right
18.249000000000002,0.023818942130550656,1.253102692673361,0.04128565511431563,1.432588990946626,2.29968199709944,-0.6638664745078732,-0.3135848886857483,-0.26802286250387386,-0.19857419703955614,1,right
18.25,0.014429440922201605,1.2470997695506294,0.03169039094845817,1.4112676979372871,2.285887845350592,-0.6557436081919445,-0.3131188868980812,-0.2682008952040881,-0.1982833997552682,1,right
18.253,0.004023238163580644,1.2364065525444259,0.022759935507468736,1.4161647472740924,2.2888681399590887,-0.6575832548436356,-0.3134113700608654,-0.2684386071746413,-0.19848418514220986,1,right
18.254,0.0014019167143049446,1.2256733680060077,0.025938722616231563,1.421744653936271,2.2929994134264806,-0.6597805776168842,-0.31320756568855634,-0.26771622409190604,-0.19831527094582702,1,right
18.258,0.008336955907939304,1.210315932758995,0.041951607629913366,1.412088205125976,2.2858535099868904,-0.6559788884280578,-0.3134003460850535,-0.2688367776634184,-0.19849770043573506,1,right
18.259,0.017634267131296517,1.1931511469858926,0.05523526557498196,1.4211082248381257,2.2928034258169516,-0.6595673426306095,-0.31321553411832526,-0.26763426564020865,-0.19831635950146165,1,right
18.262,0.0298795454238143,1.1826655560714765,0.05304183755768142,1.415082566424804,2.288011900949221,-0.6571499549235267,-0.31328963940093973,-0.2683416996864547,-0.19840036822033325,1,right
18.262999999999998,0.043240278174156765,1.1729596371111959,0.0423544204466055,1.4177765845154986,2.2897360006798113,-0.6581737088560726,-0.3135154810339015,-0.2688889815840505,-0.19857501545728037,1,right
18.268,0.052101123902096036,1.1669009873775853,0.0312323622720348,1.4175251894572094,2.2912763022698295,-0.65831003925171,-0.3127921257067359,-0.2663914435509003,-0.19797854155720587,1,right
18.269000000000002,0.05877590327964741,1.1688163854660192,0.0227902822724857,1.4166189552725563,2.286803936921823,-0.6574352306696071,-0.3140858375890675,-0.27104163441179485,-0.1990538478351223,1,right
18.273,0.06666458505882683,1.169178558947371,0.02120785519733778,1.4176264801851872,2.2932546238295246,-0.6586092233369403,-0.3124352572918091,-0.2650664015340517,-0.19768079172077413,1,right
18.274,0.07583860748358764,1.1687705289373465,0.012218761961314547,1.417009190366719,2.2866716503715954,-0.6575315045193086,-0.313809095604085,-0.27005653527940493,-0.19882292250572803,1,right
18.277,0.08244793756327037,1.170894942804522,-0.003527625513285219,1.4173705608327172,2.290478334317326,-0.6581559932148335,-0.31378813030556973,-0.2699149446733178,-0.19880578435556523,1,right
18.278,0.08536450526425246,1.171988009535366,-0.0037069107533035653,1.4166700203900964,2.2931091044943277,-0.6583093055240642,-0.3111148670395238,-0.2604210991152034,-0.19658575194965133,1,right
18.284000000000002,0.09189534117537257,1.1734845432194307,0.0059222215131059745,1.4184262316200145,2.280753520023536,-0.6571400929838006,-0.3176667121180986,-0.28376356893820476,-0.20202324360276985,1,right
18.284000000000002,0.10163337197812747,1.1769083300229728,0.011686280178334696,1.4152339947193564,2.303708736817259,-0.6593330495277245,-0.3068077919292287,-0.2450586019624303,-0.19301596119455797,1,right
18.287,0.10618293117407002,1.1797967879148623,0.014283659720324663,1.4194175789236927,2.274287276087534,-0.6565492517339919,-0.32113099072055706,-0.2961105473851352,-0.2048910733957956,1,right
18.288,0.10642183277041539,1.1800530453090716,0.013966400743350836,1.4158855685822123,2.2988251291408175,-0.6588586648265513,-0.38126797317598504,-0.5103896111616104,-0.2548112267954516,1,right
18.289,0.11517534398247634,1.184477078045137,0.0029653866692880134,1.4158775696398638,2.2980922673297153,-0.6587556955707072,-0.3955945007059861,-0.5614410472491471,-0.26667895075121206,1,right
18.293,0.12978927014103628,1.193257588224471,-0.01595139647171228,1.4230590063123776,2.2515967797999163,-0.654525049126357,-0.3847319776286929,-0.5227366313983952,-0.2576796575453051,1,right
18.294,0.14310320784039943,1.2005700033707456,-0.03232041507404187,1.4054840669917983,2.365928265148173,-0.664953626098963,-0.3912824579504868,-0.5460793106051718,-0.263120204984123,1,right
18.297,0.1666908048841694,1.216014380135523,-0.05232384365946317,1.4346327053018157,2.1763688385877162,-0.6476666598968054,-0.3886211308140812,-0.5365836375272164,-0.26087362497600586,1,right
18.298,0.1841953076628009,1.2300748052299264,-0.06621867967020388,1.3961641519174537,2.4263739821507686,-0.670455681309655,-0.38857447655551336,-0.5364459793402534,-0.260913585869786,1,right
18.299,0.19018960964580567,1.2339200041229166,-0.06957305282702272,1.2346353908225502,3.475442840625578,-0.7659523177778337,-0.38998515312436133,-0.5414304745707783,-0.26197386540455503,1,right
18.302,0.2119374272628241,1.2482082312557476,-0.08375451635028514,1.196176253480496,3.7253811710397797,-0.7887101274111321,-0.3882978827407183,-0.5354608567565456,-0.2606822945769791,1,right
18.303,0.23824522411456803,1.2691637912039502,-0.10428709931314674,1.2252792592848138,3.535950991562366,-0.7714815284901644,-0.3896074384750292,-0.5401086243025636,-0.261722481345966,1,right
18.307000000000002,0.258727321714654,1.284197169019694,-0.12464369305388914,1.2078259927683497,3.650108217416732,-0.7818358214653207,-0.3889155599544497,-0.5376062657443114,-0.26105594316957403,1,right
18.308,0.2781730704256035,1.2965428302080058,-0.14649337275940866,1.214782392454056,3.6037888791079635,-0.7776727816572704,-0.38903995558230453,-0.538169077932531,-0.2614561285566047,1,right
18.311,0.2921072320085213,1.3062399904727786,-0.1611337336357411,1.2150856804923498,3.602954876194252,-0.7775443456915965,-0.3892888852149492,-0.5388497514814228,-0.2611516155078607,1,right
18.312,0.3072744433377494,1.3132740398029363,-0.17106373739358144,1.2112457711116598,3.627415285924347,-0.7797942025967012,-0.38888948954574065,-0.5376800825239012,-0.2614469927060379,1,right
18.316,0.32452060709769937,1.3164457591595122,-0.1793737391832601,1.2155630735725103,3.598348807398936,-0.7771897089225195,-0.3892533917959079,-0.5387744501909467,-0.26124950216471865,1,right
18.317,0.3414331060885628,1.3191338913331228,-0.1868861021707982,1.212634144603546,3.620634885617522,-0.779082470328895,-0.38905100799609316,-0.5380518379515484,-0.2610768738253787,1,right
18.322,0.3617371155783189,1.3231614631816193,-0.1978026269577757,1.2135359275075954,3.609163365274716,-0.7782727298678895,-0.3890261736765143,-0.5383381344044782,-0.26198344380455585,1,right
18.323,0.3842113617653183,1.325117186462121,-0.21034843225987646,1.2143151507180012,3.6109917368807203,-0.7781514198230477,-0.3892855372753945,-0.538405127781303,-0.2600802898970525,1,right
18.327,0.4037642842952617,1.3289456332047245,-0.22154233519964747,1.212849564893613,3.6150196593212103,-0.7787475763565228,-0.3888499735105744,-0.5381324301604378,-0.26287870178181494,1,right
18.328,0.41811347215711464,1.3346540725423184,-0.22896572890255418,1.2137062946309223,3.609398774513551,-0.7782373293287201,-0.3893235109855332,-0.5384553260171467,-0.2599036423655671,1,right
18.332,0.42904531269476587,1.3383896617527125,-0.23437436531678008,1.2146873423869953,3.6132388804493956,-0.7781628687384281,-0.38903533090868403,-0.5382179004194871,-0.261609788836355,1,right
18.333,0.43139968590868594,1.3446921364955802,-0.2383823176165106,1.211134154553044,3.6129886156565068,-0.7791099464308451,-0.3888585100910504,-0.5382650607383972,-0.2631422774554351,1,right
18.335,0.4238087979192531,1.3514395925295009,-0.2375506175053228,1.2170084792682228,3.6096313260379445,-0.7773569528373635,-0.3897500147346715,-0.5384709438625773,-0.2565379441783202,1,right
18.338,0.4089341628074087,1.3553092279345456,-0.2333998780348518,1.2104941845729456,3.614853847171686,-0.7793758997288291,-0.38807499177078664,-0.5380146393906382,-0.2687656645014217,1,right
18.340999999999998,0.38753727279375405,1.3647018021523083,-0.22572445654143453,1.21438574398814,3.6109965825124437,-0.7781318462582151,-0.39023133361395235,-0.5386173830795902,-0.2530713000028134,1,right
18.342,0.36852612416257013,1.3774433813271805,-0.21590782323192553,1.2174734197803776,3.6094408130842743,-0.777223925526078,-0.38842796985036715,-0.5381072123754955,-0.2661681587215773,1,right
18.345,0.3423824210227967,1.3916307516917645,-0.2084590250028635,1.2033966263430278,3.6199842375635574,-0.7815445212808609,-0.3884869438432348,-0.5381474351454549,-0.2658289776206869,1,right
18.346,0.30826640108721715,1.4093522328716666,-0.20564705598894192,1.2296652981134286,3.5993418860119455,-0.7734298329628855,-0.3918948081990151,-0.5390340114531974,-0.24081389453393173,1,right
18.351,0.2751393555042554,1.427019954482803,-0.2097680719193185,1.195864944501933,3.6263324469121945,-0.7838965127323657,-0.38350427509048424,-0.5368233723539388,-0.3022720298160144,1,right
18.352,0.2243243935794338,1.4491385624790314,-0.21342715986690075,1.224108804585482,3.6035896127709015,-0.7751350540651032,-0.3974228089550599,-0.540497344814524,-0.200387705532736,1,right
18.355,0.18273517124183938,1.4642567865067981,-0.2099417478685448,1.2233310316702122,3.604391969327729,-0.775399094499038,-0.3790596904996304,-0.5356500059593957,-0.33475814754027333,1,right
18.355999999999998,0.1691699313921086,1.4670246208509148,-0.2072169486509033,1.1694925976449304,3.6474073673126473,-0.7920497805125248,-0.30204236308065585,-0.5153493928201864,-0.898949028195043,1,right
18.357,0.12948072102868535,1.476481326452498,-0.19451102001779746,1.3018414880646816,3.541344000890186,-0.7510737589268794,-0.2836726474265705,-0.5105039855034041,-1.0332964183434752,1,right
18.361,0.05961590596742396,1.4877782759284952,-0.15803927419327657,1.082399159878081,3.7173676182896482,-0.8190441392134216,-0.2975983198802813,-0.5141758674852949,-0.9314370356680588,1,right
18.362000000000002,0.01865238903686701,1.4909938491492454,-0.13214468281958663,1.3718321572284777,3.4851056684210366,-0.7293682859593575,-0.2892104984592006,-0.5119644359811117,-0.9929046530832152,1,right
18.365,0.004987247000092057,1.4923905165028473,-0.12604410603262528,2.5869776537309113,2.5103106021078054,-0.35314118402469824,-0.29259469250234704,-0.5128579393721615,-0.9678068470506209,1,right
18.367,-0.03914201094863809,1.4935096254878573,-0.10733768935909543,2.8763807771153496,2.277985702821778,-0.26343393600519244,-0.2927046002908733,-0.5128832543353257,-0.9676456596215903,1,right
18.367,-0.10175443917746738,1.4938485468059126,-0.08816721968931322,2.656963441900793,2.45412506691688,-0.33144262300297295,-0.290828204493219,-0.5123944610531947,-0.980487307681234,1,right
18.37,-0.1483538521105988,1.4945965332876416,-0.08147946924455049,2.7893505837716357,2.3479188629758925,-0.2904641490549025,-0.2930572751304948,-0.5129759139787293,-0.9650470845472924,1,right
18.371,-0.1946890687938897,1.493991110157048,-0.07821676493711865,2.735351419617784,2.391056219861546,-0.30703385224819285,-0.2913508633706702,-0.5125288022279177,-0.9771651386486591,1,right
18.375,-0.23674673809717,1.4919640039010529,-0.07955308917769366,2.7348837262584578,2.39182856535956,-0.3074933072581644,-0.29217993261446784,-0.5127529538073261,-0.9703425917739025,1,right
18.375,-0.26402308309854405,1.4891355369519796,-0.08160614815618356,2.762711617438079,2.3689427055061287,-0.2984347154685357,-0.29220426374092756,-0.5127412420379535,-0.9725780416359815,1,right
18.38,-0.2842160645134144,1.4821513070541705,-0.08212428572576612,2.729289731960783,2.3963080792060927,-0.30921844673382626,-0.2915694733327616,-0.512605269313839,-0.9730729368715055,1,right
18.381,-0.2990515213602893,1.472400372159063,-0.07318831464945214,2.7554614848681815,2.3750724874419173,-0.3009276487137654,-0.2924684067339597,-0.5128036424071547,-0.9715844071224731,1,right
18.384,-0.30943341074556086,1.459996829263603,-0.05112672109265619,2.7409067404280805,2.3862883275311884,-0.30506655941102123,-0.2916936697425927,-0.5126302422214352,-0.973197655031837,1,right
18.385,-0.3170855526433827,1.4445871447917051,-0.023998855152839726,2.745270867669354,2.3842771611906053,-0.3048997225157676,-0.29195007301371323,-0.5126980701380106,-0.9712840100830828,1,right
18.39,-0.3221241031540418,1.4307758520023022,0.010148894973316336,2.747112475192358,2.380233236091062,-0.302290270355029,-0.2925545117751101,-0.5128002123386801,-0.9743897691354239,1,right
18.391,-0.3260179257309568,1.4169326144577998,0.04895802020417837,2.742955234725102,2.3867167677493146,-0.30607890429783435,-0.29091391682329903,-0.5124985451031847,-0.9691911342285005,1,right
18.395,-0.3333921303629964,1.4038410056574748,0.09087342251408795,2.7471876931720374,2.380811673479883,-0.30277452496514967,-0.29342348688592274,-0.5129648581501884,-0.976491731657001,1,right
18.396,-0.34715313489984934,1.3962508393169895,0.13413552561263886,2.7430733464735586,2.384091295518896,-0.3040313884486874,-0.2907366475674307,-0.5124647996438432,-0.968793842720161,1,right
18.4,-0.3664357672430191,1.3937575534511537,0.16539932622786024,2.748355595587788,2.384505927125293,-0.3060931727773964,-0.29230743472168463,-0.5127584249767421,-0.9731079968942973,1,right
18.401,-0.39095424352789515,1.3951563581229882,0.18067592343777333,2.740372815403617,2.3802770029846156,-0.300114594489446,-0.29357078118492275,-0.5129880483923474,-0.977489156512672,1,right
18.404,-0.4204559568090954,1.399791603897478,0.18091586146911381,2.751303150426991,2.387371365664923,-0.30933710030669637,-0.2878932048890779,-0.5119448459678672,-0.9593990534348257,1,right
18.405,-0.45036304421722717,1.4056088177035528,0.16734772759821678,2.7398322864514064,2.3796627721353563,-0.29944892376520554,-0.29844925293065905,-0.5138861881626603,-0.9927518134367668,1,right
18.41,-0.47916388944067795,1.411341394673045,0.14609168759041213,2.7461744253879075,2.3843471521333663,-0.30525213856356637,-0.28488856161382625,-0.5113921656057778,-0.9499689041307843,1,right
18.41,-0.5082615969524864,1.4175444000142616,0.12043187504738993,2.7530610111457223,2.3872425850843593,-0.3098107143332968,-0.29621247333763107,-0.5134744364178387,-0.9856688626707097,1,right
18.414,-0.5311981103781149,1.4223603663714433,0.09169622315934367,2.725242130123236,2.372701729779611,-0.28913269566019784,-0.2958958213312274,-0.5134168131972289,-0.9847697069083764,1,right
18.415,-0.5455005659900098,1.4246142851087653,0.06472918162862516,2.7764174726566933,2.4000039480999495,-0.32761254862385514,-0.27433602582678557,-0.5094514861239144,-0.916475988286688,1,right
18.419,-0.5522860412351287,1.4254536512782647,0.04325462502478665,2.710793878578773,2.3648728777809556,-0.27817152323849625,-0.32733994914495534,-0.5191983591268639,-1.084255330734464,1,right
18.419,-0.5503362129135525,1.4241264045277195,0.02563454909696927,2.765551107973098,2.3942295669701643,-0.31946179967159416,-0.23945312922748074,-0.503038406381813,-0.8060888185798301,1,right
18.423,-0.5467952174572741,1.4210463861864233,0.017583363421733614,2.7641934065483484,2.39332448622547,-0.31829265702841614,-0.35537640852291974,-0.5243521833729653,-1.1729884696507706,1,right
18.424,-0.544978995453197,1.419329915531364,0.01710946464409817,2.659354421712777,2.337716279154916,-0.23972424377070797,-0.84192403049285,-0.6138478237701686,-2.7131089044118823,1,right
18.425,-0.5393898605071451,1.4147321275617268,0.01703177057013258,2.916908336411868,2.4745183449902424,-0.43290163934337944,-0.9578451438522265,-0.6351625608280309,-3.0800159844076336,1,right
18.429000000000002,-0.5303346158985477,1.401717501923046,0.024244677688920906,2.4898821423274287,2.247669891401162,-0.11258160181622137,-0.8699640374829417,-0.6189971850257684,-2.8018459248221355,1,right
18.43,-0.5247166386261826,1.393122887106127,0.031097365687457114,3.053158952248682,2.546873192931721,-0.5350925653336887,-0.9229569149197955,-0.6287591923725702,-2.9696063059800855,1,right
18.434,-0.522474380676101,1.389945455959735,0.03288779181575118,5.4173169410743025,3.8027372381648528,-2.308404153489737,-0.9014139557309515,-0.6247652954846445,-2.9013720371844176,1,right
18.435,-0.517611890850194,1.3753546301074986,0.041798313132238446,5.980671192646039,4.101907029605185,-2.7309256575602205,-0.9010775189452288,-0.6247477556353662,-2.9003668722209732,1,right
18.436,-0.5138599907726902,1.3545013166047912,0.055922834179049724,5.553561210212603,3.8750948352957497,-2.4105942160075338,-0.9124166354506584,-0.6267896786328429,-2.9362012893918847,1,right
18.439,-0.5124941813408186,1.3319096388034586,0.06952065000036131,5.811083263662685,4.011910677726679,-2.60376727363267,-0.8988572446040325,-0.6243144451333895,-2.8933063927289853,1,right
18.44,-0.5093579072710733,1.3036104983339198,0.0811190443030636,5.706522196047699,3.956182233028188,-2.5252366903122896,-0.9093822007669092,-0.6262873985979345,-2.9266667958039907,1,right
18.442999999999998,-0.5055147722062825,1.2764830362046986,0.08720352837838116,5.704566513377914,3.9555358759287262,-2.5239861526203367,-0.9037738577761381,-0.6251365412493111,-2.9087665878828153,1,right
18.445,-0.49969211788008094,1.2492133820704965,0.0877739441377727,5.760181132349889,3.984521594131707,-2.5653931323667702,-0.9049352134998143,-0.6255555006749658,-2.9126972947615273,1,right
18.448,-0.4901941511778976,1.2165845391854506,0.09287860605756817,5.693703749930101,3.949759950703381,-2.5158358956745683,-0.906613024119524,-0.6256122802649176,-2.9176960512928973,1,right
18.449,-0.4777653108445269,1.1831256983001066,0.10769098685801279,5.745247499790286,3.976902736208903,-2.554365890108521,-0.9038678157917114,-0.6253079545395419,-2.9092552123695796,1,right
18.453,-0.4641852791379921,1.1511617865471897,0.12231382637539134,5.718161745803123,3.962044723324232,-2.5337876670351513,-0.9063148846795539,-0.6257600681597097,-2.917002851972862,1,right
18.454,-0.45209878318139307,1.1190555692006894,0.1324670813049151,5.722686674920666,3.965961934490521,-2.5380247799782163,-0.9049247773743048,-0.6251316821189747,-2.9121426794269687,1,right
18.458,-0.44504238158347653,1.0871034100390629,0.1397200254404879,5.733098075707703,3.9688856766807725,-2.54438188494779,-0.905069198443744,-0.6260095166835591,-2.9136514101190407,1,right
18.459,-0.4426159793300546,1.057196843518284,0.1460800766280646,5.716633177118377,3.963337902628348,-2.533813950302341,-0.9059217371389905,-0.6248967593499924,-2.914781077822254,1,right
18.464000000000002,-0.4413342166859319,1.0312894713526841,0.15495310684929436,5.731545041908946,3.968709443243173,-2.543578386019583,-0.9046220024243872,-0.6260106201384852,-2.9123396241852966,1,right
18.464000000000002,-0.44435909519324235,1.0061079432455133,0.16258833944860612,5.723597642128345,3.9644654246957844,-2.5376046512584525,-0.9056352884569712,-0.6254160553002917,-2.9145801989841775,1,right
18.468,-0.4517759958835702,0.9807422022320962,0.16707578581578345,5.721491456538413,3.9680765653407195,-2.5386607246014696,-0.9056932313134187,-0.6247510876624915,-2.913931435833054,1,right
18.469,-0.4621938252572193,0.9571011335661312,0.16905992573915518,5.734262324342575,3.964050632054224,-2.5422159466762126,-0.9039348643144207,-0.6273793918967654,-2.912010128409884,1,right
18.472,-0.47476419154762717,0.933366520060319,0.16342916283525916,5.713304638041858,3.969044615220508,-2.535482810049727,-0.9075516272478297,-0.6225727678935699,-2.9166986017767664,1,right
18.473,-0.48226933767668456,0.9125047292316342,0.15231168182588153,5.73600087380472,3.963909010968759,-2.542926556218186,-0.9027787910095344,-0.6287189047886685,-2.9102718738683695,1,right
18.477,-0.4875433251165134,0.893060139454996,0.13795034513972482,5.722326421020748,3.966579324557981,-2.5382052480148696,-0.9068185863176158,-0.6236010684974247,-2.915810456530769,1,right
18.477999999999998,-0.49476413510192574,0.8690703968819979,0.11820059105585247,5.713315486901289,3.970353889708068,-2.5362176968991106,-0.9066233019860619,-0.6237165696750793,-2.915391969076515,1,right
18.484,-0.49667194490105665,0.8451519882360299,0.10546243157233523,5.75729678679118,3.9562441471847785,-2.548324417845594,-0.899148144061036,-0.6335344621161361,-2.9055441392013472,1,right
18.484,-0.4938584992715397,0.8228242929120155,0.10555237413671785,5.674912663242074,3.9819769867073602,-2.5252574426924013,-0.9176469635496876,-0.6094410238752774,-2.930140107873856,1,right
18.489,-0.49303229584363095,0.7976822593687539,0.10819670414658578,5.780882060283403,3.9490306788520133,-2.555014303892401,-0.8869255888220808,-0.6493688635168824,-2.8892075137836044,1,right
18.49,-0.49228322553348197,0.7833122341728318,0.10950053818545576,5.692338772888407,3.976498917626138,-2.530116296189712,-0.9274674703645036,-0.596719171402234,-2.9432570984186075,1,right
18.493,-0.49246965207008914,0.7791785737695325,0.11027995960597708,5.695021807868622,3.9759014812386497,-2.5310037735074813,-1.0975301901550611,-0.3755746138702995,-3.169838301038433,1,right
18.494,-0.49830237070681127,0.763682757269343,0.11171414060720553,5.8629167412624685,3.923040393165258,-2.5777777432874,-1.1380817490564037,-0.32294528377995546,-3.223909508031178,1,right
18.495,-0.5082559593342885,0.7461178307620148,0.11308021068048454,5.449913380701206,4.052800149968164,-2.4625622458809078,-1.107340261733372,-0.36284931983511237,-3.1829229978828257,1,right
18.497,-0.5223560187523473,0.7336788678859569,0.11377180338517262,6.134779919315981,3.837687611567582,-2.6536583458993537,-1.1258692524256735,-0.33875378350371277,-3.2076181791148244,1,right
18.498,-0.5322798419076786,0.7246006581532722,0.11418254439428552,5.231435558293631,4.121430290396792,-2.401600237406763,-1.1183584148534451,-0.34863180436271246,-3.1976250699186837,1,right
18.502,-0.5353528996175207,0.7214551031286645,0.11562993517590764,1.4400559819052332,5.312651376148886,-1.3438901880303282,-1.118192861381408,-0.3486092814431281,-3.197370272580218,1,right
18.503,-0.5466390892875653,0.7105997433027588,0.12328172482067869,0.536737084963808,5.596460146623135,-1.0918634440701698,-1.1222276881021434,-0.34369626915131746,-3.202793365050835,1,right
18.504,-0.562439547571309,0.6984559400461988,0.13632226570208106,1.2215837111732393,5.381244004491126,-1.2829229033230098,-1.1174127594750525,-0.3496297935699846,-3.1963327393363485,1,right
18.507,-0.5767910456862411,0.6903977086650763,0.1484047361677408,0.808542818153453,5.511090252761292,-1.1677040857063508,-1.1211350359792438,-0.34493097157228203,-3.2013123438061055,1,right
18.507,-0.5945461399399274,0.6774796415809343,0.15399393494302438,0.9765849134760186,5.458231982309126,-1.2145708563678264,-1.1192115358301011,-0.3477048341850506,-3.1987830126325463,1,right
18.512,-0.6082403338251526,0.6655601786588405,0.15563309329206487,0.9789885726686538,5.457471902009557,-1.2152454581076948,-1.1194551427418382,-0.34650730419995834,-3.198996751834205,1,right
18.512999999999998,-0.6167134664336664,0.6546388855008575,0.15792779347791028,0.8908160199334516,5.485298705939709,-1.1906632415698915,-1.1203451102792648,-0.3468665181612348,-3.200373485734847,1,right
18.516,-0.6244266201286892,0.6465034732799584,0.15075910564099665,0.9964535103811178,5.45183873504693,-1.220092435757584,-1.1189879279086272,-0.3467714578424479,-3.19833127032147,1,right
18.517,-0.6267371627313068,0.641242387281875,0.13165296542845056,0.9141433879945742,5.478084047285716,-1.197191365852958,-1.1201982286445136,-0.34667987871437295,-3.200130139790249,1,right
18.521,-0.6236690299193861,0.6350391372514526,0.11115501101179809,0.958569187883554,5.463745191418713,-1.2095229476843712,-1.11962757463832,-0.3474347294036957,-3.199371222020903,1,right
18.522000000000002,-0.615284188128236,0.6309511842097579,0.088348811317184,0.9484007470292006,5.467104918355199,-1.2067138489174383,-1.1192215577539169,-0.34521436395046756,-3.198485823489883,1,right
18.526,-0.5985975495964861,0.6242826046220877,0.06808530007619115,0.9365650134174605,5.471144352159381,-1.2034632740332105,-1.1207219040871657,-0.34954415590678756,-3.20127196748791,1,right
18.527,-0.5809600315747828,0.6229995636526835,0.06296095504039453,0.9571699753439236,5.463633892033261,-1.2090434943347854,-1.1183466418514896,-0.34326327142996105,-3.196933198724931,1,right
18.534000000000002,-0.5693794453971668,0.6301503005040723,0.06754382363932072,0.9376327409500381,5.471558374566108,-1.203883500499043,-1.1209041472395627,-0.34992549750585833,-3.201592015068519,1,right
18.535,-0.561960191038123,0.6329154775846577,0.07164747646658698,0.9509842120799006,5.4651719544441395,-1.2072515092703453,-1.119386210833887,-0.34612864243790326,-3.198846961975348,1,right
