time,gFx,gFy,gFz,ax,ay,az,wx,wy,wz,subject_number,foot
15.419,0.4525882925286925,1.0040504021851573,-0.044319603516671385,-2.776128583203289,0.37696372487489593,-0.41725301750450516,-0.12637329029954353,-0.011004050331942909,0.25619096972778577,4,left
15.42,0.47004758214681663,0.9955541714825149,-0.026707952121901798,-2.7102925318315094,0.4466744225207405,-0.48850023589806346,-0.09514115988982616,-0.0073184521279026265,0.21974471718468058,4,left
15.423,0.47661655938410963,0.986627842396626,-0.001106412411007918,-2.8194887125098935,0.33110022994597094,-0.3703738924752039,-0.11397859854576793,-0.00953737045006956,0.24172539345018912,4,left
15.424000000000001,0.4798499076665682,0.9812643264620153,0.0177379307503706,-2.6754642001969744,0.48354148412614906,-0.5261826570033163,-0.10631225975594383,-0.008644866425175611,0.2327839322147732,4,left
15.427999999999999,0.4805953189107411,0.9791779109427446,0.022289692410780323,-2.071123245276687,1.12345703013464,-1.1802154941905436,-0.1062082992844543,-0.008609742969649252,0.23265374162430913,4,left
15.429,0.47475854486723396,0.9691186834848527,0.0360751058998332,-1.9271430746552036,1.2759031989006213,-1.3360308438113058,-0.11022088826976038,-0.009114746922788186,0.2373484557254824,4,left
15.43,0.4624072530148583,0.956880461631867,0.05170787888519818,-2.0362733911327426,1.1603230569176302,-1.217894494938958,-0.10541305560540429,-0.00851653057725365,0.23172597160829525,4,left
15.433,0.4466643627824553,0.9484398402326445,0.06382142919661447,-1.9704824579726272,1.2300339713219133,-1.2891492074878927,-0.10915957275385049,-0.008971630792723798,0.23610297372015487,4,left
15.434000000000001,0.42938455653782526,0.9427092116329238,0.08035909968504407,-1.9972310397399542,1.2016699335928234,-1.2601559365830066,-0.10713251183087259,-0.008759539731249051,0.2337481910197533,4,left
15.439,0.41058658394469116,0.9410455657781038,0.0961192988689892,-1.9976081199349451,1.2012686430986173,-1.2597438350496315,-0.10761172262080715,-0.008729779442617422,0.23427350556605137,4,left
15.439,0.38977172867693627,0.9408760003973047,0.11286540804971003,-1.9836356655989444,1.2161440952883877,-1.2749581608786595,-0.10811790100634507,-0.008937883896416296,0.2349224352770633,4,left
15.444,0.3671120801211888,0.9449956628664389,0.12565250600662292,-2.000299144208599,1.1983226776683402,-1.2567224156552013,-0.10722686838773825,-0.008650782768207518,0.23381122456753675,4,left
15.445,0.34615992230743153,0.9535967037851601,0.13041993946635172,-1.9874267720357237,1.212205794165268,-1.2709410720536678,-0.10806786736714469,-0.008895036897787749,0.23484954250110435,4,left
15.449000000000002,0.32534103193428415,0.9632944631076489,0.12801490222659143,-1.994263403926406,1.204715730627083,-1.2632571601863831,-0.10748439628232978,-0.008827529385283254,0.23416920858282353,4,left
15.45,0.30465127032275585,0.9749571538352699,0.11539026914468754,-1.9927481734563235,1.2064290608008799,-1.265020446032589,-0.10779347238114464,-0.0085947750139167,0.23442416143618144,4,left
15.454,0.2880752613653901,0.9866520304635324,0.09876256506359296,-1.991068510460124,1.2084188275114685,-1.2670785806455427,-0.10766915571651874,-0.009195320451506781,0.2345206562610881,4,left
15.454,0.2731005098026628,0.9968527872878782,0.08096262503725007,-1.9936854922592477,1.2049646090600943,-1.2634698050725783,-0.10771521683370362,-0.008282954059457157,0.23421404215640373,4,left
15.457,0.26168076003597096,1.0047635175537502,0.06330179478694337,-1.9917208108273112,1.2082223206272387,-1.2669341279805784,-0.10769207860125407,-0.009258660180921918,0.23457120133612663,4,left
15.458,0.25630987661695676,1.010865948851973,0.0539428183491156,-1.9924387465915974,1.2060173748890213,-1.2645153258727952,-0.10766444414844317,-0.00868997899150928,0.23431697566873066,4,left
15.463,0.2536386782105118,1.0152753763033173,0.05103898476893342,-1.9925993660067023,1.2069990476270562,-1.2656503050303365,-0.10784371729547984,-0.008223976906201498,0.2343348566127706,4,left
15.463,0.25711648109299956,1.013924456490649,0.04971093448495638,-1.992612777987123,1.2069947946021453,-1.2656471561776472,-0.10739158041032737,-0.010303182824679156,0.2346446150303666,4,left
15.467,0.2653050615872671,1.0091991274136705,0.047826609172491194,-1.9911412772524708,1.2064168007649163,-1.2648121198710105,-0.10817005980369265,-0.006439965816670934,0.23400010109677238,4,left
15.468,0.2742321505534842,1.005189633693199,0.04327094952235225,-1.994999791566709,1.2072130983002543,-1.2661842046314309,-0.1071839330159001,-0.011402347388700959,0.23484345325265962,4,left
15.472999999999999,0.28839153235111215,0.9997925963127724,0.042326072578403026,-1.9888354246924098,1.2064572670211977,-1.2645789656343691,-0.10800172533485908,-0.007258517263186794,0.23413293674945426,4,left
15.472999999999999,0.3076498035588405,0.9935520106854614,0.043277242838100125,-1.9956453079509775,1.207010416901078,-1.2660320111579444,-0.10800055514892026,-0.007373931567023648,0.2341767584932429,4,left
15.477,0.3264862057431198,0.9893865670500126,0.04184842088295278,-1.9916343633892826,1.206771506003499,-1.2652749335835285,-0.10637246145316788,-0.015265423731209236,0.23545107075882646,4,left
15.478,0.3421864921983299,0.9873789743788305,0.04140015193005217,-1.9881449807594478,1.2065992667432441,-1.2646567414188867,-0.11034936679330157,0.004135448083098723,0.23228982188666947,4,left
15.482000000000001,0.3600173864517893,0.9860692130082798,0.037153961091293784,-2.003507581293152,1.2072561580832495,-1.2672631316641585,-0.10376191578545288,-0.028034168082932687,0.23753904728782183,4,left
15.482999999999999,0.3733162688051639,0.9857457443604253,0.03295779949312598,-1.9749300193253694,1.2061307155847385,-1.2625244128434039,-0.11245012509333993,0.014398969355847616,0.23061439220745278,4,left
15.488,0.37546582478668344,0.9857976966646027,0.03149365530012456,-2.011685423292257,1.2075115878175153,-1.2685434242206632,-0.14894914490460198,0.19250001369583997,0.20158494229220428,4,left
15.489,0.384764042798847,0.9860921019464018,0.028126091073972074,-1.9809741196346373,1.206386971607963,-1.2635474298411284,-0.1576396594245248,0.23493685126224687,0.1946623062077355,4,left
15.489,0.3989542724015456,0.9877677562524678,0.030153776408258982,-1.981800483211211,1.2064207785609666,-1.263685644845813,-0.15104989218398718,0.20276129951382216,0.19990987742599736,4,left
15.493,0.40492730438244473,0.9868691572660166,0.033672080591625846,-2.040420123866933,1.2085074297815093,-1.273154245884493,-0.1550252189750984,0.22216749294612087,0.19674591963453067,4,left
15.493,0.41016444268639396,0.982134198909661,0.03207068540702167,-1.8963271054285267,1.2033948288031286,-1.2498986124745235,-0.1534066971391262,0.21427517015920916,0.19803134973110798,4,left
15.497,0.4148766892521647,0.9747794527251797,0.028913209314589006,-2.135256489782615,1.2118551409070544,-1.2884408198665889,-0.1533857995468538,0.21415211662422762,0.19805383677316354,4,left
15.497,0.41650104272034943,0.9677598841347284,0.026032840623979182,-1.8200937906830668,1.2007069485179982,-1.2376133687863038,-0.1542311822834883,0.21831444700635344,0.19737183888123755,4,left
15.498,0.4173590291395721,0.9658298705404575,0.02507697509547407,-0.49701714714748274,1.1538939805974406,-1.0241908645145272,-0.15321844896512626,0.21332421543082675,0.19818937949257376,4,left
15.502,0.41709374959548273,0.9631230905168779,0.02132572157219248,-0.18180931971827458,1.1427403121810173,-0.9733438372114758,-0.15400679708132303,0.21721695690548476,0.19755119845423008,4,left
15.503,0.413176406790949,0.9605847009126277,0.017663612658991627,-0.42083209156273255,1.1512176604408242,-1.0119338827608897,-0.15358122099626156,0.21512132227910574,0.19789419234037442,4,left
15.505999999999998,0.40311651821005157,0.9628146222625834,0.021029830820580703,-0.2765998046794539,1.1460679555602429,-0.9885918813382791,-0.1536813225869463,0.21557084444370017,0.1978240572100706,4,left
15.505999999999998,0.39031570159549944,0.9633795582139254,0.02607245756130904,-0.3353828851432791,1.1482160935529877,-0.9981848900647146,-0.15378647802337297,0.2162073143617175,0.1977106769357585,4,left
15.511,0.37445021535230366,0.9657657709525609,0.02990161763132796,-0.33607497220444005,1.1481718076649103,-0.9981854701374674,-0.15360422302825016,0.21510659115961417,0.19790646039101986,4,left
15.512,0.3534788704506656,0.9704407497017999,0.029100443201779423,-0.3053821559000739,1.1471157686044067,-0.9932827075825971,-0.15377139033561393,0.21618108786928214,0.19771136269638867,4,left
15.515999999999998,0.33156651230808976,0.9720390561486728,0.019572402735530497,-0.34233653415463844,1.1484825450431906,-0.9993389090457394,-0.15366138509920438,0.21543823464272477,0.19784829918220823,4,left
15.517000000000001,0.3036750676873807,0.974694543202065,0.00400608519462196,-0.31326945591628674,1.1472625662881546,-0.9943427064858149,-0.15371537010497907,0.21569983574449259,0.19780582745014305,4,left
15.520999999999999,0.2692447718380312,0.9771177686383559,-0.011933522138743944,-0.32939130850507004,1.1481633806719655,-0.9974734452003599,-0.15369085613481603,0.21596227103428223,0.19773362610670953,4,left
15.522,0.23866657459626875,0.980635706852904,-0.01882160771121511,-0.32505636957905326,1.1476042958470987,-0.9961233217743244,-0.15371724126964625,0.21521798163379152,0.19792212556979838,4,left
15.527000000000001,0.20696791924827793,0.9887222412936516,-0.01789743748916097,-0.3215938046955665,1.1478053587170525,-0.9960838345821948,-0.15367098949321947,0.21629471267128308,0.19764643365730333,4,left
15.527000000000001,0.17124594566122978,0.9980723917836177,-0.020329116787327902,-0.3286957812769786,1.148059415284834,-0.9972338424048138,-0.15372945567693108,0.215191481257525,0.19793303866429623,4,left
15.534,0.13767327971155574,1.0100690432293007,-0.025913466365946165,-0.3208562632948747,1.1471817100640602,-0.9950064987236051,-0.15369570425586243,0.21582938006722294,0.1977673783110909,4,left
15.535,0.10664471313678106,1.0250980983541904,-0.03094886398091232,-0.32802114606953403,1.148807399042051,-0.9983628986623325,-0.15364658052512012,0.2162804998895142,0.1976406452759089,4,left
15.535,0.07987643514285209,1.0408670072726771,-0.0394016295631427,-0.32203667331427077,1.1465484135976558,-0.9941142541938233,-0.15383581674041008,0.21417839402320538,0.1982160532022666,4,left
15.536,0.05722973190214708,1.0550957300250428,-0.05251959048530121,-0.32634427456992476,1.1488834069733118,-0.9983095027394792,-0.1534859857160782,0.21808306618342366,0.19714795445619743,4,left
15.54,0.0435498143628196,1.0654630737110085,-0.05780584748510455,-0.32491265735238517,1.1475714177822143,-0.9960555491020117,-0.15393706301116195,0.21307753901803217,0.19851807563813895,4,left
15.54,0.04405664087921531,1.071990203191747,-0.04582834552382373,-0.3214527529187674,1.1463624052272623,-0.9937550445534745,-0.15355942171506176,0.21725257842081142,0.1973748821076392,4,left
15.545,0.052221373603564325,1.0737286304659353,-0.03442801688497936,-0.3318963644974461,1.1514888829605823,-1.0030683994214944,-0.15356819907089167,0.21712938020746278,0.19740742414727586,4,left
15.546,0.06590981643581309,1.0693822318110937,-0.04157684517813524,-0.3138979644462048,1.1420295989114173,-0.9860162632019241,-0.15429572516454304,0.20921228576928572,0.19958026005492607,4,left
15.550999999999998,0.08506391406211715,1.0626911984657463,-0.06585384423241661,-0.3364019853392267,1.1541549370909223,-1.0078154658399718,-0.15250778069056786,0.22867900249559625,0.19423860412107907,4,left
15.552,0.10265564955647928,1.0611116136896408,-0.09962253999549874,-0.31787227475330004,1.1440403068271392,-0.9896560638672224,-0.15547348102147132,0.19640335430924072,0.2030950459625859,4,left
15.555,0.11432278176041026,1.0633708652861573,-0.12099906253341808,-0.31815408526165667,1.1443084187585608,-0.990116592351411,-0.15156016495152796,0.23897196843172472,0.19141399582967678,4,left
15.556,0.1182066268083391,1.06580326865897,-0.12138336192331821,-0.35389063270213694,1.1636042073733708,-1.0247974151225252,-0.13514059544514376,0.41762917973734215,0.1423857697110956,4,left
15.557,0.1290833572774463,1.0776056325086893,-0.1119415714669117,-0.26644728290498004,1.116187125713047,-0.9396105165670944,-0.13122474813964055,0.46019367342595124,0.13070554313304625,4,left
15.561,0.16438369664635571,1.1014554845256392,-0.08993363213014449,-0.41124764322007773,1.1948035323339785,-1.0808313398250415,-0.13419358184277652,0.42792441006736803,0.13956078009423759,4,left
15.561,0.19052869193927602,1.1155950969093178,-0.07111011646488062,-0.22034281861286667,1.0911086547203026,-0.8945687755364619,-0.13240528077556354,0.4473859976047243,0.13421989692813344,4,left
15.565,0.19766459479428217,1.1188727453469216,-0.06827269802514971,0.5808504028307387,0.6558928229668382,-0.11283365697920861,-0.13312660505083893,0.43946818521099884,0.13639339669577577,4,left
15.565999999999999,0.22854125930518415,1.1341033744164903,-0.055599866527920115,0.7717173911964665,0.5521936751267682,0.07343454897048605,-0.13315065209000976,0.43935593136508727,0.13642297928965552,4,left
15.567,0.2697855470559193,1.1491440140697233,-0.02698134609618854,0.6270180553093088,0.6308125754680067,-0.06778268795161707,-0.13274957538773657,0.4435077530939242,0.13528525483435022,4,left
15.57,0.30154636777405497,1.153577899388054,0.005805933111976613,0.7142641405300201,0.5834047827031328,0.01736756594099509,-0.13322591538692494,0.4385347466662668,0.13664839869808987,4,left
15.57,0.33707679042736616,1.1571662045326638,0.03589139893765185,0.6788305826674055,0.6026697185722754,-0.017222248869214113,-0.13286160739137573,0.4424079288478364,0.13558615419068507,4,left
15.577,0.3663847694382713,1.1548088739853695,0.04729051620403764,0.6781899783651559,0.6029938409559799,-0.017831320700340887,-0.13303739191254868,0.4403181260645273,0.13616100085225247,4,left
15.578,0.385016988958219,1.1496108685875268,0.04210785160160353,0.6969994532381769,0.59280720765575,0.0005032171393181033,-0.1330457775035426,0.4407988180753978,0.13602480343592135,4,left
15.579,0.3999136778805995,1.1465069954305847,0.03913245307672476,0.6745099595880991,0.6049938731458221,-0.021423114509666656,-0.13290488767657832,0.44134648174364466,0.13588184895046768,4,left
15.58,0.41202475512383024,1.1462134249125635,0.03821167917936853,0.6919578176535689,0.595527388196619,-0.004403898117167657,-0.1331033834323462,0.44039569575882476,0.13613379511602142,4,left
15.585,0.4179502553512938,1.1508025878822066,0.03353157401283094,0.6827558140323169,0.6005568241058377,-0.013405843096522301,-0.13293273353152177,0.44128860703516226,0.1358958799041824,4,left
15.585,0.41221408721855946,1.1545433752103489,0.03624503581966193,0.6843737998685523,0.5995840555215803,-0.011760517911443853,-0.1329873766251246,0.4406860230304206,0.13606136743749198,4,left
15.589,0.39758414047716123,1.16198547275547,0.05524892427358275,0.6877539750653796,0.5979083634714234,-0.008575239067694963,-0.133126356179154,0.4409607997906121,0.1359726158440906,4,left
15.59,0.3745838738858167,1.1740929672096994,0.07451762712904422,0.6823565886262577,0.6006436510417343,-0.013703553654160396,-0.13275341594227313,0.4409340867754612,0.13601033519196004,4,left
15.594000000000001,0.3434515130449586,1.1831765911955237,0.07473564389378559,0.6872643645585024,0.5981343799142875,-0.00902477461180569,-0.1333230571448185,0.4408299905022088,0.13599365491531895,4,left
15.594000000000001,0.3137213771522419,1.1939876930373967,0.06347664009013097,0.6845708020276552,0.5995992681668623,-0.011654713863629023,-0.13271329016478275,0.44096770715778977,0.136003991666807,4,left
15.599,0.29189890129247753,1.20477358676153,0.058962684435860266,0.684124270682301,0.599549960187227,-0.011884083256022634,-0.13306959825165976,0.4408458834589022,0.13600978925680302,4,left
15.6,0.2747852834612233,1.211587903631079,0.05904103162763341,0.6878403992684501,0.5981981429237376,-0.008728900671422075,-0.13335716890085147,0.4409503629669605,0.1359567484992263,4,left
15.603,0.25312930905751074,1.2212329291307022,0.04753537401233509,0.6816510476559101,0.6005653478755555,-0.014065924502173798,-0.13206644767183756,0.4408358648148022,0.13609366332263667,4,left
15.604000000000001,0.22035923602414137,1.2373125855656415,0.02066110976113398,0.6883691831726613,0.5979768839769766,-0.008259289463871222,-0.13446605490468486,0.4409865067417832,0.13585717206642545,4,left
15.609000000000002,0.17743141408365198,1.2654885219821328,-0.018591343451413906,0.6842976347338013,0.5995750842422101,-0.011799584469293741,-0.13138330283085026,0.4408066893514672,0.13615660481445246,4,left
15.61,0.1268299915249176,1.3042566962724904,-0.06774625567555984,0.6817282747272841,0.6004435159909567,-0.01393366239540938,-0.13395785497280388,0.4409516203952555,0.13590880305894218,4,left
15.613,0.07552442160210543,1.343794832602458,-0.10808569877905083,0.6945121987042464,0.5958101449347788,-0.003091896923180168,-0.1338852286931667,0.44096825092073144,0.13590806906721903,4,left
15.614,0.03392092386227527,1.3792528534309016,-0.12017300873557228,0.6705266075993266,0.6045521608762946,-0.02346897769515597,-0.12898493394384936,0.44062358737506885,0.13640372990458433,4,left
15.619000000000002,0.008044400290112002,1.4052681003647862,-0.11219832059966228,0.7013874395164292,0.593294656882879,0.002756763345540968,-0.1410334451493399,0.44144731066546494,0.13519536456821662,4,left
15.62,0.000644215363704688,1.423423011807802,-0.10577011152221917,0.6755982681559938,0.6027045354752001,-0.019162064963419555,-0.12105462368672165,0.44008672396560694,0.13719512887836618,4,left
15.624,0.004363199956113356,1.4330125273955332,-0.10426946997958139,0.6763926442313802,0.6024020335236049,-0.018475068215901655,-0.14740756587392695,0.44188186573577154,0.1345590702281542,4,left
15.625,0.007794349551231717,1.434714340311501,-0.1048608854137731,0.7252508129202401,0.5846207595436488,0.02301145258143384,-0.25799258642891576,0.44941735200921396,0.12344128120987757,4,left
15.626,0.016903707943394658,1.4361345591283026,-0.11249419012932778,0.6050503620330832,0.6283765654506743,-0.07906700388947431,-0.28434423040453016,0.45121415209893434,0.12080282918656575,4,left
15.628,0.03780247451893817,1.4328915763492938,-0.11587282000758498,0.8043767222047993,0.5558205429485332,0.09021098319897122,-0.2643704214996191,0.4498555829284596,0.12281082230048268,4,left
15.628,0.05157550385856273,1.427295504339286,-0.1101264361289362,0.5414649434144994,0.6515114069072481,-0.13306635155835386,-0.2764066873584218,0.4506651226087287,0.12158346716344381,4,left
15.633,0.056175956837980094,1.4266248579118448,-0.1086523230987379,-0.5619693311159406,1.0531006612417606,-1.0701386271972557,-0.27152807977510546,0.4503542446476548,0.12211171817614097,4,left
15.635,0.07283554070953199,1.4298562171844824,-0.11023285942754282,-0.8248667031278404,1.1487469154424024,-1.2933992562639585,-0.2714263917185852,0.4503167760676892,0.12206837281109503,4,left
15.635,0.09191234879212967,1.4387130167975561,-0.11743128592174151,-0.625557319648796,1.07626521146112,-1.1241425179974533,-0.27402852109063425,0.4505243870266804,0.12185964192604903,4,left
15.637,0.10151995347421944,1.4538474073668328,-0.13752473101354412,-0.7457587771958878,1.1199470914115783,-1.2262166051230365,-0.2709359093706071,0.45030074902271844,0.12214767971479285,4,left
15.638,0.10757929026159452,1.4736615948889393,-0.1591803107812949,-0.696859050734282,1.1021959670466168,-1.1846933093761765,-0.2733070855525762,0.4504357676451938,0.12186501748589035,4,left
15.642999999999999,0.10745901369737967,1.4990780745457188,-0.17474185438592016,-0.696160869948536,1.1019556946643632,-1.184100924317102,-0.2721001455544809,0.4504384665207422,0.12212943534812491,4,left
15.644,0.10533214791792989,1.5299922819881016,-0.18871458269165564,-0.7218066895860265,1.111174585965855,-1.2058717000178618,-0.27224740360553856,0.4503023089582967,0.12186819200917941,4,left
15.647,0.10560136013865826,1.5608968889297445,-0.20075693549368517,-0.6910953856719142,1.1002343864504214,-1.1798088767437456,-0.2727719163728672,0.45051739911502464,0.12211775615484544,4,left
15.648,0.10370484071748429,1.5903678721441294,-0.20503748159299418,-0.7150038677276478,1.108603413510483,-1.200086898076553,-0.27203384561983757,0.45032417548905135,0.12195104176746939,4,left
15.652999999999999,0.10085485571040773,1.6176905664917705,-0.1976044409474365,-0.7021205557314646,1.1042415855232193,-1.1891715154703737,-0.2725890462895787,0.45036059818014357,0.12189306346754762,4,left
15.654000000000002,0.09723010813990149,1.6397868226098642,-0.18021808103045195,-0.7050599804243864,1.1051711142466107,-1.191656752525006,-0.27248473841153326,0.45061907623094133,0.12235049285938514,4,left
15.657,0.0910343004775802,1.6591910245696486,-0.15678317749130571,-0.7084655656059462,1.1061329036260301,-1.1945272726731049,-0.2720338633782011,0.44998161018040383,0.12137454129760353,4,left
15.658,0.0839400548013341,1.6720249510253928,-0.13092382527228766,-0.7025948032707292,1.1048892980431892,-1.1896113144426015,-0.27294924160131195,0.45094900759804346,0.12280595088125269,4,left
15.663,0.0733742777982195,1.6740070745927362,-0.11461233317925937,-0.7080636901519073,1.1053424415842281,-1.1941356752504928,-0.2718845657205683,0.4499118396750924,0.12128914182092462,4,left
15.664000000000001,0.05649566239613241,1.6710545895719553,-0.11043871284711122,-0.7044444560754906,1.1059108206619181,-1.1912092816555415,-0.27255938186185513,0.45051490987652437,0.12215927850378115,4,left
15.667,0.0358627401371537,1.6656619493175426,-0.10255583872121056,-0.705991044917527,1.1049707458816864,-1.1924054421099304,-0.27295563091012404,0.45102299334780793,0.12292885910055082,4,left
15.668,0.013552744612649537,1.6557754370121556,-0.09551944293483094,-0.7059830699517513,1.104954796128013,-1.192397494309187,-0.2708792391794554,0.4487778578494489,0.11959703582442859,4,left
15.672,-0.011055302318314522,1.6451930586610795,-0.10250080597401107,-0.7052561074000308,1.107477748393638,-1.1919979699531307,-0.2748108888811152,0.45294626003743677,0.12576702552000088,4,left
15.673,-0.03852896920849889,1.6371650969903029,-0.11418550243406658,-0.7060117682693567,1.1013820612283332,-1.1921421436725919,-0.26973311877577166,0.4475925595403973,0.11784817385792168,4,left
15.677,-0.06614031933106065,1.6285415896630142,-0.12036584932904457,-0.7056302829373047,1.1107474886293678,-1.192560222653591,-0.273984959747835,0.45206188887620835,0.12445683323581556,4,left
15.677999999999999,-0.09399179498903618,1.6181717631948236,-0.11802496386304029,-0.705600643918971,1.1006045078027744,-1.1917442844708455,-0.27385005939063567,0.451942048507852,0.12428253789952211,4,left
15.682,-0.11940091341474529,1.609025798002138,-0.11185894439905716,-0.7057581630245533,1.1065170718807504,-1.1923344993894285,-0.2657951420920824,0.4434175696340578,0.1116696865707414,4,left
15.683,-0.13770515510485176,1.599514015857018,-0.10363493726416051,-0.7059482041189742,1.1116308232945473,-1.1928907945127463,-0.28562230938200406,0.4643666665738936,0.14266236203045074,4,left
15.689,-0.15580054424072054,1.5851984137871942,-0.08881392085972137,-0.704941256185745,1.089181072999486,-1.1903104076163666,-0.2527362772770969,0.42963511550720324,0.09128024046023145,4,left
15.69,-0.1678087672855335,1.5759103645267811,-0.07999002587035293,-0.7069719868732387,1.1308762123297271,-1.1952331845079385,-0.29611789699917035,0.47544237802881795,0.1590484881345791,4,left
15.690999999999999,-0.16987738699625257,1.5731754444479944,-0.07889196246408664,-0.7042502886390855,1.0772935823878318,-1.1888164792561888,-0.4781813289647724,0.6677595453576747,0.44355364464114544,4,left
15.692,-0.17982438206777746,1.5644065313940951,-0.07164409977872208,-0.7065760832783345,1.1220503882039896,-1.194216978696235,-0.5215659262055551,0.7135606633901244,0.511314991068904,4,left
15.693,-0.1933028542029835,1.5539791528201277,-0.060721242606276225,-0.7065073699186601,1.120827615666455,-1.1940706580836997,-0.4886744828383206,0.6788356073736207,0.4599405584339963,4,left
15.696,-0.20230282445287684,1.5465020060183692,-0.05124922782595763,-0.7020008406868952,1.035482017793704,-1.1837004854406254,-0.5085081811638816,0.6997877742540023,0.49093528653914387,4,left
15.697000000000001,-0.20983415241051673,1.5374864822551848,-0.043878219257188496,-0.7131282636287495,1.2452874659175452,-1.2092231697637301,-0.5004479595191796,0.6912401271639463,0.47829929032032303,4,left
15.702,-0.207212810737409,1.5214274450381562,-0.0386770858306764,-0.6946328792994876,0.8973918901149845,-1.1668728277541942,-0.5003137896667333,0.6911693902897903,0.4781758782604454,4,left
15.703,-0.20234787914336833,1.5078053713248316,-0.03670170237315082,-0.7190630001586737,1.3562860437247564,-1.2227576029654146,-0.504573135734892,0.6955689123129571,0.48471071338408084,4,left
15.704,-0.2001973600760254,1.5035754788858038,-0.035752302759276544,-0.8213322333297348,3.2821129396598776,-1.4572379941819442,-0.4994772092789725,0.6902839794542164,0.4768664594351925,4,left
15.707,-0.1862128674969976,1.4868188338215267,-0.029032447068039594,-0.8457705741238277,3.7409998728287395,-1.5131348243991163,-0.5034365307090497,0.6944240947451877,0.4830022483519164,4,left
15.707,-0.1664716135140285,1.4605090821532198,-0.015625803628247645,-0.8272979282674988,3.3931588787261635,-1.4707807563810138,-0.5013300195547842,0.6921167161473327,0.4796110061418914,4,left
15.710999999999999,-0.15063362487793452,1.439242819727836,0.004071555273049577,-0.838309927577263,3.6028016386088355,-1.4962654799629274,-0.5017446521402475,0.6928198110993324,0.4805799722481927,4,left
15.713,-0.13730904723209258,1.416415307171989,0.02807280337786523,-0.8340638830001648,3.5177716506061687,-1.4860066048014575,-0.5024324380821115,0.6930899856264852,0.48110202860906004,4,left
15.716,-0.12741695798940206,1.3959193888130272,0.05661296186841701,-0.8335890137548567,3.5160979609272998,-1.4856662627018378,-0.5013044285138542,0.6924580534170327,0.48001721328565167,4,left
15.716,-0.11541523970287243,1.378319382745117,0.09252907340301988,-0.8363736143776471,3.561318626337094,-1.4913085649688123,-0.502341146310143,0.6931073240560621,0.4810970270390092,4,left
15.722000000000001,-0.09974893944635387,1.35978612095177,0.13478093240962274,-0.8333493470146487,3.507502251048888,-1.484696517360336,-0.5017282341716736,0.692455633776164,0.48013449537247915,4,left
15.722999999999999,-0.08331779253590703,1.3428230229569582,0.18033332722586265,-0.8352241020294687,3.548874563652399,-1.4896192048645265,-0.5017730154961265,0.693330602516324,0.48120641385544305,4,left
15.725999999999999,-0.05809343026238965,1.326232470722255,0.21799231138727188,-0.8351371819217149,3.52760179201843,-1.487400964811047,-0.5022832402390963,0.6919787887439977,0.47971411145188686,4,left
15.727,-0.02159183399493744,1.3117346255486748,0.24066257509563269,-0.8334994279584313,3.5306037288797665,-1.4871251841210678,-0.5013755345618365,0.6938400579088089,0.48171120005982837,4,left
15.734000000000002,0.018564811422116467,1.3019070145481617,0.2513646029705108,-0.8361613733708297,3.539201483725736,-1.4889591276388403,-0.5023702218463547,0.6918852158245349,0.4796247338973782,4,left
15.735,0.06175851223379618,1.3003102345737116,0.25189252550045294,-0.8337433087648001,3.526775899254531,-1.4868187243447597,-0.5017527835338738,0.6929683948035991,0.4807632725627087,4,left
15.735,0.10594052522509849,1.3107285022967634,0.2403692030971489,-0.8342419889123349,3.536447749898104,-1.4879907915941173,-0.5014329395118838,0.6941302640262641,0.4820774614068601,4,left
15.735999999999999,0.1448454678266057,1.3284886250119494,0.2130840569137366,-0.8373637857138163,3.5338394325138656,-1.4888373999281548,-0.5031797245896976,0.689419884186639,0.47686997569855016,4,left
15.74,0.1728303048838833,1.3556186332809284,0.17788388963779758,-0.8295913230545577,3.5277980534333286,-1.4854413698325537,-0.4998783741054504,0.6980866104338368,0.4864297809799207,4,left
15.741,0.18244237519963047,1.3964355191901057,0.14538757701952698,-0.8414113415788058,3.541037477192069,-1.4910221015507363,-0.504130418426552,0.6869750306032605,0.4741755101291532,4,left
15.745,0.1811806399795185,1.4447290402718616,0.11577204145253225,-0.8287284548621768,3.525377366054305,-1.4848849342954764,-0.5005766169703176,0.6962426757605324,0.4843987010401216,4,left
15.745999999999999,0.1678431996719742,1.5082535807937245,0.0896360371863033,-0.8361122841730175,3.5354628382507416,-1.4885566581477394,-0.5006908251231902,0.6960214443597723,0.48415254472230124,4,left
15.751,0.1389511829309024,1.5780278325604022,0.07171130924630284,-0.8423042145335103,3.5409323607238363,-1.4913310717013384,-0.5074044274969796,0.678258589438791,0.4645552296469235,4,left
15.752,0.10207730716916329,1.6397648484680578,0.0680420219248831,-0.8148856201415862,3.5110466276274215,-1.4784686599366557,-0.4908855987410321,0.7218768822847657,0.5126905194892575,4,left
15.755,0.039952345439847575,1.7092826697340056,0.07115337967973157,-0.8658098660306794,3.5678753212542613,-1.5024915173993891,-0.5182745094043123,0.6495735389205116,0.4328839484731156,4,left
15.755999999999998,-0.00913470915739924,1.7511237053918929,0.0708930330968742,-0.8003921751936822,3.4943981405690545,-1.4715851099028228,-0.4821557598714723,0.7449286316820491,0.5381549525130644,4,left
15.761,-0.022208650072328116,1.760745208726863,0.07054897316789319,-0.8550199142909989,3.55595436214112,-1.497410666212817,-0.33053795523570706,1.1452791044543362,0.9800383909334446,4,left
15.762,-0.07610030238005361,1.7922624021094222,0.06065906625266719,-0.8535179644741633,3.5539588300410765,-1.4966779378653032,-0.29444149685716137,1.240605979936933,1.0853328328436136,4,left
15.763,-0.15124417294236236,1.822023206508564,0.04684978179371556,-0.7494148227069549,3.4374599033931115,-1.4475248836618264,-0.32179691797825055,1.1683481757336822,1.005491742229632,4,left
15.765999999999998,-0.2067473655445048,1.8278578861278314,0.04173576695924973,-1.0053242046079545,3.724276158747564,-1.5683826834045922,-0.30530211226536746,1.211924914404778,1.0536498372429475,4,left
15.767000000000001,-0.2769868362495047,1.8140896887908537,0.022871224538790223,-0.5809976956250207,3.248542353766575,-1.3679814176763485,-0.3120272789150514,1.1941703963905752,1.0340697398235874,4,left
15.77,-0.319301014357675,1.7947492752484764,0.004301316829699794,-1.1406912811243441,3.876097544386811,-1.632311234225802,-0.31207088507743697,1.194004451085604,1.0337418450242308,4,left
15.770999999999999,-0.3278842347133637,1.7869455258250315,-0.001170297341327552,-3.48980913601269,6.510001677834396,-2.7419881949381173,-0.30865491770468756,1.2031342012913282,1.0441180148557416,4,left
15.772,-0.36096479123714986,1.7527634405862411,-0.023521200499193658,-4.049496738713966,7.137567910729371,-3.006326130079904,-0.31272398229050513,1.1922331692869332,1.0316667107721214,4,left
15.777000000000001,-0.3873840286321981,1.6954166163800848,-0.046023249366620646,-3.6251974098905504,6.66178405304607,-2.8058880497362058,-0.30958649998416077,1.2006730489899522,1.041394539733737,4,left
15.777999999999999,-0.3850520436838029,1.6402675557733182,-0.05438253485194529,-3.881035908354091,6.948730735913761,-2.9268417946702767,-0.311294736397698,1.1960952583048399,1.0361649706997835,4,left
15.779000000000002,-0.369893249790607,1.5778636851417658,-0.05792381125038838,-3.7770625035574343,6.83199318211746,-2.8775131894945307,-0.3107624582931777,1.1973691275682923,1.0372212507584617,4,left
15.78,-0.330590137327659,1.5182290976968316,-0.047641360042323146,-3.7753824246108705,6.830325194419294,-2.87702143763687,-0.3107021171360548,1.197953321715683,1.0389909475503567,4,left
15.785,-0.2743167426062558,1.4679527627760924,-0.030587557722375217,-3.8301846900114147,6.891560610860475,-2.9026109608857036,-0.310810255382792,1.1969357407098125,1.035931599711922,4,left
15.786,-0.20635507212735082,1.4224145919146545,-0.009014300657261496,-3.764694227304549,6.81821698654249,-2.8718028446428976,-0.31091229563200284,1.1975645885375654,1.039000454563746,4,left
15.789000000000001,-0.12283608732647841,1.3796873301719195,0.021980223095441242,-3.8154622830564033,6.875333259188718,-2.896037227493582,-0.3107342910093013,1.1973184556457914,1.0368361445869874,4,left
15.79,-0.033994844883018946,1.3399987618449054,0.05500447688989041,-3.7885384298915774,6.844537403527591,-2.88250528300014,-0.31050444497900126,1.197919240640123,1.037482403017016,4,left
15.795,0.0593520767216243,1.3018720163006554,0.08878569062519828,-3.793880298933089,6.851570228702503,-2.8864298016426355,-0.31178433077664774,1.1958678638832367,1.038729396270115,4,left
15.796,0.15781154837110956,1.2651834577534462,0.12266731746556209,-3.8023066397636622,6.859738967381803,-2.8886913416326867,-0.30898247273184837,1.200230565204133,1.0355209355700152,4,left
15.799000000000001,0.2582382593896731,1.232891941860184,0.15609708556956214,-3.788792713801678,6.845606045208926,-2.88367785637604,-0.31319094172164574,1.1936469215648509,1.040224021063457,4,left
15.8,0.3572601913598024,1.2017231596405555,0.18775930223248083,-3.800605328801409,6.858860770410894,-2.8892696284182917,-0.3086666715674967,1.2007651898318683,1.0353210307955054,4,left
15.804,0.45275558895351364,1.175779589405276,0.2120459785965034,-3.7943752931141055,6.849981005335593,-2.8837856584905497,-0.3112804503326644,1.1966535795236632,1.0381551312689044,4,left
15.805,0.5481108392983781,1.155925000345757,0.2312830395202442,-3.793971692543704,6.85385707275284,-2.8894026284139827,-0.31361749528488736,1.192886407531107,1.040353051083342,4,left
15.809000000000001,0.6379802787127817,1.1393530566794978,0.25015921867823976,-3.7997304524602367,6.853856346902283,-2.8834585630785847,-0.3034979402750819,1.2090842033590776,1.030416645484753,4,left
15.81,0.7159257293849177,1.127241877643888,0.2627314237505627,-3.791703812187818,6.8517411480543995,-2.888903917497597,-0.32225951299171257,1.1790601873406144,1.0488595064954125,4,left
15.814,0.782792281501042,1.116709663716062,0.2640487771665154,-3.7976085351068662,6.854382801567805,-2.886355060454634,-0.29816157722115744,1.2176303050385628,1.0251983964180758,4,left
15.815,0.8380784713522822,1.1101975243351772,0.2614704802924535,-3.7987594432064142,6.852246454877674,-2.8823003483894643,-0.31828319806274197,1.1854224863364908,1.0449424970421681,4,left
15.818,0.8849215767941414,1.1017797548226986,0.2582518585286775,-3.786453866832603,6.8534530369316915,-2.896618834998697,-0.3177467493019924,1.186269030998428,1.0443825283964325,4,left
15.819,0.9224545270856976,1.0892241260094555,0.25106278713565633,-3.810994196092588,6.853140417143473,-2.8708745643968596,-0.2793427329508705,1.247786858629562,1.0068439840927021,4,left
15.823,0.9489736017666812,1.078249975970519,0.24167304458560157,-3.7788602590358256,6.852846446322567,-2.903639952656466,-0.37372980134131906,1.0966051226465476,1.099128218513976,4,left
15.824000000000002,0.9702585212426152,1.062151445413266,0.231681511872542,-3.805955814883591,6.853388359505216,-2.876408534295335,-0.21722996140603587,1.347269889419546,0.946118920405816,4,left
15.828,0.980735587921512,1.049524638353724,0.22612042346048863,-3.8048027124564645,6.852913805771625,-2.876956878536075,-0.4236558756820129,1.0166422661015098,1.1479309551321841,4,left
15.829,0.9819546863506838,1.0454883028800288,0.22615762284083613,-3.7542488320603487,6.853101502173253,-2.929384022211006,-1.290142266423157,-0.3712424655703861,1.994971519740293,4,left
15.83,0.9872986724197818,1.0316961268358897,0.22419624445993347,-3.879121128917993,6.853310294852495,-2.8007966786664866,-1.4965748708707847,-0.7018693705951657,2.1967746425360204,4,left
15.833,0.9910600273455801,1.0060805502128514,0.2234547941340046,-3.6718308779286906,6.85270448065663,-3.013898685755019,-1.3400645733552263,-0.45120572667411585,2.043779275128745,4,left
15.834000000000001,0.9907701355597118,0.9895416199121593,0.22486819117081525,-3.945352261070477,6.853606403982658,-2.7328537861816145,-1.4344602914384477,-0.6023865337339517,2.1360519865344005,4,left
15.839,0.9913916427848362,0.9847393132678414,0.2256894243287853,-5.092832557033354,6.856885371812057,-1.5530469012162402,-1.3960567776931683,-0.5408686526455337,2.098512774404856,4,left
15.84,0.9885290819985106,0.9678712723631573,0.23315259873061756,-5.3664131494550835,6.857825418106348,-1.2720047237356842,-1.3955035427894082,-0.5400239094858166,2.097975163952147,4,left
15.84,0.9835385587892833,0.9412484908542614,0.2429808515217481,-5.1590122820740945,6.857126160109084,-1.48508179603979,-1.415661805349735,-0.5722277949377873,2.1176704570944533,4,left
15.843,0.9771634237839881,0.9181703156252798,0.2510285347457337,-5.284025116656796,6.857504149450772,-1.356571220321631,-1.391511675371485,-0.5336632806309294,2.0940788730013393,4,left
15.844000000000001,0.9671085875091554,0.8932882525179671,0.2638574837623086,-5.233343769672591,6.857447508142533,-1.4088475596847654,-1.4103249373297921,-0.5636817465835482,2.1124528777088885,4,left
15.849,0.955381211996739,0.8688651190739534,0.2765778087112245,-5.232237813284321,6.857244042636353,-1.409613105655874,-1.4001829879597474,-0.5474863569796034,2.1025463096463657,4,left
15.849,0.9415543589935408,0.8453428779658636,0.2838213932464716,-5.2594476014217975,6.857601133876018,-1.3821561477836166,-1.4024765464743838,-0.5512581944605535,2.104802145892071,4,left
15.854000000000001,0.9260839538877612,0.8216954576102222,0.2898881321426952,-5.226972790416632,6.8572365629520196,-1.4150388497583308,-1.4052308844210788,-0.555354718107988,2.107449023638061,4,left
15.855,0.909704123228382,0.799892368062953,0.29935683106345845,-5.252081957569734,6.857427269689051,-1.3894431686810078,-1.4004644339336694,-0.5482624475656781,2.1028686264970053,4,left
15.857999999999999,0.887789721674118,0.7777661063474999,0.3091703332462161,-5.239097266043599,6.857604887186065,-1.4032018940043962,-1.404970042219189,-0.5548141897319766,2.1071758981385074,4,left
15.857999999999999,0.8615292797701268,0.7587063519665027,0.31443379289613155,-5.240763878414985,6.856908610247655,-1.4001606336453807,-1.4019313357702654,-0.5504769228756758,2.104282958906105,4,left
15.863,0.836915022086444,0.7409446653783534,0.3222869728263428,-5.246729204318985,6.8581331650231405,-1.3963138843774807,-1.4032091296237212,-0.5525285106124163,2.1055326928254336,4,left
15.864,0.810340548283726,0.7223316863357363,0.3339244731133287,-5.237620091769699,6.856626846634436,-1.402875923440885,-1.403418652358671,-0.5518805744031963,2.1055937449881705,4,left
15.867,0.781823771155792,0.7071740243663963,0.3395037585258852,-5.245748088887742,6.857829450840317,-1.3967530247903204,-1.4022365890424042,-0.5522344835095149,2.1047668493688008,4,left
15.868,0.7554520219093432,0.6924787349904357,0.34151866623141847,-5.2418976299563145,6.85782803248944,-1.4007303731614242,-1.4038364515812565,-0.5514448386027859,2.105840526436407,4,left
15.873,0.7281158235188774,0.6800397065343883,0.34752842085461233,-5.2392279223240354,6.855636414269348,-1.3993366049229696,-1.402347961322186,-0.5526338486128781,2.1049080515125977,4,left
15.874,0.7001474453770812,0.6725317916623477,0.35484211853714853,-5.249191630064516,6.860656040345837,-1.398550741342945,-1.4032100136592103,-0.5519505751107155,2.1054488910202016,4,left
15.878,0.6725068282795542,0.6655890779526883,0.3595861527134083,-5.233402931105046,6.853165616846805,-1.4006743951575182,-1.403473284277419,-0.5505913859515108,2.1054457208403727,4,left
15.879000000000001,0.6457694957811574,0.6603617659192862,0.36525526322306234,-5.250405775518759,6.861150263027431,-1.3982331319626944,-1.4017007297503477,-0.5555427607529342,2.1048524882035933,4,left
15.883,0.6213610817183894,0.6525877350614919,0.3724695760580087,-5.240309963942114,6.856537002499042,-1.399923824091337,-1.4050180121788542,-0.5464099938265309,2.1059823260657113,4,left
15.884,0.5968889178653488,0.6409944381545324,0.3795222686722316,-5.232953699270995,6.852561245012588,-1.3999944884811244,-1.4007992580309205,-0.5582007909077378,2.1045711312234703,4,left
15.888,0.5742724915343012,0.6332124730209909,0.39015256171179385,-5.267351442446363,6.869960975791486,-1.3974146754025256,-1.4043017338169757,-0.5483281399339468,2.105730634185072,4,left
15.889000000000001,0.5548634876541289,0.6246292995254775,0.4013475958263816,-5.203163672899423,6.837694689022345,-1.4026094131699653,-1.404159630927283,-0.5485143539947855,2.1056518654820904,4,left
15.892000000000001,0.5359149024291192,0.615517681932698,0.40733830805976456,-5.285671927359637,6.879123662189906,-1.3958461833844726,-1.3976888794216262,-0.5676850973376972,2.1036468269975197,4,left
15.892999999999999,0.5174509241700003,0.6086772768167334,0.4147113102680219,-5.216755495881917,6.844540417487559,-1.4015311778268977,-1.4136251228590315,-0.52062703543666,2.1086083912049878,4,left
15.898,0.49730528167665433,0.5957303098551445,0.42958111132683535,-5.218755839628265,6.84546843071387,-1.401231265560289,-1.3872101475924876,-0.5986575132865621,2.1003882652328576,4,left
15.898,0.4840512695993008,0.5880490979424341,0.4410215387811472,-5.349718970930491,6.911429905320947,-1.3908669754138305,-1.4220356456613008,-0.4957157055192395,2.111216331603306,4,left
15.899000000000001,0.48168448209914133,0.5878813613016012,0.4424598041469601,-5.027672237507613,6.749322452092974,-1.4165165345668667,-1.5681695664611675,-0.06339303085097998,2.156588849639152,4,left
15.901,0.46869506339297323,0.5766948841415023,0.44594037874904235,-5.561675537044019,7.018088174354961,-1.3739386432380565,-1.602978386338296,0.03958102737718172,2.16739939020859,4,left
15.902000000000001,0.45342708866821446,0.5674675690130151,0.45105370538993006,-4.857333189188742,6.663607606463204,-1.4301102890913042,-1.5765811638585208,-0.03850301049479851,2.159202156935974,4,left
15.908,0.4538813113523783,0.5647399591590285,0.45069828442071,-1.9010543625822465,5.17567480836016,-1.6656878036266771,-1.5925253043339351,0.008607899930276528,2.1641570095021354,4,left
15.909,0.4503924854557878,0.554438740730719,0.4518073398630872,-1.1967560583527748,4.821261021119124,-1.721870020402621,-1.5859925647724737,-0.010583411608287758,2.162117777267638,4,left
15.91,0.4424220403756626,0.54291416884987,0.45287070386176054,-1.7306936225710476,5.08990860003777,-1.6792608719264408,-1.5859824133495721,-0.010816435721415156,2.162131757536007,4,left
15.913,0.4405167679006978,0.5304934380147639,0.44912488942208706,-1.408692815763489,4.927936213880596,-1.7049762843478509,-1.5892968360462814,-0.0008037589389078893,2.1631429229173933,4,left
15.914000000000001,0.43681657139207597,0.5175906474492895,0.4482187572413545,-1.5396819690050558,4.993802251547645,-1.6945052020978648,-1.585263923965016,-0.012825067483926327,2.1618986228801007,4,left
15.917,0.43197238339435273,0.5076790410769398,0.4540090273354681,-1.5415381072289467,4.994711734474354,-1.6943383760593327,-1.5885036501118603,-0.003423708672166667,2.1629208245651017,4,left
15.917,0.4269736510104551,0.4962959102069165,0.46197748234425373,-1.472899067294712,4.960334303711258,-1.699909966986427,-1.5865654575723567,-0.008566872165672871,2.162266373127471,4,left
15.921,0.4222732556630004,0.483928750022438,0.4702379908494072,-1.5550428672548084,5.001334417729343,-1.6931629572081093,-1.5873518536422642,-0.007260323217646374,2.1626016157158565,4,left
15.922,0.42014061283322146,0.47175333884497833,0.48111678180358,-1.49117620679515,4.969669004229523,-1.6985302905991009,-1.5873185029716796,-0.006105780661759233,2.1624792236410757,4,left
15.925999999999998,0.41727105549853216,0.46061138550684555,0.4938965593690851,-1.5255093280089833,4.986478769248729,-1.6955226935111747,-1.586922490276677,-0.008277229268349829,2.1624457354668474,4,left
15.927,0.4150645153422865,0.447850541520623,0.5070851505977444,-1.5177117129564561,4.9827551109394115,-1.6962594566606648,-1.5876610907232611,-0.006100821843651263,2.1626757807466133,4,left
15.931,0.41330215920404223,0.4337847587313316,0.5160558396465179,-1.5087450115139975,4.978643022271727,-1.6972064922329906,-1.5864487097894149,-0.00783146510229336,2.1621333084153167,4,left
15.933,0.4113847248405199,0.4228308572835655,0.5155050297038622,-1.5239708246391275,4.985019485089637,-1.695248958072263,-1.5883090018782244,-0.0065706941135356975,2.1630906113136996,4,left
15.936,0.4106875048412838,0.41059654866081396,0.5141565532321221,-1.5101831778935104,4.980294066785811,-1.6976274107606897,-1.5858542211947937,-0.007502597043106744,2.1617617625774583,4,left
15.937000000000001,0.40561293907249785,0.39721378165397514,0.5143537294527855,-1.518820136220365,4.981926044186936,-1.6953700649259686,-1.588353993981635,-0.006856418093502124,2.1631422216573615,4,left
15.94,0.398853247852793,0.38684965439067065,0.5088038558975285,-1.5155205730181702,4.9824288080166514,-1.6968832572259407,-1.5869879083108822,-0.006997027385957199,2.1623685640370165,4,left
15.940999999999999,0.39586352427940674,0.37462760847174276,0.5006716983097813,-1.5155502510999277,4.982463875302317,-1.6968924150052618,-1.5855668742942663,-0.007841743088603829,2.161627067847069,4,left
15.945,0.39212979624200894,0.36092798447318974,0.4926665818417519,-1.5159303309603984,4.978639511683998,-1.694541794839275,-1.591337241367903,-0.005479658380485906,2.1647350123117706,4,left
15.947000000000001,0.3895337986735459,0.3502898849690742,0.4861093685385396,-1.5174866595321044,4.988597967970064,-1.6997196099595533,-1.5807415645243572,-0.009544875132363986,2.1590031501296543,4,left
15.950999999999999,0.3917912980611311,0.33865097676207245,0.4801745325680977,-1.5131677751832537,4.972737932040822,-1.6921548865545488,-1.5943096409598256,-0.004438423530408401,2.166352494292333,4,left
15.952,0.39615962638447777,0.3244884642449436,0.4703273531093211,-1.5189395947659545,4.990231320807821,-1.7001255445753123,-1.5829968351936312,-0.00865387156488926,2.16021998972367,4,left
15.955,0.40183509870137835,0.30935931777566494,0.45610874779679844,-1.5152303157355276,4.979937626678916,-1.6955505090180822,-1.5832821524725698,-0.008612892487534694,2.160382841176502,4,left
15.956,0.40970960152649916,0.29635134632777294,0.43962390918390437,-1.5118818775704674,4.970980894968236,-1.6916170306922813,-1.6049098227291314,-0.00038021952804004637,2.1720856226767724,4,left
15.960999999999999,0.41741577964585885,0.2852971157046889,0.423937374065683,-1.5269938667832879,5.010394594823639,-1.7087916666019185,-1.5517798352676986,-0.020509813068268518,2.1433238886308343,4,left
15.962,0.4227932511989997,0.27134199283994187,0.4102738961440304,-1.4985359794079023,4.937090273785034,-1.6769771262138873,-1.6398634963390086,0.012826746879886173,2.1910139341893347,4,left
15.966,0.42643514854253983,0.26401697942443336,0.40345765413325174,-1.535377874268904,5.031361498281468,-1.7178031344547584,-1.5236824991614264,-0.03113023903152961,2.128108002126458,4,left
15.967,0.427452525991286,0.26195916264029334,0.40174130601239477,-1.5044849584452789,4.952600285460187,-1.6837324224915404,-1.036117126393097,-0.21567000607529754,1.8641916287477271,4,left
15.968,0.4314775904931254,0.2517547290780091,0.3954069368215991,-1.5053169128037691,4.95470852340231,-1.684650178061184,-0.9199414749776724,-0.25962352330228045,1.801290968836357,4,left
15.97,0.4412200196024638,0.24162165923713358,0.39095922418331597,-1.5644643660783997,5.105062874259467,-1.7496083406712095,-1.008000874682054,-0.2263026750479611,1.848957084760953,4,left
15.970999999999998,0.451668456044114,0.235491961165732,0.39151737962912825,-1.4189874585282198,4.735503498893619,-1.5899667055263755,-0.9549341356287372,-0.24639133752886452,1.8202577365000465,4,left
15.975999999999999,0.4680719320679937,0.22852266857177905,0.3866403117427842,-1.6602948126743038,5.348267223311677,-1.8546445531940372,-0.9764460634444101,-0.2382335418417569,1.8318463522074695,4,left
15.977,0.48237813022513254,0.22508494431101317,0.38134953188084797,-1.3419297783855684,4.540026866709473,-1.5055496570127629,-0.9768902753885567,-0.23808979383295303,1.8321659357514481,4,left
15.978,0.48460585995047173,0.22516148343839643,0.3807269764493207,-0.005596871810672643,1.1470695571745988,-0.04014454991712607,-0.9654218137736157,-0.24240588487821818,1.8258798914492258,4,left
15.98,0.4930518586544194,0.22415524204309428,0.3741655432348424,0.31286274077262777,0.3388361755852167,0.30893102095091024,-0.9790547479624595,-0.23725755487446368,1.8332932159830055,4,left
15.981,0.5098407606584292,0.22324636693281302,0.36419572968344177,0.07141306965644925,0.9516124820672144,0.04427727279848699,-0.9685984780552468,-0.24123250445553635,1.8276988555728442,4,left
15.985,0.5212410303497849,0.22334205595194956,0.3562547581238083,0.21699270214021577,0.5819789407849626,0.20391555834972813,-0.9739274407854417,-0.23915601500125352,1.8303714113841831,4,left
15.987,0.5325172603102384,0.22239669914293278,0.3436768684119924,0.15789266879696806,0.7325053064534119,0.13891133928435076,-0.9732647234053493,-0.2395102147795623,1.8303779067438926,4,left
15.99,0.5447062632054281,0.2243928726436612,0.3337566144466627,0.15676360008128037,0.7343416281922633,0.13810824589133172,-0.970968749625792,-0.24025218625356,1.8286870119132945,4,left
15.991,0.5493756468887934,0.22883979366498874,0.33230710562650206,0.1882387117391829,0.6558916679910969,0.17200209273773742,-0.9742096224049337,-0.23912693575868868,1.8307985038269248,4,left
15.995,0.5505270269238141,0.22918036508484216,0.3306123051334848,0.15062195513688906,0.7499511612244312,0.13136777367780372,-0.97176181525367,-0.24005386922260058,1.8294764986431682,4,left
15.995999999999999,0.553092715010916,0.22793395436118796,0.32815208414110186,0.17977653354693635,0.6765558087913452,0.16307069141284142,-0.9722457580203732,-0.2396838743205589,1.8290762294864447,4,left
15.999,0.551486892119539,0.22695029769921427,0.32125552897966847,0.16449492463002127,0.7165716218399111,0.14579807509739562,-0.9741785108830192,-0.23937981815897316,1.8316360464718922,4,left
16.0,0.5484935372457084,0.22373790441798677,0.30583288781816176,0.16695339047126748,0.7063983096407176,0.15016178349911025,-0.9702249449425379,-0.24023826814937319,1.8272377928691936,4,left
16.004,0.5502874625609994,0.21821417283294536,0.2907567610563461,0.17301136497060654,0.6977904858542319,0.15393046673642685,-0.9748313072801214,-0.2391750449470286,1.8321386529134172,4,left
16.005,0.5526954824537351,0.21089907502464278,0.27915558147139624,0.16349170464313229,0.7136504893802887,0.14701845583571782,-0.9719068028524211,-0.2398885853302056,1.829164315473157,4,left
16.009,0.5567922405011991,0.2036993604547374,0.27532974379860586,0.17209072990734736,0.6984422470780813,0.15363607132028315,-0.9702033739021383,-0.24019526078519723,1.827043839067044,4,left
16.009,0.5627223219849686,0.19612457314963472,0.28116165648823843,0.16759908417275432,0.7099032045122038,0.14868706866446846,-0.9791669916221498,-0.23828421298758007,1.8371425783063364,4,left
16.014,0.568118165246644,0.1869968014202989,0.2878625157711787,0.16609531444207742,0.701436876097246,0.15225117248550626,-0.9621869998174505,-0.24196252107808208,1.8182204135040612,4,left
16.015,0.5785750065040981,0.17635454676867673,0.2962315557449731,0.1740311172529284,0.7093635548526067,0.14903813577002184,-0.9841194144624054,-0.23719124385202722,1.8425881340882553,4,left
16.019000000000002,0.5915558135283723,0.16402628660352675,0.3016619105819108,0.16111441729750925,0.7002743632450967,0.15265034573373465,-0.965753450830725,-0.24119450717914945,1.8222134991630847,4,left
16.021,0.6031198170385479,0.15363060074272844,0.29706708003531107,0.17508506328286227,0.7094534286163026,0.1490193526851688,-0.9663375150811291,-0.2410557884671196,1.8228145685973416,4,left
16.024,0.6154460491147413,0.1447183875629842,0.289616575771096,0.16669506937200076,0.7049554527438886,0.15077043805462004,-1.0011274095425942,-0.23350349642071158,1.8615342510800585,4,left
16.024,0.6245304388759325,0.1347929712686888,0.2801020741967504,0.16103509563955803,0.6970895687523386,0.15399919732789766,-0.915490139967793,-0.25210924248852495,1.7662914839446782,4,left
16.029,0.627648139293051,0.12844433401044428,0.26834745374407,0.18838087582940746,0.724983934185774,0.14268206803248262,-1.057532069375958,-0.2212448890604689,1.9242404431847961,4,left
16.03,0.6276226982513422,0.12707756383098234,0.26254805280887616,0.13720176288142344,0.6744341211516194,0.1631628269293034,-0.8701562937552135,-0.2619587475656816,1.7158891772462166,4,left
16.034000000000002,0.626555088784976,0.12593305699826832,0.2620140710321045,0.20302466256680157,0.7390751414794414,0.1369771478617087,-0.08374880581659105,-0.4328428131656504,0.8414171086992321,4,left
16.035,0.6259210061683231,0.12363076190239591,0.25997166054598886,0.1480267659418391,0.6852212805443159,0.15879423205247442,0.10364742324457102,-0.4735518423473574,0.6330420760213521,4,left
16.035,0.6266428646522046,0.12331719085380734,0.256669213811286,0.14968522988165656,0.6862577445905836,0.15837586437750328,-0.03843479406847791,-0.44269189132866626,0.791032687446211,4,left
16.039,0.6279647869705114,0.12504153308943908,0.25439952037557245,0.25400512966324335,0.7903183264803295,0.11620585591035157,0.047258377305114264,-0.4613025383312783,0.6957432469718532,4,left
16.04,0.6268381251807058,0.12688242531092794,0.2533856398912431,-0.0026074963321542632,0.5350555580198612,0.2196560411900006,0.01240928961422233,-0.4537269074894562,0.7344940170227354,4,left
16.043,0.6204775585641842,0.12990580830031553,0.25120585594698575,0.4229296393438046,0.9581516910951255,0.04817691010639481,0.011864002952135709,-0.4536343923516731,0.7351059495600941,4,left
16.045,0.6149500346069048,0.13271036550198978,0.2474137299008038,-0.13836827635499738,0.4001165039848509,0.274360659633217,0.030245289889692627,-0.45757462142883126,0.7146534887137067,4,left
16.045,0.6153021884463845,0.1334540757319272,0.24583450033408083,-2.4940311379431663,-1.9430090818038226,1.2239282867900676,0.008209025425904114,-0.4528621014850887,0.7391764670877241,4,left
16.048,0.6155815898181347,0.1348045683808805,0.24220174637709102,-3.055330936459405,-2.501068111248097,1.4501475453689034,0.025398340876971556,-0.456522504916572,0.7200429097052172,4,left
16.048,0.6141497859435824,0.13801814221520686,0.2356242601746323,-2.6297917579704144,-2.077946186753786,1.2786299954692653,0.01614481177316705,-0.45454384243514334,0.7303410736540858,4,left
16.053,0.6133612762647697,0.14007194128553865,0.23410451319295073,-2.886403629486391,-2.3331991285693805,1.3820655702253795,0.018129972682404932,-0.4550387952293099,0.7281506156259642,4,left
16.053,0.6161395128036815,0.1392356447081307,0.23604009009554094,-2.7820904450794854,-2.2292241462002407,1.3400229968500275,0.0209392498204378,-0.4554447008895476,0.7249719252991969,4,left
16.059,0.624263060078119,0.13803775685075287,0.23959242120947893,-2.7804175042282906,-2.2280035256654864,1.3393304349423454,0.016081178781529017,-0.45474118453392376,0.7304685973566113,4,left
16.06,0.6315589130560033,0.1364348153436022,0.24553730642703758,-2.8354361801727026,-2.2821214122739297,1.3615406592613426,0.020822669088751487,-0.45533955438707385,0.7250799877318532,4,left
16.063,0.6370343761577708,0.1339298504124215,0.2499610877023078,-2.7695925606822165,-2.2172174991664937,1.3349634931293122,0.017545101126752092,-0.4549716325040175,0.7288171978147557,4,left
16.064,0.6409186002990672,0.13316079946440357,0.2531918657832535,-2.820780665729073,-2.2678807052855383,1.3556131743081763,0.018700176092413943,-0.4552256595196158,0.7275336971878854,4,left
16.067999999999998,0.6406501769870543,0.1315249001040832,0.25453828945346324,-2.793452558311654,-2.240212181787923,1.3446322129506239,0.019854207998284266,-0.4548377612680703,0.7260782663964325,4,left
16.069000000000003,0.6413478832737594,0.12757456441524306,0.25102100678866845,-2.7990553975186896,-2.2473507266411965,1.346778071746782,0.016578855706926042,-0.4555855942765433,0.7301137249612428,4,left
16.073,0.6424277908316642,0.12566666239214225,0.24544071262653255,-2.807543953303502,-2.2531018471297886,1.3503950456261742,0.021316483867065084,-0.4544376539035747,0.7242588932033684,4,left
16.074,0.6396854890746044,0.12664120871200196,0.24007610503648935,-2.7934522233194277,-2.24238495601507,1.3444741336925379,0.016463132898693736,-0.45570423028652174,0.7302809992874445,4,left
16.079,0.6350229000381284,0.12720361604309682,0.23423044896269568,-2.8064656422206697,-2.2527000316291295,1.349911985995793,0.01926912573615471,-0.45497271492696667,0.7267997744878836,4,left
16.08,0.6286659331140796,0.12550555263873783,0.2277317793056996,-2.7985302757865105,-2.2447846111863154,1.346715199476976,0.02125265774017378,-0.454247754731619,0.7242820560423754,4,left
16.082,0.6231105807007657,0.12371250113245204,0.2209513725485413,-2.7998555366115183,-2.250975257250707,1.3468914374531396,0.012009215691640348,-0.45729871694777746,0.7359245407372097,4,left
16.082,0.6187828037692049,0.12236705957572219,0.21600062437406797,-2.8047559070346106,-2.244714385413359,1.3496848699165422,0.029178351318962775,-0.4516463855322345,0.7143040712292793,4,left
16.087,0.6118441035139326,0.12033748948958714,0.21062741179935962,-2.795546510761253,-2.2521654300108462,1.344752001663343,0.007169539613616032,-0.45891251924600307,0.742023704756511,4,left
16.087,0.6018814530198677,0.11947849698903572,0.20227518244266166,-2.8057176027315665,-2.2445741898224862,1.3501531170248993,0.025525668573204298,-0.4528422157671524,0.7189029979953145,4,left
16.092,0.5882030373022973,0.11898891195097468,0.19703929031089762,-2.7992819307479655,-2.248405395612598,1.3468073012767503,0.02498621638086003,-0.4529979168167171,0.7195736429749272,4,left
16.094,0.5772194807598376,0.11616035070301373,0.19360947213646498,-2.7965019671754696,-2.254457705982137,1.3450379582341676,-0.009827278416536911,-0.4646120170686825,0.7634572734460024,4,left
16.097,0.5700162309288552,0.11226312066605824,0.18920975168713955,-2.8131991876626543,-2.2324701426300426,1.3546061456484009,0.07576814623426846,-0.436070757440322,0.6555705559718485,4,left
16.097,0.559191339186086,0.10785588029589392,0.18832404766763153,-2.7814157967624658,-2.2724349215671396,1.336532663086874,-0.06614462180459267,-0.48339629534431716,0.8344384715069431,4,left
16.102,0.5542741349863516,0.10407578056339856,0.18832495740185604,-2.82241155623106,-2.22129894522514,1.3598135418854294,0.12102151561712024,-0.4209696303692944,0.5985344052367125,4,left
16.102999999999998,0.5545066585982308,0.10362711486259096,0.18836887737489627,-2.788110466888627,-2.2639185777880217,1.340347991394483,0.9065854869495973,-0.15893246485800164,-0.3916442251686012,4,left
16.104,0.5475884044572299,0.10287470346630442,0.18947865352698806,-2.789327489826136,-2.2630419322857103,1.34098868438612,1.0937272216636647,-0.0964986545127064,-0.627514624500489,4,left
16.105999999999998,0.5395366533424653,0.100371503586838,0.19196394025425248,-2.853788939168588,-2.1808611051461524,1.3777312934278205,0.9518493627749176,-0.1438337722738705,-0.44869259411773843,4,left
16.107,0.5325834062914045,0.09706322488723106,0.19693542649875265,-2.6950078082607067,-2.3825300907279052,1.287289123559627,1.0374246969597039,-0.11528890360410174,-0.5565596587766508,4,left
16.112000000000002,0.5267735335005297,0.09093019538886445,0.20063986637764608,-2.95836531935776,-2.0482313509891137,1.4372798641273103,1.002585743717426,-0.12689086200296765,-0.5126242785546722,4,left
16.113,0.525939634305272,0.08699944662852137,0.20334970062323332,-2.610987975272218,-2.4891693583343573,1.2394412180023546,1.0021425689849512,-0.12708170805271307,-0.5121111277517784,4,left
16.113,0.5259833608260239,0.08631324077646962,0.20367821888018728,-1.153400358533721,-4.340219840649573,0.40915426921708214,1.0203274288107846,-0.12095379180522628,-0.5349690719424884,4,left
16.117,0.5285050582813353,0.08368318761720125,0.20140417013173487,-0.8060640329355562,-4.781187299841088,0.2113294870346531,0.9985306710517639,-0.12828631721996958,-0.5075572489679998,4,left
16.118,0.5316596609399166,0.08012682280951519,0.20043334980758376,-1.0693613692422197,-4.4468800918286195,0.3613080514214242,1.015531230567906,-0.12258858565379228,-0.5289591930723645,4,left
16.123,0.5299903856891615,0.07867076458925067,0.1983370427942538,-0.910619307466571,-4.648454086446705,0.2708501750181319,1.0062833115323548,-0.12562114209745462,-0.5172498953999319,4,left
16.124000000000002,0.5323211035975456,0.07978339524206202,0.20021135793170952,-0.975112624925073,-4.56654980644444,0.30766315933505395,1.0085868086394232,-0.12502188298347233,-0.5203225982455522,4,left
16.125999999999998,0.5419643585917359,0.07847696233636832,0.20809889328899284,-0.9761840242379988,-4.5651922717738955,0.30816620601987577,1.0106680576748424,-0.12403608365190906,-0.5226547087201341,4,left
16.127,0.555002221929999,0.07437255001820617,0.21229414517362355,-0.9421534209313862,-4.608410022636483,0.2888869840090844,1.0068882785586417,-0.12565475142442717,-0.5182476041124733,4,left
16.131,0.5726970346093869,0.07052353909473108,0.20989672188699238,-0.9828027746894963,-4.556792586235396,0.31199609399784695,1.0104950168971456,-0.1241663375088846,-0.5225090966134672,4,left
16.133,0.5910518751923391,0.06612173134402599,0.20127766066343883,-0.9513119451324042,-4.59675315118112,0.29397114600607954,1.0078424653282052,-0.12504869478766012,-0.5191631933688592,4,left
16.137,0.6036219970285257,0.06405743233335656,0.19101697570488207,-0.9679769067166907,-4.5756674176549765,0.3037457767876959,1.009643529659928,-0.12497711499491147,-0.5219612765291779,4,left
16.137999999999998,0.6078127160745448,0.06450879540353939,0.1821740577476671,-0.9647336118691928,-4.579654910336532,0.30141282814978243,1.008171504438216,-0.12425863693314759,-0.5188993436817954,4,left
16.141,0.6051159026771971,0.06769655150439077,0.17243542106266013,-0.9594183172868866,-4.586566867848001,0.29898055803700885,1.0097343107057166,-0.12554175350837912,-0.5226691426801243,4,left
16.143,0.5975068267636428,0.073296425692577,0.1665168329767862,-0.96787239880575,-4.575701396186962,0.3033216675958518,1.008186236479963,-0.12413455262226472,-0.5187989878702699,4,left
16.145,0.5850293348573883,0.07817988604052986,0.16303917370220533,-0.9605429212509802,-4.585005849856476,0.2991425297629716,1.0088944468305212,-0.1250098136714035,-0.5208005653629019,4,left
16.147000000000002,0.5715385361058157,0.0864594903859187,0.15773287419052537,-0.9642834345598386,-4.580504339088153,0.30215302100380037,1.0104276005356467,-0.1254563965944381,-0.5236883460646964,4,left
16.15,0.5575402086413909,0.09813259314699069,0.15199214662022642,-0.9648197081016832,-4.57925672044599,0.3004479208099531,1.0052280853883608,-0.1229978549882157,-0.5129524575954647,4,left
16.151,0.5428950835712769,0.1105950184574668,0.14361048776474994,-0.9608207002649362,-4.585180334065335,0.30116925588563237,1.014598003256802,-0.12764830394440024,-0.532519147559019,4,left
16.156,0.5299592739157899,0.1246831164958387,0.13709640538440848,-0.9662541045977563,-4.577379198508895,0.3010671757695425,1.0026278118248841,-0.12165635587297159,-0.5074712114522153,4,left
16.157,0.5161405985698189,0.13844162076526467,0.132751340794042,-0.9623299432524306,-4.582883130379447,0.3006788538736891,1.0125962231218306,-0.12666721844460574,-0.5283519283789244,4,left
16.162,0.5056245036762581,0.15419308488602934,0.12342653664258471,-0.9613873367325569,-4.584529884753847,0.3017349188346541,1.0124217364544708,-0.12649935967477197,-0.5279048960774719,4,left
16.163,0.4991266240703334,0.16995610678013634,0.11723002499961932,-0.9700139814461435,-4.571608075790067,0.2996790291096186,0.9931015199162617,-0.11704995128663243,-0.48770066791318734,4,left
16.166,0.4926715311125017,0.18339997067348768,0.11744348045995881,-0.9529526426892913,-4.596921519813708,0.30288528734106845,1.0404757016441604,-0.14031381828995057,-0.5863797705489213,4,left
16.166,0.49404246612438074,0.19928294675506125,0.11771695450113864,-0.9752429357481528,-4.563931958573244,0.29898711142361223,0.9619563797343388,-0.10173095993404432,-0.42279955771416783,4,left
16.17,0.4992222573388028,0.20771718178896292,0.11976954847130912,-0.9564728807263454,-4.591677537284521,0.30214860056400683,1.065520440328429,-0.15262280398503544,-0.638559801386695,4,left
16.171,0.49954800026207175,0.21016773021865648,0.12016145388791297,-0.957228363839899,-4.590612937535754,0.3022067088253816,1.5003757467025751,-0.36617850404922236,-1.544335548757783,4,left
16.171,0.5004852734797047,0.22071856838035883,0.11961660075909214,-0.9923602438846215,-4.538542789051963,0.29579657397067116,1.6039523820844217,-0.4170656402463355,-1.760109425699203,4,left
16.176,0.5047884998997462,0.2314866824751206,0.12183001935772993,-0.9056538413622203,-4.666976478859953,0.31134327078482693,1.5254180017757775,-0.37849013170365897,-1.5965202790615272,4,left
16.178,0.5113882106643093,0.24186650455617245,0.11923801965644888,-1.049549831903363,-4.45385970413417,0.2856459975254237,1.5727921566909626,-0.4017479443557083,-1.695173169491229,4,left
16.18,0.5153430066377542,0.25078385139667647,0.11617751771041296,-0.8597057460032715,-4.7350172730034705,0.31951014233428854,1.5535064571749473,-0.3922981155247666,-1.6550603428914945,4,left
16.180999999999997,0.5150680031572339,0.25116619286641184,0.11453278847351836,-0.06299319202423476,-5.91498447565429,0.4617913989652589,1.5532506131434844,-0.3921421679732049,-1.6544450234507873,4,left
16.182000000000002,0.5175932104437269,0.25356991137946855,0.105676167492566,0.12685395863688456,-6.19614465402359,0.49564690320814503,1.5633413504260432,-0.3971271402911156,-1.6755443127775567,4,left
16.186,0.5219954417344138,0.25541037144989875,0.09677423896254679,-0.017074232585305757,-5.9829883630110565,0.4699754327708198,1.5512422579561875,-0.39117198048090535,-1.6503071000416671,4,left
16.186,0.5239310951948037,0.2535728076077953,0.09238277083543826,0.0697332195685232,-6.111550946526128,0.48546740357429996,1.560680959865397,-0.39578611648440143,-1.6699027665376707,4,left
16.19,0.5241559875519863,0.2558454632560361,0.0864837746549082,0.03440141501142799,-6.059222222603365,0.4791464118598409,1.5555617968367756,-0.3933430817857045,-1.659450828804852,4,left
16.191,0.5219218345812201,0.2563556412166036,0.07948362037744348,0.03393518511893489,-6.058534980129919,0.47909298683863966,1.5567839236945629,-0.3938207381143313,-1.6616328090207935,4,left
16.195,0.5155568368523222,0.257241222895292,0.07555974002731597,0.052403323399376735,-6.085882814664911,0.48235012753537676,1.5580576758952875,-0.39459645843785884,-1.6647319222736598,4,left
16.195,0.5074846428799598,0.26255184842121937,0.07324063507994373,0.030272761826109808,-6.0531103168762055,0.47843697489989245,1.5557840714789042,-0.3933602740391302,-1.659640764595684,4,left
16.199,0.4971668620806037,0.267623249149199,0.07217925208154971,0.04752685204533362,-6.078662510268465,0.4815006329700969,1.557972323673757,-0.3944340517836754,-1.6641958208765804,4,left
16.201,0.4817069229527787,0.27470901193013975,0.07557531658018772,0.03816008867745173,-6.064788359581352,0.479801078638699,1.5563976173304972,-0.39388177507911587,-1.6615741648519737,4,left
16.204,0.46733593021836417,0.2817309381157088,0.08015037395879292,0.0404495086091725,-6.068185149005272,0.4803001962662263,1.557286401717631,-0.39381305586977633,-1.661920891214451,4,left
16.205,0.4543796297952776,0.2905564814729876,0.08705601070628974,0.0426419606624883,-6.0714217976515314,0.4805360462817854,1.5569149859161588,-0.3943841608330151,-1.6633915950853715,4,left
16.21,0.4397978606481086,0.30380224907738607,0.09889332050649251,0.038708338678598485,-6.065608653136338,0.48002424458722726,1.5569615290476544,-0.39360399984290945,-1.6610963056403374,4,left
16.211,0.4297218894103565,0.313384287513387,0.11063937144419528,0.04244617113347739,-6.071134489373345,0.48053987663640707,1.5571690315805138,-0.3941695314575242,-1.6629103330733854,4,left
16.214000000000002,0.41892189239556954,0.3226290067699873,0.12038029460746907,0.03975591711813915,-6.067150035245792,0.48005863591470294,1.556619235291781,-0.3943002287530245,-1.6629575312656169,4,left
16.215,0.40310477092313823,0.3352357976553229,0.13183386854671875,0.04143688529420457,-6.069658028276341,0.48063859634257255,1.5576808640376898,-0.39307019497830875,-1.659953050083614,4,left
16.219,0.38892088575306616,0.345862708948607,0.14660661579501666,0.04027754170660078,-6.067899042522113,0.4797917805993526,1.5560300133142926,-0.39550647606265465,-1.6661860089514735,4,left
16.22,0.3735343250790537,0.35560164429640273,0.16084504995516843,0.041364723045321655,-6.069571621255201,0.48094044611488573,1.5580348186443982,-0.392322666139308,-1.6579442410917795,4,left
16.224,0.35716656065825,0.36606530417072913,0.17363294536739188,0.040325441617405006,-6.067966068864431,0.4797372439847082,1.5564102573004939,-0.39500347282103804,-1.6649256864437394,4,left
16.225,0.3435289863328995,0.3753362296815015,0.18355116646738845,0.04073680533876786,-6.0686133224087175,0.4803989112685945,1.5563779342606077,-0.39489640221915073,-1.6645812819357588,4,left
16.227999999999998,0.33076620055467676,0.38379737382936907,0.19052129607827664,0.04202800709683035,-6.070559373797778,0.4811356630669195,1.559677948438945,-0.3898771442504171,-1.6516824060666928,4,left
16.229,0.31811031364357234,0.39332169833040026,0.1973962087641138,0.03791045196395256,-6.064315563624876,0.4781833906553728,1.5516785709734555,-0.4022623023215636,-1.683611319395165,4,left
16.235,0.30232812659457653,0.40182701806552756,0.20229799350115107,0.045269414044889475,-6.07548350424779,0.48360957480809985,1.5648977895462202,-0.38171108219278804,-1.6305864061482807,4,left
16.236,0.29210514647622743,0.4051366220388809,0.20504935022260773,0.03588280066773932,-6.0612370342771085,0.47665264144677194,1.547480849739263,-0.40882036881050887,-1.7005575964737174,4,left
16.238,0.2907702095866944,0.40470464137205153,0.20474000432328743,0.043693134881468115,-6.073090680302535,0.48245696165831387,1.4743150544553,-0.5225838684715178,-1.994141144305936,4,left
16.239,0.2820616980949303,0.40622578613219673,0.20314466165611317,0.04358040338182809,-6.072919289102153,0.48231510161386154,1.4569155005522696,-0.5496779600538222,-2.0641209281393227,4,left
16.24,0.27188964568861407,0.4093999792493547,0.20427195702149314,0.02836586683749657,-6.0498320636580205,0.4711958147189952,1.470097049847411,-0.529150240311409,-2.0110664313042514,4,left
16.244,0.27010560103242587,0.4107026712221563,0.2057642345375802,0.06564336790583339,-6.1063965070280055,0.49850916867541106,1.4621573167045154,-0.5415166431930545,-2.04306366189682,4,left
16.245,0.2696725380274193,0.41065748818272974,0.20466475041902343,0.0038677710086383495,-6.012662080124125,0.4532250737647597,1.4653820155176263,-0.5364944078037788,-2.0300474943213374,4,left
16.249000000000002,0.2701881566468544,0.4092502015290843,0.20204820049180774,0.08534498562231915,-6.1362874135992636,0.5129560669055009,1.4654197425076356,-0.5364281870322432,-2.0298564959135557,4,left
16.25,0.2711502818810676,0.4086325745460483,0.2004590575652514,0.4275509972250174,-6.655606384658679,0.7636433967634914,1.463768402109379,-0.5390228453621421,-2.0366972183353593,4,left
16.250999999999998,0.27445247169820075,0.41042968622302867,0.19728293149486065,0.5090430926647327,-6.779257331781175,0.8233744817622541,1.4657078636748868,-0.5359592730053944,-2.0284966143866034,4,left
16.255,0.2824512756387846,0.4123500842232293,0.19384241978591826,0.4472425827489593,-6.68546981062198,0.7780975622030166,1.4642560742217174,-0.538279689848234,-2.0348955907657977,4,left
16.256,0.2893285646564919,0.41491399279363783,0.19233030164354326,0.4845451761142933,-6.742113617731209,0.8053851110540347,1.4649800828545367,-0.537093856867984,-2.031432288307389,4,left
16.259,0.2980844962980473,0.41881271585027974,0.18707677962410652,0.4693196909063663,-6.718932971535836,0.7943192756291293,1.4648405262046653,-0.5373357971813324,-2.032228950154187,4,left
16.259,0.31253270194200766,0.4257252543932759,0.17831635832003598,0.46918752448028644,-6.718838765390563,0.7940978965566869,1.464725646836666,-0.5375657254302215,-2.0331652086496534,4,left
16.262999999999998,0.32742860740156143,0.43471071893286817,0.16772973465048804,0.4770601445595228,-6.730680876466575,0.7999878184143135,1.4647596022870397,-0.5373501717710679,-2.031507927956129,4,left
16.264,0.34479012500905204,0.4424670193800321,0.1542489597357632,0.46756851358614093,-6.716322067043177,0.7929811334863079,1.4650079585389109,-0.5372431730457063,-2.03312620762166,4,left
16.268,0.36565709143945035,0.4516166784311346,0.13976878777327384,0.4750526266838171,-6.727768419632186,0.7983628813917626,1.4644988313750211,-0.5376928232772323,-2.0319634446085653,4,left
16.269000000000002,0.385611782183256,0.4603892661450122,0.12340835759729338,0.47084128615732374,-6.721091241768077,0.7956051875457286,1.4649932335608695,-0.5371966239023839,-2.0325341660615344,4,left
16.273,0.4079814221027544,0.46686594772221524,0.10512890279764836,0.4721181064375747,-6.72352177249136,0.795976398849326,1.464999035612808,-0.5371896425064675,-2.032533125804906,4,left
16.273,0.4335089952132787,0.47644067912439253,0.09049765022011834,0.472733928642742,-6.723851737179681,0.7971195895777423,1.463939965939959,-0.5383318487722937,-2.0320452719236366,4,left
16.278,0.4604756225567917,0.48749273667893483,0.07703642630534521,0.4712528944381315,-6.722085968779463,0.795482961501873,1.4664202873848715,-0.5356288598206874,-2.032919743606346,4,left
16.279,0.4907804981152323,0.495029501609521,0.059774179330768215,0.4729773905381128,-6.724707472008222,0.7967418120432204,1.4626705970754705,-0.5397375992296276,-2.0318131279947855,4,left
16.284000000000002,0.5211361381842268,0.5017856402850347,0.04481247837406224,0.47116724556666617,-6.721066223841572,0.7964378798080594,1.4666969190184118,-0.5353132456873301,-2.032877426835216,4,left
16.285,0.5501466942223759,0.5079686349356021,0.02989856464030142,0.4731717731291807,-6.726151378465913,0.7955700124773434,1.4643608639335144,-0.5378830645333971,-2.0322985244055918,4,left
16.289,0.5792908955986582,0.5112245071049704,0.018415972825856664,0.47093231429855265,-6.7197052321784145,0.7974150423763977,1.4623446562080353,-0.5401071548839251,-2.0318180837529205,4,left
16.29,0.6083547162386727,0.5122776809085556,0.01652740363397788,0.47304488878608664,-6.726159525140217,0.7952467131545575,1.4711824945555256,-0.5303622935301201,-2.033882822622485,4,left
16.293,0.6380821935425396,0.5082247312955007,0.008430260838426247,0.47200830345462863,-6.722710413919744,0.7966348480242217,1.4547808241288402,-0.5484481653385058,-2.0300935217240603,4,left
16.293,0.6643604811867037,0.5047456488992017,-0.0003595481344471857,0.470542607186621,-6.718866271415678,0.7974108626429612,1.4758499663849314,-0.5252162133053698,-2.0349325782660443,4,left
16.297,0.6883489083709098,0.5039077430149532,-0.006767043093765881,0.47590177014866253,-6.734082764521213,0.7932384994635713,1.4582552419580523,-0.5446124569596111,-2.0309011805172332,4,left
16.299,0.7089218388332656,0.5069108723934419,-0.01669492681681567,0.46621229514034934,-6.706244043006265,0.8011598767310146,1.4587357101192233,-0.5440975080406414,-2.0310225437808143,4,left
16.302,0.7182773466688562,0.5176450363255968,-0.017728327953151445,0.47856459770286297,-6.741852333479097,0.7909217938894113,1.4922805972596285,-0.5070793738658577,-2.0386567881452136,4,left
16.303,0.7206022045431706,0.5251762391190848,-0.004142558409104287,0.46828952584830275,-6.712184399798954,0.7994979173486082,1.4098205478922585,-0.5980500929389305,-2.019879660665935,4,left
16.307000000000002,0.7097628767734603,0.5561170341171091,0.044265815378158276,0.46851080468977235,-6.712894223553037,0.79922061594292,1.5465510825941968,-0.44722561641277514,-2.051018742424535,4,left
16.308,0.6957185538926118,0.5884352469889909,0.09008601302226854,0.4882550423231917,-6.769711388744227,0.7829870816465418,1.3661981477002043,-0.646155445519115,-2.009942199867744,4,left
16.309,0.693617383054981,0.5897061310440284,0.1047724371847035,0.43980706443830786,-6.630199558204354,0.8229540605456348,0.6093018690907274,-1.4814432651888227,-1.8378554877141906,4,left
16.312,0.6800021693807949,0.641670703682161,0.1451739701243936,0.5201073753007248,-6.861459979507837,0.7566592954969751,0.42895264149469275,-1.6803852757529558,-1.796795982432782,4,left
16.313,0.6661592738856656,0.6999916360426823,0.1782495060134594,0.4141990479720706,-6.556456341674739,0.8441156673014906,0.5656623896865349,-1.5295117619964538,-1.8278737750328489,4,left
16.317999999999998,0.6625782541216128,0.7126818999541951,0.17341705668639565,-0.030395389567606304,-5.276134671707599,1.21117935507161,0.48326023390864553,-1.6206044773495905,-1.809241433664114,4,left
16.319000000000003,0.6534748747233319,0.7880577783206368,0.18499555824624572,-0.13631617259238646,-4.971167349618828,1.298655687494639,0.5166959277685779,-1.5833682198685368,-1.8166238789416722,4,left
16.319000000000003,0.660641178035071,0.9222412545418249,0.26194728103657994,-0.055999248794447024,-5.202355266519826,1.2323216185862396,0.5173295029468068,-1.5831476650859488,-1.8170779540910393,4,left
16.323,0.6880048545934085,1.0879680441059425,0.43487386056862537,-0.10445321137713962,-5.062946133902052,1.2723431051127387,0.49958077277216206,-1.6022618548889014,-1.8127368958660495,4,left
16.324,0.7406116546001096,1.3190632337586665,0.6385337293094714,-0.08473077144465008,-5.119651103062669,1.2560519014549674,0.520721434230041,-1.5791358368070965,-1.8176752341269231,4,left
16.326,0.858499295771066,1.6041006058102654,0.777927808123794,-0.08444728958871457,-5.1204403044648075,1.2558122976908523,0.5044408744027451,-1.597500844343381,-1.8142313426324834,4,left
16.328,1.0590794853745527,1.931217449395909,0.7848391459372461,-0.09482380116675779,-5.0907882835844145,1.2644035337283674,0.5128671255708965,-1.5869164964328588,-1.8153162075484988,4,left
16.332,1.3439816477753999,2.248496223829722,0.5939916812295363,-0.08235517657833963,-5.126218681956355,1.254064005655064,0.5115743191947997,-1.5905570713936967,-1.8164531404519362,4,left
16.332,1.7128950275187749,2.454085768076896,0.20841514356129529,-0.09212327837861609,-5.098757647950745,1.262189598462724,0.5083338347457264,-1.5914172953868913,-1.8139611797917694,4,left
16.336,2.1314971666263465,2.4773436145478342,-0.30692676758890575,-0.08679846513906919,-5.113433452029623,1.257734629044338,0.5131068573698259,-1.588314616313591,-1.8164453477349354,4,left
16.338,2.521184576187051,2.3408762284880993,-0.8234784912318113,-0.08804080137355888,-5.110138115346775,1.2587849900147932,0.5093046449121039,-1.5925297111376784,-1.8155931211979333,4,left
16.340999999999998,2.786678134671405,2.1250095819764203,-1.2096415093237625,-0.08952617876105923,-5.106420500659382,1.2600614197879891,0.5105347484313121,-1.587156808487979,-1.8132780213841018,4,left
16.342,2.853736325463937,1.8721747759227771,-1.4302003562224717,-0.08679502986344476,-5.112485423947458,1.2576469066939795,0.5124406855810124,-1.594229616911325,-1.819641202451356,4,left
16.345,2.7090117130146343,1.6047514974541612,-1.4946085843460601,-0.08962872877618619,-5.107423337817947,1.2602606002460175,0.5079361683221493,-1.5855119042683015,-1.8097708885013595,4,left
16.347,2.398727020529998,1.355802022191182,-1.4302194855124495,-0.08739717676030931,-5.110049835297457,1.2580822301814645,0.5133459185800895,-1.594133820631761,-1.8204309125341362,4,left
16.35,2.001228290339177,1.1326962060209484,-1.2998790423403395,-0.08863680074184666,-5.109507774289721,1.259373390210002,0.5098125945733862,-1.5896027323912807,-1.8141790461316214,4,left
16.351,1.5788681017596857,0.9346705856093563,-1.1345288802990359,-0.08863893840818976,-5.109530331809612,1.2593774059024114,0.5080339877477391,-1.5842957736390337,-1.8090774943467556,4,left
16.355999999999998,1.167499096157876,0.7680595136238081,-0.9479756441138832,-0.08720256071406178,-5.10804549517108,1.2576952847192828,0.5181557955744394,-1.6049360153874166,-1.831934881708213,4,left
16.357,0.790635204220984,0.6315106014914407,-0.7562933905896956,-0.09012035029021385,-5.112485598924074,1.261238466649444,0.4988325323397387,-1.567270403285205,-1.789420512869842,4,left
16.361,0.439401850602277,0.5408719343424399,-0.5313387284162663,-0.08606797649433223,-5.104999430393576,1.2562005221756627,0.5238435104253174,-1.6154128222353985,-1.8440558305144772,4,left
16.362000000000002,0.13746060819628353,0.4879031889343319,-0.3011998376446471,-0.09021212129811482,-5.113482585781227,1.2614262911097114,0.502879142345438,-1.5753175100331112,-1.7984250823069572,4,left
16.366,-0.13027911418050134,0.4812742229389549,-0.03501151932238479,-0.08787417517556173,-5.108423900482348,1.2584528742552585,0.5035758618144242,-1.5762512896053908,-1.7996881186628602,4,left
16.367,-0.3746276736979782,0.533517857472239,0.29531668371057546,-0.0858807548474883,-5.103982228401389,1.2559099274744807,0.5432066966232891,-1.6531060329160214,-1.8866219989965929,4,left
16.372,-0.5685085806264829,0.626488302831471,0.6384688177405501,-0.09453447008606529,-5.123586450091389,1.266985288098593,0.4456121667500424,-1.4644296521367113,-1.6729094814866765,4,left
16.372,-0.8019284511199083,0.8097842767106314,1.056107094578285,-0.07855180894100615,-5.087056551648672,1.2464983793514808,0.607498612982815,-1.7771746651262847,-2.027268653765435,4,left
16.375,-0.9662720659916837,0.9586075021844488,1.322204207035582,-0.09902844323375462,-5.1340793656662775,1.2727685141022231,0.393945948566099,-1.364702238413202,-1.5598664591323272,4,left
16.375999999999998,-1.0087108801538687,0.9956544068486648,1.389931512829268,-0.08195488112554886,-5.094783528400649,1.2508518211908455,-0.5023456285495587,0.36700195245400447,0.4020662942763718,4,left
16.377,-1.1422586521482567,1.1616267903699729,1.602784127044548,-0.08241538808224727,-5.095799385210487,1.2514499923420916,-0.7159028436074457,0.7794784580445316,0.8694708330463081,4,left
16.38,-1.2967444477714438,1.4081286206403691,1.8087115907174252,-0.11494038445825944,-5.170943012600376,1.2932001406166007,-0.5539957627410923,0.4667149369808983,0.5151010315260947,4,left
16.381,-1.3834330487586177,1.6064918704241502,1.8332629198572103,-0.035017474308827005,-4.986298943252226,1.19058678747701,-0.6516440693193363,0.6554395641751811,0.7288412501960579,4,left
16.386,-1.396345748091486,1.8453426863624238,1.7032675119532112,-0.16751481288025794,-5.292420029793272,1.3607188088784832,-0.6119148398417069,0.5784965345364511,0.641856685440171,4,left
16.387,-1.3460265383210193,1.9878865442599634,1.5463827270732087,0.0072327303767264345,-4.888683376051535,1.1363188203791994,-0.6113531848376994,0.5776839541298304,0.6406632225172527,4,left
16.387999999999998,-1.313405379048761,2.0116793028156374,1.491823816498294,0.7407729978752327,-3.1931913032993866,0.19448155550348464,-0.6321852599273398,0.617660541297602,0.6862258250346249,4,left
16.391,-1.1753473000995083,2.0775770530598283,1.2778234028701796,0.9155007910273678,-2.789532105479806,-0.029918527332096975,-0.6072293712593655,0.5695675852656694,0.6316188843823194,4,left
16.392,-0.9303820024629834,2.0850927837364486,0.9463253253084434,0.783030834870223,-3.095586718061823,0.14020863133071665,-0.6266711944032348,0.60733954408117,0.6741943253430811,4,left
16.395,-0.6770765647353817,1.9557118632313297,0.6937187117654408,0.8629405700400472,-2.910849399034645,0.03761290243168754,-0.6161741188899788,0.5863626023339383,0.651143632384881,4,left
16.396,-0.3892398460026585,1.7529524111355395,0.4505998244818471,0.8303886089314835,-2.9863975403228373,0.07932645827494389,-0.6185973473182038,0.5922479845303644,0.6565772372193217,4,left
16.401,-0.11920780135298303,1.5103901222422556,0.2749943792953399,0.8300154591138745,-2.9866275691105577,0.07997914232776364,-0.6213402815589048,0.5960697951463303,0.6624219639990365,4,left
16.402,0.11456647994397404,1.2677472814308923,0.17905138890391156,0.8469402784776182,-2.948390767147655,0.05800368096511323,-0.616560335695064,0.5880131334060557,0.6520863592843364,4,left
16.405,0.32707005575462056,1.0369221137214826,0.1315303077496464,0.826641104810504,-2.9944435514934646,0.08430811254514567,-0.6210710519062241,0.5967362196256115,0.6619598681726133,4,left
16.406,0.5060066434618937,0.8228700640556401,0.14051917665533153,0.8424927000981546,-2.958175186943887,0.06385139255050828,-0.6179948351210462,0.5886135112482306,0.6549938588195842,4,left
16.41,0.6597402308471567,0.6371154458927943,0.16426694404464734,0.8338121749497235,-2.978974210882355,0.07479363390766226,-0.6194384749877951,0.5963854701822258,0.6586862400066146,4,left
16.410999999999998,0.7810482381281211,0.476570901924094,0.1866613312605933,0.8361079748374202,-2.971306163628368,0.07250117173371129,-0.6192521771366539,0.588591347235713,0.6574839335614442,4,left
16.414,0.8718040186366987,0.34889085764971733,0.2017799985954215,0.8378023035598463,-2.971453394038845,0.06919737375442797,-0.618730864907343,0.5955095748057089,0.6571898731346797,4,left
16.415,0.9283149373482846,0.2529987369122111,0.21285723576956567,0.8345781880890597,-2.973922588604231,0.07472116042625965,-0.6195148841860121,0.5924442945597945,0.6584164843654099,4,left
16.419,0.9455942334592613,0.1860836347794185,0.22186941422713552,0.8377027366482402,-2.970671100481718,0.06960605071735126,-0.6186895784451134,0.586904240867618,0.6561884735858371,4,left
16.421,0.9355749711149677,0.14686933013046366,0.2211866275834496,0.8352238626430655,-2.97643742971903,0.07277937932584727,-0.619532037920767,0.6058044588548045,0.6598780526823548,4,left
16.425,0.9090052499646748,0.12793815823473748,0.20788606063275933,0.8373564988660199,-2.9641392179046733,0.07208707450933295,-0.6186240914280454,0.5720163660295428,0.6544679162945427,4,left
16.426,0.889801046186012,0.11987521021437106,0.17486878372147552,0.8349514432356727,-2.9865350520460483,0.07049914656278922,-0.6195539705518649,0.614947600833881,0.6608983922202809,4,left
16.43,0.8834543445454537,0.11304918087428666,0.12352456488749132,0.8379482380652417,-2.954493330272121,0.07362726284043625,-0.6188775587218991,0.579297285976132,0.6557484472752361,4,left
16.430999999999997,0.9048182031199938,0.10477943712509813,0.0567033346598782,0.8348634825601218,-2.988393632535127,0.07015123581172457,-0.6187417097307679,0.5799693156126953,0.6555507116398083,4,left
16.434,0.9586763225033754,0.09249298544007845,-0.01633014459274279,0.8364723414119521,-2.969211550594941,0.0723830292209198,-0.6204413376198832,0.6487275917490625,0.6662669803411445,4,left
16.435,1.0295708575126612,0.07545056330999826,-0.07970079730740759,0.8387194067112641,-2.950674284879298,0.07320060041005005,-0.6164872567523547,0.4801491695398337,0.6404160684246213,4,left
16.439,1.1507323371209135,0.05248126674895739,-0.12349199609105276,0.830292611953128,-3.0285200849341134,0.06781163015484606,-0.6229583064829085,0.7595049469245476,0.6830925362597549,4,left
16.439,1.241944616071636,0.03505043096155185,-0.13998014492628752,0.8456667923039386,-2.8847522580948493,0.07813244494998609,-0.6144549822802791,0.39108604970988503,0.6268717836531486,4,left
16.445,1.2671979821595563,0.03231359832200081,-0.14114067640804467,0.8259815616472868,-3.0692153576124874,0.064806542171379,-0.5786432112603894,-1.1555788586012352,0.3906248698108963,4,left
16.447,1.3671274531028215,0.01862016023407543,-0.13567672470549963,0.8423943900103947,-2.915284522710543,0.07596161642358655,-0.5701505198164079,-1.5240177838058484,0.33442508234824064,4,left
16.447,1.5130237500758654,0.0033715159194254857,-0.11582323982718076,0.842034685091374,-2.919211072923556,0.07554515425232908,-0.5765885251048536,-1.2446540434751268,0.37703330930151324,4,left
16.448,1.6317059893342765,0.0022858940691470515,-0.09159704296026319,0.8104579282294875,-3.213483832727051,0.054649916014900164,-0.5727063658856002,-1.4131756769869066,0.3513351378270431,4,left
16.449,1.75041253971518,0.0054170451272680005,-0.0718890895485696,0.8879732876692932,-2.490506332957195,0.10614324979440007,-0.5742868599880715,-1.3445893645891307,0.3617939734074605,4,left
16.454,1.8415624600608058,0.046363643904145706,-0.059085867187861865,0.7594707820350821,-3.689128484830465,0.02072961443550119,-0.5743022605092543,-1.3436141942728177,0.3619278904250308,4,left
16.455,1.8799483678919573,0.08862211715112225,-0.05697360192822794,0.9289669497208729,-2.1081911738695056,0.13339298141918313,-0.5734931179123853,-1.3796456256363567,0.35648035753959023,4,left
16.456,1.8879482060067052,0.10205777650282159,-0.05939413255308971,1.6404298313546573,4.529080428614463,0.6061116189591521,-0.5744500812459894,-1.3364017288535894,0.3629849097394324,4,left
16.459,1.8858766428094391,0.17214470653872066,-0.05939610750088289,1.8099328863140485,6.110080754730525,0.7187595119928312,-0.5737255952429836,-1.370200606153046,0.3579555420766174,4,left
16.46,1.849239689503365,0.289003172810833,-0.04950929486036463,1.6814383312793875,4.911263327015604,0.6333657204323575,-0.5740951275840009,-1.3518548547518643,0.36063047150915795,4,left
16.464000000000002,1.7710589149295175,0.408844704261209,-0.0296205903855535,1.7588963017256467,5.634665079396199,0.6848544342872069,-0.5740196625203999,-1.356100894599312,0.3600348033530236,4,left
16.464000000000002,1.6733827639461913,0.5455625284014912,-0.005564491661860734,1.7274567327118562,5.339690377399139,0.6639263134493052,-0.5739508378884487,-1.3611163381489808,0.35937764837896846,4,left
16.468,1.5558646042820663,0.6816388299751592,0.026578529869627523,1.7268769877477452,5.336654120880976,0.6635957348467292,-0.5740097988252093,-1.3521018182486997,0.3604090343613843,4,left
16.469,1.42938928550055,0.8173241022088333,0.06718408083210728,1.743545153486095,5.489804852523983,0.6746155542512013,-0.5740576359658638,-1.3611229381672034,0.3596237061783051,4,left
16.473,1.2978804657158247,0.952508862609815,0.10397305957172193,1.7236807996722856,5.305498527619967,0.6614394701092541,-0.5738993025659196,-1.3543856594952701,0.35992705238842726,4,left
16.473,1.1579722197211806,1.0764085608865686,0.1300620046036614,1.738992737205159,5.450350108233694,0.6716675395079548,-0.5740686814031578,-1.3578807937383552,0.35997111341648436,4,left
16.477999999999998,1.0170710626143311,1.1960770155871345,0.15737459606078114,1.731041270197282,5.369716589419261,0.666214670537037,-0.5740709896609528,-1.357880458688763,0.3599765997236045,4,left
16.479,0.8751286413121278,1.3036030496995887,0.1976551411989381,1.7323102979849359,5.392669533489024,0.6673494755283615,-0.5736872223626266,-1.354400823222571,0.3594356516989746,4,left
16.483,0.7330418472654676,1.3958006356468784,0.24963845545514043,1.7352903348074113,5.406834493643689,0.6689714185574651,-0.5745934101715495,-1.361084919761021,0.3608648875826088,4,left
16.484,0.5963371198542933,1.4718785267457994,0.3063213738218815,1.7308563126422634,5.37633934436703,0.6663109994690015,-0.5732174273548465,-1.352157879591393,0.35857355044517236,4,left
16.49,0.47198894357477317,1.5219320497677655,0.36052606316367597,1.734430493527554,5.409778356186774,0.6686885145084228,-0.5746984310678227,-1.361063639001434,0.361109248424055,4,left
16.491,0.3611395574006456,1.5473382271905978,0.42132999215015554,1.7331779058979713,5.377927381163744,0.6673249651319393,-0.5738380050212533,-1.356113298055272,0.35961436836806615,4,left
16.492,0.26362938278747183,1.5437705224108438,0.49417661215440106,1.7316066190697834,5.409355285731376,0.6674954102259525,-0.5730950687915672,-1.351926291698379,0.35831333863799397,4,left
16.493,0.18311564015690246,1.5094073423972063,0.5623643220808805,1.7355122813830592,5.377036520633364,0.6682781299320888,-0.5763532889887165,-1.370013953037321,0.36404304743551735,4,left
16.497,0.12216375045567002,1.4543824843674908,0.6155627321634329,1.7307772396397434,5.4061596792798605,0.667064766984988,-0.5703051222613253,-1.3366954234533848,0.35338299402481277,4,left
16.498,0.08283756718233494,1.379704351096478,0.6479631670547088,1.733896496862959,5.392904433255099,0.6680193276122276,-0.5780754691757279,-1.3793218243784962,0.3670947866717348,4,left
16.503,0.05892866904051595,1.2953165875913308,0.6609436873393788,1.7353935478854328,5.370372693985923,0.6680540168598176,-0.5715858618130434,-1.3438045670423402,0.355636979458127,4,left
16.504,0.05126617067963009,1.2041740341408516,0.6659815217064107,1.7266427682249903,5.448495554900473,0.6664490907935822,-0.5717636259932095,-1.3447714857138968,0.3559461233579343,4,left
16.507,0.057111622696974965,1.11189821582954,0.6677653932117165,1.7433909826390028,5.308453804589261,0.669767418910284,-0.5841355979390197,-1.4123617689685788,0.37781459093834185,4,left
16.508,0.06971462804027864,1.0302937022784309,0.6661450126724278,1.7216977288347075,5.486534457294561,0.6653852128653779,-0.5537214353491,-1.2462781069971118,0.32405796248314656,4,left
16.512,0.0982192347872024,0.9441832994690355,0.6543171187206542,1.7398882950799726,5.33859255464693,0.6690917928518565,-0.6041534764906715,-1.5216061584210108,0.41319578245838023,4,left
16.512999999999998,0.12395572144584074,0.8884456359756019,0.6403936297960535,1.7392720131927935,5.3414809986269765,0.6689207792229259,-0.537630864837453,-1.1584853207650543,0.29561819398647404,4,left
16.514,0.13447603408777556,0.873790630430062,0.6357283568677496,1.704915355747955,5.626549823735783,0.6620438336024661,-0.2584691407331937,0.3656930447422174,-0.19791701305422674,4,left
16.517,0.16737947050711804,0.8291563831112778,0.62160850878616,1.7895402463468744,4.927487288716741,0.6790428042621628,-0.1919483772800682,0.7287874798852144,-0.3154986605701111,4,left
16.518,0.23273747468235828,0.7652398061988179,0.5935500627555641,1.6491586103678624,6.085976483389752,0.6508293443921118,-0.2423700958378457,0.4534950843402989,-0.22635526541866585,4,left
16.522000000000002,0.27524329731749125,0.7356866798767385,0.5776197668416885,1.8343486510074283,4.558127981361624,0.6880428919914667,-0.21198465284672,0.6195644976941229,-0.28011441576097723,4,left
16.523,0.2889741861648772,0.7251525445577464,0.5740705028864712,2.6115492696991636,-1.8555135839222214,0.844365162575281,-0.22430248160636168,0.5519312313548835,-0.25825187316754583,4,left
16.524,0.34044403376926324,0.7007454925668439,0.5555520396032085,2.796749150934547,-3.3833788433005165,0.8815549362899577,-0.22455613962861204,0.5510913855059567,-0.25792420690353846,4,left
16.527,0.4148340193031804,0.6744922274125493,0.52517495901662,2.656342769795927,-2.2250030622947854,0.853357827810109,-0.21799022223169898,0.5863987497013834,-0.26941319476125075,4,left
16.528,0.4718445319346072,0.6676023859613884,0.49876500300104587,2.7410135475292075,-2.92359276936402,0.8703997714655949,-0.22579595482354192,0.5440159620870387,-0.25566457650257896,4,left
16.533,0.5296648778695422,0.6680364884327321,0.46749550898124526,2.706589257878633,-2.639544649195593,0.8633690794936648,-0.21980791794698543,0.5771651041160524,-0.2663512480159468,4,left
16.534000000000002,0.5856212704035912,0.6727159921857186,0.4265069879236811,2.7060497192107364,-2.6351017448216982,0.8634831585710094,-0.22286201773037134,0.5590163789423825,-0.260628436190653,4,left
16.537,0.6355760905873935,0.6854479805735249,0.38119197126147697,2.724185314034151,-2.7847586644925393,0.8668175709475241,-0.2224777185641702,0.5636548458772599,-0.26186472397580296,4,left
16.537,0.6862023308350622,0.698688802365548,0.33613592707656187,2.7024780218571447,-2.6056119505374937,0.8627602525797496,-0.22116903588480608,0.567682785313548,-0.26349528187800636,4,left
16.541,0.7347065666758297,0.7102148381333118,0.2895739887174644,2.719360012325957,-2.7449220055838066,0.8660232859626336,-0.2230199352146524,0.5600623029048329,-0.26076748558870466,4,left
16.542,0.781990316554009,0.7177321661751105,0.23954862877403316,2.7103269935040193,-2.670460497360488,0.863943772453636,-0.22161834934648528,0.567736112759643,-0.26325013635119854,4,left
16.546,0.8276577638180109,0.722967389726661,0.19727132637018824,2.7122269169070865,-2.6859220273502205,0.8651707274284466,-0.22190426101930621,0.5615661807832433,-0.2617348701704809,4,left
16.547,0.8723631952664295,0.7301739240527761,0.16492327050929956,2.714939445044706,-2.7086776051091563,0.8642620099267924,-0.22299069984143308,0.5661678504538203,-0.2621218323763458,4,left
16.552,0.9150534574149255,0.7341866213134373,0.1373286316630507,2.710398284236924,-2.670743556129598,0.8651324527635513,-0.22075720238660287,0.5626481446915441,-0.2626278361154303,4,left
16.553,0.9519816551288054,0.7355952030036541,0.11816043412297508,2.7146055027589187,-2.7058308815197094,0.8645570285791462,-0.22336238188571583,0.5651760088016303,-0.2616919744761056,4,left
16.555999999999997,0.9841392851598088,0.7409146464400063,0.10346840182518117,2.711986712539888,-2.684226477329577,0.8640173573034542,-0.22170672056410137,0.5645365600416781,-0.26249862740761143,4,left
16.558,1.010769106914658,0.7498911474741343,0.09111528514975016,2.7125841014088676,-2.6884570472591838,0.8667757038637542,-0.22074709017239003,0.5614322625197855,-0.26236724621247454,4,left
16.561,1.0281303622018811,0.7634433857652821,0.08262422515607812,2.713834525242605,-2.7003740256057522,0.8609988524899703,-0.22580956457416915,0.5703077102343692,-0.26141689603931695,4,left
16.562,1.0362962044782975,0.78184636619905,0.07093918725366913,2.711343036429435,-2.677426373533418,0.8694904022502745,-0.21621728018439418,0.5549614849467344,-0.2635398664931181,4,left
16.567999999999998,1.0356404038607576,0.8033710672445945,0.058414101702627626,2.714115132178838,-2.7028514017726644,0.8604622264527393,-0.22860781349568252,0.5742648155344681,-0.26068370156346,4,left
16.569000000000003,1.0310624013316922,0.8264642601129824,0.04851202079221927,2.7123300127328918,-2.6866414293788976,0.8656407929555148,-0.21823232379153085,0.5583204696121467,-0.26312355595778203,4,left
16.570999999999998,1.020467558351204,0.8527097083383286,0.04061277225635783,2.7117013645219057,-2.6801958893297204,0.8702910539232197,-0.21856153087325575,0.5584870468921368,-0.2629717075508947,4,left
16.572,1.0033798947814165,0.8802983805324904,0.03642623166718633,2.715941113095898,-2.7207250548543227,0.8502453775556873,-0.23821692496816899,0.5895937066537777,-0.25854737696678004,4,left
16.577,0.9880438044455306,0.9031980041094583,0.032323165658539904,2.707811211013601,-2.643341428860891,0.8873636919083494,-0.18983613925101805,0.5135224876993656,-0.26954656194508775,4,left
16.578,0.961669569221875,0.9288272030946523,0.033533707640059224,2.718308430378778,-2.7432018252906873,0.8397165053477174,-0.27008050183805166,0.6395044524845848,-0.2512616220149412,4,left
16.58,0.9401929974571379,0.9468393281792093,0.039013310813820715,2.7095240702801267,-2.659636057777191,0.879486266924316,-0.16422860218779284,0.47339044612224246,-0.27539734602813876,4,left
16.581,0.9339572827041083,0.95055964002782,0.03978493514403844,2.7098469318754574,-2.6626619345724443,0.878437163753411,0.2800285376479977,-0.22419076054488835,-0.3766025550353133,4,left
16.582,0.9117640448170722,0.9650459156878307,0.04503158010562794,2.7263103097821157,-2.8194888059500105,0.8025216339156139,0.38588135465487705,-0.3903002838495381,-0.4007396855760379,4,left
16.586,0.8806464487937469,0.9838414509605417,0.05343500831536978,2.6857518260422535,-2.4331361735623895,0.9890741359513364,0.3056328327679088,-0.2643386592967691,-0.38244836817842137,4,left
16.587,0.8433148596946303,0.9949235670460426,0.05622979053680291,2.7530165691469097,-3.073946596687361,0.6797782861525383,0.3540244578175036,-0.34035685751639405,-0.39346417338579753,4,left
16.59,0.8154168010059193,1.0028562805087127,0.057797569375317895,2.66430131056599,-2.2287144975902766,1.0877291551033506,0.3343492314420232,-0.30934721913315866,-0.3890094332355873,4,left
16.590999999999998,0.80921043639172,1.0049397575856736,0.05752535651382587,2.291795605567435,1.3183446076109357,2.800369468842315,0.33404724742280123,-0.30904745271782635,-0.3888993271666053,4,left
16.592,0.7804065504785977,1.0108401696377376,0.06012245557341499,2.2030829782917456,2.1634883888185463,3.208331613518556,0.344396073081974,-0.32512226703026725,-0.39129829612147016,4,left
16.596,0.7415985179231197,1.01883783492926,0.07052691018777837,2.270377323592141,1.5227360158467897,2.8989929891864117,0.3320166424567992,-0.30576458442692656,-0.3884591560380742,4,left
16.597,0.7128226409041106,1.0229846033861865,0.0805075112083131,2.229702821532162,1.9092578307225476,3.0856491485658273,0.34163282466355044,-0.3209939362562664,-0.3906187692015783,4,left
16.6,0.6784906625256353,1.0286737478852066,0.08704400656024006,2.246412593669577,1.7518401342641337,3.009550820663792,0.33649471138204756,-0.31248850387532157,-0.38955243946878026,4,left
16.601,0.6509938940227978,1.029989419721192,0.09047473955385506,2.2463636043597175,1.74990253488832,3.0087458760390966,0.3375842699111101,-0.3149571524153054,-0.38962028241050467,4,left
16.604,0.6288723091033888,1.0293666820855705,0.09077529814481844,2.2379856684850807,1.832054410933622,3.0482849784873465,0.33908062424170216,-0.31637604221540966,-0.39018266224271714,4,left
16.605,0.6078694423071702,1.0316172607592764,0.08855595427222179,2.2482364771141286,1.733418991547011,3.000718320450475,0.33660238230678263,-0.31322701909788747,-0.38944144183840584,4,left
16.611,0.5929276343999711,1.0295462414963903,0.08220339836763749,2.239918934528556,1.8106138189356185,3.038078871970944,0.33883713525668147,-0.31674079237886477,-0.38994936668964897,4,left
16.612000000000002,0.578433991959462,1.027706487076592,0.07194984019013251,2.2450476369207597,1.7682498727684384,3.017325809096817,0.3375148116904811,-0.31329292200587366,-0.38997464142986393,4,left
16.616,0.564095947318509,1.0312706972434915,0.057601521037512066,2.2427207372400155,1.7792588967019243,3.023156748651572,0.3377678159678642,-0.3168264340851096,-0.3892857146224309,4,left
16.617,0.5523706603284845,1.0338039630787788,0.04101504770345455,2.2432002002879763,1.788370434992303,3.0269243212782113,0.33836549215110046,-0.313085722779777,-0.3905356957823579,4,left
16.621,0.5434506345768401,1.0360586554361575,0.027727098916472827,2.243895724507991,1.7708448649836268,3.018965732715813,0.3373715413665759,-0.3165132368335225,-0.3891219027374312,4,left
16.622,0.5346774235617975,1.041455227361534,0.018845864100736947,2.242009937594325,1.7887080799042145,3.0275937602069423,0.33818513245465814,-0.3149083848393368,-0.38999329985510156,4,left
16.625,0.5254984599224388,1.0445556747462796,0.010901487664746518,2.245682920599892,1.7739520677132037,3.019540574730134,0.33814247618127835,-0.3123574801718641,-0.3905749403082919,4,left
16.625,0.5192618940710663,1.0450042823545955,0.005588091368712847,2.2396102878531527,1.7855668627721915,3.0272713258158572,0.33695658207444024,-0.3213674708994404,-0.387716708449402,4,left
16.629,0.5159131318230006,1.0468431210360731,0.0047161612139554766,2.2478522675514645,1.7760245130169747,3.0194973826168576,0.3394801465429545,-0.30516731552655957,-0.39309115903341063,4,left
16.63,0.5139987300588119,1.0462656328166018,0.002483150591559874,2.2393649889234704,1.783348578108253,3.0264089234667875,0.33612284534377945,-0.3257856551998787,-0.3861635456648773,4,left
16.634,0.5147831722678352,1.0452790859666872,-0.001303092978097334,2.244068870627072,1.7810266132137955,3.023338040138851,0.33897515792935184,-0.3086499401548535,-0.39195820968674344,4,left
16.635,0.5163489985600068,1.0425982686571156,-0.000843197102204181,2.2487457425161663,1.7730864388895848,3.017822495303262,0.3388216333961328,-0.3089943566484086,-0.39178425529398264,4,left
16.64,0.516927883570581,1.034494972531156,-0.00024904949638074797,2.229424648746722,1.7968810698495266,3.0366690199223823,0.3335858088175452,-0.34198625413743833,-0.3807805916928546,4,left
16.641,0.5211160328315882,1.0246374931234183,-0.0022962573648853514,2.2649853970482807,1.7553414599643533,3.0029686840649172,0.3465653324743534,-0.26106886516285877,-0.4078508577042471,4,left
16.646,0.5237261676088396,1.0052280997750647,0.0015070096326482432,2.219420226824721,1.8077484299184725,3.0457902862706323,0.3250028115564231,-0.39516845113596977,-0.36295801882283746,4,left
16.647000000000002,0.5219453952007376,0.9906171232839716,0.006225413172819791,2.2574209105024114,1.7643891799893074,3.010232111428696,0.3534590932349192,-0.21831537937339923,-0.42217451843779685,4,left
16.648,0.5208111784243328,0.9851552351017447,0.007010500953600479,2.2564516600414635,1.764958527002537,3.010898816703972,0.4728405103819457,0.5241155982093947,-0.6707256018762302,4,left
16.649,0.5156447432207603,0.9647353521626374,0.010894934911470455,2.1838327582228043,1.8492443617446028,3.0794868880484847,0.5013000396236662,0.700964867501456,-0.7299421649407085,4,left
16.65,0.5091801911437912,0.9420740009822138,0.01504659616901671,2.3622386067088703,1.6429515267041173,2.911335223916134,0.47972519992386403,0.5668832194749812,-0.6850472505881348,4,left
16.654,0.5040411619417249,0.9180239645497031,0.022503484902922727,2.0664598114883237,1.9846692277562288,3.189973718111073,0.49273457523584696,0.6477532084433448,-0.7121245987103042,4,left
16.655,0.4984929357245754,0.8970552939700387,0.030732469368668514,2.456588833250306,1.5340576131936046,2.822514760579965,0.48744610865952726,0.6148486098337924,-0.7011065085367716,4,left
16.658,0.49665453430067286,0.8922375783573944,0.03392470788600556,4.094201400773981,-0.3578519301105549,1.2798795816087716,0.48736289571356867,0.6143837964114118,-0.7009538047924988,4,left
16.659000000000002,0.4943443431794893,0.8738221019426069,0.04143495723243978,4.484365947992823,-0.808470204439219,0.9124493185946385,0.49014878541923035,0.6316381449605779,-0.7067258376266092,4,left
16.66,0.4901435658847508,0.8469109005052394,0.04838718079151182,4.188530194635312,-0.46679702079051905,1.1910098509917613,0.4868146717129402,0.6109691110820817,-0.6998109699073722,4,left
16.663,0.48735085420465774,0.8280854112109334,0.05275854284548932,4.366987029502298,-0.6729039115598681,1.0230125575776023,0.48940799844271915,0.6270659067239195,-0.7051981011532718,4,left
16.664,0.48292241826161214,0.8087469467192732,0.060258605930898254,4.294360374307411,-0.589019671038286,1.0913610177399287,0.48801839047765316,0.6183880147897086,-0.7022870330527301,4,left
16.669,0.47386660867148367,0.7955976173370827,0.06339115209035484,4.29331744834564,-0.5878385629818691,1.0923144031196936,0.488315742470305,0.6203655829599677,-0.7029668044504012,4,left
16.67,0.4618708283327726,0.7891953067145885,0.057003912812065745,4.3314961140818244,-0.6318729479316512,1.0565284281998055,0.48872300494168275,0.6226764742107119,-0.7037100331640459,4,left
16.673,0.45035006585871473,0.7894880380855187,0.03878322357166307,4.285663333671282,-0.5790460013544717,1.0993479819758813,0.48803705888481724,0.6186818101710794,-0.7024100800437663,4,left
16.673,0.4354128842160414,0.7972574418115199,0.013505818684086944,4.321507396847357,-0.620298294843751,1.066073578599877,0.48867405504617784,0.6224274289906593,-0.7036342300768496,4,left
16.68,0.4159931982102593,0.8063864951313506,-0.005742550768014711,4.302029309372877,-0.597943876281509,1.0839424316585098,0.4882715089486802,0.6199237164713512,-0.7027955835658501,4,left
16.680999999999997,0.3975541715203373,0.818022152020439,-0.01548317301773177,4.3065465709633965,-0.6031020800728104,1.0798912941641992,0.4883811337244277,0.6209997804151046,-0.7032117864561589,4,left
16.683,0.3789569373366942,0.8339062836578605,-0.020319180574204253,4.311903048300442,-0.6091629331788317,1.075253684830555,0.48853259344659145,0.6210393700099033,-0.703097343770074,4,left
16.683,0.36014184180253245,0.8527184967176752,-0.025770203811247012,4.30221413588615,-0.5983705346871007,1.0830722538172557,0.4882103817074998,0.6203818271452466,-0.7030676402374412,4,left
16.69,0.34437972512220705,0.8729292690148346,-0.03711455122241894,4.312012319532014,-0.6090038471220527,1.0760925618969845,0.48857180554082635,0.6211942384356887,-0.7031366964581048,4,left
16.691,0.3297579620313109,0.8961131103822706,-0.05087028119628434,4.30457732692708,-0.6012541447934805,1.080337311011451,0.48833459715751193,0.6205488628094322,-0.7030377238255121,4,left
16.692,0.31276145936966127,0.9204872045841813,-0.06464828864949167,4.308517946149292,-0.605138240489409,1.0788237604141093,0.48827061335975647,0.6208641859243341,-0.7032447715295763,4,left
16.692999999999998,0.2954481178029672,0.9416659224609478,-0.08431054111763708,4.308519862996244,-0.6051339511190281,1.0788417815813496,0.4887806904199224,0.6209108971913728,-0.7028173933689136,4,left
16.7,0.2796109846011714,0.9625886836823917,-0.10541787503694332,4.304390465343078,-0.6016039642931608,1.0786526989159373,0.48779312793576196,0.6205668404439704,-0.7035233454633216,4,left
16.7,0.2625954624114889,0.9807174565365773,-0.12168891422453813,4.3124845841623145,-0.6081209249651853,1.0803489003179876,0.4890706840030581,0.6210662793544558,-0.7026365942558749,4,left
16.704,0.24846877720644775,0.9934519925931421,-0.1292220130638636,4.301515574543616,-0.5996758458811684,1.076777129952682,0.4880000839191469,0.6206261294248064,-0.7033685213095662,4,left
16.704,0.24036507311758581,1.002926620239363,-0.12234873069052211,4.312562273211232,-0.6079319344043657,1.0811934211975345,0.48804412399370084,0.620727325652142,-0.7033800038333469,4,left
16.709,0.23595739909589727,1.0067817611677516,-0.1092427201858433,4.306386087926668,-0.603400070656045,1.0784472489805264,0.4900366872287513,0.6212732538215507,-0.7018828321392103,4,left
16.711,0.23206875664692844,1.007131816134512,-0.094882538743535,4.3011481721979266,-0.5995932279134742,1.075998580048739,0.48512090705700367,0.6198266726753978,-0.7055247121621679,4,left
16.713,0.2246040884332704,1.002556993802214,-0.07852486862458265,4.323823377020684,-0.6159675201567945,1.0869483128444732,0.4932769227076461,0.6222516055720666,-0.699497516723858,4,left
16.714000000000002,0.21982526237469951,0.9958353772597114,-0.07072935630176004,4.2820095980967885,-0.5858753280499049,1.0664185525490515,0.4825176510342847,0.6190518954689472,-0.7074442820191718,4,left
16.718,0.21876015154741565,0.9929481064733537,-0.0702976900739618,4.335535879741811,-0.6243255346742715,1.0929342860443523,0.4373826509406201,0.6057440134064727,-0.7408562531778033,4,left
16.719,0.2122500869315746,0.9854267961946,-0.06676307407181059,4.290922040539262,-0.5923079762873975,1.0707304080175337,0.42662206845662043,0.602557646388574,-0.748800626189192,4,left
16.719,0.19868739106160627,0.9743315011207312,-0.06308186777566507,4.292137143683468,-0.5931870624191078,1.071320991698922,0.43478102201909963,0.6049672483163524,-0.7427790206569219,4,left
16.722,0.1841283574831762,0.9652083355542362,-0.06179380018647677,4.37706183220247,-0.654059986948001,1.1138050390007965,0.4298603984282894,0.6035183453515728,-0.7464112533224947,4,left
16.723,0.1690435911800603,0.9553416246849844,-0.062394536551357946,4.168370046838938,-0.5044866825253633,1.0093483257119815,0.4318593544690126,0.60410562749614,-0.7449274143562381,4,left
16.727,0.14564023347076246,0.9447972316057709,-0.06773743897820873,4.514348318860035,-0.752434738639165,1.182583752461106,0.43189705329283135,0.6041134811591691,-0.7449248528366872,4,left
16.727999999999998,0.1298067822647481,0.9380330291566479,-0.07185530035298565,4.058029740706194,-0.4254353001764124,0.9540526823376556,0.43082960960446093,0.6038106597228616,-0.7456651924554365,4,left
16.727999999999998,0.12560481488052755,0.9363592543342203,-0.07208319315378187,2.142479035934297,0.9468529284243049,-0.005438527630959977,0.43211143717365075,0.604168983297612,-0.7447847089390504,4,left
16.732,0.1082750890599559,0.9308991084348828,-0.0744519207450095,1.6861192058144265,1.2737818165649633,-0.23402619052354107,0.43110826217725945,0.6038939209625832,-0.7454607601645892,4,left
16.733,0.08644138044563515,0.9236724852529565,-0.07568443631140478,2.032200347595838,1.0259721783744058,-0.060679930812449726,0.43164640081711525,0.6040431311417093,-0.745090669989011,4,left
16.737000000000002,0.07073224222384333,0.9204396943200418,-0.07723974160808159,1.8233192565447562,1.1753545997145907,-0.16528905266936306,0.4315466056146364,0.6039961455784876,-0.7452209853741874,4,left
16.738,0.05344390032548406,0.9170004640254781,-0.08402140763366289,1.9085211669560413,1.1146818528770295,-0.12264589534904051,0.4313401198921837,0.6039932810320281,-0.7451930323618394,4,left
16.741,0.03642008395330785,0.9142107057506415,-0.08793560620824317,1.9094238898967095,1.1136749404347093,-0.12215567573981814,0.431696732481682,0.6039978070192991,-0.7452398981265829,4,left
16.742,0.019954227025703306,0.9126698138192679,-0.08464821828612351,1.8650305024155451,1.1456332853160387,-0.14440938534754333,0.4313292325081647,0.6040132668766508,-0.7451308593623938,4,left
16.747,0.00670603396021758,0.9137893243423343,-0.07607699655810549,1.9186213235850103,1.1075449370294277,-0.11760203814263649,0.4315933469844935,0.6039923006506369,-0.7452390153010178,4,left
16.748,-0.003255067647234069,0.9172809068099927,-0.06745223062692263,1.876252255639906,1.1369185295610797,-0.1387069958761039,0.4315276989680795,0.6039720991384059,-0.7452902592554695,4,left
16.750999999999998,-0.014838525871576344,0.9193762140459951,-0.06746865900108376,1.9000872874232975,1.1215295604782425,-0.12697221264037284,0.43132055465299046,0.604094485060576,-0.7448804568632805,4,left
16.750999999999998,-0.02532367141781933,0.9233451921897288,-0.07298815754982095,1.893204216888393,1.1243921000509094,-0.1301683694705964,0.4318306023473739,0.603825521354347,-0.7457898671799708,4,left
16.761,-0.035142210143117775,0.9299744657078977,-0.07444104838243493,1.8886752206595054,1.1292852077806306,-0.13263789804370496,0.43107818967759426,0.604229288920802,-0.7444268604434205,4,left
16.762,-0.044769220757414054,0.9335381427529379,-0.06857315294550909,1.8989623622389464,1.121930143709456,-0.12748707486267957,0.4318690340217328,0.6037956021768227,-0.745888288130814,4,left
16.762999999999998,-0.04937319808225471,0.9312481992496369,-0.05894753151350983,1.886711856916942,1.127648290421125,-0.1332491482485019,0.43141185588405806,0.6040459604482209,-0.7450437951047817,4,left
16.762999999999998,-0.052559469818928874,0.9262256511969178,-0.04900124088887238,1.8991422749849873,1.1257314836966632,-0.12787793781723,0.43104315828109563,0.6042698063378791,-0.7442978481285571,4,left
16.767,-0.053315555595927516,0.9191826126027316,-0.03760613946533203,1.8874096733899688,1.1237117393149547,-0.13247894426117018,0.43268991255339884,0.6033010488121255,-0.7475396363295097,4,left
16.768,-0.04825341331029492,0.9087015598168873,-0.025975527929735665,1.8969162017329562,1.1280140745220653,-0.1290771367718534,0.4296340771569572,0.6050965892819735,-0.741528421814606,4,left
16.771,-0.044814183187554375,0.8958171798888848,-0.012622925161759623,1.8929558518306944,1.1244309196675328,-0.13027541399623166,0.43355613965711526,0.602790970072162,-0.7492491313243697,4,left
16.772000000000002,-0.04126305556221069,0.8813005782086689,0.0006572453851855157,1.8863137142596815,1.1236529864326095,-0.13292406634703693,0.43028231752719714,0.6047152824221051,-0.7428020950115353,4,left
16.775,-0.03761369568456138,0.8699746139515396,0.008865158698532867,1.9085684442900908,1.131935422247364,-0.12474302564649142,0.43037456204882585,0.6046658382234171,-0.7429762605834428,4,left
16.776,-0.038524879567311064,0.8618398016498623,0.0166949564044215,1.8692842648967138,1.115153460849303,-0.13892036844874456,0.43660347897348334,0.6009888349642147,-0.7552739482617961,4,left
16.781,-0.04001635331021211,0.8540935647432546,0.02207661364752125,1.9188437743159552,1.137333491805271,-0.12115741357989154,0.42128948623083523,0.6100219928296813,-0.7250458508966238,4,left
16.782,-0.04390304253650455,0.8492431657535856,0.024095881252640908,1.8778491233222923,1.1185464158872322,-0.1357978543401845,0.44668228852575764,0.5950476926066006,-0.7751682842669054,4,left
16.785999999999998,-0.04691111073714081,0.8463818314843994,0.025171694965226678,1.8786247943355399,1.1192892437705173,-0.1355656141534407,0.41318801831101015,0.6147953526000789,-0.709053491927525,4,left
16.787,-0.046862291944147004,0.8459608235896128,0.025017126731796617,1.9574158548186609,1.1546777711309766,-0.1073449606453277,0.2726131364322908,0.6977071152427958,-0.4315489403533014,4,left
16.787,-0.0499917976538795,0.8459172045949491,0.030939313893891963,1.764358420720468,1.0672768318147772,-0.1764136096905981,0.23911470802462864,0.717445888803296,-0.3654253894514181,4,left
16.791,-0.049189769181622,0.8450075915847268,0.03243845090394531,2.0841626247482896,1.2123929202555552,-0.0620357460253501,0.2645140102145311,0.7024854786910467,-0.4155615137965523,4,left
16.792,-0.045287961846525296,0.8468006533708479,0.025468161154981798,1.662496754725479,1.0208864670742719,-0.21282996146765926,0.24919464095167015,0.7115071491065385,-0.38532209167757037,4,left
16.795,-0.04405707133668485,0.847973135967574,0.022127897856567713,-0.10742847930180416,0.2170264317457606,-0.8457791676578715,0.2554232463359419,0.7078294745772877,-0.3976191231080479,4,left
16.796,-0.03746241064660438,0.8496217922115907,0.01202013890269785,-0.5289652857613962,0.025464848251598685,-0.9965344173973718,0.25552592281768977,0.7078023325475605,-0.3978152619777288,4,left
16.796,-0.026699775217383887,0.8546648467848711,-0.003846935620895223,-0.2094218124033246,0.1707016588400152,-0.8822417025498331,0.2522293278339881,0.7096779685311881,-0.3913202582614945,4,left
16.8,-0.014437687762885197,0.8594419355938578,-0.01631458623723774,-0.4021034428845825,0.08310707652475943,-0.9511741120720354,0.25618383021587643,0.7074416812990236,-0.3991092971835249,4,left
16.801,0.00034152009698179336,0.8651546350187694,-0.03180120151454199,-0.323733434494733,0.11874373218215413,-0.9231275433849913,0.25309586729905237,0.7091685669940073,-0.3930304112626557,4,left
16.805999999999997,0.013762083986588998,0.8720595733403704,-0.0444121794304511,-0.3226425431093822,0.11925062025654179,-0.922730457195813,0.25475654359806177,0.7082295421060802,-0.3963015238270199,4,left
16.805999999999997,0.027609127779773524,0.87741214502652,-0.04750830270557244,-0.3636162181023178,0.1005633080857744,-0.9374393552326765,0.2544148686612153,0.7085111752978045,-0.3956124959988212,4,left
16.812,0.04198889446286519,0.884013399012536,-0.04456235613043638,-0.3146683318647606,0.1229419208125928,-0.9198179411777283,0.25387033531847425,0.7085747984309749,-0.3945840029831718,4,left
16.813,0.05560009293815692,0.8920903669788582,-0.036277325878287955,-0.35259164948295074,0.10552106838668261,-0.93354480900032,0.2548116970195647,0.7084628249746807,-0.3963624715071966,4,left
16.814,0.07064623815187838,0.8981587825956916,-0.025751397082938436,-0.33233933330239374,0.11490764220763705,-0.9261394624502755,0.2538746027838833,0.7084719004554532,-0.394610462772196,4,left
16.815,0.0832753174240856,0.9027399875265929,-0.018179359170450157,-0.3368796883670741,0.1127660341519334,-0.9278330852226859,0.25453186935801997,0.7085175008715792,-0.3958299655152902,4,left
16.819000000000003,0.09332511327388247,0.9064238546995644,-0.019708038112336415,-0.34199262566149363,0.11028728310012663,-0.9298003780854347,0.2543260022202513,0.7086427644774702,-0.3954228543297863,4,left
16.82,0.10694252234359317,0.9082360746899044,-0.032186283676735775,-0.3336938983647596,0.11455721912541636,-0.9263860350985564,0.25398730697456645,0.708038798940039,-0.394898966683532,4,left
16.825,0.1188548509844195,0.9089945115234671,-0.044673461016978826,-0.34054507749464524,0.11058575300935156,-0.9296050570792533,0.25487543898535125,0.7093516873774559,-0.3963215167984698,4,left
16.826,0.12495918474659175,0.9100664293909037,-0.050358019950537666,-0.3370939340015008,0.1132063135488865,-0.9274275599606614,0.2535770165845865,0.7073774910626525,-0.39425163878065855,4,left
16.829,0.13229375754422545,0.9098029956667228,-0.04935955718704506,-0.33769943851661355,0.11209258131722136,-0.928396022161828,0.25492600158009504,0.709502745417421,-0.3963887765201785,4,left
16.83,0.1396542903190628,0.9073798331012102,-0.038465921086199464,-0.3376692276962048,0.11209889394736586,-0.9283918409207843,0.2541461414722388,0.7082750148448527,-0.3951531062081245,4,left
16.835,0.14681484608511064,0.9037861476853888,-0.02214809825587184,-0.3399829044164273,0.1126029781985026,-0.9278243087299263,0.25355203116144875,0.7071706353954365,-0.3942422197218215,4,left
16.836,0.15535213837013967,0.897720125679138,-0.008916853413444937,-0.3332446271337796,0.11211037962707453,-0.9286025246892347,0.2562534099906826,0.7119442684666378,-0.39842865541291517,4,left
16.839000000000002,0.16075209154460646,0.8920647955104467,0.0014667165317871873,-0.34449193918022714,0.1123021611605879,-0.9278688426132234,0.2512385369788269,0.7030945261255709,-0.3906547032780875,4,left
