time,gFx,gFy,gFz,ax,ay,az,wx,wy,wz,subject_number,foot
10.288,0.485318836383934,0.9760516422588466,-0.018606480359754013,-1.3753358720528444,0.6222230741374886,-1.0454903913305724,-0.1282120010142083,0.38117058384115526,0.28652280773349287,3,left
10.293,0.5066525338811549,0.9865163245075483,-0.045673618441715594,-1.5237093683989469,0.5806373818029809,-1.0641670360738535,-0.12563233879767652,0.3725322799746371,0.2842999803845232,3,left
10.294,0.5136120986581754,0.9946335634978288,-0.06512797223098958,-1.3280031458635775,0.6354891995738361,-1.0395325188326268,-0.1256001073848885,0.3724296055271018,0.28426179570378013,3,left
10.297,0.5139693433605131,0.9972348717110802,-0.0709748295407873,-0.5064044636072242,0.8658069678792264,-0.9361660346119216,-0.12694543469267816,0.3769271191462382,0.28543792464138595,3,left
10.298,0.5174790660141884,1.0079716353542265,-0.09670043959398134,-0.31067246603163257,0.9206716258924352,-0.9115362957042644,-0.12533282242158822,0.37153393605326,0.28403134926622076,3,left
10.299000000000001,0.5120234948849145,1.0236314110580476,-0.1284032827486687,-0.459079781444719,0.8790696845154333,-0.9302071847357726,-0.12659103100612812,0.37574361112049093,0.28512394025845056,3,left
10.302,0.5026446523157069,1.0393440547493253,-0.14696117744820958,-0.36956572636480345,0.9041642110337293,-0.918947841812317,-0.1259049699146934,0.37344426942259745,0.2845428900796484,3,left
10.302999999999999,0.4913633915161189,1.0581844239806393,-0.15389181974443628,-0.40597980483138085,0.8939556027408564,-0.9235285794258148,-0.12607973868269157,0.3740385981826603,0.2846568703240116,3,left
10.306,0.4753874573253945,1.074456120797052,-0.14171692026633542,-0.40652476299895834,0.8938005914291016,-0.9235917050422098,-0.12622654338003558,0.37451423684074625,0.2848472399325138,3,left
10.307,0.45544709109222753,1.0870153182057987,-0.1299481404146746,-0.3873632997271495,0.8991787186028467,-0.921194685422944,-0.12595567362948812,0.37362663488684167,0.28453535427625753,3,left
10.311,0.4290301748615526,1.098039749953434,-0.12679576067427162,-0.41033203643085137,0.8927295239424711,-0.9240638005588042,-0.12621553018417153,0.37448138025568484,0.28482189366193056,3,left
10.312000000000001,0.39974012764485944,1.1069414978196228,-0.12305514358386964,-0.39242329310412827,0.8977606377775964,-0.9218316317205457,-0.12601907695572906,0.3738236165267126,0.2846527491790011,3,left
10.315999999999999,0.36980810617436954,1.1149685662961928,-0.11303584056068999,-0.4020705093216746,0.8950513865821434,-0.923036095378829,-0.12616579162461344,0.37434256942319705,0.28466433964891186,3,left
10.317,0.3410613993829358,1.1225116303752927,-0.08619266759246247,-0.399955323124626,0.8956352409153164,-0.9227522270660337,-0.12602622577934136,0.3738119312683562,0.28480690582630375,3,left
10.321,0.31758682585387427,1.1300317482755666,-0.052300811884826416,-0.39715051987099115,0.8964514131913254,-0.9224572080577367,-0.12618759043798686,0.3744465785481796,0.28455375903532765,3,left
10.322000000000001,0.29885465085040125,1.139988620890128,-0.020684381243428997,-0.402003348838156,0.8950392206563578,-0.9229677884861446,-0.1260242573986281,0.3737992854895733,0.2848311360753891,3,left
10.328,0.287866864863089,1.1508328736457376,0.011825776663402687,-0.3973218683247658,0.8964153123231502,-0.9225016144975888,-0.12610490832245672,0.3741270954786963,0.28465897449851807,3,left
10.329,0.28451537243585645,1.1572184470776041,0.03944809490178916,-0.4005295908138059,0.8954651696666881,-0.9228072087597675,-0.12624253999384705,0.37463842793247315,0.2845695320187978,3,left
10.33,0.2843392380815899,1.1619229988793447,0.05294813164361044,-0.399320712097456,0.8958037664001464,-0.922654308872835,-0.12575158140858547,0.3727750863122995,0.28505746240804597,3,left
10.331,0.2863051878808026,1.167172159310125,0.04994316687776794,-0.39851667152732606,0.8961233231305372,-0.9227348493199434,-0.12664207176875608,0.3761630223142887,0.2841352013716263,3,left
10.337,0.29074356504826315,1.1681991714142343,0.04627883687698148,-0.40102129082430094,0.8952057121163339,-0.922634609110928,-0.1255029795192138,0.3718280038290651,0.2853233008427487,3,left
10.338,0.30059349716379147,1.1670238268707274,0.0529846379791355,-0.3974397136722051,0.8965314380468485,-0.92280370322092,-0.1264523997928969,0.3754408073931726,0.28432988690131183,3,left
10.34,0.31332314057906885,1.1641117143925506,0.06302148274220817,-0.4010521982716315,0.8951755585366412,-0.9225975336742211,-0.12643306310619848,0.37536691333351374,0.2843627270390843,3,left
10.341,0.32247009877650984,1.1575589072836612,0.07067882629702157,-0.39896271755151763,0.8959599993183649,-0.9227164414641778,-0.12460127923194844,0.36839993388259995,0.28623733349527436,3,left
10.347000000000001,0.3313528355843668,1.1492589929832946,0.07910839608437241,-0.3976173860867671,0.8965071784507022,-0.9228761283968219,-0.1290965953020752,0.38549550500787017,0.28162286430243166,3,left
10.347999999999999,0.3452743500366926,1.1362861582519566,0.10134415178270818,-0.40409525822404824,0.8939444315436007,-0.922251144867813,-0.12164441493999922,0.35715786230748703,0.2892755433313562,3,left
10.350999999999999,0.35459699207405104,1.1260301097106318,0.1212765955299729,-0.39205270365236167,0.8987063811312828,-0.9234066465635228,-0.13147430026405943,0.39453417779132627,0.27918168385537556,3,left
10.352,0.3557068467097928,1.1242375056007796,0.1260983979577633,-0.40747802752271034,0.8926013088922067,-0.9219180117110769,-0.17272547027080282,0.5514648571189205,0.23681808177773714,3,left
10.353,0.3594660482631147,1.1189452689356028,0.13895750599818885,-0.39461755369525586,0.8976949636157343,-0.9231631989756965,-0.1825555350647668,0.5888445715015416,0.22672488333506857,3,left
10.356,0.3561075524242033,1.1169201519505414,0.1448299588866127,-0.39501331530991135,0.8975396776541931,-0.9231349774586868,-0.17510564780147697,0.5605019196153098,0.23437725685836802,3,left
10.357000000000001,0.342046065541704,1.126659474004116,0.1386112692543522,-0.41933174365058695,0.8878941856817355,-0.9207362656964606,-0.17959208003250535,0.5776008093855722,0.229761064524716,3,left
10.36,0.330311080551972,1.142607527923383,0.1282002276277283,-0.359524299119549,0.9116194774150279,-0.9266285085605337,-0.17777910289963586,0.5706363030538424,0.23164103499307068,3,left
10.360999999999999,0.31470824211778836,1.1671699819640464,0.08654078472371673,-0.45868379624301003,0.8722777140839113,-0.9168577338711656,-0.177731434874674,0.5705505908213544,0.23166433238272804,3,left
10.366,0.30222690906771255,1.1829076882030451,0.049104811437095816,-0.3279050809021373,0.924169865807856,-0.9297473652861091,-0.17871176214115492,0.5741855407682616,0.23068300070511852,3,left
10.367,0.29963705262689055,1.1882700575214922,0.04264997561693441,0.22091023724351375,1.1418318882796594,-0.9838520269159972,-0.1775540271453793,0.5698219719332407,0.23186106743428925,3,left
10.368,0.2919494776953463,1.2087458520277896,0.030731004715896158,0.3516700643996862,1.1937143711391647,-0.9967434608694279,-0.1784300288482069,0.5732342918712575,0.23093942388950564,3,left
10.37,0.284347667872064,1.2320765363170159,0.01903175985768779,0.2525413671153037,1.1544010607019477,-0.9869714048638296,-0.17800699955358473,0.5713676661963687,0.23144452156688106,3,left
10.370999999999999,0.28099232525382556,1.249634029409152,0.010751312663882788,0.31231987430039637,1.178066603642284,-0.9928605366818912,-0.17801513536806973,0.571841749967247,0.23131449132301762,3,left
10.375,0.2733271704495066,1.2677283815477396,0.0007219190570571625,0.28800933899321646,1.1685177916015337,-0.9904731786061644,-0.1782682022597433,0.572260893744014,0.23120391134751447,3,left
10.375,0.26194684245206046,1.281028148475724,-0.003174015312346758,0.2876471542265363,1.1682422566615696,-0.9904237913208932,-0.1779471299568753,0.5714726731733082,0.23141458359619033,3,left
10.38,0.24587760207529483,1.2938879544560602,-0.01729242623325307,0.30041900585268944,1.1734380540375289,-0.9916967136630059,-0.17815378004402177,0.5722627627157724,0.23120136213756126,3,left
10.380999999999998,0.2238821264798473,1.3035220092241773,-0.035766301670773264,0.28513249662002427,1.1673190433362186,-0.9901837232059277,-0.17819989684833354,0.5716343036620297,0.23137480242956446,3,left
10.385,0.1994014645660243,1.3075078510608988,-0.05078244086615977,0.2970212526325639,1.1719240124863124,-0.9913436756976797,-0.17783746455343669,0.5720924178780653,0.2312422799406279,3,left
10.386,0.17804051532431583,1.3104361154696607,-0.08174535967309618,0.29064056145474554,1.1697488152117963,-0.9907535649955043,-0.17846866011098517,0.571753557185168,0.23134715021636323,3,left
10.39,0.1642191719359161,1.3107854990393872,-0.12686534773864933,0.2920450819262288,1.169693724567733,-0.99082493380185,-0.1777626934589423,0.5719885734337475,0.23126919475546714,3,left
10.390999999999998,0.15780357168876744,1.3120307533072497,-0.17422559085644906,0.2938212856401372,1.1711490857251143,-0.9910823781126625,-0.17819276300732909,0.571937592050151,0.23129173635437175,3,left
10.394,0.15759642579995914,1.3158518483661004,-0.216937005975373,0.29081760847500526,1.1693593827926931,-0.990720683972276,-0.17849459268225398,0.5716299750173186,0.23138111791756216,3,left
10.395,0.1646856206412996,1.3193114511859716,-0.24822218766714127,0.2935787568408218,1.170448948186945,-0.990992096235554,-0.17704657162623644,0.5724895550770355,0.2311187375993877,3,left
10.399000000000001,0.17782694659030113,1.3273494950038869,-0.2702813691941081,0.2918380032973591,1.1708692179636024,-0.9909427021258018,-0.1797619019221418,0.5710108051954117,0.23157526129196793,3,left
10.4,0.18961730270069638,1.3458610384083025,-0.28469581694321455,0.29239564877233504,1.168552673505245,-0.9907187320962088,-0.17626457485325409,0.5728675061791277,0.23099936756130687,3,left
10.404000000000002,0.2001131103747579,1.366504846151667,-0.29620255828138764,0.29276842151538285,1.1724858847643587,-0.9911713332708629,-0.17918870341162935,0.571336042402484,0.23147664992086908,3,left
10.405999999999999,0.2079299320418782,1.3944023035432673,-0.3152381220944722,0.29193002847511673,1.1681186577609637,-0.9906457378862693,-0.1791029430123165,0.5713479714697705,0.23146823839525188,3,left
10.408,0.20686985398862454,1.4321783665588983,-0.3368981336024114,0.292710517128994,1.1707585005497871,-0.9909779726985414,-0.17354494577927002,0.5743459064199874,0.23054535733944875,3,left
10.409,0.19968300855110255,1.4690803020350207,-0.3501761731894616,0.29246272576731547,1.1726720041215422,-0.991175647837991,-0.18721510331199157,0.5670217306882102,0.23280891555778177,3,left
10.415999999999999,0.1809917941527527,1.521769002597913,-0.35642472125410046,0.2918484212655359,1.163630200977905,-0.9901473182244362,-0.1645462590726775,0.5791464101678492,0.22905515421824793,3,left
10.417,0.16331279341645627,1.5619563088580295,-0.3595301211514822,0.29338959525172903,1.1805551154293341,-0.9920922495266612,-0.19444689975363222,0.5631643926177607,0.23401014962025884,3,left
10.419,0.15939424136736324,1.5729786173889457,-0.3599262124703229,0.2912649432920136,1.1587674198876774,-0.9895821723852064,-0.31995367448891754,0.49603191916811956,0.2547861079220356,3,left
10.42,0.1425867355362387,1.6101310023150053,-0.3540333451786516,0.29310161641394455,1.1769783154632698,-0.9916815623239431,-0.34985242423578333,0.4800638554056078,0.25975439836571257,3,left
10.421,0.11769528089277405,1.6550710174835594,-0.34138737589648505,0.29295361897174255,1.1764542330950187,-0.9916202894851007,-0.3271858319767669,0.492164046586793,0.2559805767031611,3,left
10.423,0.10161061914963142,1.6782423336747523,-0.3304734755335101,0.2897114497554525,1.141814722160026,-0.9876306375832399,-0.34085603756459304,0.4848673928453051,0.2582587684468914,3,left
10.424000000000001,0.08636951042545585,1.69456665177171,-0.32926497237060837,0.29782550225484206,1.2269951463235045,-0.997439719051083,-0.3352927590484215,0.48784682965993875,0.2573421547613688,3,left
10.427999999999999,0.08123173461857425,1.694505037073771,-0.34097907976434716,0.284312618780344,1.0857532683704407,-0.9811798513235076,-0.3352193675338757,0.4878527460802185,0.25729256870092976,3,left
10.43,0.08312639894829912,1.6899285270643427,-0.35133450367632113,0.3021649335407339,1.272043502514087,-1.0026168886122424,-0.33812495644012575,0.4863665830005402,0.25785105636019046,3,left
10.433,0.08370073959559467,1.688143595408441,-0.3547934724683813,0.3770256709692822,2.053969110350157,-1.0925932581947027,-0.3346470970218721,0.48813235582572584,0.2571666057402038,3,left
10.434000000000001,0.09108054444305227,1.6795009671800136,-0.36341674123700296,0.3949159808672369,2.2402123543619235,-1.1139919841338868,-0.33735215869657087,0.48677792545740284,0.25772139859841203,3,left
10.434000000000001,0.10071404729532474,1.6720072310734264,-0.36019254973721826,0.3813271439872993,2.099050182443661,-1.0977990575591536,-0.3358917274808385,0.4875195227583097,0.2574337265135075,3,left
10.437999999999999,0.10508258883064844,1.665774626643659,-0.33516455496981434,0.3895489839596786,2.1841476996746847,-1.107533615134817,-0.3362409403966362,0.4872546739559829,0.2574007144010224,3,left
10.439,0.10167960887304575,1.6640373267013868,-0.30338001889803323,0.38618872859799436,2.1495503297279654,-1.1035926065900492,-0.336585165716476,0.4873214619066818,0.2577498589071401,3,left
10.444,0.08684692386022054,1.6675879024098172,-0.27079287012150227,0.38612482057547354,2.149076394890722,-1.1035510257416319,-0.3359890052274552,0.4872086496091081,0.2571482343771485,3,left
10.445,0.054583682668571894,1.672666350097495,-0.24041659138715926,0.3879770250747451,2.1671026415141816,-1.10552261699227,-0.336526018942345,0.4874507523727942,0.25785404861628136,3,left
10.448,0.003107329536371573,1.685292424378881,-0.2094560428327361,0.38566689833789347,2.145639662628601,-1.103264175930084,-0.3361780028446346,0.4872150863314853,0.2573046986543985,3,left
10.45,-0.0577404135134761,1.6981331787569909,-0.17428654040225106,0.38760381842902597,2.1621629000709337,-1.1048695513931202,-0.3363639530146406,0.4871118549566416,0.25733123530014257,3,left
10.453,-0.12383433419411943,1.7092196796684047,-0.13527037589348195,0.386421262433564,2.153445019987532,-1.1041574080134775,-0.336223261334452,0.4879695908369258,0.25821992252387527,3,left
10.454,-0.19272561656904472,1.723956101009549,-0.1027740844046714,0.3867524474553301,2.155351925754234,-1.1042521608558054,-0.3364428287461587,0.4860640857570538,0.25617196639082795,3,left
10.458,-0.2523734750232456,1.7359072842668137,-0.08821837450960822,0.3872457191832595,2.157414677586197,-1.104242074005512,-0.33609165774362953,0.4889192714363995,0.25922337346131796,3,left
10.46,-0.2992442305388165,1.7473493963733744,-0.07579726854356592,0.38600559722766187,2.154380310056073,-1.104688220713172,-0.33649735045567064,0.4858589300447658,0.2559755164240277,3,left
10.462,-0.33464438408721053,1.759750262644144,-0.05029416715608455,0.3878250420472573,2.1563183314588485,-1.1035424585666462,-0.3362633908283151,0.4876268254478465,0.25785254054273915,3,left
10.463,-0.35426207820130795,1.7685240508062474,-0.013274740196045865,0.38580316078278565,2.156129779058776,-1.10519950003241,-0.33599171106632003,0.48918859153488686,0.2594579042151026,3,left
10.468,-0.3615150121903964,1.77586955681263,0.030732133643220243,0.3873239235832995,2.155331985863553,-1.103769890218044,-0.33708980153299706,0.48240297123076276,0.2524147483406247,3,left
10.47,-0.3594358929749152,1.7778455773812114,0.07794310726626866,0.38733547481308145,2.155309492551542,-1.103755081368476,-0.3350581813807962,0.4949840615367493,0.2654780957403955,3,left
10.472999999999999,-0.34431534365928035,1.7678638833964855,0.12646563241449205,0.38466078232352263,2.158307629705374,-1.106582709666904,-0.337672337169698,0.47882674774872336,0.24870404188458473,3,left
10.474,-0.32015207490027353,1.748139531512934,0.16508575735977907,0.3907125131929167,2.1508144083094907,-1.1000476636814285,-0.33548776401436003,0.4923163337047898,0.2627090144798655,3,left
10.477,-0.2852647434353449,1.7126215343535642,0.1934363525225615,0.38173437828743007,2.1625213916042805,-1.1098570095125124,-0.3355384085768365,0.49195690311713647,0.26232491520037715,3,left
10.478,-0.24276106895118396,1.66511651152726,0.2102806876776258,0.3912765712733594,2.1497322812659205,-1.0993651018059625,-0.339738037312167,0.46621395348569444,0.2356347906433125,3,left
10.482999999999999,-0.20164940104059814,1.6197652483489013,0.21629723866465994,0.385770905886329,2.1572215303596503,-1.105437796437394,-0.3294236470067087,0.5294805799609092,0.3012441444418467,3,left
10.484000000000002,-0.15715914795112718,1.570872237918477,0.23908208311029988,0.3810340570690196,2.1637150976777724,-1.1106799949788755,-0.34652441891036706,0.42458364626771994,0.19245599089613522,3,left
10.487,-0.130754012055104,1.5389231773328715,0.261596089383488,0.40176436260463577,2.1351703915387796,-1.0877296792029967,-0.3239679192228053,0.5629413712815301,0.3359504306932391,3,left
10.487,-0.12464351014807795,1.530855092985277,0.2695732345832139,0.3633260562179901,2.188223232172265,-1.1303018999382348,-0.22923295730866988,1.1437580769718214,0.938149993472706,3,left
10.488,-0.10110281782590516,1.5083871798092203,0.2968961390603261,0.4126799538051747,2.120019186572902,-1.0756304866586976,-0.20667230457486774,1.2821191928489837,1.0816397663617616,3,left
10.492,-0.0692319263267173,1.4797405979130378,0.3367495572841104,0.37147285250117346,2.1769984833255824,-1.1212732336495241,-0.2237835340082741,1.1772113722160285,0.9728713995736596,3,left
10.493,-0.04022678355977986,1.4740625009207347,0.36639849981933986,0.3726061023365597,2.175449236793189,-1.1200469345985695,-0.21344972729026507,1.2405021705913417,1.0384304732735115,3,left
10.495999999999999,-0.007497411515600728,1.4789913622169457,0.3911082462255425,0.4511300285994461,2.066757606015031,-1.0329862019322604,-0.21767800320737335,1.2147186810676407,1.0118312161517862,3,left
10.497,0.021220910457597605,1.4895719444962068,0.40670856762725127,0.2580959173335401,2.3339500480946422,-1.24695645978254,-0.21769610515846352,1.2144112641606575,1.0113234983332449,3,left
10.501,0.05128073386284103,1.533633045173327,0.3848882223856557,0.578175900860557,1.8908967296647632,-0.8921927600334819,-0.21553489723168923,1.227854465053881,1.025448155546313,3,left
10.503,0.07157928050545093,1.574482678672703,0.35572065616103177,0.15597651986743882,2.475309222062788,-1.3601176310536462,-0.21815488317302745,1.2117081265279976,1.0086268176439055,3,left
10.504000000000001,0.0755083141404157,1.5876881649659589,0.34294386474288596,-1.615678246059434,4.928087643172314,-3.324481274319223,-0.21606671467605004,1.2243498736373901,1.0215770575835539,3,left
10.507,0.08144328398142783,1.6464902444176526,0.28326723478973725,-2.0378571356823905,5.512502494884676,-3.792416844987597,-0.21728430425129125,1.217404148469936,1.014882142958244,3,left
10.508,0.08160663445292082,1.737145992943626,0.18842814650577414,-1.7178659833095022,5.06948101531229,-3.4376095311150516,-0.2168418780079856,1.2192224310683266,1.0158949792106196,3,left
10.511,0.06784062697490478,1.8141789737833585,0.10095481936342314,-1.9106724122217824,5.3365506709148995,-3.651688864866804,-0.2167805246718318,1.2206955031838342,1.0184924841907588,3,left
10.512,0.050902290382312025,1.894125079979566,0.017495896561207452,-1.832561717709878,5.22811864256815,-3.5644325845342615,-0.21710352011994477,1.2178406897622145,1.0146795330980134,3,left
10.515999999999998,0.03381167466220146,1.9586554186495628,-0.037275789644612214,-1.8308645410905986,5.226178600799775,-3.5634707399598096,-0.216625355710448,1.2207655329168814,1.0177046589209429,3,left
10.517000000000001,0.01675264903610565,1.9972565005963774,-0.06129610795616467,-1.8726198455158816,5.28358390049596,-3.608859441320622,-0.21728793993131662,1.218323025308011,1.0167542528828595,3,left
10.522,0.002571386163417866,2.016137568602623,-0.06579230122025959,-1.8230452576329768,5.215123416365633,-3.554284707181343,-0.21636392707468305,1.2202849901201849,1.015172938939144,3,left
10.523,-0.009950683268432021,2.0127822456677325,-0.053069116518618537,-1.860974893468545,5.2679753685004505,-3.5971054512671676,-0.2175346057426418,1.21863305247314,1.018853880122417,3,left
10.526,-0.021635998230447283,1.9922013202745918,-0.03892449197054182,-1.841825613392341,5.24036870856557,-3.573403336173692,-0.2163625507280223,1.21992732700267,1.0144460287887735,3,left
10.527000000000001,-0.029915282922748265,1.953967540404919,-0.031218221683970232,-1.843863476782769,5.245075569257018,-3.5799167365194413,-0.216989056040582,1.219492719887528,1.0173176471852585,3,left
10.530999999999999,-0.031059175695352815,1.9054028617479197,-0.03924024540394783,-1.8526605211560423,5.254942192806656,-3.584452284999708,-0.21768673924835863,1.2181442441637085,1.0187832882158327,3,left
10.530999999999999,-0.023717993617314078,1.8592094160455905,-0.06218411344776266,-1.8405224121671113,5.239980280682476,-3.575153124103338,-0.21492390312886084,1.2222488360158237,1.0105057085484748,3,left
10.537,-0.010023188412112905,1.8170824280019202,-0.08646322975356929,-1.8494134699444609,5.252306416986926,-3.585048038836203,-0.21997931699398193,1.215061913430237,1.0262973038300043,3,left
10.538,0.013300218955491733,1.7812365279297664,-0.11269953287395561,-1.8483264440966112,5.247381984552218,-3.576127398157591,-0.2135120086783076,1.2241363290125529,1.005860504010541,3,left
10.540999999999999,0.04279697732750824,1.7578971480791525,-0.13567924192265862,-1.8397698817261479,5.24334903681423,-3.5842714543984115,-0.2189019093445761,1.2166267844010994,1.02299086623258,3,left
10.542,0.08685499702602353,1.74137182984605,-0.14316775553802627,-1.8564226255747212,5.2547492571586805,-3.5764336343262344,-0.2187695082015411,1.2167267422722148,1.0224199902951003,3,left
10.546,0.1442788755920701,1.7284211158305842,-0.1425535537285,-1.8372482590309813,5.240626006293368,-3.583210843545503,-0.20845538127498614,1.231319569020209,0.9900398362879623,3,left
10.548,0.2004367623590974,1.7190850554089443,-0.13445861789710972,-1.8492802762112897,5.250108189450159,-3.580353590343627,-0.23378848015729142,1.1956040152760044,1.0697839440601253,3,left
10.550999999999998,0.28313384498556426,1.699556391191353,-0.10786613892986059,-1.8566888833322963,5.254172483383739,-3.5745992962954762,-0.19178927823116432,1.2547612855426518,0.9375013865551461,3,left
10.552,0.34445616832783205,1.684836986407818,-0.08862431217825278,-1.8187993269177087,5.228802881998904,-3.5937101366628172,-0.24718802873931608,1.1767601402365755,1.112009666659707,3,left
10.555,0.35936501950203414,1.6807913975901005,-0.0852797944241814,-1.8903560536765227,5.277643464736817,-3.5597045722103244,-0.47970823454280154,0.849234396606211,1.8443843418277392,3,left
10.556,0.42360997067625394,1.6561062945062464,-0.05909388100113812,-1.7980104681600153,5.214282339193581,-3.6028506731619308,-0.5351200347832925,0.7712554134867314,2.018916778697819,3,left
10.557,0.509531840218465,1.6239032510927445,-0.018002049968640185,-1.875298183052209,5.267455270682472,-3.567051346292055,-0.4931020498052659,0.8303681353087569,1.8865861889039957,3,left
10.56,0.5804986455034238,1.5922256329058833,0.022993702551253777,-1.8729115731659098,5.265588351009012,-3.567677350713628,-0.5184462991123657,0.7947163228389974,1.9663979133497436,3,left
10.561,0.664837302384435,1.553367977518169,0.07184379979898509,-1.726325969563953,5.165333745388294,-3.6368497639832604,-0.5081449480259634,0.8092384774247916,1.9339445639217407,3,left
10.565,0.7356354256452042,1.5250238033135324,0.11539679599675934,-2.087036098980806,5.4123707214470445,-3.467332594215905,-0.5079623047495807,0.8093901457357501,1.9334243596062959,3,left
10.565999999999999,0.8047045516774827,1.495934557163825,0.16406640205150608,-1.4888113043330695,5.00252993989066,-3.7482051613072844,-0.5134424598459946,0.8018868010192624,1.950567589587626,3,left
10.572000000000001,0.8493177930182807,1.4752878413999766,0.20076164320138337,-2.2779104593131847,5.543205786894122,-3.377814729670657,-0.5068625199541015,0.810854685608488,1.9300111504192787,3,left
10.573,0.8573725525308181,1.4711182758038863,0.20717204943158793,-5.590000072236117,7.812282211476625,-1.8227756278607425,-0.5120087945339514,0.8039000931766719,1.946052744185355,3,left
10.574000000000002,0.8896730559517184,1.4505696898779705,0.23065434780284114,-6.379068897911926,8.353011790105713,-1.452428338158017,-0.5092452876127331,0.8076667287357594,1.9374207844031002,3,left
10.575,0.9217399597415443,1.426670605742704,0.2632186033982987,-5.78086129526124,7.943045183320491,-1.733199966806215,-0.5097776041561362,0.806668136000588,1.9392415962703229,3,left
10.575,0.9280690042107531,1.408155583600228,0.28230268976251327,-6.141639239811514,8.190299812790508,-1.5638572406615365,-0.5107841266465281,0.8060500455564754,1.9419476503420698,3,left
10.581,0.9309842011306876,1.3804144995115557,0.3089212958288217,-5.994830709459811,8.089743747866002,-1.632788254197063,-0.5090447605243152,0.8071241600172516,1.9372689468638113,3,left
10.582,0.9304715405923892,1.3547046127436504,0.33780002194695713,-5.992847544715616,8.088195235500194,-1.6336689535370081,-0.5108184386962331,0.8063130080334107,1.9418739575125636,3,left
10.584000000000001,0.9279278784760394,1.32904373507922,0.3713716603653876,-6.069617812954235,8.141176015973283,-1.5977163751167611,-0.5095529936517991,0.8067510270690745,1.9386707633444777,3,left
10.585,0.9231962869521446,1.2983092290305833,0.4127892534963222,-5.977711292352577,8.077675992197538,-1.6407503594147588,-0.5098919112581601,0.8062614907187111,1.9397451298580854,3,left
10.589,0.9223689572333165,1.262772904299617,0.45252741066558744,-6.049220068099025,8.127189760270761,-1.6072847595517137,-0.5107829580790944,0.8075007631070609,1.9410996042074102,3,left
10.589,0.9222095516256319,1.2207189362374806,0.49227661401227724,-6.010627458001592,8.100526333105918,-1.6253591250543953,-0.5085579388947958,0.8049351325280405,1.9374100867949917,3,left
10.594000000000001,0.9166769770503929,1.1789310616250468,0.5276993467924797,-6.019739855492942,8.106327381477676,-1.6209948829195517,-0.5118333821838658,0.8088238738724605,1.942775729043125,3,left
10.595999999999998,0.9145456598828581,1.1360341004031527,0.5602719335718789,-6.029154705550779,8.114197132521436,-1.616848784864617,-0.5083998987238872,0.8045969560204203,1.9372394103731143,3,left
10.599,0.9076823325360914,1.0930901445624874,0.5914067248473065,-6.012853803012835,8.100587160014264,-1.6240329106327827,-0.5103843662305847,0.8070376417135575,1.9404398531288805,3,left
10.6,0.8909890551220532,1.053883562781879,0.6151891539703533,-6.027721678441296,8.113767663287245,-1.6176257894816113,-0.5119660393862919,0.809325559711766,1.9427934466245,3,left
10.605,0.8670185251028808,1.01650175864597,0.6340752523831845,-6.017983624815404,8.10471004242427,-1.621742067369043,-0.5048769648407229,0.7995526228123775,1.9319693844164074,3,left
10.606,0.8333297506905466,0.9836383332814507,0.6511974564343267,-6.022884322819429,8.10804591198034,-1.6194362321202167,-0.5180319753465239,0.8176628829127854,1.952067795675416,3,left
10.61,0.7904007814423707,0.9567655519290095,0.6682781738119177,-6.020202485675835,8.110635467173486,-1.6215415704987501,-0.5011510494397,0.7943954189970581,1.9262952524602825,3,left
10.610999999999999,0.7443970136873861,0.936875836381789,0.6913236255884674,-6.02364377911462,8.102877654419476,-1.6179943803694306,-0.5152391607389211,0.8138240195193738,1.9477944982589488,3,left
10.615,0.6945985913709383,0.915465654682403,0.724952703302109,-6.017884305501902,8.114021224423627,-1.623577961156872,-0.5148443678690515,0.813324633271725,1.947173589191589,3,left
10.616,0.6404141983200902,0.8913187311136781,0.7563511977802138,-6.024853923656141,8.102711555824552,-1.617238210498027,-0.4880388576493563,0.7761786592419665,1.9063520906907703,3,left
10.619000000000002,0.5938933848694639,0.8711520399302575,0.7794444778622001,-6.020833903449432,8.109249638346217,-1.6208948355894321,-0.5539335936633727,0.8674502017783838,2.0067114047948476,3,left
10.62,0.5412051938686739,0.8413905374141407,0.808778106544068,-6.01553629052877,8.113634615874172,-1.6249168189856245,-0.4446782725715509,0.7161259748653245,1.8403191861688288,3,left
10.624,0.501737230671292,0.81928953014834,0.8282531054693998,-6.036353905803512,8.092831275880389,-1.608446678344598,-0.5887820075099783,0.9157193135830537,2.0597753805084915,3,left
10.626,0.49111642096736813,0.8150084469254038,0.8310196634635023,-5.99786064828306,8.131484891472194,-1.638928825999166,-1.1936194535358713,1.7537780748748593,2.980928956309472,3,left
10.627,0.45331820958549174,0.7914343297738704,0.8444787252070111,-6.047445567816285,8.081963766448766,-1.599723108563662,-1.3377178048878227,1.9533868476936747,3.200372014039039,3,left
10.629000000000001,0.4058981746313428,0.758145521910536,0.8558639397774201,-6.005972190064228,8.123247536213311,-1.6324769208934904,-1.2284713862153802,1.8020145022302585,3.0339904618417077,3,left
10.630999999999998,0.37127463265227645,0.7317475303659481,0.8580740103372702,-6.006920366501147,8.122024575105852,-1.6317041577673694,-1.2943574361524952,1.8933909836945348,3.134367743510213,3,left
10.634,0.3267625646949369,0.7029989611868523,0.8642939205383272,-6.086780109376306,8.043804059105437,-1.5688057722187043,-1.2675550791075594,1.8560709657901748,3.093473201480185,3,left
10.634,0.29249497774926986,0.6760124897043823,0.8707345140116125,-5.890604236594813,8.236108653640214,-1.7232891227219937,-1.26716851608666,1.8557927803368468,3.0929921540576273,3,left
10.639000000000001,0.2565091081549724,0.6415151917766062,0.8903362915072002,-6.215911843608691,7.917303774945828,-1.4671718037655759,-1.2812328065089567,1.8750269390857481,3.114304716715349,3,left
10.64,0.22849403633797413,0.6169004552405091,0.9087221233901388,-5.786766465798993,8.337746551343287,-1.8049890135561846,-1.2643906171705714,1.851799815047242,3.0887007731169414,3,left
10.64,0.2222312585353045,0.6104152078954452,0.9137023441332369,-3.985452942151447,10.102965733954608,-3.223899470921912,-1.2775010282349493,1.8701773124190848,3.108758553949148,3,left
10.642999999999999,0.193192287991681,0.5854695895114981,0.9297788927114137,-3.5562510832810434,10.523384324995863,-3.5617774276792407,-1.2704429470553493,1.8597138467226806,3.097715715746677,3,left
10.642999999999999,0.15403694489638142,0.5492897750048795,0.94327493854486,-3.881593636818827,10.20453746107066,-3.305488439470106,-1.27203532130463,1.8630977804452382,3.100646720819849,3,left
10.65,0.12811805461170978,0.5152542469915036,0.9465761370695462,-3.685533673384232,10.397093404793264,-3.460322052899479,-1.2739386045789978,1.8642905718381009,3.1029245764955022,3,left
10.651,0.10645361491934924,0.4741004987030399,0.952201550680596,-3.764999668181508,10.318288426400558,-3.396868046447029,-1.270671375466312,1.8609148135508766,3.098443636539641,3,left
10.652999999999999,0.0908040035350148,0.43383309664350056,0.9541682719745683,-3.7666674167975995,10.317990542262065,-3.396773936502286,-1.273714769812368,1.8651414085961127,3.10308284976767,3,left
10.654000000000002,0.07640049208365476,0.3939523464740283,0.9548216196284367,-3.7242644928413857,10.358214113102491,-3.428968483837804,-1.2717167044298603,1.8602386374556446,3.0991219167307342,3,left
10.659,0.06932068768608968,0.35299675251065604,0.9536999360705917,-3.7746474312534337,10.309416256412677,-3.3898028165969887,-1.272513045228632,1.8662200421044561,3.10243280080142,3,left
10.66,0.07100025568135206,0.3174512244957118,0.9465675931554794,-3.736046800570756,10.348375162712326,-3.421227482097009,-1.272652881111269,1.8591363856390664,3.0995155701717905,3,left
10.663,0.07299056791068698,0.2839092756846919,0.9345653915440179,-3.755633178828157,10.325528208288759,-3.4025113305871084,-1.272017602459762,1.8660144024476364,3.101885173901384,3,left
10.664000000000001,0.07708383547405007,0.2523933154945843,0.9163395263553944,-3.7533623446212463,10.334048859850817,-3.4099635543934026,-1.2727111955569126,1.862491969646136,3.101012887124644,3,left
10.667,0.08417930195238604,0.22275811310407628,0.8923474029791423,-3.7446605041842105,10.334850528848627,-3.409869727105516,-1.2722938366223033,1.8580513094935946,3.098716081219652,3,left
10.667,0.09714331077138447,0.19166551847316599,0.866176207515138,-3.756809056818771,10.329104917283932,-3.4058387884849926,-1.2722467274556073,1.874894726640032,3.105917234570131,3,left
10.672,0.1126802255245886,0.1634419834856019,0.8420503304723717,-3.7477681564674583,10.338018214819078,-3.4130088759252954,-1.2727777335755803,1.8442710785872949,3.0932371259640306,3,left
10.673,0.13150328403765685,0.13476565481698413,0.8187497840140543,-3.7492279252641416,10.325161469625328,-3.4015855077118875,-1.2719345936508135,1.8833719004806155,3.1092744931583916,3,left
10.677999999999999,0.15601288775821487,0.10555591588322363,0.7974249456125868,-3.757116995262634,10.343544764397489,-3.4188494823295303,-1.2727089628215555,1.850823164873556,3.0959913372705974,3,left
10.677999999999999,0.1813518004149638,0.07619916371748814,0.7763144890273315,-3.741395156635417,10.319992502225597,-3.396208626760072,-1.272576853033514,1.8515573168716917,3.0961855257339392,3,left
10.682,0.2103157209377674,0.043470672598854974,0.7558958719308311,-3.7596005191153408,10.343684111780824,-3.419205001105295,-1.271393959190254,1.9140108647458582,3.1219516388813817,3,left
10.683,0.2410649842898093,0.015189992605763123,0.7410800922603895,-3.748113533682626,10.33094230398958,-3.406681058247347,-1.27446648238525,1.7607219569596557,3.0588651823233923,3,left
10.687000000000001,0.275269068527534,-0.016606781731730375,0.7203412279377353,-3.741220622235602,10.31701372207808,-3.3935121425347723,-1.2693039516472635,2.014798546921613,3.1633676683450087,3,left
10.687999999999999,0.2986062599486574,-0.040338118455590904,0.7045873128406446,-3.7769370503518456,10.372541667525827,-3.4467681113914552,-1.2761455117839535,1.6797063378934665,3.0255723747632266,3,left
10.693,0.3031164698080041,-0.04624711878436892,0.6994275291070631,-3.7093920230756323,10.270843407599244,-3.3490377957329036,-1.3046481211462648,0.27299075643167714,2.446921160718892,3,left
10.694,0.3229207492316404,-0.06700559638414649,0.6784106122761844,-3.7965907510661756,10.400974252352153,-3.474157267729725,-1.311512823271376,-0.062088394746266554,2.309150727513188,3,left
10.695,0.3519227351103269,-0.09416007946907948,0.6518948155532238,-3.723602091325555,10.292516032211438,-3.369855530078712,-1.3063132650479063,0.1919574601661238,2.4136080589196256,3,left
10.699000000000002,0.3766851835725519,-0.11313022468179193,0.6255543259604464,-3.7258638564456583,10.295184414052802,-3.372444032341518,-1.3094187321228445,0.038722002689744975,2.3505760403689364,3,left
10.699000000000002,0.40727682366559276,-0.13415849391487605,0.5896977796298537,-3.864272451940291,10.502710552954621,-3.571952091351621,-1.3082313428857517,0.10110114316152553,2.3762980552081805,3,left
10.702,0.4386084934723363,-0.15140474995809383,0.5550451164532347,-3.5236780358783095,9.99300609130285,-3.0819209474151537,-1.3080504175080439,0.1019143762018594,2.376498061649892,3,left
10.704,0.48099247402921863,-0.16998766002284102,0.5237864996368107,-4.088538458122886,10.837999821514522,-3.894293108443782,-1.308941604422582,0.06931711657333667,2.363277870398202,3,left
10.707,0.5103518211714722,-0.18245396183915774,0.5085105944212355,-3.343451406259164,9.723483002705944,-2.82281844272339,-1.3079236483429448,0.10838523953025098,2.379163469713288,3,left
10.708,0.518063137655293,-0.18319214138780793,0.5054954437372703,-0.21555096897491122,5.046113597737967,1.6746196843579448,-1.3086386980596616,0.07792614895415091,2.3667142422366405,3,left
10.709000000000001,0.5468043807469316,-0.1903409050177006,0.4910477985054808,0.5295698612849228,3.9316451484336072,2.746076684599778,-1.3084914341298788,0.09445097632997511,2.373664608900719,3,left
10.710999999999999,0.5817050703895917,-0.19670778634458097,0.4727683214402125,-0.035443729792368095,4.776419521809526,1.9337846362011764,-1.307966139407326,0.09044017957266678,2.371519999378564,3,left
10.712,0.6057937825094895,-0.1949441167756282,0.4564419066891265,0.30554986778157167,4.267286760538264,2.4236069866838523,-1.3090901500528571,0.08651566532331767,2.370757703057215,3,left
10.716,0.6301934546754038,-0.19259493805409622,0.4385161548514308,0.1664108920047209,4.4737668423261265,2.2244809626395545,-1.3076670295940687,0.09352752988332083,2.3725969860081086,3,left
10.717,0.6510485554805341,-0.18734567226928694,0.42273623151646444,0.16515170787766925,4.477871149245072,2.2213680406642737,-1.3088228667984367,0.08687446668399909,2.3706932381963006,3,left
10.722000000000001,0.6704410127367955,-0.18161148693179963,0.4066596564653823,0.23715835664357693,4.3680064402820715,2.32618344676089,-1.308735168224021,0.09162261832699906,2.3726531561379005,3,left
10.722999999999999,0.6870793900975821,-0.1786761483272392,0.388212746445163,0.15036856217846856,4.498723026757476,2.200850055436639,-1.306900809954306,0.08875919238704758,2.3699318814147876,3,left
10.725999999999999,0.7008841243103381,-0.1745557724613312,0.36843747703700025,0.21879364891777042,4.3982851318417335,2.2981200659287992,-1.3111893079802095,0.09056811887348773,2.3742038155332397,3,left
10.727,0.7113940348189909,-0.16811605094094706,0.34599880799817606,0.18029162467734045,4.449823551511496,2.246321129602154,-1.3047684449152972,0.08900374960267737,2.3682970399688203,3,left
10.732000000000001,0.7157856903275757,-0.16159157163530502,0.3239761310316621,0.1919695454175444,4.44274815162333,2.2569871671087705,-1.3116177637735924,0.09045992584924914,2.3745072590945266,3,left
10.732999999999999,0.717720106418994,-0.15693262839268945,0.3075154321498328,0.19758947719766032,4.421603330317278,2.272580005132244,-1.3076528928157574,0.08995247028235434,2.371055453612213,3,left
10.735999999999999,0.7119055179469276,-0.15460756184021873,0.29428252017143774,0.18405916155553761,4.451990876207464,2.2471381883971837,-1.3042705234767116,0.08786182218455238,2.367402838198605,3,left
10.735999999999999,0.6983918157198437,-0.15318313865060518,0.28715721781771686,0.19982697743432337,4.428504098629074,2.2697551167378616,-1.319132176657976,0.09430478950519819,2.3822811382139806,3,left
10.742,0.6824135152897997,-0.1500108212754912,0.2899179422545938,0.1832509912749628,4.434446213805456,2.2570348479364903,-1.2915596234732463,0.08284540896062387,2.3548879407960808,3,left
10.743,0.6617068015237809,-0.14658734928235012,0.2949872576929351,0.20163832975059917,4.450014654232453,2.258076931238395,-1.326967889999478,0.09744921860357168,2.3900190543848945,3,left
10.745999999999999,0.6433658071224762,-0.14614089460010143,0.30139198986235216,0.18107259517624735,4.416524560423205,2.2663931544087497,-1.297404148334791,0.0853031166615312,2.3607052356882896,3,left
10.747,0.6250604438727834,-0.14779886617629162,0.3111861876837243,0.2004844795530752,4.455981276031019,2.2539155887589697,-1.2982129888134204,0.0854582836155133,2.361435261168425,3,left
10.752,0.6019853349603177,-0.14938784261980367,0.3188546516209352,0.19095185360805175,4.430665587777288,2.263547804913974,-1.3545614358985685,0.10918472770845052,2.417544780009268,3,left
10.752,0.585704256520286,-0.1534175006216572,0.329799962837227,0.17750025641255118,4.416670352475842,2.2643187386870727,-1.216048965570547,0.05107570654932176,2.27970322257473,3,left
10.755999999999998,0.5676790393796565,-0.1644415510234254,0.3505020264187813,0.22671500504341524,4.492359889610025,2.247047971066342,-1.4457187919161434,0.147365594205398,2.5082406600073552,3,left
10.755999999999998,0.5510271973432781,-0.17269947958802728,0.36354554887595925,0.13772599054687062,4.348582724185493,2.282361004152548,-1.1427754037577635,0.020370436598227175,2.2067900509712044,3,left
10.761,0.547516695515377,-0.17352019384463646,0.3669438192408782,0.2511720739529128,4.534426728495535,2.2358324259087192,0.12876822345627525,-0.5129686233045379,0.9414218005493468,3,left
10.762,0.5344275540671543,-0.18096040758783172,0.3796600085639703,0.15680553378451428,4.378759366305229,2.2751794476226603,0.4317375212650737,-0.6399676790589359,0.6399295966641265,3,left
10.763,0.5126629689183291,-0.19036884567222895,0.393023193275275,0.15883236595602498,4.38376442713686,2.2733378528702586,0.20202698080778422,-0.5436821682340015,0.8685277477571776,3,left
10.765999999999998,0.498310204291315,-0.19367998015293347,0.39567549474928565,0.3401758885616535,4.6784817269125085,2.2003745614239674,0.34057370783650465,-0.6017591438972448,0.730647658528889,3,left
10.767000000000001,0.48121168471692977,-0.1948380993806217,0.3970646412440815,-0.10478764993900619,3.9529642733825097,2.3808371644925597,0.284225644079735,-0.5781094475177284,0.7867226215214512,3,left
10.770999999999999,0.4572635206882911,-0.18762379139527952,0.4049531655715659,0.6327057769119245,5.156325218148668,2.08118931544461,0.28335411337664107,-0.5778310748293325,0.7876036412081565,3,left
10.772,0.4416905811902766,-0.17972524849324117,0.4126611764148337,-0.33995853638833784,3.568960866448141,2.4765915695702274,0.3130572719196977,-0.5901202607234594,0.7580119642219816,3,left
10.775,0.4377591407922097,-0.17981293359405104,0.41574568083130253,-4.4231243129816935,-3.0933764620781248,4.135692058460577,0.27744830203469606,-0.5754159012698283,0.7934964192769405,3,left
10.776,0.4284435676343175,-0.17613765164172862,0.42479460519203993,-5.3958406065430164,-4.6807012576248255,4.531175417059851,0.30522235779301793,-0.5868407967435277,0.7658084125111535,3,left
10.777000000000001,0.4172645945213882,-0.16927337974887802,0.4349118417414911,-4.6583048343688755,-3.4773360831881726,4.231312659128172,0.29026827501483,-0.5806636132813976,0.7807113156969182,3,left
10.78,0.4122576584306181,-0.16412877234960288,0.4337403208489854,-5.10319777025193,-4.20303638456068,4.412192288942359,0.29349290586312965,-0.5822067804789497,0.7775437244335515,3,left
10.780999999999999,0.4047135078584626,-0.15809980995237888,0.4296065848646276,-4.922142257706966,-3.907833719187948,4.3385915280841,0.2979881033027957,-0.583482356037434,0.7729359104722852,3,left
10.785,0.39762172964692355,-0.1524616803859567,0.43120748483054683,-4.919563511139887,-3.9036435746568117,4.33750120241835,0.2902134552380845,-0.5812695255165369,0.7809048922430937,3,left
10.786,0.39447773191162494,-0.14839970689165866,0.43346622227087717,-5.014667131802765,-4.058326170845607,4.376267703950441,0.2977819635566148,-0.5831593236643847,0.7730881010384452,3,left
10.789000000000001,0.39184591524506174,-0.1461745264254397,0.4329229808381183,-4.9005548180826715,-3.8732333992770327,4.329696830242479,0.2925602472795461,-0.5819926801410591,0.7785118144419536,3,left
10.79,0.3894313757724645,-0.14197774967058333,0.42884974651336405,-4.989705529020492,-4.017112353172408,4.366180147610667,0.2944288099969469,-0.5827856774890328,0.7766542086381962,3,left
10.794,0.3848857652479841,-0.13417968130349262,0.41623068885109443,-4.941352614359772,-3.9397963424311175,4.346291086579693,0.2961503078412498,-0.5816089258593744,0.7745194609142845,3,left
10.795,0.37739693826519416,-0.12369271903953603,0.3988889302545686,-4.952526649425983,-3.95734236816066,4.350929470160354,0.29118390333011845,-0.5838646738843327,0.7804255022115226,3,left
10.8,0.3698258169955314,-0.10971021310481917,0.3866428323561196,-4.965700253746428,-3.977498765422512,4.356490373908658,0.29835311427946803,-0.5803992353078936,0.7718531973848004,3,left
10.800999999999998,0.3636433872205025,-0.09845650912899298,0.3821328156057421,-4.9421214415311265,-3.9433549128482803,4.346256365780135,0.29102865561394975,-0.584226715606881,0.7806750644447257,3,left
10.804,0.36060093066596244,-0.08969094751623433,0.3834187801072756,-4.965557797288274,-3.97413265805181,4.356896420578584,0.29526436337482476,-0.5820167711239053,0.7755739870412721,3,left
10.805,0.36352619806478503,-0.07957504692331105,0.3871713033913672,-4.948237477073981,-3.9550308353336394,4.348492141294128,0.2982092497744411,-0.5798154737493288,0.7718802533661104,3,left
10.809000000000001,0.36799572162831995,-0.07257676471909383,0.38732206719944995,-4.957092924698497,-3.962177477200459,4.353177849533687,0.28440597708762355,-0.589065531516415,0.7889575651406057,3,left
10.81,0.3685285243461377,-0.0676628683912496,0.3796913183316404,-4.957088652920725,-3.962107144760923,4.353186770632796,0.31005036791709306,-0.571930576494496,0.7572411716025053,3,left
10.815999999999999,0.3681729605046553,-0.06207759310677928,0.36777495108816843,-4.9485924690161145,-3.9617903064365967,4.347716108363068,0.27717955588165893,-0.5939569661953761,0.7979095045082623,3,left
10.818,0.3656515901430827,-0.057731294146270665,0.3544075079448623,-4.9646616823255,-3.9570508232802326,4.358856089137419,0.30459618563531266,-0.5755574204958828,0.7639822484581293,3,left
10.82,0.36015238515262615,-0.053882142230394,0.33953389889992114,-4.943446335605053,-3.968620861189884,4.34335861962732,0.3037771971570083,-0.5760234807640561,0.7649788554293233,3,left
10.82,0.35722553474838603,-0.048317212198248596,0.3272223580268982,-4.964450694714245,-3.9536569433117696,4.359223817542395,0.2518224726614427,-0.6112424959518004,0.829345266233947,3,left
10.824000000000002,0.3565465986828927,-0.04522871676538763,0.3224008738074584,-4.952829323685355,-3.9631433436521135,4.35026640557197,0.3795821640967092,-0.524703623305334,0.6710760436670405,3,left
10.824000000000002,0.35837153835449576,-0.047110029097864575,0.32162073658258095,-4.943026387918909,-3.971671725609092,4.342631883689408,0.16775286231121708,-0.6681902616404265,0.9334938433070978,3,left
10.829,0.3607819791120297,-0.0481691240340872,0.31980564038793646,-4.98531012983906,-3.9333385282821465,4.375791894355361,0.4471388754020528,-0.47892527117469996,0.587380058018584,3,left
10.83,0.36135936543188096,-0.04770163948750709,0.31939417727983066,-4.907486404741894,-4.005393321269084,4.31453716997532,1.6195693483004643,0.31562186009884396,-0.8650883774817718,3,left
10.831,0.36488587127935757,-0.048218614927500306,0.3169279054657559,-5.007006277100787,-3.9122033924201345,4.393024671848648,1.8989226981254839,0.5049000332499405,-1.2111677203386515,3,left
10.833,0.36885039025186883,-0.050037126163440915,0.30758957212282667,-4.924100875579905,-3.990294450332156,4.327571907586541,1.6871565895268485,0.3613892093069086,-0.9488216020263406,3,left
10.834000000000001,0.3726446407176105,-0.05304792248633486,0.2971592690482828,-4.926370392262953,-3.9882225325889418,4.329354521370045,1.814831063340177,0.44795780416225284,-1.1069830920586783,3,left
10.838,0.3780947865490074,-0.05543031637623111,0.2899471887306385,-5.0840737745506335,-3.8386981851070288,4.454003093764606,1.7629625078001294,0.41271364162254087,-1.04274439100849,3,left
10.84,0.383720242951281,-0.058005190534332354,0.2840557276359097,-4.696556750349103,-4.206370576515372,4.147671656391806,1.7620939959396553,0.4122532820820769,-1.0416408978221958,3,left
10.844000000000001,0.39395108421989705,-0.059975305578615065,0.2768792767650273,-5.338967732687108,-3.596576057339476,4.655537562039968,1.7894728433945963,0.4306834099922458,-1.0755869847528392,3,left
10.845,0.40080388842982884,-0.05950947143497376,0.27209202724035864,-4.491718401727725,-4.401029092365039,3.9857041031546587,1.7567755455312932,0.40857815555708576,-1.0350678096471848,3,left
10.845999999999998,0.4021085228532624,-0.059336264903106846,0.2699715065763727,-0.9358533866089719,-7.778332853291287,1.1743779504714553,1.7820927171014354,0.4258370399868438,-1.0664080361612411,3,left
10.849,0.41294385687437735,-0.05841016049376832,0.2620317717270202,-0.08871445196892763,-8.582932057767,0.5046169466518662,1.7687219360392192,0.41644754599832257,-1.049921134169168,3,left
10.85,0.4299933418251346,-0.055528653954626216,0.24875269674226463,-0.7309178258171081,-7.972872698396378,1.0123384362659407,1.7712739936331316,0.41874163097375827,-1.0529490387214797,3,left
10.853,0.4464860867982172,-0.05325163091698806,0.2336374612868822,-0.3436676633868808,-8.34086285570185,0.7062110442861447,1.775618696430859,0.4209939981406162,-1.058495690872026,3,left
10.854000000000001,0.4616975551944045,-0.04966678632978133,0.21634421836211745,-0.5011234313832764,-8.191083989591874,0.8306375233658572,1.7687634794885336,0.41689964297439785,-1.0498721150978532,3,left
10.857999999999999,0.47302314565523035,-0.04508984430816216,0.2001380433804809,-0.503495612038872,-8.18903920472206,0.8325759108095075,1.7746578209846575,0.4208987184922822,-1.0571732211255855,3,left
10.859000000000002,0.48762730473481664,-0.04149092472397005,0.18789317790237253,-0.4207873679111973,-8.267508089268086,0.7671576650476424,1.7717535805592597,0.41790912029094307,-1.0538182811348533,3,left
10.862,0.5073111600000556,-0.0361076721750449,0.17777566707988218,-0.519680766126237,-8.173421359611055,0.8452886967227276,1.7710841461436375,0.4197899248734781,-1.0524335254995243,3,left
10.864,0.5285051625506717,-0.032173113983756316,0.1680574662443336,-0.4429261437411359,-8.246829831791917,0.7847859005807059,1.7746557969825427,0.41872772394696134,-1.0576869764358503,3,left
10.868,0.5494453800218945,-0.03160650178241549,0.16088198230190587,-0.48390719438242646,-8.207039048878759,0.8168738176556625,1.7699069668006215,0.41922222976035795,-1.0509203526451345,3,left
10.869000000000002,0.5642656857319728,-0.028441981193242833,0.15454911493694334,-0.47513410347386437,-8.216430575820132,0.8103217630635091,1.7732819995562932,0.41936383962825685,-1.0556121807223784,3,left
10.873,0.5771912128412848,-0.021560544826991185,0.1448047292522917,-0.4635357575697428,-8.226604893704675,0.8008453315715764,1.7742288959862784,0.4181573714031227,-1.0572249643217488,3,left
10.875,0.5896562744572064,-0.012625899788451137,0.13279392146067215,-0.4826031821809074,-8.208487435704484,0.8159177843955026,1.7664645679912825,0.420986865855411,-1.0456806632298896,3,left
10.877,0.5957674298837001,-0.0011495442000708576,0.12171974464451103,-0.465783134995321,-8.226020331595134,0.8031886056247298,1.7817186475352038,0.41631788219518434,-1.0681494028673926,3,left
10.878,0.6007914111113898,0.01282954122283097,0.10968755278252311,-0.47532863381233736,-8.213397004925234,0.809434511493848,1.7618238706488367,0.4221056150440264,-1.0389167053335953,3,left
10.882,0.6030638671190802,0.02855340057938799,0.09426626070849659,-0.4737311174149866,-8.220218965036702,0.8101126617711389,1.77856249487327,0.4173597880651312,-1.063482642019208,3,left
10.884,0.6009694541088211,0.05233049535955896,0.07660741845176905,-0.4698656219505446,-8.218237158244927,0.8049868072046118,1.7779104961179755,0.4173573728568944,-1.0625698162141484,3,left
10.888,0.6009579575649686,0.0790533927240206,0.05993947676006761,-0.47494115792671776,-8.216681101899308,0.8101960246774553,1.7465230106337728,0.42675617063314564,-1.016387218125779,3,left
10.889000000000001,0.600271323144887,0.10156701936312534,0.04810101327153302,-0.47333238598423966,-8.22102799490192,0.8099539160999132,1.8239562335156596,0.4038413372053311,-1.130256416300846,3,left
10.892999999999999,0.6001756064925645,0.13547654135159726,0.03480351968090483,-0.46774163969040145,-8.214011669550764,0.8010235548200773,1.6954616905854298,0.44176890146042336,-0.9413216416042648,3,left
10.894,0.6019806839160278,0.1603618697037258,0.024014372146914625,-0.4817914555753673,-8.223522094230525,0.8204972009942424,1.8649822442908008,0.3917615438281329,-1.1905736160244107,3,left
10.898,0.6016036673855378,0.1672280156276192,0.020903146301203587,-0.46211847935014705,-8.212865026092626,0.794200207687557,2.5764186547089043,0.1818423078557788,-2.2366263124774486,3,left
10.898,0.6016892191739761,0.19450341618812916,0.0063162865252230985,-0.4792376925139587,-8.221095601352069,0.8167058111834667,2.745941529845076,0.13182610814465778,-2.4858849703701122,3,left
10.899000000000001,0.6027513171119413,0.2303609505645453,-0.014743628911868221,-0.4781777011932112,-8.221453298473786,0.8156206413648384,2.6174212408248203,0.1697474893404396,-2.296914180123096,3,left
10.901,0.6021544656408819,0.25613445163894877,-0.02575507814821316,-0.44663604540740864,-8.204680856507455,0.7735878222732495,2.694935805502234,0.14689207990608194,-2.4108825834474015,3,left
10.902000000000001,0.5995118959297481,0.2835354188040328,-0.03390435558130021,-0.525228659665221,-8.24486316218205,0.8777519924321562,2.6633869879934515,0.15614413725700868,-2.3645137806596006,3,left
10.907,0.5951361466461282,0.31377860719890666,-0.03797342793335598,-0.39441449997756683,-8.178741124743189,0.704637264431639,2.662968770146422,0.15638062077839143,-2.363861177670325,3,left
10.908,0.592311125889152,0.33428949236572714,-0.03698692771602165,-0.567194520184516,-8.265704516987537,0.93317018920359,2.679462945409333,0.1513537738454807,-2.3881664294223466,3,left
10.912,0.5925307438646059,0.3411199177372235,-0.03961913817070449,-1.2925862664517545,-8.630732469382302,1.8925086539926912,2.659698239363979,0.15734450938672134,-2.3590528946218123,3,left
10.913,0.5893675536148898,0.3576626666939166,-0.040734592018991,-1.4654582136986734,-8.717541074223172,2.1211357430615685,2.6751066808015223,0.1527306124293077,-2.3817309813600485,3,left
10.914000000000001,0.5826668781226624,0.37992289536971147,-0.03833173160865773,-1.3344098767538437,-8.651746939918867,1.9478022841140517,2.666745652348426,0.15505702099579846,-2.3694834930933224,3,left
10.917,0.5778573724979161,0.393959745934532,-0.039346018929422376,-1.4134418402017215,-8.69142467982639,2.052341597601335,2.6687802885417593,0.15490552981695765,-2.3723277272035803,3,left
10.918,0.5661149315501351,0.41155187612926525,-0.03513833458535172,-1.3812463490809161,-8.675268250904217,2.0097934422681494,2.670754806686824,0.15355047520942036,-2.3754845752238016,3,left
10.923,0.5440498734964065,0.4294957882998023,-0.022477971664355247,-1.3809359765913545,-8.67508315722994,2.0092470510536873,2.6672216502723556,0.15554072791718854,-2.3699784705304245,3,left
10.924000000000001,0.5210756035324985,0.44237577980248927,-0.006412795325834694,-1.3975065197120848,-8.68346541217575,2.031436513005014,2.6705758223251013,0.15379560043317367,-2.375158251788882,3,left
10.927999999999999,0.4960340607867734,0.4554749121056213,0.01494958908922563,-1.377722763826989,-8.673439914325556,2.004884331428485,2.6681736961911375,0.1544971161484888,-2.3716286613661683,3,left
10.929,0.46636732222476934,0.4693051564342622,0.03750356086327684,-1.39304057508832,-8.681224615894573,2.0255264885867943,2.6696441255798193,0.1554666765200775,-2.373330091843002,3,left
10.931,0.4333734123409648,0.48114196522230696,0.059561433370739214,-1.384733505094649,-8.677014370759487,2.0143765750018807,2.668678844390665,0.1525448406973812,-2.3729632243709613,3,left
10.932,0.39800912824805257,0.49301691612174753,0.07806994471243536,-1.3870375338678396,-8.678083003191873,2.0170884543977357,2.6695452400856357,0.1570726987934422,-2.372667189186269,3,left
10.936,0.3625901335728818,0.5057753505892519,0.09120602751294965,-1.388118001051088,-8.67890444745882,2.019590350065248,2.668728556897533,0.1522146298687815,-2.3731398606335534,3,left
10.937000000000001,0.3268575976571447,0.5151546288491524,0.10715511949854481,-1.386236841946685,-8.67747991878665,2.015255730088701,2.669031478108306,0.15507096005893906,-2.372618515789963,3,left
10.940999999999999,0.2942927246806708,0.5220850520310885,0.12605594691669367,-1.3874206299282625,-8.678663475074925,2.019087043946188,2.67012915637758,0.15728806108895796,-2.373398503825708,3,left
10.942,0.2658174532420318,0.5292363692314714,0.14392150280993693,-1.3869399076958344,-8.677952543873388,2.016645246174482,2.6666948671077173,0.14718435025871543,-2.371997507853065,3,left
10.947000000000001,0.23817778169726483,0.5374395596095781,0.16156376284837187,-1.3880293622393458,-8.678494217246952,2.0180693663655065,2.6728161865385447,0.16599344421945522,-2.3742321243862703,3,left
10.949000000000002,0.21461758493418495,0.5435292825175682,0.1795265763392518,-1.384371804990971,-8.677532609261274,2.0165853391226,2.6650122134540135,0.1418264279507944,-2.3714447561112095,3,left
10.950999999999999,0.19592902000786006,0.5462340915671913,0.19127604441566892,-1.392140394797913,-8.67943539699727,2.019197091502013,2.671503900092629,0.16200727965499312,-2.373738006975662,3,left
10.952,0.17994065607561513,0.551954409064533,0.1974813048393484,-1.3804144934826703,-8.676527326106964,2.0151200936183775,2.671416596012236,0.16143929669074003,-2.3738043054078637,3,left
10.956,0.1665113736495848,0.558754224841558,0.20898526319366018,-1.3930958411079661,-8.679719499567536,2.019706095362928,2.6587503743533993,0.12303316981223045,-2.3690120729295137,3,left
10.956,0.15678684830382011,0.563591062856516,0.22151197819557772,-1.3857710838848676,-8.677874329864483,2.017059455310261,2.6897761212173528,0.2174530999345073,-2.3806378877187866,3,left
10.960999999999999,0.1524766167194366,0.5697256521775338,0.23250877786648694,-1.379052287744731,-8.676087036449967,2.0142434968016754,2.63836410017685,0.06089892837702891,-2.3614032768371063,3,left
10.962,0.15090358155664868,0.5728206032695476,0.24374321866194915,-1.4079315921824018,-8.683658762559357,2.0258740782981666,2.7061697604608477,0.26738685552541597,-2.3867670733746023,3,left
10.966,0.15056109658543226,0.5730270013231343,0.24630593222467495,-1.354402123142556,-8.669625256922913,2.004340909896161,2.9909301217840456,1.1341189150230608,-2.493430603893733,3,left
10.967,0.1546333436765971,0.576657945733873,0.24351260739266972,-1.4231685320821534,-8.687666325575666,2.0320332284363127,3.0587348753991024,1.3405864553101998,-2.5188008076833572,3,left
10.967,0.15991296108424613,0.5827320525909565,0.24364671104593552,-1.3657457167972384,-8.672590467002781,2.008896304537,3.0073295662992106,1.184062589071015,-2.4995639672343484,3,left
10.972000000000001,0.16021693439838502,0.5910698077017164,0.23978385232014632,-1.367253012907188,-8.67299242235152,2.0094616901956064,3.038335386992437,1.278461693434077,-2.5111704885651136,3,left
10.974,0.15943388198665184,0.5993741966890956,0.2280322025099983,-1.4769382855226092,-8.701793856624812,2.0538295195127843,3.0257077601524722,1.240042629594952,-2.5064355906492795,3,left
10.975,0.16148599026524135,0.604319571692703,0.2148339847621037,-1.2073869322248538,-8.630988010863147,1.9448313479616548,3.0255653723855263,1.2395427193006618,-2.50640146794044,3,left
10.975999999999999,0.1658881518165517,0.610126809808645,0.2004257117185626,-1.6543106993100487,-8.748414416694175,2.1255510961137585,3.032113653668958,1.2595937532106305,-2.5088203345835542,3,left
10.98,0.17084734163485438,0.6148380147982239,0.190574521341843,-1.0648190823253103,-8.593495640548918,1.8871786097948735,3.024281285593699,1.2355962506112375,-2.505930823511287,3,left
10.982000000000001,0.17134516719350676,0.6160373628652531,0.18692947508956723,1.409721111448765,-7.943327103532594,0.8864199719331084,3.030362930607711,1.25425747000808,-2.508166903646937,3,left
10.982999999999999,0.17226345644282137,0.6195643625318532,0.17440075896199858,1.9992054216430188,-7.788326426602411,0.6480525927498944,3.0270726807447152,1.2441804055565955,-2.5069518051110986,3,left
10.985,0.177394443945806,0.6249719481363165,0.15719836253893202,1.5522930761281113,-7.9058808563139245,0.8287643577254422,3.0279122067658006,1.2466079143307458,-2.5073018708977797,3,left
10.985999999999999,0.18105618563064052,0.6288259568770266,0.14123975712887854,1.8218349820235855,-7.834969112024105,0.7197727894529597,3.028543098296294,1.248933551637831,-2.5074254273031036,3,left
10.991,0.18595827669883458,0.6320672248582102,0.12066070183440802,1.7121491614794724,-7.8637644127408866,0.7641410018595087,3.0274479578283646,1.244905300760934,-2.5072084304615414,3,left
10.993,0.19251488778909165,0.6361274718748283,0.09854969505313424,1.710660197170864,-7.864371834644182,0.7646935742048415,3.028351099856666,1.24850497159811,-2.5073102188231164,3,left
10.995999999999999,0.19668027330571586,0.6407068534772438,0.0756489997357572,1.7680429951392065,-7.848847440536175,0.7415846208836459,3.0278125046969695,1.2461884787690116,-2.5072967537329527,3,left
10.997,0.1993702376731516,0.6452212173911958,0.05227480258537375,1.6993335901256554,-7.867527450648857,0.7692370960022424,3.028236826855976,1.247473094434892,-2.507457480401443,3,left
10.999,0.19945167535769248,0.6504846706099698,0.03047513432770973,1.752806604972509,-7.852861151263,0.7477433865884092,3.0274517370466634,1.2463411443311672,-2.506814062571216,3,left
11.0,0.19931656178092136,0.6551891395346108,0.01509648249228469,1.7239517626237904,-7.860707098638647,0.7593568705233862,3.0290141277668132,1.2482243790228724,-2.508197368501861,3,left
11.005,0.20286010463844997,0.657341731269746,0.007595633732368852,1.730718046345257,-7.859452032245458,0.7565077194710019,3.0266300534561,1.245251482881601,-2.5061139418280654,3,left
11.005999999999998,0.20880186577457244,0.6571339383699875,0.005817561510698231,1.7378892984662135,-7.855886316812751,0.7539683739269456,3.029242343551317,1.248637507436575,-2.5083613342518936,3,left
11.009,0.21739492380952202,0.6549777060394473,0.014918759499361382,1.7254724441077909,-7.862043095396246,0.7583695052766761,3.0277343612064684,1.246683388658218,-2.5070634061017194,3,left
11.01,0.2310645181995742,0.6510254749041773,0.02950462807902899,1.7368738219042832,-7.855497497330887,0.754519335677879,3.026274505826837,1.2445179373642614,-2.5058844338460693,3,left
11.015,0.24869162470304984,0.6459588084304742,0.0451856899316881,1.729363919605994,-7.860299969099359,0.7569502777543016,3.032454884588327,1.2533723517380633,-2.510965532340264,3,left
11.015999999999998,0.26668681632117175,0.6417622850239806,0.06189785065449914,1.7330237363267975,-7.8593634492997735,0.7554646679872525,3.021005185786705,1.2369827216963358,-2.5015472402166,3,left
11.019,0.2881287004858303,0.6390196210329115,0.0728356614208138,1.7314544571723536,-7.854527224367837,0.757224170467689,3.0357185976051317,1.2580677123929067,-2.5136448840979524,3,left
11.02,0.31173014045524244,0.6378938666175082,0.08073711717777171,1.7330317371926462,-7.866106978121192,0.7540159189422344,3.023431552258678,1.240446699622562,-2.503544086848809,3,left
11.024000000000001,0.33230945761915365,0.6396847815527863,0.08081423853652239,1.7302120969073873,-7.848954923455576,0.7589906298035981,3.023741929912158,1.240873162322114,-2.503808610541294,3,left
11.025,0.35241374891051247,0.6413700341613955,0.0724919531941835,1.7338370807093688,-7.867076485491737,0.7534371478701392,3.0472550831091745,1.2746884025236787,-2.5231016728481115,3,left
11.029000000000002,0.3725045781257001,0.643719876881405,0.06627891593846372,1.7317490625961232,-7.856604273017967,0.7566432766427155,2.9894865003508686,1.1916127852915275,-2.475691761689837,3,left
11.03,0.3947820670934848,0.6509366121903084,0.055252220960088576,1.7285764483190014,-7.847937431137709,0.7599622653926026,3.085262087318384,1.329359757557518,-2.5542959425666503,3,left
11.034,0.40989239919166176,0.6554094320234194,0.046762788857799435,1.7406846677598131,-7.8863338403851495,0.7461555117484844,2.9589391872948303,1.1476598804160343,-2.4506200135898366,3,left
11.034,0.4141658405784209,0.6560831716475131,0.045202202642578404,1.718317814569243,-7.815104556635004,0.7717246178971304,2.4285579857008264,0.38484516853218276,-2.015378502137758,3,left
11.035,0.42881931545716956,0.6621067852435452,0.029544687343463247,1.7471523867122811,-7.906535999353445,0.7388464056826178,2.3022434776121097,0.20312697056034357,-1.9117070840494481,3,left
11.039000000000001,0.44769219755979656,0.6699533797201915,0.004581007296571413,1.723027024708672,-7.830218925445135,0.7663161113329284,2.398013060963221,0.34090313707888853,-1.990307531798743,3,left
11.04,0.4537382061880759,0.677577059961344,-0.021421053290220697,1.7235379746910557,-7.832320418310397,0.765630051718259,2.340230130050874,0.25780186183286335,-1.9428917004717758,3,left
11.043,0.45409928435036084,0.6875474908783772,-0.051335445497944346,1.7701502090602452,-7.977685379872593,0.7130041915233842,2.3637958617362145,0.29161978925241433,-1.9622093300339825,3,left
11.044,0.4520357757970379,0.6987678867575169,-0.0784964516690864,1.6556882057973437,-7.620370557379147,0.8423094888702363,2.3640081156280157,0.2920861917338797,-1.9624265914493046,3,left
11.049000000000001,0.4438967235473903,0.7131321166130881,-0.10279725591095032,1.8454839748007035,-8.212811640393632,0.6279105480174254,2.3518497458784338,0.27437130691998596,-1.9523890773251733,3,left
11.05,0.43547455021774434,0.7220325092445112,-0.11553894074136714,1.5951095544579292,-7.431390605023989,0.9107152341654206,2.3664500310431142,0.29559550201648244,-1.9644293024027686,3,left
11.050999999999998,0.43234501874887776,0.7230728992501114,-0.11844168637436925,0.5439008004756123,-4.151314587940613,2.0978812763243755,2.3550212745652166,0.27906088891805075,-1.9550253895968528,3,left
11.054,0.42500048745070995,0.7311456952659003,-0.1289239930370702,0.2934924313830755,-3.36986878393616,2.3806967200120446,2.361363018053951,0.2879914495559974,-1.9601797499037588,3,left
11.055,0.4114100365983989,0.7421899150574145,-0.13572050186817958,0.48332798190430437,-3.9623727317298583,2.1662881575786805,2.3594938394396747,0.2859173325489115,-1.958805990777628,3,left
11.059000000000001,0.40117606836884234,0.748028974789968,-0.13090917641546937,0.36886914124364456,-3.6049403517423575,2.295581882532014,2.358628429691698,0.2836147695291832,-1.9578202973322136,3,left
11.059000000000001,0.3915308504980376,0.7537458449029644,-0.12458093258530765,0.41538181636002036,-3.7504797911357017,2.2430093620214135,2.3605186991228897,0.287631281211113,-1.9597093337259313,3,left
11.062999999999999,0.3782622653343285,0.7583935314741637,-0.11856959368965979,0.41612186780547517,-3.75238181584263,2.24221837560318,2.3586108255900196,0.28385277283976074,-1.9578745173096026,3,left
11.064,0.3646414395820571,0.7637087957923903,-0.11413169606683085,0.39165609565170295,-3.676209882985768,2.269830649715483,2.3604062948374493,0.2864260817977738,-1.9593453974446864,3,left
11.068,0.35167666708904033,0.7715943317480968,-0.10864970019421294,0.4208445537915746,-3.767672725179839,2.236820300015175,2.3582126360856943,0.28518988200936757,-1.958044842204592,3,left
11.069,0.3414592977450688,0.7793773894021916,-0.09985378181758237,0.39829729595976915,-3.6961032221024377,2.2624281768890064,2.36144076499553,0.2854475126512068,-1.9595524548886234,3,left
11.073,0.3356645631199069,0.7904558612277224,-0.09126063960442815,0.41016552598844835,-3.7352253506771147,2.2487769079723514,2.357052419781415,0.2856779820564208,-1.957653897093983,3,left
11.075,0.3318611987564114,0.8027522731391721,-0.08114211545518826,0.40787577854968715,-3.7255157894897537,2.251667383316901,2.3616510439191707,0.2853180163122022,-1.959612881469472,3,left
11.078,0.3321319825366029,0.8128578343427627,-0.07077949681140369,0.4042043954400123,-3.716104839983663,2.255570700779116,2.3591193296616595,0.28570637870994203,-1.9585834232606603,3,left
11.079,0.337491240401664,0.8243209216366449,-0.06142858697132012,0.40983820836252605,-3.7337053349631337,2.2492054740243326,2.3563152977633135,0.2851468578960117,-1.957187227207456,3,left
11.084000000000001,0.3450511785278613,0.8364419680671044,-0.05161211690542705,0.405319663814122,-3.715800562065092,2.254761453707393,2.367570090144242,0.2861324667507424,-1.9624659480621722,3,left
11.085,0.3549314789118133,0.8472977697255558,-0.04256880421383999,0.40710459266229804,-3.730064437081466,2.2517107412715456,2.346880911210965,0.2845679250287061,-1.9528254224826547,3,left
11.088,0.36569364423903983,0.8553267193827461,-0.032414615143100615,0.40817958820473316,-3.720448601082665,2.2520407207416193,2.373406651814521,0.2865189201172601,-1.9651725928413104,3,left
11.089,0.3748266240427186,0.8619218586066865,-0.025507896933806635,0.4053870546057463,-3.7255614759038815,2.253548301863706,2.3512766345051386,0.28491198676557494,-1.954875001503392,3,left
11.094000000000001,0.37765705734417776,0.8665910318390191,-0.02019910045818591,0.4078411433573568,-3.7252305988259575,2.251728147756434,2.3518156377882695,0.2848684762046218,-1.955108924156375,3,left
11.095,0.3728226379244014,0.8649556063553048,-0.016684945148846463,0.40818675388549097,-3.7194203898999527,2.2521574395938657,2.394213344651659,0.2882223778047103,-1.9748978465331448,3,left
11.097999999999999,0.3616239127624573,0.8639545801235778,-0.02089704807930082,0.40293794182564197,-3.733185927818936,2.2544969980545213,2.290072504969973,0.2800774356948006,-1.926305958766985,3,left
11.097999999999999,0.34107568918096187,0.8633922193259378,-0.014146281697634287,0.41376134461725766,-3.7110583229452816,2.248928502194353,2.4627286935525303,0.2935609594847177,-2.0068677287412493,3,left
11.103,0.3264598799121966,0.8592180784102997,-0.0034140772093035963,0.39937995678988814,-3.7379611287984877,2.2566242878687173,2.234993504604158,0.27577323979270835,-1.9006007085481391,3,left
11.104000000000001,0.32416008839588656,0.8582279308982389,0.00028095914565456697,0.41159327589192896,-3.716148824497596,2.2499665006395357,1.2791087307595332,0.2011300450691123,-1.4547007952858113,3,left
11.105,0.30908130617816515,0.8558300200275526,0.022437794040207452,0.41108298481812655,-3.7161749198890583,2.250347833777159,1.051369855859034,0.18333605360220495,-1.348435459928374,3,left
11.107000000000001,0.28400820156154327,0.8502158074028516,0.047062339030210246,0.3881280218262679,-3.75881515578077,2.2626706166954746,1.2240144442829497,0.1968072709488801,-1.4289663459078363,3,left
11.107999999999999,0.26496611280090254,0.8466054862026502,0.056664625444328355,0.4448709759910132,-3.655024266154785,2.2320225458106617,1.1199303348715177,0.1887325343329389,-1.3804767000723221,3,left
11.112,0.24519271334532913,0.8416866116810922,0.06843314060973638,0.35063384734443837,-3.8266252079704657,2.2830096556431836,1.1622009852676047,0.19192451242626318,-1.4000594581515253,3,left
11.112,0.23153321262940751,0.8380812583963175,0.07653594761280066,0.4750086472377947,-3.600530941053861,2.21567599145971,1.1629373225931472,0.19213626318715593,-1.4005951996432127,3,left
11.117,0.22825494889270498,0.8376334666271004,0.07764981970811122,0.9970809445042312,-2.651530064338523,1.9330317462909905,1.1405852499090092,0.19023790377534788,-1.389978363596997,3,left
11.118,0.22279792070424084,0.8363428702055823,0.08470397790582082,1.1214999780560801,-2.425598577450318,1.8656633828317122,1.167256064652772,0.1923859575666506,-1.4025016603824962,3,left
11.119000000000002,0.2169818988342646,0.8352865245011487,0.10181702087577024,1.027166832579411,-2.5968560944337824,1.9167319321846943,1.146645504487828,0.19090934740343168,-1.3930484093170752,3,left
11.122,0.21506946975055602,0.83280238620252,0.11806128244939824,1.084062165263973,-2.4935908301109446,1.8859426544754767,1.1574503260842595,0.19132720198917627,-1.3975692527462271,3,left
11.123,0.2156845990763965,0.830971074108878,0.1244286126589192,1.0609142823446547,-2.5355935414053024,1.8984614556966366,1.1555359726100605,0.19191093757411454,-1.3975707445598782,3,left
11.127,0.22200216502772757,0.8369761347120301,0.13087422720242892,1.0605841502222435,-2.5361751765978906,1.8986351721515975,1.1517891176019237,0.1907186732962669,-1.3947255127783182,3,left
11.128,0.23794120397360277,0.8580332333871143,0.14032015310135204,1.0727272420114404,-2.51421976527668,1.8921036293724267,1.157541485527174,0.19188512053590817,-1.3982836297900154,3,left
11.130999999999998,0.26579865424349425,0.9224700574369927,0.14639601138772126,1.0581808628649911,-2.540448917265643,1.899887824221802,1.1527376500150015,0.1915163556258038,-1.3960503939294209,3,left
11.132,0.30518053755827346,1.047628934642586,0.13853183660089946,1.06951167763767,-2.5201275010949002,1.8938835968834273,1.1548009036424434,0.19034645932918692,-1.3953902377509002,3,left
11.136,0.34639682746437617,1.242380737517999,0.10421604541651894,1.0633994299016343,-2.530979502896291,1.8970633046509287,1.1560425099928255,0.1934853826208244,-1.3996776991970596,3,left
11.137,0.3706302087857517,1.528376071003596,0.04985156231075344,1.0647971111488075,-2.528546727054704,1.896362396369636,1.1520925267114257,0.18863858472066697,-1.392302981174975,3,left
11.142000000000001,0.3713513818937555,1.8869399283545167,-0.016366792357326816,1.0664203552913103,-2.525807594708158,1.8955945706583677,1.1570707334237067,0.19386565961479058,-1.4005226211975623,3,left
11.142999999999999,0.3474275268265028,2.3256578547202227,-0.07043071271043358,1.0636043026297841,-2.5302522878500358,1.8967617535634569,1.1536799835712428,0.1908047053506992,-1.3955332996113303,3,left
11.145999999999999,0.2966261085485621,2.8243358604299065,-0.09111117330424559,1.0662573051039979,-2.5265850321809205,1.8959411685532153,1.1523561653246648,0.18829276203718337,-1.3919786201115518,3,left
11.147,0.21129073009788235,3.331022932089625,-0.1059702294030884,1.0644650614801727,-2.5284293647395044,1.8961558857498297,1.161099622917324,0.19952038720668847,-1.408912189853727,3,left
11.151,0.08768072383710851,3.858950063617281,-0.1357006687361979,1.0652603144798731,-2.528108854016116,1.8963276998826908,1.1441883570605453,0.17864264743246827,-1.3771836200001646,3,left
11.152000000000001,-0.042793103368542085,4.3216468867560245,-0.19647745894516833,1.065256839661573,-2.528125279430804,1.8963349699133296,1.1661535199235793,0.20547185528060366,-1.4180416290192996,3,left
11.157,-0.18239274843231257,4.662730853877525,-0.3249285746811032,1.0647961144988063,-2.526877570143257,1.895466576327791,1.1477113506377012,0.18306292372903699,-1.3838821933820666,3,left
11.158,-0.2919371946092514,4.747012451135728,-0.5656580355823495,1.065420754066177,-2.530506096356222,1.8976829542598335,1.1483703620101537,0.1836875364846744,-1.3848822023654175,3,left
11.162,-0.29609950497909704,4.43131180443484,-0.9369056806820667,1.0648416245816468,-2.524452848963193,1.8941855493714994,1.1831096646934443,0.22637015626023688,-1.4498164613380702,3,left
11.163,-0.21061205109025077,3.83953906559109,-1.3647507488606263,1.065252814337746,-2.5312798755789716,1.8980254627428872,1.0974957678463144,0.12143228646016467,-1.290107455030075,3,left
11.167,-0.03304390519283676,3.0507545933695757,-1.7097643245290643,1.0650811017940653,-2.527215771150641,1.8957711390100334,1.2395309396208678,0.29543918686387516,-1.5549525199111622,3,left
11.168,0.1019305902493956,2.539116316410793,-1.8575949940674974,1.0649605832677072,-2.523662218749181,1.8938128522672721,1.052160790162561,0.06591421914981463,-1.2056095174600028,3,left
11.171,0.14126462674278137,2.41621005688334,-1.8717613892793583,1.0654089146105603,-2.5393570643019077,1.902425766048785,0.26573661437285356,-0.8974098177366311,0.2607099235664575,3,left
11.172,0.32083302085813087,1.9818968074747882,-1.8305952582203364,1.0646531868879454,-2.510114134282012,1.8864123226244591,0.07837055483542145,-1.1269492568255273,0.6100536033194947,3,left
11.173,0.6007426849255417,1.4079865170868482,-1.6289912773563708,1.065571182473637,-2.5477570726924714,1.9070021650010625,0.22042024740950195,-0.9529252181900533,0.3451989662132513,3,left
11.175,0.8616681497700286,1.0287002453375238,-1.2878314374952113,1.0648276848891427,-2.5162930936800247,1.8898017511595335,0.13473756096884698,-1.0578623793888813,0.504939003306435,3,left
11.175999999999998,1.120403984916286,0.6182461142295297,-0.9031580236168313,1.0648509706959148,-2.5171272582499595,1.890261237927652,0.16962988867834053,-1.0152208798867752,0.4399426275336158,3,left
11.182,1.3095736359636798,0.26934431844366197,-0.5139667881759655,1.0662203289258725,-2.577244124931757,1.9230976356866702,0.17005207138583867,-1.014500566185529,0.4390331490447541,3,left
11.183,1.4284690893679204,-0.0009487431790040704,-0.18955641406213003,1.0628673060186111,-2.4294748973069034,1.842388039134299,0.15187547074437324,-1.0370524982723084,0.47309730595478583,3,left
11.186,1.4495022836969687,-0.30441294233450394,0.08655463804590906,1.0684128978807208,-2.67451647335994,1.9762187577772061,0.1736686099197559,-1.0100736659949476,0.4322910514988138,3,left
11.187000000000001,1.4128873671162503,-0.4795215118706332,0.2401601654043609,1.0611088151848123,-2.3512444252124016,1.7996746772756849,0.1566599354402343,-1.031029383842302,0.4640773681788769,3,left
11.187999999999999,1.3972171236368998,-0.5266289030584519,0.26802698731456026,1.0304887568979715,-0.9927481185438509,1.0580591960791106,0.16594659613663204,-1.0198993249215493,0.4469148377136625,3,left
11.190999999999999,1.2984334785346419,-0.6794980240383101,0.33777510208710926,1.023193766860088,-0.6690843479283477,0.8813715826161115,0.1635533546997533,-1.0220437898973367,0.4508896207821499,3,left
11.192,1.1118644495957728,-0.8715936337828148,0.38543590226272784,1.0287237536715241,-0.9149709132467736,1.015512434597353,0.16161899600117763,-1.0257681220322592,0.4553353055636391,3,left
11.195,0.8794814267719067,-0.9741488257970932,0.3731211488465358,1.025387417367186,-0.765871075217798,0.9343134525056715,0.16522009060070827,-1.0196948445988367,0.44759143903659215,3,left
11.196,0.5707136022042136,-1.0385716051497842,0.37480984181024724,1.0267472936551623,-0.8276576008696777,0.9677654110671321,0.1617550440594449,-1.0252641953308355,0.4548728335808718,3,left
11.200999999999999,0.23413443445763404,-1.0405136344237262,0.3752194443489587,1.026762845262382,-0.8269538754799659,0.967655794558537,0.1644122632379318,-1.022021381455781,0.4499260841669541,3,left
11.202,-0.08469907598228488,-0.9748589647312828,0.40899704173058155,1.026052964241213,-0.7960500355599247,0.9506666321918849,0.16233749864134034,-1.0221035539969474,0.4522702034777724,3,left
11.206,-0.3614604383427876,-0.8510000491869584,0.48186493122022545,1.0269093430702463,-0.8351897100695369,0.9718014374565882,0.16443166124031916,-1.0251581631824251,0.45184884159203037,3,left
11.207,-0.5660437487681512,-0.660048856378588,0.5596353370935905,1.0262324656109858,-0.8014859854865135,0.9541503098152049,0.16194153337582956,-1.0198247522444355,0.4512953401079942,3,left
11.210999999999999,-0.6936973855605365,-0.4083218389822568,0.623279033510255,1.0266132687647969,-0.8246858434692916,0.9655269207529035,0.16447800506180335,-1.0256548028495618,0.45210556061523377,3,left
11.212,-0.7264026785352036,-0.09873596231519656,0.6383141670568453,1.0265031067390498,-0.8120801219646219,0.9602260389642371,0.16319893757427018,-1.022057908362509,0.45128964238455294,3,left
11.216,-0.6433393325570418,0.2197085309067141,0.6011376264075646,1.0264311216797284,-0.8150260037918076,0.96057410218973,0.16117250695745966,-1.0200883856777945,0.4523088142449608,3,left
11.217,-0.4423711451534076,0.5024347894515218,0.4900522380784239,1.0265951361581909,-0.8223728520730884,0.9645741855235125,0.16852889404021207,-1.030559197767575,0.4506680900394767,3,left
11.22,-0.12530322652166406,0.7199564399775757,0.28545776110127574,1.0263993456151017,-0.8022693802721999,0.955935940840884,0.15515938962778297,-1.0108070209377602,0.45320175236387805,3,left
11.220999999999998,0.28159993720681764,0.8796012351984788,0.034948130080804454,1.0265988384432752,-0.8371776597437228,0.9696524701552913,0.1722651661664972,-1.0362445008100196,0.4500628588011682,3,left
11.224,0.7114802811550833,1.020027835770159,-0.20747651642154036,1.0264094033384115,-0.7899278515780374,0.9518255659622288,0.15800933539736922,-1.014978024512133,0.45263670336560163,3,left
11.225,1.103163074128199,1.1800183238695925,-0.38767741865197547,1.0265642093597824,-0.8381732874063119,0.9696693460065036,0.15829978631940686,-1.0156693212701926,0.4527453573085872,3,left
11.229000000000001,1.435519175402757,1.3703876165565587,-0.4939104877028341,1.0264978919142962,-0.8113764557146066,0.9599495926795082,0.18579551909899716,-1.0558399191760814,0.44725344564784025,3,left
11.23,1.6965478461007066,1.55616285433427,-0.5454027318188663,1.0263933767096427,-0.7860114039897308,0.9503305096396235,0.11832703586703094,-0.9569699352722809,0.46054090306150003,3,left
11.235,1.8816975993909004,1.7516936433552142,-0.5048872397637183,1.0267508318332235,-0.8922380391376513,0.9898095720987529,0.23016350881301556,-1.1209348965320962,0.4385651977266215,3,left
11.235999999999999,1.9735635542407737,1.8793216722764097,-0.44385094245622725,1.0261159553371928,-0.6966286623313439,0.9173566323181342,0.0826545722423109,-0.904664631141098,0.4675448896865931,3,left
11.24,1.9748140381961303,1.9021787618462052,-0.4210954314240225,1.026920763844739,-0.9471946049999662,1.0100557878335779,-0.5366512331618798,0.0029700360475050647,0.5894496754109564,3,left
11.241,1.9410145305413489,1.9783678001392222,-0.32599561804616,1.026249500495859,-0.7382492103316227,0.9328012820227837,-0.6841707225637838,0.2192226405787006,0.6184461952062954,3,left
11.242,1.7752806665248737,2.024513954295435,-0.17997967332518994,1.0262749485983051,-0.7437375579182806,0.9347903600091081,-0.572323607178638,0.05527811592197006,0.5964550996795186,3,left
11.245,1.4486314331827352,1.9482613674971665,-0.07245861996838002,1.0275346344509446,-1.1424288755030119,1.0822747421070482,-0.6397850028038543,0.15415066084451456,0.6097256567146695,3,left
11.245999999999999,1.0852623492563196,1.8524280239918447,0.006404933192442461,1.0244225398081448,-0.16277923348448264,0.7199533595286236,-0.6123328022793437,0.11392638277146015,0.6043147041546274,3,left
11.249,0.6521097141959543,1.7028899964405626,0.06488556988869154,1.0295972518032672,-1.7869832422723366,1.3206278026968492,-0.611952467168445,0.11335706755041881,0.6042629040403378,3,left
11.25,0.3698154464689809,1.5901159673841354,0.09384919826663496,1.0227547090165086,0.35533573979031213,0.5283566860215999,-0.6263341464504817,0.13444345743726158,0.6070558066653197,3,left
11.254000000000001,0.30608253581828776,1.564520254108829,0.10383783788027864,0.9942550762452179,9.346524132393288,-2.796743567334526,-0.6091068324890818,0.10919178874397685,0.6037125183930092,3,left
11.255,0.08891536510344311,1.451712861969677,0.130343565197338,0.9873814088516677,11.488958193628035,-3.58904927632318,-0.6225217556714318,0.12885175268655896,0.6063088545352081,3,left
11.255,-0.15815251782899517,1.3033681268051465,0.1623422495377202,0.9925884130972897,9.864691355852356,-2.988371083407669,-0.6152859161983524,0.118249123942085,0.6049024504453547,3,left
11.26,-0.2596408277991057,1.1963187877296368,0.18641595088018978,0.9894940230220292,10.844075174014609,-3.3505589469082864,-0.6169518669031013,0.12069098655940089,0.605267970220095,3,left
11.261,-0.32859366971671305,1.0836797417578998,0.2186365189349045,0.9906319108395849,10.44624725890036,-3.2034446298226102,-0.6188362554485262,0.12344693204695455,0.6055209031454049,3,left
11.264000000000001,-0.3142835174129786,0.9893508210597205,0.24566009974216185,0.9909126782609728,10.439202080652699,-3.2008235956777957,-0.6155736787664006,0.1186776952115868,0.6050803363064697,3,left
11.265,-0.23186668752343506,0.9063553759098606,0.26285380302972267,0.9898807383962425,10.650138767046329,-3.2788526736502988,-0.6186176389968094,0.12312242519358835,0.6054329810405499,3,left
11.269,-0.11853974117126828,0.8286642235280883,0.267456070680854,0.9910379612027521,10.397890789373367,-3.1855464843724413,-0.616586072525102,0.12015874305619136,0.605229226385191,3,left
11.270999999999999,0.026330496343248883,0.771577155411977,0.25076765612825996,0.9902635476107599,10.593667246580912,-3.2579563047943525,-0.6175008177092008,0.12149900836502549,0.6054111853913933,3,left
11.273,0.16424148655294776,0.726629599675885,0.2187738360987237,0.9902895253730422,10.490172286404157,-3.2197013714189424,-0.6173899979841467,0.12131171250230652,0.6050254763410974,3,left
11.274000000000001,0.2981689656628744,0.6982615009310786,0.17477185757349425,0.9912031446676942,10.50895264108866,-3.2265864686101366,-0.6171401571946151,0.1210034015888219,0.6058075180004856,3,left
11.277999999999999,0.42237983070444735,0.6819285583291215,0.1255118801030148,0.9894107288793086,10.545837590279078,-3.2403303491523365,-0.6173963018006796,0.12129185588134407,0.6046181268422577,3,left
11.279000000000002,0.5346779523876533,0.676456387047901,0.08436556727772529,0.9916539412631658,10.486547560325121,-3.218277442237086,-0.6172780220900393,0.12121173908585295,0.6059163980728486,3,left
11.283,0.6372765938880762,0.6891235772972759,0.05650052112688916,0.9898442942515476,10.540605598849783,-3.238369674912812,-0.6173482519848746,0.12126008594823659,0.6051666639479539,3,left
11.284,0.7183378875896287,0.7135322762622507,0.0407068197897756,0.9899262421327735,10.510357585030341,-3.22718470995303,-0.6170644648180157,0.12079921604627994,0.6044525922400128,3,left
11.289000000000001,0.7768629869120569,0.7505486410161454,0.04327091153198559,0.9929737759924736,10.507270287950988,-3.2258552622711,-0.617860146357945,0.12216656438227673,0.6074897976674775,3,left
11.289000000000001,0.8073573196170496,0.8032432137789485,0.06400239708834757,0.9859125162062097,10.544588773237994,-3.2400846985679523,-0.6164072567583123,0.11966223689178723,0.6018617672922812,3,left
11.293,0.8043804712039777,0.8609322120912264,0.08847976570428509,0.9964702058909923,10.481668211919793,-3.2161768268442645,-0.6183007837544884,0.12292067125913245,0.6090939353354506,3,left
11.294,0.7776041753371501,0.9190458624378958,0.10943050959509695,0.9852104630210536,10.550093016150173,-3.2421620390550725,-0.6167077872909347,0.12017991503028742,0.6030537224522889,3,left
11.297,0.7303297681636344,0.9712979258395139,0.12083530736852362,0.9917244835530734,10.508424173427628,-3.226359635586212,-0.6167129183709399,0.12020440468081603,0.6032098594173383,3,left
11.298,0.6736156349228792,1.0072142433470694,0.11887500421221071,0.9973017825639321,10.483068583739016,-3.2166421992442142,-0.6199090324085665,0.1256485937773279,0.6147582241505685,3,left
11.302,0.6204386951595284,1.0306620095235435,0.11163870164218125,0.9728287821330663,10.611330024997548,-3.2655612599947834,-0.6120844847266511,0.11230093115420962,0.5863796304004242,3,left
11.304,0.5633157026194551,1.0374832319184362,0.10496986657573737,1.0182279141754185,10.370344726890403,-3.173687192013433,-0.6250577166473967,0.13444081678478945,0.6334327816135705,3,left
11.307,0.5301526617579225,1.0313543040650976,0.1019237739709617,0.9599271727720108,10.680485324040326,-3.2919164276663184,-0.6079402573138019,0.10522063517142996,0.5713685652389398,3,left
11.308,0.5242209336728695,1.030027120890098,0.10026560219175795,1.0086061052074942,10.421275184764227,-3.193108407940887,-0.5359617613466857,-0.01751286564192723,0.3108319607232398,3,left
11.309000000000001,0.5042135754876524,1.0200839640205175,0.09589356032801082,1.007271860481509,10.429392424072631,-3.196183983914871,-0.5188363157661944,-0.04676020789564442,0.24876575991375713,3,left
11.312000000000001,0.4840088179518523,0.9968687668070957,0.08912728452309135,0.9144939950075979,10.92005302608668,-3.3832739213916287,-0.5318248847267678,-0.02458111746100937,0.2958223730405134,3,left
11.312999999999999,0.47691895927311956,0.9744743246404574,0.08349750988954927,1.1425614504791146,9.712760016940248,-2.9229578958221873,-0.5239799043996014,-0.03795238192730029,0.2674399385240339,3,left
11.317,0.47537848749632944,0.9474706149888574,0.08804204875844257,0.7643938516549842,11.714858352546772,-3.686303475764062,-0.5271962554902536,-0.03253397049826728,0.27899078290647367,3,left
11.318,0.4784426881427696,0.9301007687913487,0.09388832025094707,1.2632155474103075,9.074053241171937,-2.6794463588370476,-0.5271905117868521,-0.03240611732465917,0.2791479990991669,3,left
11.322000000000001,0.48000649788639954,0.926005517139481,0.09400371179463407,3.35677373261505,-2.0088830966253233,1.5462622956455856,-0.5255869524861327,-0.03533342611833717,0.27310110312651337,3,left
11.323,0.48753597172299534,0.9093450420771638,0.10219114634236448,3.855629865509328,-4.649592298943932,2.553068216640244,-0.5275236697721721,-0.03184131867429664,0.2803463414458198,3,left
11.324000000000002,0.49748208169225694,0.8890554975566549,0.11031528234953247,3.4774250086603473,-2.647597731295887,1.7897780267162064,-0.5259914704227826,-0.034535435804997835,0.2747007578187082,3,left
11.327,0.5059492532210992,0.8762575357324915,0.10716479425598507,3.7054782909696184,-3.8549302041514473,2.2501151213174997,-0.5268898777756712,-0.033163741256441864,0.2777541928765601,3,left
11.328,0.5168187413564682,0.8630769241957688,0.1005352147421276,3.6128240213009906,-3.363925400989991,2.0628414433390034,-0.5265156966815263,-0.03328595426573892,0.2770350673760426,3,left
11.332,0.5208517209716157,0.8524159173571171,0.0909764896770504,3.6112238481768912,-3.356548756626684,2.060161204971361,-0.5266051598642636,-0.03402130033865963,0.2762672348290615,3,left
11.332,0.5178205659529359,0.8461427570040441,0.07877623819102386,3.660284065107599,-3.614697030848662,2.1584023934145673,-0.5266082172672519,-0.03292710778026736,0.27761617738659616,3,left
11.337,0.5108259741881138,0.8454394566379805,0.06833310556576724,3.601603647502295,-3.3056138324080377,2.040737600142907,-0.5265511648839691,-0.03389225807355223,0.2763438851948813,3,left
11.337,0.4991407911833793,0.8526507494615176,0.059680611501096534,3.647166596137591,-3.546142877502148,2.132368127783867,-0.5267967164034351,-0.033481274173352525,0.27722300930764465,3,left
11.342,0.48212983793360326,0.8640800198654964,0.05488906245607566,3.6230196434588082,-3.4169734472102884,2.0829643596962066,-0.5261244507757106,-0.03301764301331908,0.27676677521771603,3,left
11.343,0.4588469779240265,0.8791750081488291,0.055145647020436964,3.627546679625036,-3.445253938619616,2.0942431471459084,-0.5274182877324778,-0.03449046016757875,0.2769324020942132,3,left
11.345999999999998,0.4375016233878121,0.8988575810454549,0.056646050249637446,3.6358703312691034,-3.4818830440262865,2.1073552921575343,-0.5255462933476518,-0.03219427156720032,0.2768953925032935,3,left
11.347000000000001,0.4208722507746545,0.9182816992333577,0.06089064947141641,3.622389734140032,-3.419643270402144,2.0846716855744694,-0.5275309511478476,-0.034660482300341466,0.27689568569257295,3,left
11.350999999999999,0.4060011000625021,0.9367218315065495,0.06717875049814986,3.634717970652149,-3.4776328136887744,2.1059473822904473,-0.5264014120878655,-0.033206467452154456,0.27695735493596363,3,left
11.352,0.3977690150072728,0.9508163248703847,0.06865123372536638,3.62767254794191,-3.440270414249977,2.0916944325009514,-0.5253428395512597,-0.032096992285820705,0.27670433257012367,3,left
11.356,0.39535643306264623,0.9571578074844067,0.06726693125678146,3.627434280163128,-3.452508311724271,2.0979086316288713,-0.5298365165879045,-0.03718805831081523,0.2773104026936434,3,left
11.357000000000001,0.39568367449757924,0.9622343183954478,0.06414421891023045,3.6350252710202,-3.461844106505332,2.097930417177859,-0.5215282505692388,-0.02770424634987542,0.27627701474631355,3,left
11.360999999999999,0.39952267137046227,0.9629906604843257,0.059746421590405316,3.622013437293521,-3.438983747024421,2.0944917538533785,-0.532190552950867,-0.039891265038427146,0.2775834773000013,3,left
11.362,0.4034494559888455,0.9590648213810474,0.05939417141554289,3.6361983426621,-3.4650162473005928,2.0987916558309254,-0.523291837848505,-0.029713384821759264,0.2765012451644737,3,left
11.366,0.4088480814928359,0.9566680708746412,0.06274528273474245,3.627506280912352,-3.447347375930388,2.0953051748646736,-0.5235230008412941,-0.030002966849517677,0.2764984435795723,3,left
11.367,0.4148345920915041,0.952004022668623,0.06989074739078655,3.622471306591268,-3.445132394050833,2.09726324639776,-0.5405219751756798,-0.049363216090743456,0.27866681296993506,3,left
11.373,0.4175910972804491,0.947573443936716,0.08155734315280713,3.648529239218714,-3.476130697138152,2.0968184191242383,-0.4987528404772255,-0.0017621058006213018,0.27337553483936944,3,left
11.375,0.42402822236572524,0.9454598907721448,0.09324662093406055,3.5994790860781443,-3.4147994482073436,2.096176785071922,-0.5680038078275305,-0.08069028490703296,0.2821382533817984,3,left
11.375,0.430590719929535,0.9425601794918856,0.09786447883746573,3.6626239702563606,-3.4944138454402562,2.0973300487924362,-0.47666386494325963,0.023414793772721387,0.27058192458548147,3,left
11.376,0.4312879611716677,0.9429582682826158,0.09865199244481239,3.609842692397099,-3.427599168624528,2.09623337893384,-0.0932357137767103,0.46038633831387565,0.22201883138379047,3,left
11.376,0.43543632119891496,0.9453266320415338,0.10281581940338091,3.611521772105541,-3.4307463958720206,2.0967756421428123,-0.0018971245115993844,0.5644877806577209,0.21046007408771755,3,left
11.383,0.44169231383336394,0.9465386208489586,0.10388823829110408,3.7113408038520665,-3.55375480859405,2.0971865172529305,-0.07114662607913194,0.4855635339258179,0.2192254200735489,3,left
11.384,0.4465614118144573,0.9476707598654723,0.09802911758071445,3.465705174131657,-3.2498392477603675,2.0955713313179176,-0.02937693882179982,0.5331661472852425,0.21393514137694725,3,left
11.386,0.454630466231298,0.9472534908496624,0.08645562832442913,3.8730525971897483,-3.7541494736055263,2.0984071330197573,-0.04638076196133706,0.5137928337863834,0.21609479492949696,3,left
11.387,0.45955202830289754,0.9476514192806994,0.07674965538040263,3.3357623391636704,-3.0889373238398283,2.094651469872141,-0.046601486018595824,0.5135313518602693,0.2161107463924704,3,left
11.390999999999998,0.4600532170379005,0.9480608038495988,0.07460355705646975,1.0808246724565742,-0.2986098936571482,2.0796311433434633,-0.03771774313085234,0.5236689496775678,0.21500162633372416,3,left
11.392000000000001,0.4641657072834719,0.9447828768638253,0.06762990950143666,0.5435772686371801,0.36643291960942137,2.075930185093687,-0.048365130191214696,0.5115220345522292,0.21633486346980085,3,left
11.392000000000001,0.46701804795914814,0.9428100642694652,0.055631379328688245,0.9508732872941992,-0.13769509532116547,2.078711924931605,-0.04006331122326242,0.5209885598395384,0.21528992311638684,3,left
11.395999999999999,0.46566070393980374,0.9430887695001102,0.045542652663841304,0.7052378714166601,0.16629368875605952,2.0770560745250872,-0.04456977002984069,0.5158630166140807,0.21587300083022326,3,left
11.397,0.46620097091326096,0.9420993106795867,0.035355324137208065,0.8051739062287435,0.04267024530116592,2.0777007043729574,-0.043469978852966926,0.5170834838362102,0.21569404201249953,3,left
11.4,0.4657360621170854,0.9431256677936475,0.028216543086232435,0.8065766572880788,0.040841454795780774,2.0777650179359135,-0.042411486776019414,0.5183462936624319,0.21562809745818895,3,left
11.401,0.46427208830347855,0.9459465228597776,0.025439308032843055,0.7542112597457866,0.10576966758723444,2.077333612391649,-0.04430892500990473,0.5161146980866609,0.21578500391986255,3,left
11.405,0.4656095832410039,0.9453852514621341,0.02285548062586164,0.8169174290415276,0.028028914675159083,2.0778494180309197,-0.042506506731485316,0.5182239019151551,0.21562313595829763,3,left
11.405999999999999,0.46572838918259035,0.9436611905994243,0.017842035579108642,0.7681022290258489,0.08856078356492851,2.0774363968718736,-0.04380087064138603,0.5167492762999064,0.21578764716543136,3,left
11.411,0.4656655092864821,0.9433311378194682,0.0137035618690512,0.7944316845090944,0.05593267629660531,2.07764597268047,-0.04299970359497314,0.5175602277204943,0.21556312405016875,3,left
11.412,0.4670703905336057,0.9422414903792542,0.0112792468131919,0.7883410791471654,0.06336177917449552,2.0776801164610994,-0.04354000671617239,0.5171777273413369,0.215912716955386,3,left
11.415999999999999,0.4681153111386075,0.9418923831124975,0.006953313610173761,0.7815706407131502,0.0720668972295239,2.0774041534778274,-0.04304309710431386,0.5173961194896501,0.21543039491047075,3,left
11.417,0.4689979508203642,0.9430096463948352,0.0009295307539769037,0.7932881685073314,0.05701351543360589,2.077874881282432,-0.04351521956592878,0.5172288821353299,0.21593721591603826,3,left
11.42,0.4678009129668912,0.9466135729608994,-0.00543582170813095,0.7824063276587607,0.07115313229690781,2.0773233430569675,-0.04333337434547484,0.5172219450806019,0.21565594579880948,3,left
11.421,0.46555256116469207,0.9535540262407126,-0.011445405516252796,0.7896414328018476,0.06166518901443014,2.077752162875136,-0.04272620468686636,0.5177290502412184,0.21535630466277517,3,left
11.424000000000001,0.46478675285394133,0.958707211979988,-0.016456760984856926,0.7863102742922619,0.06578140782906741,2.077734040892451,-0.04464614193303776,0.5163495099391455,0.2165739906992079,3,left
11.425,0.46463720879279613,0.9618540190867616,-0.020505450991388133,0.7870133663519668,0.06590427802888331,2.0770321042870297,-0.04121873740608313,0.518756364963567,0.21433277663554395,3,left
11.429,0.46411715197148634,0.9632152712531213,-0.026402676438374323,0.7872364506570073,0.0633617233712514,2.0786468883434908,-0.04558974150650429,0.5156997670556382,0.21720667941307475,3,left
11.43,0.46441089048817397,0.9608545663515233,-0.03238936260612983,0.7873293264171876,0.06662654123005715,2.0762417001533655,-0.041952840558081295,0.5182379330738822,0.2148091380706338,3,left
11.434000000000001,0.46220508550718753,0.9590301246700358,-0.03606825892876796,0.7866658286750856,0.0638454952277819,2.078801265936523,-0.04200458459984588,0.5182217487335841,0.2148676928696452,3,left
11.435,0.45474567730361226,0.9571649412809634,-0.039930618572655896,0.7870434167274617,0.06545911025652276,2.077322953902446,-0.049092321265033115,0.5132093991982265,0.21945969742711152,3,left
11.44,0.4458657010449292,0.9541247722690067,-0.04486139363062373,0.7886195271094371,0.06530323847490545,2.076055243783034,-0.031726822475816624,0.525467548568773,0.20818097709035893,3,left
11.442,0.4312910629988239,0.954512985084435,-0.054257720722480446,0.7833400954777667,0.06398455016056925,2.081610405054386,-0.06050503983887089,0.5051585071764708,0.22687910965234512,3,left
11.444,0.41923730875233434,0.9562351009561062,-0.06263941589341326,0.7930509238074761,0.06652824439907501,2.071309319567858,-0.022548318015547734,0.5319452885740827,0.2022172281555866,3,left
11.445,0.4169295211454759,0.9566115642506258,-0.06473572029728136,0.7804773408208852,0.06339177247060562,2.0845342671035967,0.13684676482896885,0.644452383507575,0.09868263375197375,3,left
11.446,0.404762773823519,0.9593540581877557,-0.06536808722275556,0.7910225511217595,0.06595005729241793,2.0734957654010646,0.17480847596288368,0.6712466430325693,0.0740211959844313,3,left
11.449000000000002,0.38852038487400986,0.964772084314447,-0.06557460729097117,0.7908667381884742,0.06572165562522383,2.0737908075528186,0.1460248614345674,0.650929511577977,0.0927188479463866,3,left
11.45,0.3810909932544382,0.96950735029349,-0.06984252294459506,0.7702025096303939,0.06152948888001201,2.0948462600633886,0.1633883038168349,0.6631845809766062,0.08143994683870696,3,left
11.455,0.37152015505413055,0.9714024565838291,-0.08091937206393227,0.8208970048328562,0.0719491711743673,2.0431032147262593,0.15631848005372806,0.6581990752309788,0.08603354013193669,3,left
11.455,0.3630315852028756,0.9690116559949284,-0.09708162327669612,0.7368306731713461,0.05469027903369585,2.128888398512017,0.15622819875837238,0.6581251369335238,0.0860886740593807,3,left
11.459000000000001,0.3605169015757551,0.9659347065187617,-0.10810433902342956,0.8477484176688455,0.07740988383530226,2.015745498990703,0.1599203506123939,0.6607461073284435,0.08369603955900579,3,left
11.46,0.3597737868536411,0.965559685282138,-0.11243354897507601,1.313637216275247,0.17240879669491793,1.5407507588400673,0.15549433275803248,0.6576070573884116,0.08656505363962523,3,left
11.460999999999999,0.36153254884065134,0.9620306937212597,-0.1271723734717057,1.4246065804719512,0.19506161857851398,1.4276199207997156,0.15894546612586263,0.6600494817946692,0.08432595361233164,3,left
11.463,0.3648498929448902,0.9544568457628506,-0.14643188171195806,1.3404600049108675,0.1779051884165493,1.5133918765418644,0.15707278959590393,0.6587407604804105,0.08554782690542703,3,left
11.464,0.3689834618402969,0.9486972045656298,-0.16355308659423592,1.3912196656712528,0.1882453568413876,1.4616444995620412,0.15752775351819204,0.6590197665739307,0.08523467901777212,3,left
11.469000000000001,0.3773625269976417,0.9431161758485265,-0.1803295972870137,1.3705625586317933,0.18403409340991245,1.4827419371847812,0.15797183618841854,0.6594058375223397,0.08497669206181445,3,left
11.470999999999998,0.38921266897161483,0.9369813799574636,-0.18806410577486307,1.3702724160319881,0.18399414288970162,1.4829457732480238,0.15717790325016778,0.6587562980817017,0.08545492768352925,3,left
11.474,0.39800740341975605,0.9326211142331846,-0.1926154212188872,1.381105509182111,0.18616424323672068,1.47203873897924,0.15793134486717214,0.659359178883004,0.08499541187274269,3,left
11.475,0.40424803049073704,0.9266864411798841,-0.19754467404050588,1.36812623313697,0.1835617028283162,1.4851319024602354,0.15739339887963194,0.6589801644703617,0.08534516984516567,3,left
11.478,0.40983715912779434,0.9200762896750795,-0.203643437573572,1.3782331420643052,0.18560131941048036,1.474889294864762,0.15771834739025797,0.6590774699240836,0.085078411945849,3,left
11.479000000000001,0.40845515782336705,0.9170957315240389,-0.21627777943682602,1.3727927503756823,0.1844548286733036,1.4805538979524255,0.15751217235841003,0.6592336546320412,0.0853395129374598,3,left
11.482999999999999,0.4014314633460886,0.9150199837057692,-0.2294152922091635,1.3740111787142677,0.18482920426401606,1.4789272417664177,0.15769129291066314,0.658910041001973,0.08503349317778604,3,left
11.484000000000002,0.393639617602149,0.9142378636598318,-0.243085400098708,1.3755023988354418,0.18491335248183452,1.4780710435566449,0.15752420217818353,0.6592717807198718,0.08534413694691956,3,left
11.488,0.3831268420393191,0.9174614600328332,-0.2540360593563203,1.3729441838959267,0.1846631646590242,1.4798632607758369,0.15758312795066715,0.6590363609799343,0.08518924773390302,3,left
11.489,0.3732435392859585,0.922275621835352,-0.25893957338335827,1.375336173658518,0.18493382034341888,1.4780756029159505,0.15782053634120036,0.6589646692630466,0.08493397731728869,3,left
11.494000000000002,0.3670829101613098,0.9278333059594803,-0.26448227011204023,1.3737648974021912,0.18461184937478575,1.4796826266630023,0.15708673963857256,0.6594928715514807,0.08585179026424,3,left
11.495,0.3631758841191802,0.933243271999451,-0.2662042863356362,1.3743640645129065,0.18513665892737943,1.4778651388036002,0.15839275583149148,0.6584750310102272,0.08418576412352086,3,left
11.498,0.36477444671353304,0.9368603377666753,-0.26993029515613143,1.3745636179038778,0.18425644227990046,1.4804204900295652,0.1567276907255067,0.6597899990943488,0.0863168200621536,3,left
11.499,0.37128208855592026,0.9377844218542034,-0.28147584553209837,1.3738899251829273,0.1854933139683188,1.4769908011972444,0.15811346658268444,0.6586897559691822,0.08454117927203031,3,left
11.502,0.37765072934885224,0.9359064721066186,-0.29519585901187473,1.3746783333446622,0.18418891895065356,1.4805761973365767,0.15809354944785023,0.6587305704235806,0.08457624286520388,3,left
11.503,0.38460884405201157,0.9331649710844501,-0.31372046807475323,1.3741120322366216,0.18492004294150235,1.4786161436012828,0.1553919623855397,0.6607900464915376,0.08800424817379457,3,left
11.508,0.3894664540555217,0.9311223200496361,-0.33331953642038203,1.374171825016166,0.18566211468957922,1.4763719528780503,0.16201282846839052,0.6557172762676762,0.0795943469140448,3,left
11.509,0.38951495519003354,0.9314939192520639,-0.35696743404015996,1.3748075070799308,0.18259755885842685,1.4852873421307784,0.15103839693726745,0.6641283461562679,0.09353381536765236,3,left
11.513,0.3903144096576051,0.9321329644214,-0.3747312848045581,1.3734662484961377,0.18824763472810924,1.468915594476987,0.16551576060733036,0.6530378340414574,0.07514875970036258,3,left
11.513,0.39051339412851926,0.93226008109943,-0.3779918414177208,1.3752254717366976,0.18100031866324023,1.4899036829190373,0.22628213006340991,0.6064595738345503,-0.002048649928944036,3,left
11.514000000000001,0.3869276200449787,0.9334305472133372,-0.3953447956648434,1.3737410576819915,0.18704729536922368,1.4723922603724082,0.2407662696016321,0.5953773885157154,-0.02043405808800651,3,left
11.517000000000001,0.37951315439368694,0.9305368064210401,-0.4137436781936591,1.3738400213754043,0.18689622156744473,1.4728195373469484,0.22978450804965794,0.603779450480425,-0.0064942088971406825,3,left
11.519,0.37015928807179094,0.9256659222212289,-0.41156745368270886,1.3764796944853201,0.17532542979091498,1.5063724307420054,0.23640258227534577,0.598703249850568,-0.014903962856866175,3,left
11.522,0.3596901219452491,0.9212241079214327,-0.3984193480357362,1.3699205961968404,0.2037493463238095,1.4239504321311403,0.23372532045472147,0.6007926179747769,-0.011477227240374272,3,left
11.523,0.33939134220599987,0.9135793411308237,-0.36413744622106126,1.380816136475704,0.15662612093085604,1.5606063785340876,0.2336530695190521,0.6007691214149453,-0.011439434847291319,3,left
11.527000000000001,0.32328587399950454,0.909475223610854,-0.3361477239184075,1.3664412823434118,0.2187800509623288,1.3803486968698788,0.23511387740202616,0.5997610828161697,-0.013218985698459345,3,left
11.529000000000002,0.3177425779323741,0.9093972776705537,-0.3308216102578684,1.3062562840751903,0.4797194069035019,0.6239527788293727,0.2333741010856998,0.6009842399542416,-0.011084039258326534,3,left
11.529000000000002,0.2989180833399546,0.9101297796373599,-0.3083710969690922,1.2918913416047673,0.5418759949636537,0.44369931682013186,0.23471234444361205,0.6000060038852267,-0.012751738315417448,3,left
11.532,0.27636658977638884,0.9162675352373868,-0.284433923906547,1.302766819033355,0.4947458062911837,0.5803107343085911,0.23404272465367404,0.6006130689317688,-0.011837279467546261,3,left
11.533,0.2599375687884561,0.925443103381294,-0.2906602366566669,1.2962367214304638,0.5231831069763584,0.4980285511946599,0.2340734386262821,0.6002873792764807,-0.01208176825593809,3,left
11.538,0.24238730870937097,0.9376712887179242,-0.3058251570825956,1.2988437701468156,0.511592006912883,0.5313047655199687,0.2344884863704113,0.600489585367704,-0.01225522169038698,3,left
11.539000000000001,0.23142639869035875,0.9548578545225631,-0.3083660668485275,1.2989673702691775,0.5114646889566156,0.5321323972250662,0.23388436718686567,0.6003142731853024,-0.011921808745182508,3,left
11.542,0.2246634843462943,0.9743254506256596,-0.2982283449155572,1.2974841076361745,0.5174935687695303,0.514203030389458,0.23441187426401083,0.600418786272437,-0.012245960609697657,3,left
11.543,0.2213390754593903,0.9953875154825674,-0.2803124131183473,1.2991966236254098,0.510244332727833,0.535412342022459,0.2342088814202828,0.6005788714565798,-0.011985068578430364,3,left
11.546,0.22297062727610195,1.0133257490812215,-0.2549145398752849,1.2979601226700388,0.5159322661155834,0.519307177339007,0.23388713880304063,0.599881491447936,-0.012218069414730519,3,left
11.547,0.22515260842754428,1.0268009138842071,-0.22207384685202414,1.2984409645551787,0.512784035257211,0.5271983819185377,0.23482695649862206,0.601318443067153,-0.01194537160755605,3,left
11.550999999999998,0.23297325420381573,1.0399515449867152,-0.1851429129114754,1.2986641551140352,0.513648858078984,0.5268182002224728,0.2333759274940148,0.599212321444801,-0.012289995084116781,3,left
11.552,0.24182464540196819,1.048620072812984,-0.144610218720408,1.2980067186324737,0.5142518124348745,0.5224611615017073,0.234931874674011,0.6014504913805531,-0.011934152978314145,3,left
11.557,0.2460765863495178,1.0485772156944626,-0.09520099282044592,1.2987047486645724,0.5130162056593895,0.528122906400009,0.2340184491721792,0.6001683235505988,-0.01212156616695979,3,left
11.557,0.2495558756269012,1.0417466426406863,-0.03679140269795868,1.2984052609210732,0.5143304792730161,0.5243308103483415,0.233302394912529,0.5990083643821154,-0.012373420443916355,3,left
11.562999999999999,0.24690368507921936,1.0301415862608438,0.017572404210547826,1.2979124740351349,0.5131464750244987,0.523906016467516,0.23655294763885865,0.6039953490156651,-0.011418835725778415,3,left
11.564,0.23588263115531916,1.0177045523060348,0.058670511543686354,1.299413391194114,0.5142262473664152,0.5295913735909963,0.23050370728915093,0.5947631072974977,-0.013162646134167056,3,left
11.565999999999999,0.2206508736175351,1.0030751475067081,0.09183065569671656,1.2970426127801447,0.5131880374535693,0.5194492152970613,0.23827593479272224,0.6066141242757424,-0.010929210937579828,3,left
11.565999999999999,0.2031452997457059,0.9840798915185848,0.11846318160449107,1.2996177045314143,0.5140853163258998,0.5308690516156207,0.2317854053232687,0.5967217724047568,-0.01279181556146697,3,left
11.572000000000001,0.1854582937251954,0.9656255315297148,0.13323258907123647,1.298098290341925,0.5137072281778539,0.5238622662413331,0.2319683690544273,0.5969839056691664,-0.012749675438402056,3,left
11.573,0.16853148196112627,0.948959117860902,0.13806273958424947,1.2968865819023943,0.5129449448161664,0.5190920832616364,0.24432053697247194,0.6158650678385004,-0.009169983942845262,3,left
11.575999999999999,0.15427215854646625,0.9334831500470175,0.13819466717494083,1.3023697374899945,0.5154761384477019,0.5423121930922387,0.2139518863803157,0.5694640916631022,-0.0179595754171322,3,left
11.575999999999999,0.14555909224396346,0.9185498665438607,0.13893776785120815,1.2921596910507196,0.5109720046219743,0.49869533140418415,0.26430663162941825,0.6463973397104704,-0.003387236046747487,3,left
11.581,0.14343303846199923,0.9094386454083544,0.13999716013451224,1.3052832772932157,0.5166873389856843,0.5549033776943997,0.19788889366638335,0.5449228812841764,-0.02260949709742807,3,left
11.582,0.1442048261379762,0.9072183176336894,0.1406701575339327,1.294323940130845,0.5119442408607202,0.5078897169338489,-0.08088920061010714,0.11897739062822352,-0.10328927827988144,3,left
11.582,0.14707642803028437,0.9012887454168617,0.14463678387441203,1.2946226100401361,0.5120294482438168,0.5093018425324017,-0.1473059526388909,0.01750205846703836,-0.12251547335705701,3,left
11.585,0.15344767031556983,0.8944521154018394,0.14215988911199434,1.3155122435106688,0.5211888098009765,0.5985786458049328,-0.09695227363928394,0.09443625287341531,-0.10793887764047855,3,left
11.585999999999999,0.1594407655402758,0.8917851486994518,0.13715988303844615,1.264169922766151,0.49873778264682683,0.3789394385898971,-0.12732133159063522,0.048035632568212576,-0.11672685024193488,3,left
11.59,0.16610287761772957,0.8923793396745956,0.14730184028747828,1.3492907470905906,0.5359405467746268,0.7431974547397434,-0.11496562186699716,0.06691366656863611,-0.11316127757812128,3,left
11.591,0.17238916736968252,0.894640646016944,0.15616668557769248,1.2370275604712357,0.48687679721037747,0.26270170014821054,-0.1147902764963572,0.06718253552921899,-0.11308875908527868,3,left
11.595999999999998,0.17363453005947674,0.8959238674021465,0.1575938798194998,0.7656658459147766,0.28092432455626326,-1.7538930382704065,-0.12126988460923792,0.05728052199676345,-0.11499492006383305,3,left
11.597000000000001,0.17414043258908124,0.9014926167055362,0.1662655447166161,0.6534235733448329,0.23185813102675573,-2.2344199805858223,-0.113508530215915,0.06914116502005346,-0.11271811190731015,3,left
11.597999999999999,0.17849565509050436,0.9107935719776808,0.1655441991429262,0.7385229633481813,0.2690583672452682,-1.870113226793797,-0.11955308325714414,0.059904760469810685,-0.1144806367972121,3,left
11.6,0.18403477639319685,0.9202204955903593,0.15011438286283116,0.687167809864696,0.2466266655520252,-2.089792711608991,-0.11629318389942765,0.06488350070190278,-0.11356329728855681,3,left
11.600999999999999,0.18630734010586203,0.9315465556184556,0.13468974040312948,0.7081412151210804,0.2557394880045468,-2.000518343449686,-0.11703932942555167,0.0637501361619621,-0.11369517511557306,3,left
11.605,0.18842293578331082,0.9457515063749715,0.1195979558159803,0.70826546090816,0.25589959883294144,-1.9990278300895312,-0.11790091597166637,0.06242212360709801,-0.11408931233043604,3,left
11.607000000000001,0.19202318474946817,0.9610044581401703,0.10628710778482409,0.6975515518298385,0.2510693048163626,-2.0462124462836435,-0.11640857803759351,0.06471657887526952,-0.11347976847572555,3,left
11.610999999999999,0.19323991072124183,0.971408957729784,0.09414473662233006,0.7104365645787352,0.2568462358861453,-1.9897610131706953,-0.11780890984798792,0.06256555048588339,-0.11402665451036197,3,left
11.612,0.19926388565881725,0.9766471989475859,0.084798047667387,0.700318647598374,0.2523623793999703,-2.033618729986465,-0.11686860544272522,0.06400217872951633,-0.11375576088381338,3,left
11.616,0.21599745160397718,0.9770036489745957,0.08237158970809211,0.7060315791808409,0.2547327138592449,-2.010294616043671,-0.11728450874828071,0.06338795764504411,-0.11361341194840738,3,left
11.617,0.23676731249595379,0.9704709515334814,0.08320852430191372,0.7041225541122349,0.2543028606703096,-2.014861340587161,-0.11727237645416282,0.06335785760800669,-0.11421031591812339,3,left
11.62,0.25972969425901965,0.9579725067497704,0.08594635392608774,0.7037803154791333,0.2534574312651633,-2.0225244030190197,-0.11706575033977883,0.06374620805133921,-0.11325477790440999,3,left
11.620999999999999,0.2856190517265474,0.9406521838744863,0.09042283198648685,0.7049365580657732,0.25481626006774016,-2.0099744657385,-0.11732786502009004,0.06326818112420074,-0.1142855420204416,3,left
11.624,0.309802326591351,0.9225397042151093,0.09859271100486014,0.7036583454077548,0.2535774164431206,-2.0215027188806696,-0.11711031865864888,0.06364552887599262,-0.11367078825442267,3,left
11.625,0.3309676699966835,0.9066878342467282,0.10450585399541443,0.7052578934434411,0.2542701249211232,-2.014712762110147,-0.11725020049815518,0.06347008482648309,-0.1132357672895927,3,left
11.63,0.3478171908001956,0.8930188055843784,0.10232074860711086,0.7025336317402476,0.25434243091377295,-2.0151280939991922,-0.11717393601432727,0.0634180675499077,-0.11529505198034878,3,left
11.630999999999998,0.35820689902471337,0.8813929632024702,0.0967071619133336,0.7071726353914949,0.25348414459856733,-2.0209669102784424,-0.11721864178587774,0.06366274201325126,-0.11144796132033599,3,left
11.635,0.3622731312169601,0.8747223317155361,0.08542196547451936,0.7006322509334163,0.25493049587073546,-2.0106307662324294,-0.11718294207153801,0.06331499640161634,-0.11639422689532311,3,left
11.635,0.3606600857011262,0.8737777531559835,0.07491776721534109,0.7075334529509462,0.2533578281763799,-2.0219520945641083,-0.11720395319339294,0.06361933251423638,-0.11226210062359124,3,left
11.639000000000001,0.35954632864373237,0.8742931507894467,0.06714771952317061,0.7036580108616715,0.25431517869674297,-2.014932270943972,-0.11723710818471446,0.06355823467666616,-0.11238414573182659,3,left
11.64,0.359965337311729,0.8766478480958031,0.060486701175276124,0.6997627866220366,0.25489910430407603,-2.011250319815824,-0.11708641586977005,0.06315010869480903,-0.1202302135374339,3,left
11.645,0.3583690085553556,0.8822333578911264,0.05662247830937678,0.7159020137998611,0.2519487760205262,-2.031242766029503,-0.11741705622990535,0.0642167341844404,-0.10093311449241188,3,left
11.645999999999999,0.3590462938955348,0.8876232795658239,0.034165597851748344,0.6861360529433396,0.2574911939418648,-1.993466233655501,-0.11687909281548892,0.06243030171383771,-0.13293230352177887,3,left
11.649000000000001,0.3607214047485142,0.8879276869821635,0.011696091116298027,0.724319484077421,0.25035886035752875,-2.042130777984119,-0.11758783131040244,0.06479041420001244,-0.09072443967650026,3,left
11.65,0.35939799094696345,0.887872236946829,0.00526112050282149,0.6924580587071236,0.2563191598083473,-2.001438641345188,-0.12061089612183842,0.0746097026319287,0.08642417258149404,3,left
11.651,0.3584000925928761,0.8943833131680301,-0.024237043799701836,0.6932608668028787,0.2561343425009036,-2.002786206640871,-0.12132369558752129,0.07697019123808643,0.1286331491466301,3,left
11.655,0.3587044975966697,0.8986532597089187,-0.054723130403182885,0.7542072497163607,0.24484761502246513,-2.0795723685763585,-0.12078145924483404,0.07518000036487668,0.0966316202771737,3,left
11.655999999999999,0.35785406042696377,0.9033507864300871,-0.05898821112111242,0.6044810074442899,0.27261541702319314,-1.8905492767934071,-0.12111000074931566,0.07625834204027254,0.11593228500254871,3,left
11.66,0.3527663185358545,0.9179196170222276,-0.0687512928950968,0.852712329824925,0.2265699462681382,-2.2040361181471924,-0.1209747646903314,0.07582709286549477,0.108081915687196,3,left
11.661,0.34769655622891116,0.926211948139342,-0.07912583347806135,0.5253026685377922,0.28730161774422813,-1.7905382310361695,-0.12097525280520983,0.07579939776258351,0.10796358422409874,3,left
11.663,0.3463600260845531,0.9285348754583556,-0.08155445014810002,-0.849103779327522,0.5422012174534385,-0.05525587594231596,-0.12104262985580408,0.0760689313476316,0.11209482269385407,3,left
11.664000000000001,0.3388209870127291,0.9415048706644011,-0.09015319120561704,-1.1765085590928916,0.6029230648541501,0.35822456303037165,-0.12096134863685312,0.07573948999511423,0.10714389888976492,3,left
11.665,0.3271645586202009,0.9552062083880168,-0.08763100663905735,-0.9282883750637009,0.5568914172701993,0.04474998578011544,-0.12102462764289444,0.07600663289766751,0.11100329190456018,3,left
11.669,0.32096146239028744,0.9649322295846144,-0.06955934451232162,-1.0779958809213388,0.5846519480213584,0.23380368300496845,-0.12099002627293334,0.07586892283763046,0.1089242899918492,3,left
11.67,0.31587722544705427,0.9755694551981609,-0.05475208615291369,-1.0170747467708214,0.5733532875457406,0.15690660778355084,-0.12100003780898738,0.07584914508605756,0.10938202596244556,3,left
11.673,0.30929557477513503,0.9818530048130844,-0.038559608692082394,-1.0162461847887299,0.5732097279104006,0.15576542247744007,-0.12100380100629672,0.07602659917698548,0.10998079924894341,3,left
11.674000000000001,0.3019681519054955,0.9863827582838254,-0.019321552300049328,-1.048121660169589,0.5790983964341141,0.19618748382699974,-0.12099692770441717,0.07572135093028926,0.1089450601043645,3,left
11.679,0.2949771682688789,0.9912626724229181,-0.007885508141214193,-1.009952813773838,0.5720529765907147,0.14775961010600058,-0.12100084740741658,0.07608028957595211,0.10994128382624159,3,left
11.679,0.287812813334697,0.9920838388951188,-0.005465873495152415,-1.0396594147358063,0.577528951769781,0.1854939473858212,-0.1209995773516733,0.07580059380205843,0.10926023312970819,3,left
11.685,0.27674446686080467,0.9913805950781946,-0.007956226272626356,-1.0236299479200386,0.5745706799175869,0.1651601838915595,-0.1210041526834174,0.07581283650953495,0.10952091463337527,3,left
11.686,0.2643377958317974,0.9919528484044915,-0.012133580433971832,-1.0273819631911225,0.5752949175855251,0.169704070733186,-0.12098756369203276,0.07627022511876533,0.10967472875675557,3,left
11.687999999999999,0.25216817270673175,0.9920097077229303,-0.017060458188034658,-1.0313847573661876,0.575945385910089,0.17537357516407795,-0.12102294137609759,0.07521715320753034,0.10917950143027035,3,left
11.689,0.23811671978525759,0.9916340708601219,-0.02168183794353569,-1.0244540314035757,0.5748184754235435,0.16556627697196125,-0.12096963829060058,0.07678619023302377,0.10988481433613148,3,left
11.694,0.22411241447275626,0.9921099607192808,-0.022005857853250457,-1.0308286316933777,0.575806197308662,0.1749091494959959,-0.12102719522442539,0.0751160896309834,0.10917733115171066,3,left
11.695,0.2114500911515529,0.9905693754852286,-0.014528529491911699,-1.0266238736178857,0.5751814532035031,0.16856945413230606,-0.12099395373001205,0.07608104644919739,0.10958648564418264,3,left
11.697000000000001,0.19998957466906334,0.9852220704104396,-0.008149606004478203,-1.028656392389944,0.5755598164960409,0.1711259087108452,-0.12096361996466735,0.07690753424551491,0.10984119741144063,3,left
11.698,0.19157022657357323,0.9796044190054642,-0.010803613799515305,-1.0278470480888293,0.5751218821480208,0.17201717382761994,-0.12109419193963512,0.07328365704314763,0.1085998677758436,3,left
11.703,0.18757160086002067,0.973675900374193,-0.0179264435047225,-1.0285806086788503,0.5759156485012986,0.16857265384979397,-0.12085215737031019,0.08000440335075638,0.11090797406160452,3,left
11.705,0.18738399961566002,0.9676173828859034,-0.028782867681371775,-1.0272272662622308,0.5746835267031958,0.17338334919585724,-0.12116308167723755,0.0713751962382429,0.10795268414745833,3,left
