time,gFx,gFy,gFz,ax,ay,az,wx,wy,wz,subject_number,foot
6.872999999999999,-0.5646085527626038,1.7232229973933193,0.47192071434128036,-3.268718883746824,-7.595416023606759,0.014438622609486942,-0.24882609354734728,1.032382036997089,0.1116518126752077,3,right
6.876,-0.35679034191859704,1.6035379496451514,0.5949978734516929,-3.08824584143846,-6.953382007830271,0.08053189231712916,-0.2507102266222623,1.0495457968455186,-0.02835522703943226,3,right
6.877000000000001,-0.28964530459571414,1.5698466113927034,0.6316578740504389,-2.3309183975010583,-4.258651248531154,0.3579734967807203,-0.2500111757255664,1.0424645850980394,0.028583695821884428,3,right
6.879,-0.08390477274000761,1.517168206750839,0.6417349239858602,-2.150569825309121,-3.616497891547004,0.424047587755634,-0.24988361684146562,1.0425362031185577,0.02943275483283541,3,right
6.882000000000001,0.18286053087335036,1.4961202721209448,0.560529140542618,-2.2872401594946554,-4.103409610234074,0.37396297698868985,-0.25040789287316517,1.0460187383058535,-0.0004828507153480568,3,right
6.882999999999999,0.38985224521704204,1.5312257607389177,0.4049076034922075,-2.204836981933523,-3.8097253813951877,0.40416687535073836,-0.24986722015130539,1.0417187884544106,0.035320598671981486,3,right
6.8870000000000005,0.6059091807631671,1.5729847499377065,0.25527900162209655,-2.238420639723971,-3.9291240567443526,0.39186544638586307,-0.25015572063698155,1.045264285702252,0.007482518556640005,3,right
6.888,0.7867541324132689,1.6216609800193207,0.16557543737005292,-2.2386696331565776,-3.93113248085791,0.39173719946507074,-0.25025394216861785,1.042974964521246,0.02240729178364484,3,right
6.892,0.8948558480177882,1.666070039538453,0.10354141718274017,-2.221552699740453,-3.8678485310974127,0.3980895882329923,-0.24977671639551724,1.0441748808171236,0.019151537349613987,3,right
6.893,0.9420363160854065,1.674955692274642,0.05811269460499783,-2.2419478368338783,-3.943783775245358,0.39050054036473036,-0.2504744718914711,1.0437044075044914,0.014949633293222252,3,right
6.897,0.9208191057989481,1.6399102177798537,0.033901202047716704,-2.226209868614267,-3.884460214262022,0.3963829329277413,-0.24986729882206252,1.0436249482695277,0.022017986840216747,3,right
6.898,0.8649563487493188,1.5399613849252565,0.026938798941106217,-2.2347699308341262,-3.9163505554293554,0.3931963037003742,-0.24995186011235307,1.0444217201509067,0.015551982905460005,3,right
6.903,0.7881339587778822,1.3854566621399727,0.020465986349020325,-2.23216712247232,-3.9099095969358686,0.39405070271580167,-0.2508420715386719,1.0424773986373799,0.019564966277572482,3,right
6.904,0.6817043944994523,1.2267769120762981,0.014823825653867589,-2.2316883380427868,-3.89911921362213,0.3945464551877653,-0.24869741887954364,1.045942125055102,0.018404585717900487,3,right
6.906000000000001,0.5185841987682129,1.1179503693800785,0.019210783933999383,-2.232532636993826,-3.9177712823036277,0.3936849873000704,-0.25193569612684763,1.041118088980721,0.017314571623961855,3,right
6.907,0.28788970102565203,1.0728643769163493,0.01752580152590425,-2.2326697142133645,-3.8990632692471987,0.39431241736333217,-0.24846931346129836,1.046134430423511,0.01950892332621787,3,right
6.9110000000000005,0.017530172215889706,1.0585351020127929,0.017380991387563736,-2.2320777879615683,-3.9122559890045507,0.39398902106969635,-0.25048200695255485,1.0433206005160915,0.017548622301937364,3,right
6.912000000000001,-0.2613049146595521,1.0438265534284674,0.03884833481117215,-2.23093114023007,-3.9083152738513087,0.3944043415004791,-0.2521863680664369,1.0406320256506154,0.018011592781720445,3,right
6.915,-0.5114955175491145,1.0103083852988273,0.07127081276454111,-2.236775925555937,-3.900721073945392,0.3932654209161781,-0.24467056674963922,1.0519132443540578,0.019957218558225267,3,right
6.916,-0.710338782923168,0.9521917128003377,0.10143869488728284,-2.224035618291203,-3.920262777731573,0.39564218589400457,-0.2586224444764159,1.0311068327000639,0.015410395350546306,3,right
6.921,-0.8467840379990222,0.8758292013680826,0.12664068171187604,-2.243182969335119,-3.8916189803263057,0.39204478770825135,-0.24070204779697207,1.0577818674293473,0.02158739755266191,3,right
6.922999999999999,-0.9157973139969864,0.7890961966715029,0.1424927807199406,-2.2225842284525426,-3.9214789125710645,0.3959483509597295,-0.2556661388529625,1.0355298032166091,0.016286821241224415,3,right
6.926,-0.9369763434984693,0.7012426621060434,0.14954809955452208,-2.2344803487651923,-3.9042195090815346,0.39369487337694686,-0.2552550642480296,1.036104926511468,0.016652446925170292,3,right
6.9270000000000005,-0.9244844234373358,0.6230648689477554,0.15364505508405635,-2.2451671962612942,-3.890834365728096,0.3915944577161046,-0.2267368729573413,1.0786072908829083,0.026169167635638032,3,right
6.931,-0.8910533300602481,0.5603423140376551,0.1608329733684164,-2.19896560847741,-3.9513444658229524,0.40057930189233526,-0.2968415796485682,0.9741811310772331,0.0024557826679577986,3,right
6.932,-0.8729086961585584,0.5109142509948337,0.16978689208988534,-2.2846092150963635,-3.839034001957683,0.3839302272343552,-0.18059849307315365,1.147309369964982,0.041896900654963425,3,right
6.936,-0.8749524975380172,0.4853638700343588,0.17187308831507514,-2.1746146203484025,-3.983119727833554,0.4053176646204586,-0.333927806734645,0.9189598383864197,-0.01017246286330012,3,right
6.937,-0.8774386019408077,0.4805760781755733,0.1725665413561811,-2.266443073351116,-3.8628896767536602,0.38746193472151136,-0.977469691912616,-0.03956003601474667,-0.22852530718675315,3,right
6.938,-0.9127066028638771,0.4605424016788555,0.17420806413932977,-2.2640407914242404,-3.866293356180817,0.3879162145417149,-1.1308071193533231,-0.2679082349968983,-0.28060754576930036,3,right
6.94,-0.9843111075641632,0.43250668356371014,0.1729621615059752,-2.088658473376755,-4.09489583007764,0.42206394084203014,-1.0145549048476399,-0.09478454981492487,-0.2411270241011968,3,right
6.941,-1.0629596815232705,0.4037760212682754,0.1634336029283835,-2.519617852721083,-3.5329151541644794,0.3381700582025408,-1.0846575101852107,-0.19920023545962037,-0.26492533959554426,3,right
6.946000000000001,-1.167140181440137,0.3443638040042472,0.12776287142448672,-1.8051149632550556,-4.464682663731253,0.4772544916036598,-1.0561658871988442,-0.1567158125498952,-0.2552688110281045,3,right
6.947,-1.2377159523871701,0.30086477222423713,0.09786826864887721,-2.7475130920763338,-3.23573287381961,0.29381144932213527,-1.0556959433104955,-0.1561172669185586,-0.2550797305298007,3,right
6.9479999999999995,-1.2546480055943097,0.28954334547013727,0.08987751806984692,-6.7044792323598585,1.9225492995137954,-0.47660874120647384,-1.070745805391464,-0.17839075995730083,-0.26022666796587207,3,right
6.95,-1.3114508470032624,0.24563558678127592,0.058892281471620476,-7.646936390844145,3.151444089437937,-0.6600719230633565,-1.0527382943891783,-0.1517095681083924,-0.2540783845664991,3,right
6.9510000000000005,-1.3711090510937152,0.19508271099751062,0.030919784668007103,-6.932216331389095,2.219746047363392,-0.5209146769480248,-1.0667309251143382,-0.1724904449829207,-0.2588435868861265,3,right
6.955,-1.3880135064354695,0.17267420096390512,0.038080367167382154,-7.363694426308041,2.781714073115511,-0.604980997116916,-1.059282637488648,-0.16127947323501668,-0.2563415498294042,3,right
6.957000000000001,-1.3936676443122136,0.1656297073870736,0.059246534286538255,-7.187404499303521,2.5529869481631913,-0.5705329675644564,-1.060756972792201,-0.1638535188104392,-0.2567561209335069,3,right
6.96,-1.3763013211717892,0.1895516316721127,0.09215669714084994,-7.186207186190385,2.5499000661466917,-0.5704759209607306,-1.063173132697786,-0.16680124128537377,-0.25772374127956166,3,right
6.961,-1.3411309873815456,0.24722519842625448,0.12310596414850371,-7.276906709101617,2.669636984505553,-0.5879613770587669,-1.0592040312247208,-0.16168796429415205,-0.2561960615797544,3,right
6.9639999999999995,-1.2954451656734238,0.33569212168668683,0.13741455725402632,-7.167288396661895,2.526090925453298,-0.5666937378495286,-1.062854402330046,-0.1664886006369428,-0.25757873428018163,3,right
6.965,-1.2310298874077519,0.45276247140149506,0.13629678082611388,-7.25415846204558,2.6380782517369266,-0.5837533526058849,-1.0606873999668578,-0.1632554752744348,-0.2568441676503393,3,right
6.968999999999999,-1.1529387854974482,0.5836891152117569,0.11312386308091274,-7.204433585261999,2.5773127924022794,-0.5736005447489739,-1.0608725799413015,-0.16471135049711982,-0.2566418878070129,3,right
6.97,-1.0625214572507593,0.7200061767281176,0.07268838353995495,-7.220964428690279,2.591878376914858,-0.5776309388728078,-1.0626155520642335,-0.16461055715608913,-0.2578395403369066,3,right
6.975,-0.9615518231370929,0.849658354591671,0.025836310884695936,-7.2259166609346295,2.6069007809738176,-0.5775992410996795,-1.0594965338907736,-0.1639881529971498,-0.2558768028080427,3,right
6.976,-0.8483317574381899,0.9614767989482436,-0.01356314924948317,-7.210520314567978,2.5800016360932414,-0.575395358527713,-1.0629181341697456,-0.16479564210891626,-0.2580019119759024,3,right
6.98,-0.7257107119592368,1.0472338256819667,-0.030184905757169214,-7.230479734861079,2.605963511884281,-0.5792883733005606,-1.060788437133942,-0.1641016643126782,-0.25672210003484514,3,right
6.981,-0.6072362454610334,1.1025868492294868,-0.028158016855984864,-7.206327732526804,2.5871371279134516,-0.5731137858804367,-1.0597087840794241,-0.16462961018760736,-0.2558759833393669,3,right
6.984,-0.49771170858321134,1.1319386542280443,-0.015871672400891747,-7.236864953277532,2.598013870296388,-0.5824238140998166,-1.0656718010240787,-0.1641626774784436,-0.25999999702479404,3,right
6.984,-0.39949335667508534,1.1346586019411329,0.0010297564183103353,-7.19999197580203,2.593109308674406,-0.5702255782588449,-1.0543897202646275,-0.16469562471808644,-0.25227579375522846,3,right
6.989,-0.3238422226315564,1.114332153658629,0.01385800161652205,-7.2361231353763085,2.5941942953741695,-0.5826106502875574,-1.0689268810873933,-0.16408632338629722,-0.2622114275530507,3,right
6.99,-0.2683324908716713,1.0799630037313817,0.022402297040971055,-7.2173743599717355,2.5963467091172134,-0.57586896672653,-1.056769773739472,-0.16456419360290556,-0.25390921455345716,3,right
6.994,-0.2333467608558049,1.0399243675477585,0.030310165805822558,-7.194597471006272,2.589560781010975,-0.5687691950465854,-1.0571777452056659,-0.16466850796475235,-0.25416166834384835,3,right
6.995,-0.22196122741604213,1.0030762939314544,0.039284829756411156,-7.282078291147572,2.6033158056007517,-0.5974647333844149,-1.0801009819049672,-0.16337387495216665,-0.26990248828289576,3,right
6.999,-0.22656060235509848,0.9770407334176601,0.04962316395371388,-7.122723521810006,2.5815755881533886,-0.5448095227644203,-1.0236644963949542,-0.1664165718590362,-0.23117961237873924,3,right
6.999,-0.25249228510195076,0.971433091871855,0.05977187685459555,-7.326310546405388,2.608130288030023,-0.6122200483565599,-1.117264250301457,-0.16140909008352183,-0.2953941494714063,3,right
7.004,-0.2722924307852332,0.9718544744703036,0.06720196466802064,-7.156773048382302,2.5865403165705554,-0.5560260300770681,-0.9938026562334072,-0.1680085920964816,-0.21069234144502919,3,right
7.006,-0.2786337877693752,0.9742795547312151,0.06750895420768967,-7.160713738659863,2.586227376018686,-0.5574197144563133,-0.4756959577848205,-0.19588880799964686,0.14479149366339422,3,right
7.007999999999999,-0.3047036247143378,0.9917179596814452,0.06923115897228924,-7.485719170474742,2.6297782873179716,-0.6649101616121795,-0.35223815066598996,-0.20249587909718786,0.22949676313869957,3,right
7.007999999999999,-0.3304794402574004,1.0160396015944875,0.07159384927243773,-6.687815871487491,2.524041178770539,-0.4008932273258229,-0.4458367752443857,-0.19748370011510175,0.165275189446243,3,right
7.01,-0.35578870807918817,1.0573367343471993,0.05372003299054217,-8.010451465472123,2.698854688111889,-0.8385804662843713,-0.38938821905747256,-0.2005109134904578,0.20400829968103557,3,right
7.015,-0.37943944298155785,1.0908643665455513,0.03531500688813498,-6.265990288016978,2.4684729683233932,-0.26129214792342126,-0.4123467188473057,-0.1992689445897583,0.18825586701202932,3,right
7.017,-0.38560292108091465,1.099782282830379,0.03188530521208641,1.05636756998262,1.5005136199929021,2.1618885239112204,-0.41269329590894993,-0.19927698104595673,0.18801234210019221,3,right
7.018,-0.41116480071913886,1.1349448408310525,0.012962293955645798,2.8008841464308407,1.2701979052765437,2.7391850604659456,-0.40061262357483873,-0.19987925491311392,0.19631460904336445,3,right
7.018,-0.4476730066724514,1.182176270347901,-0.019506831259358044,1.4782670288547677,1.4448377725800003,2.3015042001228316,-0.4150881514875184,-0.1991631112353633,0.18636286212698205,3,right
7.019,-0.4737817455348139,1.2126140144200637,-0.048251028919022575,2.2758697853025676,1.339435600724968,2.565463665353229,-0.4038057730839316,-0.1997105187576219,0.19412384130498128,3,right
7.025,-0.5033676711539443,1.238524304600674,-0.07084227408152916,1.9516357744145962,1.3824768972597032,2.458114218545606,-0.40988368137105247,-0.19940824285650086,0.18994494067970713,3,right
7.027,-0.5313583170144758,1.251749769284725,-0.08164881232441987,1.9464178065748134,1.382761751373013,2.4564916470358713,-0.40854052927523266,-0.19953120714266193,0.1908496420494528,3,right
7.028,-0.559707601417974,1.25196682069455,-0.08604699434527628,2.1174804024212555,1.3607139326980606,2.512954203216428,-0.40680434570431073,-0.1994638373474793,0.19209561418466864,3,right
7.028,-0.5871545740946507,1.2430161978352727,-0.08345955893168366,1.9127572441266099,1.3872258294186801,2.445350765467234,-0.40980724541128677,-0.19957790549901297,0.18994079125200342,3,right
7.034,-0.6109277026910525,1.2250752981372564,-0.06883606915181839,2.071891862779205,1.3664301898477156,2.4979508789048466,-0.4069260981343334,-0.19939544938161802,0.19203361625067947,3,right
7.035,-0.6405148137431732,1.201479685769637,-0.04742910070235084,1.9870235167315686,1.3780879966592956,2.4697397533756478,-0.4088919891616404,-0.19955837045929398,0.1905922486316699,3,right
7.039,-0.6691227153117589,1.1722275560686415,-0.02612552965809031,2.0042009345496723,1.3743865391222092,2.4758274811900476,-0.40812930848692863,-0.19960194318583235,0.19111477556257467,3,right
7.039,-0.692020077538746,1.1396540732933196,-0.016078062812409342,2.030999107570107,1.3733085319205742,2.484001628593924,-0.4077278229571377,-0.19912497940691887,0.19156181834356906,3,right
7.042000000000001,-0.7125774674348085,1.1054648565853142,-0.019803000811413243,1.9866872752852902,1.3761444379567793,2.470189218192943,-0.409065707183378,-0.20019200519654168,0.19025166369693097,3,right
7.042000000000001,-0.7233073127477649,1.0726911577399063,-0.026798000669176196,2.0275452948725707,1.3731514124672706,2.4830313537927116,-0.40716767285293143,-0.19859514682934665,0.19213911134290895,3,right
7.047000000000001,-0.7227774579201769,1.0403233699106662,-0.031638559459544,2.00288475879402,1.3764300873269228,2.4748645522604553,-0.40906129696821747,-0.20030427138192497,0.19021599445220713,3,right
7.0489999999999995,-0.71560403373635,1.0081511710335929,-0.037368091490667235,2.0062394383511504,1.3715286882420819,2.477234348499896,-0.40796582650339797,-0.19931692479689522,0.19132817576483444,3,right
7.0520000000000005,-0.6992469527478314,0.9815944148449868,-0.04459731158475722,2.0232184476105917,1.3794739476624622,2.479974216547225,-0.40730890664944164,-0.1984500748412869,0.1920894409982773,3,right
7.053,-0.6759436251956557,0.956964941877479,-0.05086957090353887,1.991985907775826,1.3684009240987032,2.473933745222584,-0.41055583682009933,-0.2022231989395324,0.18850201954359624,3,right
7.057,-0.6482507822403194,0.9313373103848979,-0.05760058686854804,2.026380019327224,1.3800600935072425,2.480736423678761,-0.4045159751745423,-0.1952271523963502,0.19516778904036536,3,right
7.058,-0.6136682270807783,0.906908284984289,-0.06474150811910867,2.0047705730682983,1.3735516326990211,2.476231966898103,-0.4122475060472389,-0.20421146694590803,0.1866248049887624,3,right
7.063,-0.576871168005744,0.883331028127265,-0.07445455287404701,1.9947435092289167,1.36680924170748,2.4751927793273882,-0.40580382321161146,-0.19671065046596536,0.1937497416317873,3,right
7.063,-0.5402683092677225,0.8658701765355871,-0.08733402738691609,2.0527057061664853,1.3944658947802553,2.4843946519900832,-0.40600821921184593,-0.19691130882163893,0.19353544949271445,3,right
7.07,-0.5044993405993374,0.8530800026508296,-0.09542006622993605,1.942672383294692,1.3435086544060098,2.4664907172703203,-0.41816661294415924,-0.21122257953541274,0.18003986458166577,3,right
7.071000000000001,-0.4735897125320648,0.8413535461999864,-0.10231431058547695,2.0845319978394516,1.4088683033893226,2.4896671437928424,-0.38826038976922805,-0.176049889716197,0.21322739551544495,3,right
7.072,-0.44616135804375257,0.8376323124545785,-0.11082646102357155,1.9658674762208344,1.3543282026104966,2.4702444530232412,-0.4378436676608118,-0.2343669696020616,0.1582016163155013,3,right
7.072,-0.4321094428575856,0.840418479855012,-0.11264840009966062,1.969970033932521,1.3556994526670743,2.4710573270595253,-0.3724513139623608,-0.15744737511900853,0.23077587759710852,3,right
7.0729999999999995,-0.42901020556708613,0.8429074113389654,-0.11310803910069984,2.193321786252042,1.4600512984842342,2.5071451814030814,-0.09804543873232358,0.16544714823366002,0.5353264168783719,3,right
7.077000000000001,-0.41708175279746007,0.849294201156773,-0.11557998910678764,1.643296668632328,1.203680779196889,2.418112281050754,-0.03266491706714898,0.24236813260699985,0.6078916117496852,3,right
7.077999999999999,-0.4098751324896636,0.8678407138759507,-0.11443868344135005,2.5555401961348845,1.6287377161661154,2.565812814667828,-0.08222914822814278,0.18404660067987078,0.5528832040689092,3,right
7.082000000000001,-0.41411239370304465,0.8834457357018346,-0.11293753233329298,1.3522664164343987,1.0680739665780044,2.3709986635019207,-0.05234017703250549,0.219229161419697,0.5860476800854628,3,right
7.082999999999999,-0.41442179162044035,0.8893460707024532,-0.11352489122194054,-3.697096063633241,-1.2852595275545668,1.5535853192527758,-0.06449543047716842,0.20490134990696882,0.5725747781363629,3,right
7.082999999999999,-0.4155513600284999,0.9101370833147465,-0.11612690195007168,-4.900274605129155,-1.8459696593097141,1.3588226219239932,-0.0646761165811652,0.20472189852079925,0.572348572094006,3,right
7.087000000000001,-0.42031375841365887,0.9407895541482958,-0.11884919415331324,-3.9881341115341464,-1.4208625503919223,1.5064674886889862,-0.058290821570171014,0.21220382344585897,0.579461054742576,3,right
7.087999999999999,-0.4231110959574932,0.9671563783953547,-0.11652587359403893,-4.5381984459745235,-1.6772139464495752,1.4174134053797047,-0.06593374017621954,0.20322393765466712,0.5709673666280026,3,right
7.091,-0.42304652571276546,0.9936790342683949,-0.11164612578499145,-4.314504839989953,-1.5730286373439828,1.4536859418916306,-0.059988697923714356,0.210244782608476,0.5775433524898835,3,right
7.0920000000000005,-0.4216475872761177,1.0164463232838261,-0.10954233032289219,-4.311137786156204,-1.5712991140359598,1.454101462949453,-0.06318133001566738,0.20640631057931536,0.5740714748190261,3,right
7.096,-0.41925677526461713,1.0350427383028853,-0.11070906818069443,-4.428747774432999,-1.6263528647212397,1.435248484495673,-0.06247501376803713,0.20737778441369653,0.5747321355761039,3,right
7.097,-0.41632043888219294,1.0480286914543782,-0.11639356574931131,-4.287938217576539,-1.5604817791368073,1.4578576104733356,-0.06159197670471003,0.20824496892630875,0.5758634876001518,3,right
7.101,-0.41499614709540145,1.0529523046804146,-0.12514902009893952,-4.397518529537924,-1.6116595992824516,1.44019842938442,-0.06308971100106309,0.2066194755326038,0.5740805582091525,3,right
7.102,-0.4119666225227802,1.0522825683020072,-0.1319865040872977,-4.3386544755155665,-1.5844423432173695,1.449887509705882,-0.06170919335134582,0.2082450372300781,0.575611687008253,3,right
7.106,-0.4123904735748922,1.0467333054661476,-0.13865131842285894,-4.351586392713123,-1.5897696951183935,1.447278995903376,-0.06258701296271502,0.20695867687906627,0.5748613071969044,3,right
7.107,-0.42181412421403647,1.0409970265452517,-0.14549224136541,-4.368190813655238,-1.5987161111949306,1.4454784941558532,-0.062290994102904146,0.2078861913703039,0.5746781589397219,3,right
7.111000000000001,-0.4336989261462957,1.0366523429190138,-0.15084977696964547,-4.339938954169149,-1.5840651893971245,1.4489628055071915,-0.0621304115835235,0.20721112417418558,0.5756197826511993,3,right
7.112,-0.4492264299944392,1.0327924761309486,-0.15741430289238062,-4.366274847303001,-1.5975230383041958,1.4455678010993647,-0.06252192547329524,0.20767150618909366,0.5743714058187219,3,right
7.117000000000001,-0.4691892114955171,1.0323789086658368,-0.16216556041620767,-4.349251617387763,-1.5895998242411755,1.4483314647977548,-0.06214796495068907,0.20757926555518927,0.5752567632533008,3,right
7.117999999999999,-0.4897730098082816,1.0333367944050806,-0.16423961440988658,-4.354985159928368,-1.5900737982970177,1.4457914679250161,-0.062284997125030626,0.20695950579708966,0.5755098911046592,3,right
7.121,-0.5110510158341773,1.0301578363057253,-0.16503229315610918,-4.358877143631487,-1.5969118255593915,1.4488447771030124,-0.06253276393156879,0.20867526994480048,0.5734610500595017,3,right
7.122000000000001,-0.5309933530527091,1.0233338809516557,-0.16168758627275576,-4.349001585150687,-1.5848135232386,1.444948649863672,-0.06187308598180863,0.20572868712514364,0.5774830205895125,3,right
7.126,-0.5471277724459893,1.0157871511898358,-0.1572984613289548,-4.360286405493012,-1.5980639320732326,1.4489792362139569,-0.06279224878971562,0.2094276529180158,0.5722383942979015,3,right
7.127000000000001,-0.562260684451946,1.0071918270734224,-0.15482853802792054,-4.35256925747952,-1.5898497598136916,1.4468444907038767,-0.061994488943563845,0.20637493742922042,0.5766509015785314,3,right
7.131,-0.5762433173467403,0.9999105980335997,-0.1504117503203195,-4.351846631023369,-1.5855331903427006,1.4440430736387722,-0.06206285641937615,0.20640350370115512,0.5764788510363921,3,right
7.131,-0.5860047069837782,0.9962136977083392,-0.14310439273834666,-4.36471456324213,-1.6089493751223245,1.4547295901746244,-0.06345954705617549,0.21236847638783973,0.5682049669749683,3,right
7.136,-0.591888004969217,0.9935516217332876,-0.13508065257610116,-4.339099737381739,-1.5647069816945862,1.4351959166426393,-0.05995912022030798,0.19778488302352026,0.5886174762308509,3,right
7.1370000000000005,-0.5883463602989953,0.9937550368779281,-0.12520096436748723,-4.372382726262517,-1.6216999255285964,1.4602135153031475,-0.06578833994025399,0.22193657473677725,0.5547435537209824,3,right
7.14,-0.5828992379605051,0.9960053177481369,-0.11876967563024396,-4.3444382157829615,-1.5740446358752116,1.4393547752186722,-0.05809055175437938,0.1900903499075489,0.5994338452319568,3,right
7.141,-0.5802168422191036,0.9962568163640162,-0.11676534413428223,-4.345803178022279,-1.5756204225536483,1.4398171573342284,-0.02580957375807068,0.05640942648095909,0.786966070201834,3,right
7.141,-0.567693289283214,0.9985254505435276,-0.10749847430398841,-4.397089123863389,-1.6655525829983326,1.4799229149314348,-0.01810999477197705,0.024566383409145978,0.8316575700896738,3,right
7.145,-0.5457273367486715,1.0001090412003626,-0.09037047853284856,-4.270319321834046,-1.4441723602104772,1.3814710763855342,-0.02394734083399299,0.04870364560439962,0.7977781623728978,3,right
7.146,-0.5147942169136246,0.9975905128005574,-0.07283002037350637,-4.48069152840076,-1.8113192747586229,1.544673615300011,-0.020425729960233247,0.03415765944080287,0.8182049723461486,3,right
7.151,-0.49510278257182416,0.9984797403435541,-0.06328927966766051,-4.203200395242041,-1.3270455284979694,1.329417762887223,-0.02186118578216822,0.040053820976273524,0.8099049175766568,3,right
7.152,-0.4891565018000971,0.9993156024277218,-0.06146255767268395,-3.0392743366740937,0.7052553095323459,0.42568348403211304,-0.021876336131597347,0.04017684461895374,0.8097687958287333,3,right
7.153,-0.46236952814251236,0.9938903307676723,-0.056180479870845526,-2.7618643796001052,1.1894976348706359,0.21042362476762472,-0.021130707569776478,0.03703160794537451,0.8141461055778298,3,right
7.157,-0.4278316385130143,0.9898015813682104,-0.04925216119312632,-2.972148741874096,0.8223847153310676,0.3736305041659215,-0.0220281506262685,0.04076910513012978,0.8089161471752594,3,right
7.157,-0.39784606908077874,0.990234365437211,-0.04780179019822005,-2.845345596908479,1.0437778689489712,0.27518029552601103,-0.021321778794560237,0.03790543048807911,0.8129696364106391,3,right
7.16,-0.36263196952944127,0.9923800566409243,-0.051086686519115576,-2.8969227489897724,0.9537329399582563,0.3152717119648386,-0.02171738483397051,0.039358758068914305,0.8108209900356781,3,right
7.1610000000000005,-0.328369487783543,0.995355413229512,-0.0533568558993803,-2.897661061233152,0.952399787097789,0.3157649768911411,-0.021600439017284145,0.03918981089219998,0.8112455842389175,3,right
7.165,-0.2900571957546617,0.9956834190210834,-0.05240159986840093,-2.8706151061486507,0.9997071906478612,0.2948619363078242,-0.021537915058194787,0.038544806680248095,0.8119206758289189,3,right
7.166,-0.2503788607077455,0.993464433087677,-0.05097515284897264,-2.903003238369018,0.9430606668232823,0.31992367502045216,-0.021681228039607845,0.039445659153437514,0.8108398831812174,3,right
7.17,-0.21426294608530866,0.9898349763492329,-0.04991499170535121,-2.8777746807354734,0.9871535900507848,0.3003709075894223,-0.021518293791163542,0.03877489705866802,0.811783067669414,3,right
7.171,-0.17981102215803396,0.981405807049507,-0.050787222127184076,-2.8914106816615455,0.9634399220045117,0.3110196318063929,-0.02168326365089715,0.03888401482001343,0.8112887239578144,3,right
7.1739999999999995,-0.15313376050371463,0.9681038012882764,-0.0513885092156251,-2.8882132841868753,0.9687147523220653,0.3083401455663071,-0.021507694681378847,0.03946750431563413,0.811249494754074,3,right
7.175,-0.132040961317323,0.9512566548514663,-0.05167930508516308,-2.884760615304075,0.9752778098643163,0.30599519958284044,-0.021698684130981492,0.03830370571460915,0.81171964771576,3,right
7.178999999999999,-0.11638419153841985,0.9317923828709243,-0.05556981619429584,-2.890811484480298,0.9640537232583284,0.3102838698634174,-0.021521044858986482,0.03965169575840928,0.8110678663220432,3,right
7.18,-0.10917249425626174,0.911862485851142,-0.06283629386136244,-2.88510923064384,0.974536558120591,0.30618181355681184,-0.021606250578611333,0.03880082905413057,0.8115454148158938,3,right
7.184,-0.10823632679498085,0.8924747114237885,-0.07039393919808168,-2.8890371487723114,0.9676841009991691,0.3092336836650445,-0.02173392943400704,0.03829119063782603,0.8116431840483749,3,right
7.184,-0.11270021471157951,0.8755936058534315,-0.07398827170216715,-2.8870290224455264,0.9702080844719414,0.30707492818655246,-0.021275205961484467,0.040934580544495204,0.8106362795783546,3,right
7.192,-0.12235316617450043,0.864436379511311,-0.07613116989196347,-2.8877003600710536,0.9712800292302176,0.30896660988884384,-0.022102240707852036,0.035934781207740574,0.8126403150432777,3,right
7.193,-0.13891995869537593,0.8592298259496218,-0.07594622413709873,-2.8876370050444238,0.9680431125451393,0.3068730371602021,-0.021048870736402502,0.04238999587277424,0.8100178690812971,3,right
7.194,-0.15650165769247165,0.8575206230766107,-0.07170794194960972,-2.887529613861446,0.9717983363305845,0.30896928517839284,-0.0219245637730463,0.03698589618442023,0.8122278238192535,3,right
7.195,-0.17466031905178045,0.8602932735737032,-0.0677166855685607,-2.8878685290272053,0.9691472766117678,0.30797200364721145,-0.021906677166029197,0.03715531318685163,0.8121364200334799,3,right
7.199,-0.19546006058596233,0.8667391001912182,-0.05893899391341142,-2.8867903643798396,0.9692473245308734,0.3060521345935528,-0.020221516514912913,0.04739835303837554,0.8080066690025405,3,right
7.199,-0.2150767136572737,0.8726988842304687,-0.04762588855727215,-2.889264686143851,0.9727130319890466,0.3127194859199931,-0.024354849678407967,0.022188570782615297,0.8182024305757029,3,right
7.202999999999999,-0.24046412801486808,0.8809439689328844,-0.041877160927178046,-2.8850825285595607,0.9655821513863261,0.3006674148525009,-0.01750508440552552,0.06400047798846104,0.8012807668430653,3,right
7.204,-0.25677067373308615,0.8878905206112049,-0.039407255546310395,-2.8903593610834055,0.9748953407341435,0.31607347161879973,-0.026538265125039713,0.008845736052923062,0.8236056998063526,3,right
7.209,-0.2602923987321988,0.8890749661352157,-0.03862045175382629,-2.8859946800253233,0.9670581870651294,0.3032387728881515,-0.06446212491540362,-0.22264527518562136,0.9172949307289247,3,right
7.21,-0.27641388930393285,0.8953144499717413,-0.03827283069539923,-2.88596269384006,0.9675114429024688,0.303480265050521,-0.07349376259320782,-0.2778022496578185,0.93961839732572,3,right
7.21,-0.2942369144437077,0.9035331127917678,-0.038861421756777176,-2.894769590451875,0.9816600810443008,0.3283038457869828,-0.06664696048010418,-0.2359845728866367,0.9226958260600084,3,right
7.212999999999999,-0.302219467720759,0.9080123097800357,-0.039727243286816843,-2.8733080562584963,0.9466043214613209,0.2674124318227062,-0.07077634631688628,-0.26120531679801523,0.9329010250173257,3,right
7.215,-0.3044547590733676,0.9189374511271675,-0.03803333576225377,-2.9088352201978105,1.004795796755035,0.36834520702303797,-0.06909509467365267,-0.250945796810585,0.9287477992307893,3,right
7.218,-0.30206668865339525,0.9275084464739001,-0.03675107429831999,-2.8619928261441716,0.9280429078148378,0.2352127383906135,-0.06907510841658249,-0.2507954764338106,0.9286947376299473,3,right
7.218999999999999,-0.29928872067248147,0.9291513670100158,-0.036851303984586255,-2.665005139193376,0.6061438323066175,-0.32370571369548196,-0.06994875912644297,-0.2561852954903485,0.9308594580885963,3,right
7.218999999999999,-0.2884199182195448,0.9409114582105861,-0.03992160399102551,-2.618169279035225,0.5294335415196016,-0.4568607481227444,-0.06890373447311031,-0.24972793799849982,0.9282698894243304,3,right
7.224,-0.26958174982910055,0.9597535449819745,-0.049853317824998106,-2.6536893841625258,0.5875789214331248,-0.3559035610240229,-0.06971544766323559,-0.25475904838197855,0.9302823311886572,3,right
7.225,-0.24676005768223186,0.9771820729603438,-0.06312316069089725,-2.632225124350943,0.5525056576572753,-0.41678567933793353,-0.06927656589771936,-0.2520474802858424,0.9291951379852281,3,right
7.228,-0.21642060251755896,0.9964195986365276,-0.07383721786280724,-2.6410555465095964,0.566807124456896,-0.392043105015106,-0.06938679122043445,-0.25265628336132595,0.9294619787375451,3,right
7.229,-0.1795703250674462,1.0141501968959437,-0.08408621752815658,-2.6409729930739,0.5669315163288287,-0.39162733114873777,-0.06947569509123516,-0.2534046681512287,0.9296990603725119,3,right
7.232,-0.13981690531933405,1.0279703381826653,-0.10056435443992881,-2.6366807744123286,0.5595659139274267,-0.40471190341254654,-0.06932152427960708,-0.2521098271593378,0.9292883760402535,3,right
7.233,-0.10041917185281796,1.0371613639236883,-0.11687048469295316,-2.6418855004534167,0.5684095028075913,-0.38905703857860297,-0.06945196704930638,-0.2533397495019811,0.9296470408079459,3,right
7.237,-0.06167415017270355,1.0413303352769558,-0.12457071756161499,-2.6377343608771286,0.5614813089043167,-0.401216440046726,-0.06937216370377994,-0.25250706650646293,0.9294209178044099,3,right
7.2379999999999995,-0.027101217313537866,1.0420416667904209,-0.1272951748740072,-2.6402708193275295,0.5653501230979876,-0.39476280228629035,-0.06942856506518987,-0.2528483079367755,0.9295600719426735,3,right
7.244,0.004916238018428026,1.0346803446348023,-0.12270084270186286,-2.638992870382752,0.564151404744812,-0.39599434310012904,-0.06933906439404974,-0.25294279984038104,0.9293924113421879,3,right
7.245,0.03474582172203853,1.0212181359588692,-0.1130570343726775,-2.639675809261015,0.5637383140367134,-0.39817758473298237,-0.06951279960684906,-0.25253891993514654,0.9296994071503563,3,right
7.247999999999999,0.05925489877552212,1.005338369823527,-0.10608215869633547,-2.6391464408666128,0.5647468398762487,-0.39462592828537574,-0.06924647769647899,-0.25309778641992764,0.9292238317830273,3,right
7.249,0.08255614672615766,0.9854199525543959,-0.10109498496905639,-2.6394191687094763,0.5636999453809157,-0.3978797301331054,-0.06953986183711963,-0.25255992037529507,0.9297541403429832,3,right
7.252999999999999,0.09882822886074377,0.964276227595084,-0.10423682194792815,-2.6400942786255284,0.564790896090859,-0.3959986015702354,-0.06937045499272784,-0.25287138476047444,0.929448180117069,3,right
7.254,0.10754504814598331,0.9410591900937963,-0.11361998621514643,-2.637460688705584,0.5632519483249556,-0.3960037882431401,-0.0692033564663694,-0.25301119111869164,0.9291317984693425,3,right
7.257000000000001,0.11244956635554015,0.920758389898039,-0.12157274170264257,-2.6428165884404464,0.56568556681483,-0.3978731515853587,-0.0699073667370222,-0.25223257702284485,0.9304477800713067,3,right
7.257999999999999,0.10913147764414327,0.9061689859899644,-0.12926712713658986,-2.6349851501995376,0.5623143423864008,-0.3946338374694608,-0.06860314941601672,-0.25368497974435517,0.9280111846835435,3,right
7.263,0.1025867427205924,0.8908260716233467,-0.12986494574205054,-2.643304391144655,0.565859924077692,-0.39817086316012085,-0.07027955349847045,-0.2518304951273894,0.9311436506511608,3,right
7.263,0.0951799836328035,0.8794081351410926,-0.12597324565471663,-2.6385434522541513,0.5638876139186492,-0.3959948254677235,-0.06887923955708648,-0.2533741317131505,0.9285273613682885,3,right
7.268,0.08696192931115368,0.8703286861652417,-0.12036447366156827,-2.6342107405261723,0.5618091945352817,-0.3947748400020984,-0.06891486828084882,-0.25331819683172685,0.928590818011845,3,right
7.269,0.0781817870004698,0.8608666248512082,-0.10965569674772468,-2.6527995532159725,0.570286234921901,-0.4011872961094862,-0.07159456784449728,-0.2504339726516472,0.9336074107912542,3,right
7.273,0.06873748952201159,0.8570494679682573,-0.1007108484398869,-2.618392519241154,0.5546772497494892,-0.38910191360872526,-0.06500999221431668,-0.2575345776403906,0.9212852044876363,3,right
7.274,0.06516685637682379,0.8536474835483085,-0.08770821430553959,-2.6625598070224332,0.574694806474852,-0.40466313610224447,-0.07592758657099968,-0.24576143705864242,0.941713479171292,3,right
7.277,0.06407747075965481,0.8498774257789083,-0.07595753709139538,-2.6256893780122614,0.5579934466853009,-0.39165500585735485,-0.061526895229806644,-0.26128790093628373,0.9147702930067629,3,right
7.278,0.06353707526368181,0.8492355331496413,-0.07247994590335739,-2.6266721537796567,0.5584061963075191,-0.392072840188204,-0.0010732765186165834,-0.3264128805140284,0.8016287255949136,3,right
7.279,0.06675429356795667,0.8465902975571912,-0.06191433536417466,-2.697033576458215,0.5903809674156639,-0.41665948400725916,0.013328058523934693,-0.3419362725980254,0.7746884649718301,3,right
7.282,0.07224322057575883,0.8436343854312183,-0.04839768530025753,-2.5241052049080714,0.5118374618007898,-0.3561524601538719,0.00240935753298047,-0.33016895951897196,0.7951145874910187,3,right
7.2829999999999995,0.08360716392393477,0.8448098285204595,-0.04081010776045532,-2.8108322703503754,0.642053893556312,-0.4564939576426076,0.008995121190675298,-0.3372619592321467,0.7827875889967082,3,right
7.287000000000001,0.09260358725034133,0.8462660627308225,-0.03743405190031414,-2.432632892445112,0.4703003629802948,-0.32414430831933083,0.0063147364949712684,-0.3343849956176959,0.7878220788874487,3,right
7.287999999999999,0.09463042965957029,0.8466490872652095,-0.03807043106394556,-0.8453673901203957,-0.2506987862708457,0.23134687103372747,0.006278580850041408,-0.3343256542865318,0.7878519698411651,3,right
7.287999999999999,0.10410906788308452,0.8520179548581678,-0.04271743096376658,-0.4671744292245541,-0.4224576518688682,0.3636896940987857,0.007681252421282405,-0.3358643947792209,0.7852798500304958,3,right
7.292000000000001,0.11813545541809678,0.8641711481460423,-0.05571227479987319,-0.7538618829163466,-0.2922342440378357,0.2633493098929689,0.006000499309963804,-0.334027002762748,0.7883732752493795,3,right
7.292999999999999,0.12545597560078223,0.8824536077658168,-0.07597079674742821,-0.5810465851497344,-0.37077981868013277,0.3238813592955815,0.007310309745677237,-0.33544934233891466,0.7859443460570132,3,right
7.297999999999999,0.12537751448277054,0.9066107521356708,-0.10038707822682899,-0.6511924813399255,-0.33881540292786017,0.2992244152249125,0.006601469724927192,-0.3347083316666059,0.7873150043901826,3,right
7.2989999999999995,0.11813039659594456,0.9314688808998177,-0.12314717290327626,-0.6524796196028912,-0.33837449929991237,0.29892724247677194,0.006769393482285821,-0.33481694330495526,0.7868588805970225,3,right
7.301,0.10723284482137878,0.9549449229407101,-0.13483547138918878,-0.6153003897611661,-0.3551209283260456,0.311786865797658,0.006945740916670097,-0.33513110841784377,0.7867730482902491,3,right
7.3020000000000005,0.09833111108654012,0.9750202602361606,-0.14010682845847158,-0.6596158031477768,-0.33505261868748687,0.29634292584314725,0.006634960549035215,-0.3346441262274926,0.7870551325028695,3,right
7.307,0.09417415459865204,0.9897765026186615,-0.13979842881673848,-0.625440809677773,-0.35069440939327734,0.30843452487614154,0.006928410914026466,-0.3350814836207312,0.786744705641238,3,right
7.307,0.09606211579423438,0.998889003140081,-0.1304171580898818,-0.6432204775899537,-0.3422358197710551,0.30179042612904017,0.006724401211421983,-0.3348628081849988,0.78712854227313,3,right
7.313,0.10363824893541934,0.9998091058796548,-0.12340513600906855,-0.6403210347689026,-0.3442115687329794,0.30353134555678307,0.0068335521244748555,-0.3347555115755622,0.7864815395953939,3,right
7.314,0.11195834216834535,0.9971534836030378,-0.12123000495064332,-0.6337565718138285,-0.34638532998743976,0.3049376724671623,0.006787617934612928,-0.33521987166298317,0.7875793858106317,3,right
7.316,0.1170120118559535,0.9913239848240025,-0.11787560527700684,-0.6435817894911136,-0.34256644817595355,0.30220945729681226,0.006807388932163238,-0.33447466044253094,0.7860327509969876,3,right
7.316,0.11817643251486148,0.979371803947051,-0.11275459444475762,-0.6356066677527274,-0.3461945114541751,0.3050068791622387,0.006795409871604149,-0.33527883612981546,0.7876645887826577,3,right
7.322,0.11426626512110954,0.9654038503021829,-0.10753973851393539,-0.6385277496201464,-0.34367350140624314,0.30266634924164915,0.00678796512746479,-0.33479873410220157,0.7867483790047138,3,right
7.322,0.10645703030468724,0.9508505535092068,-0.10663678325370408,-0.6417443703885579,-0.3449415889262786,0.30455321933372015,0.006852647172618448,-0.334461409194481,0.7858262332390297,3,right
7.3260000000000005,0.09786277446600891,0.9363267068417924,-0.10946244630293245,-0.633461942452317,-0.34463224006941584,0.3029574806512055,0.006685995986835199,-0.3360629891385847,0.7896455664124105,3,right
7.327000000000001,0.08755915925743837,0.9236301607193567,-0.11418974312991603,-0.643566085734313,-0.3443829575539572,0.30421251387665615,0.006973988639080175,-0.3330702128865111,0.782601390804813,3,right
7.33,0.07761354260109021,0.9149915652140845,-0.11778556914132197,-0.6368728421268381,-0.34491526771921655,0.3037864233878821,0.006608984234792124,-0.33691819211101803,0.7916380833981937,3,right
7.331,0.07474006378084483,0.9077054179923105,-0.11864979894886915,-0.6337616462989732,-0.34416699677387563,0.30248925387886116,0.006911679658146461,-0.3337035906884076,0.7840967326156718,3,right
7.337000000000001,0.07039786380387572,0.9016982482575873,-0.116622577227434,-0.6522826003002598,-0.34521473634737365,0.30645087672923355,0.006911075973775856,-0.3337986276618655,0.7842886320258285,3,right
7.337999999999999,0.06306957491442686,0.9006271182293808,-0.10724179589847257,-0.6167761460624999,-0.34379788096712205,0.2995091882189996,0.006309254426661718,-0.3399020210112228,0.7987098897982976,3,right
7.34,0.05846647568828804,0.9003592091922776,-0.09955786427687302,-0.6627864129240211,-0.3454275440910609,0.3082767798079079,0.00777926461756694,-0.3248910298132161,0.7632772781200818,3,right
7.341,0.04282721439566133,0.9039433567585161,-0.09908316398518852,-0.6241972350472967,-0.34414715504423604,0.3010185505192228,0.005344610073871117,-0.34978258959150343,0.822024484262476,3,right
7.348,0.02821091159749154,0.9108813191042211,-0.09908392903674047,-0.6255161492974746,-0.34405831623159305,0.3011206418593432,0.00855520074882336,-0.31695025878205774,0.7445347404956317,3,right
7.349,0.024539738391705583,0.9128834992626271,-0.10061329867017155,-0.6983686944238539,-0.346828237159832,0.315211863726239,0.02204489881890144,-0.17914967345478758,0.4192678361040155,3,right
7.349,0.0094385670313043,0.9178962536186446,-0.10532464720696195,-0.5189074998265878,-0.34019872767526216,0.28071333688730943,0.025255017852619056,-0.14631746487406136,0.3417690257345304,3,right
7.35,-0.009513616456162225,0.9329624426417428,-0.11774875048564325,-0.8166151353342488,-0.3511233270020686,0.33786286178002767,0.022821550570498464,-0.17120931815263626,0.4005295622506225,3,right
7.35,-0.017084500985224377,0.9440688728633048,-0.12883398453260989,-0.42388135114021575,-0.33673834518019685,0.26250027978396173,0.024289356974158807,-0.15619676866546495,0.3650882103133347,3,right
7.355,-0.019657046567746507,0.9464006029543959,-0.13322537275485272,1.2243767556743879,-0.2762612866179458,-0.05389943132908848,0.0236907861774911,-0.16230370954101658,0.3795026394722266,3,right
7.356,-0.020382047168993535,0.9568674576939427,-0.14993354542901188,1.617133892775172,-0.26188072149118696,-0.1292626872091203,0.023686490643297444,-0.1623931905061093,0.37972640778775957,3,right
7.357,-0.017355985769745355,0.9735486315392075,-0.16925923304361712,1.3193626777328271,-0.272786118905217,-0.07212158411019282,0.02399183528347621,-0.15918489239363415,0.37212561148069934,3,right
7.36,-0.008990261910124208,0.9841379416490389,-0.17679774512637686,1.4989499691430481,-0.2662058798213066,-0.10658742093605827,0.023627495778662126,-0.16302867204064764,0.38123867785670446,3,right
7.361000000000001,0.0052040166579386095,0.991529167298745,-0.1801240301737771,1.425901463022297,-0.26888632918304567,-0.09256543956014167,0.023909067707070533,-0.1600338503205059,0.3741296468419903,3,right
7.365,0.02240535422000714,0.9958476361112839,-0.17634599990464897,1.424817278811089,-0.2689196379588795,-0.09235900952974052,0.023755980043165287,-0.1616479255288079,0.37795690916335156,3,right
7.365,0.03690507837286501,0.9942038717566902,-0.16815056457674443,1.463219540256223,-0.26752044644172995,-0.09973109955926357,0.023801285036465683,-0.16128564127464418,0.3771356804821791,3,right
7.37,0.049391199839796306,0.9878592316483357,-0.162550534463413,1.417208488742126,-0.26919804770844435,-0.0908947681554736,0.02381342634559118,-0.1608398656566799,0.37597380649371026,3,right
7.371,0.058485966709593065,0.980309333816186,-0.15839895299347656,1.4530623776123281,-0.26789117166332643,-0.09778321974464838,0.02379206312150096,-0.16161112927282817,0.37798334382235815,3,right
7.374,0.06301310870001159,0.97164622141987,-0.1585340310071548,1.4337422994182352,-0.2685966660087887,-0.09407163661726847,0.023797432476541168,-0.1608783950160484,0.37602177661061587,3,right
7.375,0.06860063432239492,0.9614349897027643,-0.16532279723150925,1.4380517568617452,-0.26843288913830443,-0.09489197789073449,0.023801733805913126,-0.16137453970615306,0.3773778625158059,3,right
7.379,0.06964741852731918,0.9540536211787677,-0.17246188318442865,1.44346147029015,-0.2682521558181524,-0.09595309166149524,0.023822093468902156,-0.16117144152749838,0.37690007289775396,3,right
7.38,0.06584267943752639,0.9490120555520818,-0.1732874819372716,1.4341029852321125,-0.26856564107275593,-0.09411689191266942,0.023729611488607916,-0.16111423026169852,0.3764218922040332,3,right
7.385,0.06349845827230237,0.9438297763898676,-0.16783472692299367,1.4430303062129384,-0.26827426743308735,-0.09587984839829403,0.023929986257196025,-0.16135681060912554,0.3777787103150426,3,right
7.386,0.058024365102045894,0.9381580414674444,-0.1585833356251227,1.4369661070547661,-0.2684681221649259,-0.09467630332899876,0.0236285332990271,-0.16102093230531475,0.3758159455523749,3,right
7.388999999999999,0.050835670838638713,0.9332980995637528,-0.1492339476361599,1.4393946212833408,-0.2683788625716337,-0.09514199377661729,0.023953255574097942,-0.16134449132000955,0.37782688187048885,3,right
7.39,0.04059579588894381,0.9315074533511769,-0.14414619459199726,1.440318157727145,-0.26839751696480385,-0.09539321097280463,0.023765670850036835,-0.16115718431562132,0.37666412517059,3,right
7.394,0.019628573949855926,0.9325471102902547,-0.147238593491663,1.436869593267072,-0.26840398598591686,-0.09456231031829179,0.02359647933919965,-0.16107215184434004,0.3758422056642384,3,right
7.395,-0.010398028183002167,0.9388924050138658,-0.15554440140242795,1.4417033062147386,-0.26840571717918893,-0.0957421635491037,0.024327238977844057,-0.16154320108899148,0.3796727684146872,3,right
7.399,-0.048966873172999414,0.9496270136925978,-0.15939464017438526,1.436962802869908,-0.2683887020030247,-0.09456366423788523,0.022972527599111052,-0.16066475251723372,0.3725574315571623,3,right
7.401,-0.0935590869871901,0.9613594608994648,-0.15542942249318698,1.439706673696916,-0.2683985292102895,-0.09524525000281686,0.024712655062387373,-0.1617863352414829,0.38167878926306675,3,right
7.404,-0.13441842114536134,0.9739461105781319,-0.14470828319738815,1.4411558526055508,-0.268439983446745,-0.09565789234507503,0.023259643893863945,-0.16085294808316986,0.37407082343603004,3,right
7.404,-0.16878543133364032,0.9816978779555399,-0.12796902808586552,1.4336265884794808,-0.26830084134170074,-0.0936260728477522,0.02329813564546243,-0.1608860565035341,0.37429528527142103,3,right
7.409,-0.1957438491987027,0.9840480091793754,-0.11106050052482708,1.447649718455887,-0.2685571872000433,-0.09740483638190514,0.026072234053244197,-0.16263204562524966,0.3887222982367901,3,right
7.41,-0.2139047790624713,0.9845614452095661,-0.09966973474977299,1.429718052283584,-0.2682247738755469,-0.09256785303065868,0.019254491300311816,-0.15833484835369374,0.35324884483684194,3,right
7.414,-0.2283181061169554,0.9824693987908939,-0.09039379770662578,1.444655479742305,-0.26850426345727524,-0.09659852761491794,0.030558717821414436,-0.16545911899090143,0.4120637672145997,3,right
7.415,-0.2352655834653262,0.9826191205001663,-0.08449332801943832,1.4441508689544946,-0.26849857088664625,-0.0964729339218615,0.015648108968923387,-0.15606399168603646,0.3344915500137863,3,right
7.416,-0.23508356083274035,0.9830355314033217,-0.08278621979854808,1.4160884575547605,-0.26795457119991084,-0.08886129506743418,-0.046947633562928456,-0.11663583419724777,0.008907648644414776,3,right
7.419,-0.23612211865852223,0.9814267078264535,-0.07592332043820235,1.4851435972380211,-0.2692923293263473,-0.10757977964557547,-0.0618602110474564,-0.10724088387045164,-0.06866248917102463,3,right
7.42,-0.23122575774673737,0.9860718664630247,-0.07055657910165677,1.370647661074691,-0.26707147360901284,-0.0765480259803342,-0.05055188583055243,-0.11436666840273121,-0.00984760933672588,3,right
7.425,-0.22520528927274214,0.9908507163727523,-0.07140198410095264,1.5216504738857193,-0.2700041732827904,-0.11747128326252954,-0.05737579193026344,-0.11006335779879703,-0.04532973646182833,3,right
7.425,-0.22232745949197963,0.9924160443026977,-0.07203621403956642,2.15515545644405,-0.28229415286231246,-0.2892320678989655,-0.05459438226828752,-0.1118224352755646,-0.03087914290424275,3,right
7.426,-0.21033794158518998,1.0001642585587756,-0.07719798959985216,2.3061352204552215,-0.28523237543837643,-0.330143792661038,-0.05456201740532056,-0.11183570159202297,-0.030694650618483928,3,right
7.428999999999999,-0.19591254792953366,1.0082410089979779,-0.08100246484675296,2.1916820528108776,-0.2830048942878617,-0.29912793779268365,-0.05601393288825688,-0.11092410415989916,-0.0382539273185446,3,right
7.428999999999999,-0.1798795247618163,1.0123031930654176,-0.08164146151805879,2.260683518372825,-0.28434268213901726,-0.3178390493871014,-0.054265292589504535,-0.11203230642994844,-0.029170290099478722,3,right
7.434,-0.1555335864736797,1.0194556750834844,-0.08693200332317252,2.2326685946900198,-0.28381375693952327,-0.31021100519830525,-0.055641510420593274,-0.11114418812825144,-0.036289334612892105,3,right
7.435,-0.12523699903644636,1.030854850769668,-0.08620804492440859,2.2321487955618884,-0.2837724587087951,-0.31013740033927495,-0.05487697011835341,-0.11166230768970775,-0.03238034303522977,3,right
7.438,-0.0862041244673412,1.044478906826152,-0.08125079509540253,2.247038354551396,-0.28410553840306657,-0.31408017028984464,-0.05508428282033612,-0.11148687232780333,-0.03337567733658596,3,right
7.439,-0.045076314447092314,1.059433894453095,-0.08356018213723623,2.229241353826901,-0.2837165891129815,-0.3093474143980546,-0.05524632420600395,-0.1114205587000868,-0.03428464454040034,3,right
7.443,-0.006315965655825434,1.0732124293905008,-0.08675553364286168,2.243044816175236,-0.28400321869282735,-0.3130502060767647,-0.054910306548355554,-0.11163259406480074,-0.03253730144952059,3,right
7.443,0.034353091248147234,1.0829836086548745,-0.09075493548898717,2.235772208147199,-0.28389905323297643,-0.31100031916318605,-0.05528450141655148,-0.11133033218507135,-0.03436156889292276,3,right
7.4479999999999995,0.0738380020827196,1.089068207420346,-0.10046154336653021,2.237035065971299,-0.2838044918761867,-0.3115940454936267,-0.05493798523575982,-0.1117006502463033,-0.03283829539237021,3,right
7.449,0.10993005912209501,1.09234418727579,-0.11146520830839213,2.239736453777487,-0.2840619311878412,-0.31189386548489495,-0.05523235760088627,-0.11128841318460976,-0.03395306663326225,3,right
7.452999999999999,0.13987789487270907,1.0914706639262681,-0.1207714463403379,2.2354340356554356,-0.2837269648637982,-0.3112579418896778,-0.05501658744511714,-0.11166609733769642,-0.033274628744908705,3,right
7.454,0.15939795647459565,1.0866942035357,-0.1279336213808968,2.2393420953097434,-0.28400319326062323,-0.311894633217514,-0.05509121720790904,-0.11147942977118848,-0.033406310088258125,3,right
7.457000000000001,0.16547450157819044,1.0793488146337131,-0.13100802159927005,2.237211839324181,-0.28396375146968705,-0.3113134239142399,-0.05526091837828319,-0.1112520165701867,-0.0340680250509357,3,right
7.457999999999999,0.15578979022042475,1.0700235505347242,-0.1283231439989338,2.236810489359065,-0.2835839254575543,-0.31198880008886276,-0.05474065196531406,-0.11210691805347191,-0.03232922708634635,3,right
7.462000000000001,0.13040046864286506,1.0626560895480326,-0.12204601059817603,2.239859650802984,-0.2844930744031404,-0.3110232751705209,-0.05564064862551028,-0.11056243891317763,-0.03521649449823969,3,right
7.462999999999999,0.09159138322438465,1.0585408208067495,-0.11430938397987819,2.2348003771918146,-0.2831270809413755,-0.31232534701242043,-0.054513774128152885,-0.11252741208543901,-0.031658788958646836,3,right
7.4670000000000005,0.04747011081356151,1.0540790198187997,-0.10369758050726693,2.2402886834567277,-0.28458485460595356,-0.3109629483028876,-0.055442264996505286,-0.11089482531163114,-0.034564964819223,3,right
7.468,0.001891309297610418,1.04896370688859,-0.08803204710343511,2.2369672912065846,-0.28374005630216903,-0.31170965728895367,-0.055427728596993325,-0.1109320295954689,-0.03454164955546077,3,right
7.473,-0.04072993552267022,1.0429711779543043,-0.06651853441424378,2.2348484896509913,-0.2830249551600952,-0.312554312811112,-0.05363768272912099,-0.11405812772363533,-0.028897633856877415,3,right
7.474,-0.07586177883758821,1.0372698480503906,-0.0488246643477704,2.245339768416406,-0.2861754605257703,-0.30918632300054316,-0.0580184201220654,-0.10638715846823225,-0.04267074174494333,3,right
7.477,-0.10931869986533277,1.0334501113197376,-0.04394324795852155,2.225663571674982,-0.28032970017819003,-0.3153733424025399,-0.050763985097604845,-0.11909976905541111,-0.019881649428180347,3,right
7.479,-0.12799734934757453,1.0302548035495431,-0.04381812236370318,2.250978334877857,-0.2878357597042278,-0.30744164178693384,-0.06032820640430568,-0.10233522047084884,-0.04991731728285176,3,right
7.482,-0.13154045541632936,1.029604554490965,-0.04532651327712381,2.2298239134129627,-0.281570605897588,-0.3140589426876355,-0.10047224927942154,-0.03196407793411181,-0.1759853836593852,3,right
7.483,-0.1453861402726703,1.032297748423954,-0.050164906534938034,2.23047414616053,-0.28173781176171103,-0.3138984285927775,-0.11003442937098527,-0.015202307976651286,-0.20600924325699332,3,right
7.484,-0.15785885537155556,1.035909772893881,-0.052921273668357124,2.2705574903981454,-0.29368856208959404,-0.3012176466571834,-0.10278477787770454,-0.027909571643250985,-0.18324689409883482,3,right
7.487,-0.16363660734766383,1.0381979556474024,-0.055243213259699164,2.171945173913379,-0.2643211367420719,-0.3323653916414746,-0.1071572342337058,-0.020245749572985004,-0.19697538802934697,3,right
7.487,-0.17813086639544512,1.038561165219731,-0.055645138514276715,2.3354737405997517,-0.31300819588389417,-0.28072396843142494,-0.10537866656052544,-0.023364728006289134,-0.19139098765326518,3,right
7.492999999999999,-0.18627922321902773,1.0391194121028073,-0.053020823342958885,2.1197769492634446,-0.24879613501673617,-0.34884162097481375,-0.10535199525970809,-0.02340583292338414,-0.19130753927695504,3,right
7.494,-0.1890043115501312,1.0392616118509126,-0.05180059473486204,1.2145210079574165,0.02079927266363723,-0.6347557914997672,-0.10628782830382308,-0.02177679490080807,-0.19424538462247704,3,right
7.495,-0.2016235335373262,1.0367978938580138,-0.049219514182691014,0.998830778655575,0.08500125380436321,-0.7028817565538148,-0.10516620366179358,-0.02372681600082935,-0.19072427609866535,3,right
7.496,-0.2118205831653398,1.0339909730252392,-0.050532780855844214,1.1623522468771506,0.03632510123749895,-0.651231338702113,-0.10604061102663515,-0.02220999112132329,-0.1934692390926655,3,right
7.497000000000001,-0.21201465477631723,1.0309825565151924,-0.05924290993811074,1.0637372258109417,0.06569667089000308,-0.6823756668574743,-0.10556957793268264,-0.02302887706678583,-0.19199051802090733,3,right
7.502000000000001,-0.20493023997766754,1.026689161833321,-0.06948408257306828,1.1038441293425347,0.05370975275270667,-0.6697247098382296,-0.10567314825343621,-0.022833427829870294,-0.192315987567996,3,right
7.502999999999999,-0.1901065517538149,1.0248557988143105,-0.08300808193222647,1.1044436773068522,0.053620371191428665,-0.6695000185856552,-0.10580922016132041,-0.022639407104319383,-0.192742248770461,3,right
7.507000000000001,-0.17198512451448172,1.02364370387702,-0.10189411330037014,1.0833619227233686,0.05977393698069187,-0.6762093405792118,-0.1055738288221856,-0.022975423739270077,-0.19200485258560424,3,right
7.507000000000001,-0.15360238461855766,1.0214545832006212,-0.1223739036842407,1.1086043308894253,0.05237900052684828,-0.6681860010742435,-0.1058004546085655,-0.022672161347520023,-0.19271435002152582,3,right
7.511,-0.136723257007888,1.0215758394202803,-0.1357400953932122,1.0889593428431212,0.05817680460902808,-0.6744125704031388,-0.10564541128900708,-0.022869001942294784,-0.19222919220495904,3,right
7.5120000000000005,-0.1260326021793951,1.0205785104343423,-0.13710921428515982,1.0995127794492219,0.05493089664503284,-0.6711232502218359,-0.10570446361268318,-0.02276482832536561,-0.19241459237362024,3,right
7.517,-0.12224838570487802,1.0163432650308963,-0.13231874048057918,1.0971937946961186,0.05595335027906188,-0.6717144518590507,-0.10574071448329594,-0.022840338954118054,-0.1925254357811242,3,right
7.518,-0.12431312697992747,1.0108029779434577,-0.12914767183520343,1.0942173011993583,0.056268547979017605,-0.6728978935616832,-0.10562530133661988,-0.022724831080158107,-0.19216990271784115,3,right
7.522,-0.1319956043533136,1.0034432789505146,-0.1257062788334768,1.0992823571024957,0.05546074759227393,-0.6709994919820117,-0.10578990222757453,-0.022910468977597808,-0.1926764850288603,3,right
7.523,-0.1471291914859762,0.9942542011542629,-0.1184428323244256,1.0945604788682313,0.05630852035968164,-0.6727289244620351,-0.10562448260420954,-0.022694904967950902,-0.19216803981416175,3,right
7.526,-0.17448315864777247,0.9875712189797212,-0.11812828598787044,1.097612739796816,0.05539482364869615,-0.6717671314961317,-0.10572015846342653,-0.022819382771818268,-0.1924620637704745,3,right
7.527,-0.2100164209006556,0.9859996513775421,-0.12387610888395473,1.0965850602469738,0.056736168837831266,-0.6716496147192431,-0.10578039808881595,-0.02296537121073668,-0.1926458924875137,3,right
7.531000000000001,-0.24713023116989224,0.9853406455382642,-0.1212918492279457,1.095886007690495,0.05457809179542343,-0.6728805683871439,-0.10548800450579486,-0.022376248867091303,-0.19175147194533143,3,right
7.531000000000001,-0.2861883458765756,0.9844789126600108,-0.11355246952553118,1.097659078401322,0.05758030693100113,-0.6708136954615731,-0.10603165468265802,-0.023466579155586736,-0.19341443037743178,3,right
7.535,-0.32374603010828407,0.9853753995765442,-0.1055424672811505,1.0956324462772853,0.05442024877320001,-0.673059972699446,-0.10533545824209914,-0.022062997245364147,-0.19128515972048782,3,right
7.537000000000001,-0.3571376229428587,0.9864669583641911,-0.09447461764758432,1.0970191774121814,0.056182424550745146,-0.6716942428554183,-0.10591579366627762,-0.02323669506548712,-0.19305978037957056,3,right
7.542000000000001,-0.3878803486941029,0.9870230855486514,-0.08012629782479838,1.0971478357758686,0.05801737550188068,-0.670852874766096,-0.105897840583296,-0.023208022706965002,-0.19300521083309655,3,right
7.542999999999999,-0.4149981045544664,0.9900201607869407,-0.06264472824493933,1.094837058584544,0.05050356383844837,-0.6750850173840728,-0.10480101949297285,-0.020954892820170948,-0.18965080140790347,3,right
7.547999999999999,-0.4380143026777791,0.9936350783514073,-0.04440590448160357,1.0994395890187616,0.0643450538156379,-0.6671371518819402,-0.10749844614409115,-0.026491801083511242,-0.19789940494284444,3,right
7.5489999999999995,-0.4547006004540448,0.9935023866745226,-0.03023923197879494,1.0934561745613045,0.04659229924645874,-0.6773649736509539,-0.10302631650771991,-0.0173093602607721,-0.18422473578836784,3,right
7.55,-0.4621466756305296,0.9921412925462402,-0.024993707332173952,1.0984844899288997,0.06140557286539814,-0.6688170866375076,-0.1089242985887195,-0.029423849668756073,-0.202258271679811,3,right
7.551,-0.46384067503065096,0.9917874669746363,-0.025321053661576526,1.0982283973830465,0.06103514779969273,-0.6690834472731495,-0.13367603892736213,-0.08027439223748167,-0.2779434900855846,3,right
7.551,-0.46574734394437384,0.9933450524097713,-0.02491602866144444,1.0890247996388842,0.03268726463072823,-0.6852680944224541,-0.13957280564198754,-0.09239521246535999,-0.2959706819211335,3,right
7.557,-0.4655713520281424,0.9950250299316661,-0.028355359430010524,1.1117963760423781,0.10232869323857205,-0.6454466220913643,-0.13510257573848855,-0.08320287567048341,-0.28230592948666056,3,right
7.558,-0.45744834159543446,0.9966625905161502,-0.03442352989643889,1.0739906985728813,-0.01313327698330357,-0.7114835819501811,-0.13779843118153867,-0.08874796939028977,-0.29054633024576204,3,right
7.56,-0.4504182286420099,1.0008821038105007,-0.03580983869839901,1.1238750429648037,0.1391629311044611,-0.6243796886855394,-0.13670151851008694,-0.08649531435408914,-0.2871914454015262,3,right
7.561,-0.4472909735144245,1.001711272000703,-0.03443876685181042,1.3329207207502978,0.7784340637992837,-0.2588193450127122,-0.13668661528134787,-0.08645075861852476,-0.287152791810414,3,right
7.562,-0.43393113777249814,1.003651607277232,-0.029769797255326885,1.3828186732029129,0.9307399252620517,-0.1717185558714197,-0.13726029376899454,-0.08765912879876246,-0.2888926682943742,3,right
7.566,-0.41343624314237415,1.0127121202076488,-0.02241983574473675,1.3449982760875439,0.8152675121587278,-0.23775215756187007,-0.136573579413526,-0.08620615690447285,-0.28681289049385056,3,right
7.566,-0.3924047981869698,1.019986825898254,-0.017714486665786122,1.3677642408705895,0.8849049633691635,-0.19792940687687166,-0.13710783972504836,-0.08734540067109471,-0.2884268328229366,3,right
7.57,-0.3664816417660574,1.0253880528584411,-0.015138942303115063,1.3586095055002787,0.856591735479003,-0.2141251964599526,-0.13681951339708398,-0.08673508407843283,-0.28755365239214237,3,right
7.571000000000001,-0.33641808340985424,1.0291651391457097,-0.016084460607348243,1.3582482959571278,0.856146752262178,-0.2143675841694923,-0.1368876548427181,-0.08683992706238924,-0.2877787096833274,3,right
7.5760000000000005,-0.3016229761865856,1.0329603577167685,-0.020050698241428716,1.3634273145033837,0.8710669214911693,-0.2058540683252314,-0.13695779362458568,-0.08709740733321497,-0.2879394569223202,3,right
7.577000000000001,-0.265751651621939,1.0419742978162834,-0.024047708631624344,1.3572938477028005,0.8532077282610733,-0.2160476650099625,-0.1368363717727366,-0.08665267741652846,-0.28766065329742696,3,right
7.579,-0.23568634445403064,1.047469059975344,-0.03218515919365532,1.3619610921680625,0.8670951314408304,-0.20811456434748127,-0.13694699247574532,-0.08711949275382953,-0.2878854711945459,3,right
7.58,-0.21107062042296715,1.0503200892073001,-0.040214929229658636,1.359779237604743,0.8596727501122641,-0.2123761025543474,-0.1368746034364926,-0.08677985063918611,-0.2877545452177126,3,right
7.586,-0.1948379965136095,1.05694084714851,-0.03979589110033019,1.3594927228225244,0.8612132308405741,-0.2114400537175867,-0.13691124182805048,-0.08685340226650134,-0.28786734041042894,3,right
7.587000000000001,-0.18643474733007864,1.0600127475473915,-0.03550825363069296,1.3615947451217645,0.8634827614349365,-0.21023745673204505,-0.13689046445395187,-0.08716496444440835,-0.2876361536560366,3,right
7.59,-0.18038739607985427,1.0586133379972615,-0.03576847865948708,1.3586903452832841,0.8597000832786457,-0.21228353546965145,-0.1369178367720421,-0.08641171574247908,-0.28810305102380956,3,right
7.59,-0.1773801787696005,1.0595997636313994,-0.04076138954437338,1.3611631043482038,0.86319863392542,-0.21037626084034905,-0.13687235160753763,-0.08752579565094248,-0.2873922564031571,3,right
7.593999999999999,-0.17490899306345703,1.065528252141715,-0.04484333687069706,1.3604705413934712,0.8610450887188795,-0.21160865893459824,-0.1369270083995529,-0.08635093653540801,-0.2881689020221948,3,right
7.595,-0.17079075564988855,1.0747251858832771,-0.05084948940549458,1.358143841974833,0.861465117082067,-0.21119491907254132,-0.13689553758997636,-0.08702983010168314,-0.2877203812869301,3,right
7.6,-0.16716014656056127,1.0868188529949614,-0.06452924411270235,1.3641643338911424,0.8626567384027539,-0.21091005420020154,-0.13685453692799832,-0.08758706316513913,-0.2872916818403422,3,right
7.602,-0.1627223003416075,1.1026482045128505,-0.08116629196031377,1.3550147074289236,0.8603638771131693,-0.21162965210859883,-0.13701590523640328,-0.08511230822648852,-0.28911336161438417,3,right
7.604,-0.15515746745630749,1.118682099053908,-0.0887063536007548,1.3647993943340317,0.8629038729006764,-0.2108077188895734,-0.13671765306834976,-0.08970337094867947,-0.28573780654776426,3,right
7.605,-0.14162004472135367,1.1302706058088756,-0.08083056767859556,1.3590967084770291,0.8612850710295552,-0.2113692519112192,-0.13710163693723226,-0.083810776618722,-0.29007560262500076,3,right
7.609,-0.12221949633763957,1.1369210091294533,-0.06571143549208026,1.3544250917201106,0.8606392183464957,-0.21142410955894841,-0.13678074062715836,-0.08872882338822623,-0.28645270360486474,3,right
7.609,-0.10154455947375532,1.1429060129862014,-0.055904269000559635,1.3752693401074847,0.8646922036995093,-0.21048157622620978,-0.1367875243713368,-0.08859349091941127,-0.28654611934512186,3,right
7.615,-0.08247426730808417,1.1478853521160977,-0.052562521216464646,1.336542182240364,0.8569551283193735,-0.21235621756534978,-0.13740669114528842,-0.07922659789147779,-0.29347365485425725,3,right
7.6160000000000005,-0.06903895026847538,1.1526954718269504,-0.05529937639968105,1.3862848212692664,0.8669386724197399,-0.2099207557782824,-0.13588683193494955,-0.10225006560992261,-0.27645040194952514,3,right
7.619,-0.06598704224946246,1.1642046570620972,-0.07982840471467552,1.3447522549126814,0.8585852006253358,-0.21196534910423664,-0.13840634220061523,-0.0640773085610455,-0.30467576467679447,3,right
7.619,-0.06588806560401718,1.1737149557178703,-0.10644390659515948,1.3458979786002847,0.858885325818787,-0.21186619326574224,-0.13508321327715664,-0.11442549969391641,-0.2674457931758982,3,right
7.62,-0.06481973866253503,1.1772428821143341,-0.1109451035199287,1.4250179861864771,0.8745678533926513,-0.20811167732626396,-0.12111697710896979,-0.3257747662340092,-0.1111546994775408,3,right
7.624,-0.06893458977652529,1.1895676936811554,-0.12306500741068437,1.2305286181302857,0.8359378644584221,-0.21739108521838105,-0.11779278168196519,-0.37612255088527047,-0.07392274125526183,3,right
7.625,-0.06778234904289307,1.2079642479751962,-0.12287977631735605,1.553002313359858,0.9000060925615805,-0.2019926447022297,-0.12031547472480852,-0.33794823641026156,-0.10215205580906181,3,right
7.627999999999999,-0.06167368707737737,1.2172423189221035,-0.10621461079126895,1.1276675016046136,0.8155047924858754,-0.2223034291384433,-0.11878886799315501,-0.3609789455768787,-0.0851232365536358,3,right
7.629,-0.05918419534285309,1.2211218589600876,-0.11000001982693525,-0.6576732386275214,0.46088783133651395,-0.30749878255830965,-0.11941902263135896,-0.3515960096060087,-0.09205680291821022,3,right
7.63,-0.04898698985068939,1.2302103841205079,-0.0846155079934262,-1.0829877832365518,0.3764118958122793,-0.3278022860452998,-0.11941206220327225,-0.35148545252174934,-0.09214603487883222,3,right
7.632999999999999,-0.036655324774896136,1.2362344941997638,-0.06112964302831786,-0.7605442102087272,0.44044523721621454,-0.31241250802125575,-0.1191029480868599,-0.3563757767151533,-0.08852209517970192,3,right
7.6339999999999995,-0.025779782937947512,1.2347691945400898,-0.10006922914130817,-0.9550128930700825,0.401831177423813,-0.3216921315573012,-0.11948509742252311,-0.35050104515356784,-0.0928697205966879,3,right
7.638999999999999,-0.008275045225569265,1.2401044395153566,-0.12843057875040487,-0.875879986822168,0.4175503783620974,-0.31791721727252276,-0.1191692563618328,-0.35510249272969363,-0.08947359560033478,3,right
7.641,0.0015857647056979301,1.253761787603115,-0.14667322895461096,-0.8748019919533983,0.41773528200977583,-0.3178657804621243,-0.1193745531823881,-0.35257071044657445,-0.09132446092320508,3,right
7.643,-0.0036829023193822464,1.2643140475916446,-0.19319428268582056,-0.9162054428543494,0.40957608903062614,-0.319838888410516,-0.1192649095057939,-0.3532399228777676,-0.09086647571657859,3,right
7.644,-0.01048995137548648,1.2708726919268138,-0.2419137847553336,-0.8666313566259352,0.4193298532341151,-0.31747844104018774,-0.11931034861986427,-0.35376659139794325,-0.09043167068244383,3,right
7.648,-0.009118522919916609,1.2812713538661433,-0.2888571609242269,-0.9052115401318712,0.4117593699706758,-0.3193136026616989,-0.11931454790369905,-0.352735298797932,-0.09123050296188186,3,right
7.65,-0.002118477919225992,1.2977632082981287,-0.3187723133205125,-0.8843936442127234,0.4158542502345718,-0.31832304298470504,-0.11924365601059181,-0.3537995531185999,-0.09044373222935853,3,right
7.652,0.008616812234566057,1.31342332093418,-0.3315191510238238,-0.8892746905351239,0.41480608233700256,-0.3185608004516901,-0.11942190987029248,-0.35289703359180324,-0.09104413052543461,3,right
7.653,0.019689924961753907,1.3261691513720504,-0.34538432765169724,-0.8944494615156688,0.41403224359350915,-0.31879118640477383,-0.11910159015628516,-0.3536425630329544,-0.09064612141555389,3,right
7.6579999999999995,0.022476441025246013,1.3422381991398993,-0.33765226833548007,-0.8854900235038043,0.41537413856541533,-0.31839264382909943,-0.11954878465024692,-0.352994123375634,-0.09089679530588074,3,right
7.659,0.021660683634140587,1.357191731821254,-0.3059391032232721,-0.8937168373796094,0.4142770832980005,-0.3187493206491681,-0.11908329880003908,-0.3535157573209847,-0.09075516623802884,3,right
7.662999999999999,0.026636060977110243,1.3627235409758092,-0.28576500324654464,-0.888297750816079,0.41492557106161343,-0.31851961842266485,-0.11934471181454402,-0.3533279688494826,-0.09075271184556896,3,right
7.664,0.039809646502256504,1.365893008910413,-0.28933321718139293,-0.8909386720636501,0.4143966991622365,-0.3186454229871956,-0.11959350771197695,-0.3528128742946376,-0.09101264868820597,3,right
7.669,0.060502907848959175,1.3779071482722722,-0.30090103203795115,-0.8898069078541264,0.4154166071886948,-0.31853881520511873,-0.11854794705914135,-0.35441568928272693,-0.09035859867807647,3,right
7.67,0.0757423839450953,1.4054197955337733,-0.30945489395007447,-0.8909430716198046,0.4133748337027793,-0.31871412045498293,-0.12047669325283772,-0.35159694373451233,-0.0914571538082618,3,right
7.672999999999999,0.07315369949001022,1.446377469744181,-0.30508616320184767,-0.8889121720006795,0.4164867068668818,-0.3184358807500736,-0.11800382375185779,-0.35516129249125716,-0.09008797607774541,3,right
7.672999999999999,0.05856768448611609,1.4907729465324988,-0.27781447038444346,-0.8915229340800015,0.4130818971008874,-0.3187545681955806,-0.12006666230604245,-0.35220833660106426,-0.09121322929594808,3,right
7.6770000000000005,0.036559548387891286,1.5276228691082259,-0.22935829842661654,-0.8900208224154962,0.41504607386331027,-0.3185693812013123,-0.12001340489523116,-0.35225373550863814,-0.0912105082072106,3,right
7.678,0.011114281820997515,1.5499840531105555,-0.1686279174890517,-0.8877301963939692,0.41694289835980747,-0.31836648531195144,-0.11607319745425433,-0.35797683206062153,-0.08899143089675826,3,right
7.682,-0.008889640765963368,1.5613073202613126,-0.11295251449034255,-0.8964619567056056,0.4089106226571491,-0.31920166122750887,-0.12575388772192928,-0.34395890629348824,-0.09440484777688762,3,right
7.683,-0.024070583906918172,1.5626365486835727,-0.07259158428397161,-0.8803368761153727,0.4237880567906206,-0.31765245846156576,-0.10970451308599254,-0.3671846658600696,-0.08544559683622131,3,right
7.687,-0.030837493192402997,1.5585537141290686,-0.05037476650395044,-0.9011204655558466,0.4046738633101913,-0.31964883045777637,-0.13087265094763434,-0.3365531897187158,-0.09725518559256253,3,right
7.688,-0.03099009315622419,1.554902447898269,-0.047051041685713085,-0.8837371911812304,0.4206313532882276,-0.3179760347885209,-0.21972772548878067,-0.2079502644660577,-0.14684693758865144,3,right
7.688,-0.03748147724844943,1.547701268427972,-0.04700394312824083,-0.8840920480111993,0.4202361825902076,-0.3180257260888674,-0.2408943748649791,-0.1773065579335082,-0.15864780456358377,3,right
7.692,-0.04849026462420072,1.541239521985649,-0.051254259145107464,-0.917708678898898,0.3896838878954253,-0.32121537229113883,-0.22484785595114826,-0.20055060780591066,-0.14970646946119204,3,right
7.693,-0.0532962706841645,1.5423345088844083,-0.062013938288554324,-0.8351882788886813,0.46472562579381993,-0.3133581353700605,-0.23452474792158629,-0.1865197999104618,-0.1550934409427756,3,right
7.697,-0.043898678210610886,1.554979656552101,-0.05270070392567896,-0.9719927731869922,0.34033639896219237,-0.32640645554300773,-0.2305882917449592,-0.1922359359665906,-0.15290498077278503,3,right
7.6979999999999995,-0.03326617079228604,1.566917057378411,-0.0359766980197981,-0.7915600723853446,0.504360967001872,-0.3091660802972878,-0.23053303796157665,-0.19232098564956246,-0.15287774893003103,3,right
7.699,-0.02881177646559846,1.5709506198924323,-0.030042178940232984,-0.03411111025202876,1.1926879113814144,-0.23666381966362593,-0.23259387506117224,-0.189291422273552,-0.1540050266209268,3,right
7.702000000000001,-0.01110224919941083,1.5856905862226136,-0.014831923994004188,0.1462052382824917,1.3565203844255582,-0.21930653065691422,-0.2301290743554788,-0.1929567371216262,-0.15267520364090367,3,right
7.702999999999999,0.012273181825517277,1.6015266315374979,-0.001726934302510979,0.009632682707949546,1.2324954345641124,-0.2325743899888566,-0.23204305584683,-0.19004858804756952,-0.1536799502141229,3,right
7.707000000000001,0.031203293233537065,1.6044923635148214,-0.0007266677795142042,0.09182531558266549,1.3070620913181714,-0.22443568902333372,-0.23101656687757366,-0.19167033821103818,-0.15316914262216796,3,right
7.707999999999999,0.05619825029012217,1.6037976380119745,0.0026846704955626514,0.05856554862868918,1.2769627883218897,-0.22788519938113821,-0.23124865448279552,-0.19127594581609994,-0.15327220562585844,3,right
7.711,0.08490139388514192,1.5965426017425264,0.0100680003687471,0.057960198093137544,1.2763561057019905,-0.22782965704538266,-0.23151346945757278,-0.19077707959672116,-0.1533671813429266,3,right
7.712999999999999,0.1157350233026791,1.578893609267021,0.022952329636260475,0.07528848233141691,1.2920059226920784,-0.22594438063197725,-0.23107076091264395,-0.19178988596806099,-0.15328952259875853,3,right
7.716,0.144097174053674,1.5574109084325871,0.03624319100240643,0.05507686981116339,1.2739611160789335,-0.22860615278800478,-0.23145954624329398,-0.1905865947341489,-0.15321507409082538,3,right
7.718999999999999,0.16540508918392943,1.5364047860502124,0.046029728131777525,0.06999487166221709,1.2869604621001416,-0.22592724698610445,-0.23123133750309677,-0.1917026971151125,-0.1534450840018865,3,right
7.718999999999999,0.1838043514232729,1.5126268852522045,0.05442231863237858,0.06298433234672217,1.281273826092441,-0.22813234653469716,-0.2313055262610322,-0.19096899290975744,-0.1532016717591883,3,right
7.725,0.1975947126251853,1.488913642079134,0.05575680349553802,0.06353748121842698,1.2812310097400492,-0.2268569661761584,-0.23130435601698862,-0.1909651277453705,-0.1531985371643893,3,right
7.726,0.21082631874412178,1.4692293773586922,0.0507328630726742,0.06587071642640611,1.2833472149629164,-0.226622407459946,-0.2313394059905905,-0.19207637412825462,-0.1537463380499094,3,right
7.729,0.2248163371638617,1.448144000352286,0.043526965474571216,0.06453931677706509,1.2831469277154774,-0.22901848220326587,-0.2311865247183922,-0.18964223784885254,-0.15245377615922648,3,right
7.73,0.23502627062657255,1.4282124236300597,0.0351484312447953,0.06210976449933481,1.2786312513457023,-0.22406728839209705,-0.23147454587925242,-0.19318671791647937,-0.1544155675130617,3,right
7.734,0.2458401202661623,1.4077723690951354,0.03034792338932521,0.06886487400930882,1.2882127357087771,-0.2311533920739808,-0.2311324962769229,-0.18945895458236683,-0.1523046065534694,3,right
7.735,0.256537172848467,1.3817653498602203,0.03247641744571171,0.0600580359986684,1.2765397682998303,-0.223753692203367,-0.23134124116361576,-0.1915967139956832,-0.1535307413715215,3,right
7.739,0.2629705443958067,1.359543967654119,0.03969714755174656,0.06578790350133198,1.2838666193251926,-0.22796705955348912,-0.23152616343289062,-0.19343248246914396,-0.1545897554338152,3,right
7.74,0.26350334428119193,1.3400787034286954,0.048299617441879314,0.07012702829152914,1.289638751894167,-0.23165894711096516,-0.2307040340589347,-0.1854172375645904,-0.14994634331348267,3,right
7.742999999999999,0.2579943680504526,1.3206966450171764,0.05127475328293374,0.049251102270490225,1.2626669155465804,-0.2156871360215213,-0.232241290849116,-0.20026316309296915,-0.15856526780152003,3,right
7.742999999999999,0.24845011533446512,1.310138420401088,0.04654339320509088,0.08875351876525275,1.3134007896145004,-0.24522948272431205,-0.23025873818553905,-0.18121294251550552,-0.14749266897551577,3,right
7.747999999999999,0.23368853206900736,1.3037772278092281,0.03855454973089545,0.03759491533665933,1.2478618036359488,-0.2073394078264028,-0.23191735259085744,-0.19711174540852733,-0.15673958368208574,3,right
7.749,0.2118283212633575,1.2987647004456329,0.030462087359395616,0.08049550764856199,1.3027481151754676,-0.2389507695351337,-0.23187398159191586,-0.19667974483066042,-0.1564877140641467,3,right
7.752999999999999,0.18349449664020545,1.2975053752515757,0.02793890788645769,0.07926768521292013,1.301207238600214,-0.23810808328217242,-0.22870070491043645,-0.16637804327809946,-0.13885574988807525,3,right
7.754,0.15571709284682947,1.2940977633130355,0.03183208188581296,-0.0025988207783941494,1.1964797507461291,-0.17782222534667175,-0.23650049050886965,-0.24085450784855314,-0.18219781056620174,3,right
7.7589999999999995,0.12376456327262335,1.2909887491179401,0.042943051982588964,0.19882349387221848,1.4540618945913069,-0.3259642957474718,-0.22356699735639035,-0.11737142116972787,-0.11033093357241816,3,right
7.76,0.09300727053611849,1.2914928574367823,0.05706884048180777,-0.1352824148127923,1.0268619981160645,-0.08036225178946546,-0.24062705946033516,-0.28024319440714063,-0.2051258256556283,3,right
7.76,0.09145919280218218,1.291909820423068,0.05768607383331152,0.3054952603824447,1.5904115486251396,-0.40428875930482355,-0.31227240780172477,-0.9638575449829447,-0.6029740661445714,3,right
7.763999999999999,0.09168617984302826,1.291130409890879,0.057570728556815394,2.1557777675800147,3.956071085020886,-1.7640225088426695,-0.32933525608944136,-1.126725745997239,-0.6977678380876428,3,right
7.765,0.059533340175840596,1.2894772267259746,0.07805715432943361,2.596657717652931,4.519687851402622,-2.087907946638062,-0.3163939547943765,-1.0032518628424727,-0.6259087192004414,3,right
7.766,0.021932325554503494,1.2887623951477596,0.10152016026576907,2.2623714483830555,4.0923642640728914,-1.8423720645176662,-0.32420957320505106,-1.0777108878698591,-0.6692280540309845,3,right
7.768,-0.01198634352081338,1.2880607888985636,0.11266444726738414,2.463998578286972,4.350099278611445,-1.9904540769562677,-0.3210112913452119,-1.0474353497328,-0.6516398716278544,3,right
7.769,-0.04899369041735475,1.2831511924989254,0.11979806170088264,2.381990111652053,4.245240838089746,-1.9301794808829016,-0.3209983369415798,-1.0469730988931212,-0.6513257344047214,3,right
7.773,-0.07622601085330104,1.272890585942322,0.11960747517392224,2.380727693573258,4.243733091845723,-1.9294185553059602,-0.3226320627828546,-1.0628944233962196,-0.660636361334046,3,right
7.774,-0.091760604707875,1.256432347702701,0.10222663244832648,2.423950115686738,4.298770942922898,-1.9608278298655846,-0.32065090715796507,-1.0438478216273817,-0.6495322535457133,3,right
7.777,-0.09776049719228933,1.2368674012914433,0.07544453857407782,2.372131030417118,4.232832464072754,-1.9232449894591703,-0.3222309903379118,-1.0586438187362401,-0.6581054718576362,3,right
7.778,-0.09051298237231965,1.219997914441625,0.04605557992956927,2.4125497543799486,4.284200277637819,-1.9524579339056327,-0.32130758852990254,-1.0507369176817674,-0.6536257609925786,3,right
7.782,-0.07379134868630771,1.2050182844099977,0.01621850806968139,2.3907863862643666,4.2565080454765365,-1.9366758589107853,-0.3216465786880722,-1.0524154126646883,-0.654392530767246,3,right
7.784,-0.05056292296792848,1.1944162432126468,-0.007262713489759765,2.395481433993787,4.262770936269879,-1.9405368395274978,-0.32168758991002705,-1.0547153198303887,-0.6559887491881402,3,right
7.787999999999999,-0.021503496360498343,1.19025827298047,-0.025974546403962316,2.402019330541611,4.2702914579811,-1.9440158857344507,-0.3214476067860422,-1.0509041383492401,-0.6535653596782258,3,right
7.787999999999999,0.009201545777885898,1.1893342112900682,-0.041284274063654265,2.3907104978672136,4.257276191042725,-1.9379878057707407,-0.3218092990418253,-1.0543424709719156,-0.65556441534264,3,right
7.792000000000001,0.041726337242123435,1.1942854266631027,-0.05669042534137829,2.40171859382329,4.269579929078972,-1.94327758198408,-0.3213001514088304,-1.0523048323534423,-0.6547599065170542,3,right
7.792999999999999,0.07417681338589152,1.2044336562625828,-0.08152993135166528,2.3941243088782818,4.261281445969843,-1.939928381970404,-0.32201732243334025,-1.0527012972115042,-0.6541194600808542,3,right
7.797000000000001,0.10094009849259997,1.220058422879962,-0.11047409288609884,2.3968437514501053,4.264770762009231,-1.9419458591055325,-0.32110459300885924,-1.0536100787184646,-0.6559477083246815,3,right
7.797999999999999,0.11574672334189054,1.248559252869597,-0.13586250228629276,2.3993399176433647,4.2653449097953935,-1.939642443958997,-0.3220201483796217,-1.0520924304398824,-0.6536796993364096,3,right
7.803,0.11267866080022482,1.2854204244514893,-0.15977809043950392,2.3921330842566126,4.262111875293318,-1.9438031709083718,-0.32152953018699926,-1.0533372308002051,-0.6552036277421779,3,right
7.803999999999999,0.09852679979062373,1.3199977949403183,-0.17950494915821558,2.4025353872488213,4.26648897504342,-1.9373392490383754,-0.32098726887512313,-1.0532664330512465,-0.6558535993768086,3,right
7.808,0.08100772173264188,1.3485666426043688,-0.1886859695578752,2.391909399809002,4.262414738664795,-1.9445707136791441,-0.32314044924234303,-1.0514662179643595,-0.6517852264406614,3,right
7.808,0.05976347695471415,1.3671279269060566,-0.18704619257927568,2.3980539599623567,4.2647753380606295,-1.940394966048954,-0.319199108731488,-1.0553029817435458,-0.6596182700582528,3,right
7.812,0.03929277204772805,1.3762707800782454,-0.1786003043858725,2.402324078649184,4.265496859910506,-1.9360442188762554,-0.32424166996966064,-1.0501972345741275,-0.649457749705362,3,right
7.813,0.024996224496103496,1.37846593384566,-0.17028110689215178,2.3823072399935397,4.260638520844465,-1.954115427230506,-0.3200390636959397,-1.0545347866175734,-0.6579813449997818,3,right
7.816,0.007892917490780686,1.3736753431847972,-0.1700870466048881,2.4194944871146022,4.2697332872583305,-1.9206478542604217,-0.3201423759114016,-1.0543025032423432,-0.6576897458751609,3,right
7.817,-0.01624109442651685,1.3688431112529873,-0.17492925375585267,2.371829722308287,4.258163691648729,-1.963687369057702,-0.328184141650815,-1.0463378258249438,-0.6416008539718525,3,right
7.821000000000001,-0.03936553610082818,1.3674731711830912,-0.18185645787097177,2.411583425157037,4.267773484392392,-1.927722971099921,-0.30843250395947974,-1.0660788992900034,-0.6812292611500591,3,right
7.822,-0.06975465495183589,1.3711799136066127,-0.19461139875292954,2.410400339732853,4.2673740709781445,-1.9286271986380201,-0.34117773673826723,-1.0332867760255786,-0.6154974896572787,3,right
7.8260000000000005,-0.09144968252011262,1.3771593944821432,-0.2036758241926793,2.3350565884585053,4.249642103532862,-1.9975182220056003,-0.2979865371372657,-1.0765592168024036,-0.7021996681546618,3,right
7.827000000000001,-0.09459207521243958,1.3778193838493005,-0.20775147993432663,2.5203222659989692,4.29333219435636,-1.828232093136832,-0.11671492346375822,-1.25814222537138,-1.0662059492573803,3,right
7.827999999999999,-0.11718596976830507,1.3822886738506166,-0.21278992752568762,2.2131525009589095,4.220900088194514,-2.108937522871253,-0.07351935006399235,-1.301413071153148,-1.15289185006514,3,right
7.831,-0.13978220409284303,1.389451427829684,-0.21211051662102748,2.6182805494848083,4.316406426973286,-1.7386537219837581,-0.106267895372329,-1.2686091242450135,-1.0871698048829905,3,right
7.832000000000001,-0.14192736579065152,1.3902645347786298,-0.20894609905236755,4.318530455941408,4.71690588932538,-0.18436227365108993,-0.08652308585402002,-1.2883988461039286,-1.1268328394031526,3,right
7.832000000000001,-0.16085210512291392,1.3925673248125796,-0.19818054497906956,4.723618664646526,4.81236692576927,0.1859762090298505,-0.09453878806905999,-1.2803295041491913,-1.1106279501676457,3,right
7.837999999999999,-0.19105390483883394,1.3930314687325882,-0.166803319117268,4.416512009503354,4.740009420988734,-0.09480308657341059,-0.0946912537855604,-1.2802563216675538,-1.1105474678440956,3,right
7.8389999999999995,-0.21786437923412583,1.3887343994207924,-0.12353546039693342,4.6017232198717775,4.783627522994786,0.07451262204968813,-0.0904237159617011,-1.284418674111023,-1.118799160843351,3,right
7.841,-0.24827013670834802,1.3847050744845286,-0.07632069248517644,4.526382574695617,4.76591981381913,0.005710475334060314,-0.09552400976603317,-1.2794212887757737,-1.1088709309700975,3,right
7.8420000000000005,-0.27733163860466176,1.377147058568597,-0.027302846861143044,4.52529040201525,4.76559302978119,0.0045432881512672135,-0.09157061947831142,-1.2833340421895607,-1.1166751780590891,3,right
7.847,-0.30428041919952886,1.368250197743036,0.014495002922122188,4.564835615461343,4.774998747833289,0.04094214688040499,-0.09364459000349144,-1.2811579404059452,-1.1122427372423873,3,right
7.848,-0.3310783123938972,1.357992241467237,0.046249209266031634,4.517476070793242,4.763757207864909,-0.002601739522435491,-0.09330650324411868,-1.2818113931802273,-1.1137823015885886,3,right
7.852,-0.3555924992569486,1.34394785324152,0.07425114794837469,4.554350356057329,4.772478588339848,0.03121668526351727,-0.0924930275864105,-1.2820845247568387,-1.1139341871232182,3,right
7.853,-0.37761727240539295,1.3289638347952202,0.10093854248767377,4.534489118819014,4.767872774689613,0.013271590513297446,-0.09377406966393932,-1.2814659663643237,-1.113179277769487,3,right
7.856,-0.39936987028684146,1.3120942736031647,0.1262469204777411,4.53897654495789,4.768699850752025,0.016687982344140456,-0.09261588701198661,-1.2820963177898597,-1.114056321000005,3,right
7.858,-0.42368015375251245,1.2967081109311387,0.15091436958620896,4.544338820737822,4.770356934173201,0.022773424634391765,-0.0932251201392385,-1.2814810004934125,-1.1128200283121203,3,right
7.86,-0.4516872124743732,1.2841220573418362,0.1729736315355909,4.53510590765032,4.767699910238261,0.012880032261603086,-0.09341410558219604,-1.2822758210830925,-1.1151283806607994,3,right
7.862,-0.48178609009522333,1.2752330499283167,0.1905774753734552,4.543750901527581,4.770120039193193,0.02194146423471446,-0.09237206320810687,-1.2810709611070479,-1.1110784469271824,3,right
7.865,-0.5155362009137054,1.272063553064694,0.20095251740376396,4.538016742616765,4.768773129203434,0.016710003589198826,-0.09407274902534346,-1.2827218778434868,-1.1168267218284615,3,right
7.8660000000000005,-0.55199477321531,1.2677170079902278,0.20271848514767832,4.540360295265893,4.768612793610575,0.016702104409479758,-0.09223254313099843,-1.2809893710316331,-1.1107536363026624,3,right
7.871,-0.5857118736685502,1.2654441121667,0.1981140996797608,4.540727792811344,4.770326458915324,0.021951696609164417,-0.09333884644150575,-1.281947070340831,-1.1141763016060469,3,right
7.872000000000001,-0.6161017476753179,1.2684384999873473,0.18796094220281145,4.538808525963402,4.767447632293157,0.012867443555166096,-0.0940794369105719,-1.2829868652575125,-1.1175543888285744,3,right
7.875,-0.6426525142194492,1.2699939302644245,0.17613809488307014,4.541110430759077,4.77057626424695,0.02278446753889159,-0.09048942035830024,-1.2787873039621056,-1.1034703991626396,3,right
7.876,-0.6667040610072524,1.2711395198072637,0.16669678673680838,4.539375927105349,4.768673990876334,0.016686483063385646,-0.09721018957561248,-1.2865116239171224,-1.1294628454131956,3,right
7.882000000000001,-0.6836587644764238,1.27162528593262,0.15704946967386763,4.539881924418076,4.767503444012213,0.013253453114621625,-0.08856611947354513,-1.2766081575198573,-1.0961157490013331,3,right
7.882999999999999,-0.6916633644700518,1.2716303182474218,0.14719113169468306,4.540945044560296,4.773393823165669,0.03126206768928645,-0.09578859145366948,-1.2848691270128425,-1.1239439174618815,3,right
7.885,-0.6931386370647032,1.2684584412334932,0.14091483365445617,4.538379805810289,4.762332099967935,-0.002672724131194378,-0.09557055841388712,-1.2846703865729583,-1.1232351031112366,3,right
7.885,-0.6829489524291339,1.2611032412305274,0.13920411134155672,4.541809761666186,4.776566131516674,0.04102058866811059,-0.08187221239082491,-1.2688392411350522,-1.0700270650981034,3,right
7.892,-0.6678378825985759,1.2545869649892127,0.1378743324638404,4.538887297441902,4.764671518786791,0.004496545556624758,-0.11556809705804788,-1.3077187951466702,-1.2007533063714886,3,right
7.893,-0.6433084880123168,1.2362817902026033,0.13384523789606234,4.539184278767747,4.765039006827195,0.005667845704631675,-0.05969133552674193,-1.2432651356325115,-0.9840171001333047,3,right
7.894,-0.6212429808130785,1.2213374610929422,0.13041141506868115,4.5440532449571815,4.787567550769397,0.07470757968517283,-0.13339360043981596,-1.3282758297462316,-1.2698896118487406,3,right
7.895,-0.6171802000580733,1.2197873375226231,0.13031012959165839,4.531818133351461,4.732144107507503,-0.09519418758941407,-0.4427073250948462,-1.6852230798795378,-2.46990861467229,3,right
7.896,-0.5949535637640799,1.1955863975009347,0.13561678372954847,4.552187632191719,4.824048538441984,0.18655894477289944,-0.5164060425049052,-1.7702396644457148,-2.7557870576979795,3,right
7.899,-0.5708000775555142,1.1732441171757912,0.14098254371051336,4.525292017674802,4.702831370955125,-0.185066631419791,-0.460535680464054,-1.7057689825453743,-2.5390433900106304,3,right
7.9,-0.5681828926606591,1.1688463244157432,0.14195114737255868,4.412816936515879,4.194062917507505,-1.7447474565890566,-0.4942239526275247,-1.7446838327830512,-2.6697708890288556,3,right
7.901,-0.5486326135412515,1.1420403932727516,0.147658770765345,4.385885897455262,4.0728655692057,-2.1163252107178168,-0.48053157843552863,-1.7287960637872626,-2.616576513062695,3,right
7.905,-0.5199404254204583,1.1069099430495943,0.1580636050726807,4.40632342625379,4.164741995396091,-1.834635259487596,-0.4803131912171673,-1.7286672053006407,-2.6158332093622914,3,right
7.906000000000001,-0.498235714822689,1.0782467903254533,0.16849702161372143,4.393997683289936,4.109333638276961,-2.0045161817360055,-0.4875261674156516,-1.7368695705820238,-2.6437149066451333,3,right
7.91,-0.47163148470835975,1.044948197693321,0.18181806898431752,4.398956411557808,4.13188539617092,-1.935388363082466,-0.478904048541666,-1.7269725091380717,-2.6103094127881477,3,right
7.9110000000000005,-0.44567648421258743,1.0127637371071798,0.1965649272472487,4.39920516055367,4.132170926132326,-1.934462400599469,-0.48559214273988777,-1.7347905393555103,-2.636336515635437,3,right
7.914,-0.4228920115657866,0.9828454370321829,0.2096582442467385,4.396235837586275,4.12041945334078,-1.9705899937859193,-0.48203674266956303,-1.7303631795277048,-2.6222808763649894,3,right
7.915,-0.39988076141623435,0.9550345678447043,0.22012071650601917,4.399857375350287,4.134478933015318,-1.927347281777454,-0.4827578061850296,-1.7317543382548681,-2.6255301414966183,3,right
7.92,-0.37899572121614744,0.929821083051656,0.22758058516546276,4.3969403456256515,4.123551978564649,-1.9609839873057928,-0.48384553482918474,-1.7323237419395703,-2.629196060868919,3,right
7.921,-0.36057927134222745,0.9062494404926758,0.2335647947781211,4.3984591140209535,4.129455247456045,-1.9428273060819377,-0.4820835863517371,-1.7308371760212737,-2.6228018320744817,3,right
7.9239999999999995,-0.34451371843228845,0.885089774158105,0.24030389969765037,4.39856417399137,4.128007505595643,-1.9471482135582792,-0.4836390141635362,-1.732636558345859,-2.628839919695576,3,right
7.925,-0.332174694140432,0.8649348856517647,0.24606374966575248,4.396914953865324,4.126716622224839,-1.9514831078410717,-0.482786471718967,-1.7306397466380834,-2.624714789184397,3,right
7.928999999999999,-0.31903723477387985,0.8456948786046821,0.25168497814584895,4.399755099264915,4.128952901610129,-1.9439774662054756,-0.48280725402364794,-1.732979165102882,-2.62666378509535,3,right
7.93,-0.30636010063038505,0.8289055377040575,0.2597710928148254,4.396446580216937,4.126997605501915,-1.9507694301911245,-0.483454966179294,-1.730272178918118,-2.626389759639684,3,right
7.934,-0.29879330224776435,0.8164797112132243,0.26658735127835304,4.399011452277171,4.128231345934681,-1.9463505440135374,-0.4825162781218021,-1.7328716878496817,-2.6257183764005427,3,right
7.935,-0.291800002376303,0.8083283948551316,0.2737888317423306,4.398864692710065,4.127476836480932,-1.9486601251936693,-0.48322489832109994,-1.7315610803589299,-2.626752091168763,3,right
7.938,-0.2866104307440748,0.8007017886243436,0.28255311014869644,4.394811924641344,4.128373613613504,-1.9470870175533583,-0.483318859987854,-1.7298363417785179,-2.6256354322763666,3,right
7.939,-0.28524827449247814,0.7943935040364127,0.2900645937760654,4.404164898349075,4.126736004664124,-1.9494157373619696,-0.4819543255744547,-1.7362876159805207,-2.626818736451523,3,right
7.944,-0.28805941653353473,0.7903056041043021,0.2989325648192994,4.390233123334125,4.1292759274372255,-1.9456477902571927,-0.484709710314702,-1.7245818909821238,-2.625498839472266,3,right
7.945,-0.29669723936840947,0.7855189090639201,0.3045198328327403,4.405056876375334,4.126439872162921,-1.950054327581503,-0.4810911880973294,-1.739520950425597,-2.626879209780462,3,right
7.949,-0.3058968564905872,0.7829715060370138,0.30400923960009607,4.396490496238915,4.128079127415876,-1.9475132489150495,-0.4841452170679614,-1.7270855381210954,-2.625858449725297,3,right
7.95,-0.31671048840689786,0.779508108122239,0.3011142487537465,4.389171636420455,4.129768411961113,-1.9444545865664684,-0.484012465038646,-1.7273683264021806,-2.62568448381477,3,right
7.954,-0.3303252609669487,0.7742776482684972,0.2940303916746611,4.421289700838102,4.122727927600675,-1.9567146618418123,-0.47832314094701905,-1.7512253986005755,-2.6281682473510495,3,right
7.955,-0.34139003635466847,0.7720656430685772,0.28348530095039237,4.361719769060521,4.135771739483703,-1.9340363125900262,-0.4923774088264924,-1.6926607778384166,-2.622352526390587,3,right
7.957999999999999,-0.3513989993935231,0.7649621140827548,0.2693437212227914,4.438207995410828,4.118994115351898,-1.9632258642321478,-0.4690507458474837,-1.7897426036031274,-2.6318896923024573,3,right
7.959,-0.35738548275957166,0.7590731386620098,0.2581742215259669,4.374350077446995,4.133019396268752,-1.9388277110615422,-0.49982349953682076,-1.6616902807261615,-2.619343484170093,3,right
7.962999999999999,-0.3597852402050583,0.757680470184081,0.2545230548725075,4.376094683914718,4.132651329553818,-1.9393890721614435,-0.6289802769852308,-1.1242196596318825,-2.566561297373257,3,right
7.9639999999999995,-0.3659085630161212,0.7491247316553082,0.24518957547545314,4.497807720277759,4.105824776925356,-1.98631888444755,-0.6597407576247688,-0.9961330717187636,-2.554003015571603,3,right
7.9639999999999995,-0.3702826774945803,0.7357268547901378,0.23669687125885544,4.1986275347494075,4.171775387815954,-1.871056266908086,-0.636428002999444,-1.0932623718568333,-2.5635385851419126,3,right
7.968999999999999,-0.3726487187486186,0.714866789947621,0.24189323525880776,4.694696241106332,4.062396264568113,-2.062161241360921,-0.6504850907310633,-1.0346750074381599,-2.5577797559716755,3,right
7.971,-0.37578202436138347,0.6994401415289677,0.24683793763424142,4.0403707858072915,4.20670195560639,-1.8100852283294817,-0.6447563182437273,-1.058485062631467,-2.560113142913252,3,right
7.971,-0.3757893012098037,0.6951424714438558,0.2488639893723012,1.2940366059602646,4.812180503903211,-0.7516172388049542,-0.644711516705873,-1.0589197583890622,-2.56019121897482,3,right
7.974,-0.37871362737838576,0.6743715879525829,0.25462162781621156,0.6396876796351338,4.9565437781683785,-0.4995295171175629,-0.6476369819045885,-1.0462259127058866,-2.558866334097838,3,right
7.974,-0.38676708275634736,0.6459556161618625,0.25445445917075804,1.1357805553733078,4.847096843571259,-0.6906640326380671,-0.6441495577622749,-1.061473071843475,-2.560478038519184,3,right
7.978,-0.3961153060367719,0.6228933311132335,0.24810408986951707,0.8366143660503202,4.9130432760961895,-0.5753464683943761,-0.6468426616702716,-1.0495401502253263,-2.5591911128702804,3,right
7.979,-0.4068633487539034,0.5952353501782575,0.23950894918071283,0.9582342245564457,4.886383147021033,-0.6223574701263435,-0.6453787260666137,-1.0559440643346216,-2.559869802821168,3,right
7.982,-0.41790861298984217,0.5710869765031336,0.22844576718061432,0.9601733401355449,4.885630119031012,-0.6228264551451087,-0.6458155321005696,-1.0547455181910985,-2.5598522436676188,3,right
7.983,-0.43052493690801935,0.5511968766199045,0.22122113372316232,0.8960413192343701,4.900228877438005,-0.5984948474173419,-0.6459205872071817,-1.0523162080659403,-2.559291049990978,3,right
7.987,-0.4443996137196202,0.5306337112418092,0.21556762263145074,0.9727965193421305,4.882853306036429,-0.6277004573242306,-0.6457361989686525,-1.0565137236076299,-2.5602595111275326,3,right
7.9879999999999995,-0.4597540123968379,0.5135746260601609,0.20917649120137682,0.9131224903585103,4.896205045321046,-0.6048622986730212,-0.64576236749237,-1.0521966957331874,-2.559152662212447,3,right
7.992999999999999,-0.47695543626079107,0.49956539431268543,0.20325389048725312,0.9449857298787492,4.8895629825534215,-0.617460874409343,-0.6458238718673874,-1.055294934698343,-2.5600013830014317,3,right
7.994,-0.49267177376981236,0.488525716832852,0.19676532141408615,0.938443741854313,4.8897709400935225,-0.6139178342924466,-0.6460189996750012,-1.0545129703125484,-2.5599297532511827,3,right
7.997999999999999,-0.5086199440936514,0.48039204837520977,0.1919962966751946,0.9285637484934165,4.894074914569782,-0.611867370147806,-0.6450955069067381,-1.052132229094009,-2.558684605830019,3,right
7.999,-0.5250442305497903,0.47563656696397133,0.18787595243871197,0.9449731244212839,4.887849320306966,-0.6160370099531547,-0.6471009689446523,-1.0580093181376309,-2.5615725990786227,3,right
8.002,-0.5417536424013815,0.4748220191780191,0.18286973949848184,0.9298168055165967,4.893269655334018,-0.6119125099054378,-0.6440849280641381,-1.0493430509930994,-2.557274462248372,3,right
8.003,-0.5602538569274262,0.47612327601987087,0.17513346509033428,0.9390677474903535,4.891247801362514,-0.6154933291396436,-0.6473322709351672,-1.0584471024062776,-2.561842741158477,3,right
8.007,-0.5787940342480422,0.4807075430688652,0.16584754117373757,0.9374964045297589,4.887739493020856,-0.6117027279044618,-0.6454565389854077,-1.0531850961637437,-2.5592038670996153,3,right
8.008,-0.5965109005151252,0.48852742523804443,0.15752968986707652,0.9318441068023775,4.897795894253182,-0.6168022056006601,-0.6437671984636121,-1.0489482002149217,-2.556955725887514,3,right
8.012,-0.6126511900589338,0.498319993405911,0.14373119884563992,0.9424897228773961,4.882304876688843,-0.6100483274801813,-0.6510662056050036,-1.067878663553159,-2.5668270324741087,3,right
8.014,-0.6261751765067638,0.5067990279184564,0.12475088402555892,0.930729571484278,4.898910210527244,-0.617088934356502,-0.6375353916642446,-1.0327520465623503,-2.5485210001484386,3,right
8.017000000000001,-0.6355760360504573,0.5122878304116651,0.11073442486738164,0.9381748266626517,4.889170815682121,-0.6132720622668364,-0.6549149219306811,-1.0778322963320786,-2.5720221384813042,3,right
8.017999999999999,-0.6430158440456434,0.5177070587035032,0.10391761254096529,0.9413701416627379,4.881490467303313,-0.6087381806124128,-0.6404038434920807,-1.0402072623741025,-2.5524066613617937,3,right
8.022,-0.6475207027731189,0.5191707031204131,0.10199146172351,0.9221122404802028,4.916275894847946,-0.6265445551428362,-0.6407869324050843,-1.041259532883092,-2.5529329225514923,3,right
8.023,-0.6461811327844377,0.5172071103510232,0.10462211303327708,0.9587766022746569,4.851552332792814,-0.5938902765860232,-0.6684939118343096,-1.1128630139066684,-2.590341114161822,3,right
8.027000000000001,-0.644754053534909,0.5164103862513806,0.10617403489705857,0.9114864789235649,4.934711347456889,-0.635737022148507,-0.6004035853644605,-0.936841560457523,-2.498409688119438,3,right
8.027999999999999,-0.6424451968488989,0.5123701045879245,0.10459225321507622,0.9510494658444515,4.865261313987995,-0.6008353897593097,-0.7132977158976411,-1.2286947775839672,-2.6508240869874706,3,right
8.032,-0.6384393083341129,0.5067237335188055,0.10477518786150321,0.9496553556122271,4.867227909466882,-0.6016503533496655,-0.564392413903358,-0.8437454695904515,-2.4498029525896037,3,right
8.032,-0.6365458566794844,0.5058411126055063,0.10396513891486057,0.8752847220458928,4.9993815523891145,-0.6686247947469897,0.06069334467995233,0.7719463097592434,-1.6058906014985086,3,right
8.033,-0.630490221463947,0.5031067708318124,0.1009296149778039,1.0584527588583497,4.674451569734584,-0.5041639282018986,0.20959596987242138,1.1568916153979871,-1.4048903020143524,3,right
8.037,-0.6204379988183913,0.4911822956247824,0.09868374850214967,0.7546626458053141,5.213240067245385,-0.7768064847477116,0.09670333828027934,0.8650485416554425,-1.5572815888913767,3,right
8.038,-0.6159707496627875,0.48260520445048133,0.0976839216320251,1.1553591286330351,4.5025659099479185,-0.41719703514814055,0.16479971508797764,1.0410510519399945,-1.4653436082883187,3,right
8.039,-0.6135021180655742,0.4805110387883533,0.09783785311479959,2.8370534734986284,1.52003011450848,1.0924918135677975,0.1370729264467116,0.9694756553109357,-1.5028224117508626,3,right
8.042,-0.6059362385963092,0.47286548002422435,0.09382096444157341,3.237716328085905,0.8093804203304543,1.4521194281992456,0.1367256435464952,0.9683913161904489,-1.5031939621381527,3,right
8.043,-0.5991867090940723,0.46706878211516445,0.08835005757939238,2.9339320229986865,1.3480903033649252,1.1794510142601924,0.1511908405822356,1.0060396251346475,-1.4838025350795485,3,right
8.046,-0.5959758454153046,0.4639343830011142,0.08851726258958939,3.117222197163151,1.0233349602817379,1.3439263808050226,0.13385018175038324,0.9609645604191562,-1.5070777854740247,3,right
8.048,-0.5908384354373806,0.4567027239116222,0.09115829387769385,3.042507605958177,1.1551956090079138,1.2769718282997136,0.1473768827707197,0.9960362698521092,-1.4888743838074672,3,right
8.051,-0.5835922165809628,0.4529655898855266,0.09429532068358454,3.0417044060766316,1.1575382284297433,1.276083806078748,0.14001532465603106,0.9772227247110429,-1.4989277629187971,3,right
8.052,-0.5779155506161839,0.45198981090737705,0.09567873208819389,3.0805395648374363,1.0877527202316415,1.3111144203246141,0.1418559766807268,0.981291782413544,-1.49607264506823,3,right
8.056000000000001,-0.5734529488390414,0.4504623330012365,0.09375452506948562,3.0338250432404514,1.17099139867579,1.2691089695176503,0.1434994768810483,0.9867244702419401,-1.4944912364227259,3,right
8.056000000000001,-0.5693999103687146,0.4492522985637444,0.08915803263694269,3.0705180335307594,1.1067058718355676,1.3018879296070989,0.14050689906529282,0.9775367714749991,-1.497749404138664,3,right
8.061,-0.5670043112576797,0.4473052794338125,0.0821576847707513,3.0501276062252183,1.14033435040936,1.284088331833033,0.14336499292136234,0.9860818188721936,-1.4945141741804948,3,right
8.062999999999999,-0.5644825806520819,0.44560560494841167,0.07698980963883881,3.055873066307105,1.1345081492793962,1.2883775854741129,0.14125417884701716,0.9806361168526188,-1.4973692393555587,3,right
8.066,-0.5639760543504486,0.444393820665393,0.07243343757806772,3.0595476945843245,1.1226371586039732,1.2927424493664295,0.1427091914313521,0.982249882653864,-1.4942488690445672,3,right
8.067,-0.5649709118292361,0.4426017351128741,0.06553763872174803,3.05175297558666,1.140729327762379,1.2848949807938435,0.14148798081962888,0.9839998899761263,-1.4985396860383946,3,right
8.07,-0.5612691992809895,0.4389167816557987,0.059613436786050425,3.06022638635001,1.1257400669863014,1.2924928482784597,0.14280593189042573,0.9800869524618155,-1.4928186314745058,3,right
8.071,-0.5565574354664204,0.4333293890152612,0.05711698298768755,3.0522771237261193,1.1319164723888981,1.2869387521737714,0.14149475944383688,0.9845005689609376,-1.498790996493275,3,right
8.075,-0.5518254278437078,0.4256874980950666,0.05845263537332432,3.0599626211675277,1.1363896593255145,1.290223477933552,0.1421042641964681,0.9815675896734944,-1.4955396939221772,3,right
8.076,-0.5440125421831966,0.41580581687099366,0.0618069042838517,3.05218803327534,1.123170190887826,1.2886366368331479,0.14336340815619375,0.9809360020019399,-1.491747691625688,3,right
8.08,-0.5350673585391531,0.4050105799845474,0.06877537869510193,3.0591255632075267,1.1396580456070016,1.2891157470711108,0.139053656424041,0.9868043492779855,-1.5067247465286122,3,right
8.082,-0.5246322515023718,0.3934510637001477,0.08220929690799925,3.0560224275130197,1.128524546999487,1.2896519259654815,0.14682957618024772,0.9753616027004928,-1.4792408977909595,3,right
8.086,-0.5143637309986495,0.38271923938731944,0.09686211507961812,3.0505323559753323,1.1239231212716594,1.287586556485039,0.13689324249178242,0.9901796851008792,-1.514467405852972,3,right
8.087,-0.5055806845266104,0.3750613676568484,0.10836549026401575,3.069366369032232,1.1532784252425559,1.2919624287090632,0.1451694041835254,0.9777589710078108,-1.4850826956566219,3,right
8.091000000000001,-0.4963031216026456,0.3675348824099739,0.11375470900929321,3.035665041776367,1.096660291871717,1.2849491331473308,0.14501973359253195,0.978287973944889,-1.4857819188619432,3,right
8.091000000000001,-0.4906104125894889,0.3603668613008835,0.11214864214417092,3.0784977417972588,1.170147007323727,1.2935574062018103,0.12899384129458558,1.0013370209700745,-1.5421329058923585,3,right
8.095,-0.4895384546899343,0.35683271196957134,0.1065160987157446,3.042924396564409,1.1084623954995156,1.2865386411527584,0.1682968934929934,0.9444600917861156,-1.4037378478926423,3,right
8.096,-0.48242627441202657,0.3538051675867243,0.09660485535934085,3.0436024720056984,1.1106495461776287,1.2864699048308341,0.10315193721426891,1.038820512784544,-1.6331798959430814,3,right
8.1,-0.4740046759343309,0.35145294034885244,0.09120360096390137,3.1121918821454595,1.2268943343413228,1.3005413755545558,0.18907727752627254,0.9143576562946711,-1.3305435919116588,3,right
8.1,-0.4723070318558341,0.35036222387543936,0.09132599783392967,2.9440177432490726,0.9404271484640806,1.2663296640366424,0.5498198044548687,0.3921347349471529,-0.0602600213991667,3,right
8.102,-0.46560685221400255,0.34900287559729887,0.0835167590559201,3.2227051861933784,1.4156902281900647,1.3229129194804758,0.6357535130882008,0.26769443280259414,0.24238292608092976,3,right
8.105,-0.4595955163277839,0.3494596596718783,0.0764703589066045,2.8551717131591188,0.7887130898524656,1.2483312459301215,0.5706039880998629,0.3620388736808034,0.012955830592912658,3,right
8.106,-0.4586514553820331,0.35058180323166044,0.07493346208266582,1.3123273570284606,-1.8424124361790586,0.9350681606026761,0.6098877098554566,0.3051228318540909,0.1512697331897757,3,right
8.107000000000001,-0.45026538429724117,0.3527142336396949,0.06650741330306517,0.944807144115811,-2.469398896119608,0.8604949120419052,0.5939246028846707,0.328314324538466,0.09510426255398281,3,right
8.11,-0.4393345662551288,0.3548159808619886,0.05649196588970831,1.2234344213027692,-1.9940935215400855,0.917039979063253,0.5936617223763418,0.32857792403849173,0.09411388529878506,3,right
8.111,-0.42843827778571153,0.3546838269261612,0.0517258135481301,1.0554171186747534,-2.2806709584992344,0.8829277785289392,0.6020826862511462,0.31650485043933996,0.12382957909042874,3,right
8.113999999999999,-0.41631378867900337,0.3563932630355445,0.04948246906504769,1.1237195355591854,-2.1642244232836267,0.8968171867482095,0.5920240412213961,0.33101784329054784,0.08838149214703364,3,right
8.115,-0.4081807046218676,0.3588772223044917,0.047721461897798884,1.1247915922517744,-2.1623142283960672,0.8969983525927736,0.5998121031608918,0.319630438772058,0.11576037472988923,3,right
8.119,-0.40155228753619054,0.35917152205574476,0.04234520133012956,1.0888323110411742,-2.223727540480871,0.8897348277415151,0.5957010093686721,0.3259365795664247,0.10143576039073005,3,right
8.12,-0.39578091060504283,0.3589836601882137,0.033521737996732436,1.131825793895492,-2.150353848943846,0.898444997178457,0.5964812968467941,0.3241971979632988,0.10392117715364715,3,right
8.125,-0.3923341607270605,0.3580473250826326,0.0271727419925712,1.0984701758142674,-2.207215006042553,0.8916511138786668,0.5978244449271648,0.3230012802500236,0.1089723813393289,3,right
8.126,-0.3894974885127256,0.35523809825457003,0.024576910818501857,1.1162096715558536,-2.177090290921207,0.8953326000539352,0.5957100305808025,0.3254654585448892,0.10127050348680179,3,right
8.13,-0.38931651855628424,0.35196157666773853,0.022535813408016844,1.1125998818456777,-2.183013493479671,0.8944599637688534,0.5975232503419028,0.322834217937377,0.10765409185079948,3,right
8.131,-0.3923328944828419,0.35034519270529907,0.02106673442040365,1.1071911077294398,-2.192526205553257,0.8935337594186343,0.5966405660356893,0.32522302870350284,0.10501843290401407,3,right
8.134,-0.39676014689221106,0.34875672362069415,0.01914335298335492,1.1159660859761984,-2.1773300122557657,0.8951780437234771,0.5964098939692926,0.3230188230102541,0.10312522417430253,3,right
8.136000000000001,-0.4040746761202292,0.34552079620849063,0.014916016427646445,1.1082090037023005,-2.1905617937952613,0.8936028857753604,0.5975456649113723,0.3251609783103467,0.10873766556803566,3,right
8.139,-0.4122103936358824,0.34392246417176975,0.008750827076486518,1.112481551124719,-2.183689406579979,0.8947220348243385,0.5960452769896727,0.3232966886387003,0.10173430096122676,3,right
8.14,-0.4185360524817958,0.3459200650882538,-0.0008134094830489309,1.1123309226301208,-2.1829951910963326,0.8941152529121766,0.5971062894969871,0.3240927344615868,0.1064652483356214,3,right
8.144,-0.42592180434317795,0.34824594525670216,-0.008073454791789792,1.1091700126458173,-2.189805907730425,0.8943333620790537,0.5974175402619183,0.3256531930330802,0.10841560926670338,3,right
8.144,-0.4373931674575788,0.34938939596118,-0.007360820697844289,1.1137783929728722,-2.1804326957679088,0.894352257372969,0.5949423218545468,0.3204365918945531,0.09595402313319633,3,right
8.149,-0.4513294129222023,0.353450998836935,-0.007475434600037591,1.1102852450386167,-2.1872650055690035,0.8941729074850151,0.5997954238455523,0.3297299736552506,0.11999209875430006,3,right
8.15,-0.46462146433106777,0.35916014675515023,-0.014648792197022927,1.109855784141152,-2.188750396667853,0.8945418228902711,0.5934693784060521,0.3179338685182301,0.0887910333008533,3,right
8.154,-0.47631346647556627,0.3621698071282567,-0.024938960376479954,1.1164980778587708,-2.174125076673495,0.8938930500820077,0.5987901093213135,0.32772425552043927,0.11498170158460971,3,right
8.155,-0.4855378726625784,0.36643298932526036,-0.03698316833242134,1.1030549614004528,-2.203166547205422,0.8948681906873271,0.5985858169514819,0.32754770479636,0.11405228612688748,3,right
8.158999999999999,-0.49452544887170974,0.37197694626651456,-0.05045402025874564,1.1207214508388275,-2.1651855701027483,0.8936979618662095,0.588601024095232,0.3086438311710092,0.06469765972041813,3,right
8.16,-0.5033085029952002,0.3758652674984899,-0.058997341358488206,1.1058024419181223,-2.1971837818445463,0.894640805198055,0.613228656135697,0.3549799955611045,0.18632612410844512,3,right
8.164,-0.5130597610024243,0.37974317449866746,-0.06211197639694729,1.1064674398032337,-2.195873048092194,0.894667320044543,0.572363713308575,0.27819960829770823,-0.015463215069567667,3,right
8.165,-0.5190223105777599,0.38092982598791847,-0.06304107670321413,1.1342194541722628,-2.1360433264195757,0.8927307104733537,0.6262737785841198,0.37945679790365805,0.2507447692208047,3,right
8.17,-0.5193960016175032,0.3812670330544595,-0.06297445172938751,1.0656323803421777,-2.283736993241845,0.8974163030260063,0.8525280502567083,0.8045419867293473,1.3679503492324576,3,right
8.171,-0.5341877249977518,0.3854008083679251,-0.06844572686239464,1.179492477701145,-2.03861749524931,0.88967423151888,0.9064330762135225,0.905801314020894,1.6341813573140849,3,right
8.171,-0.5498271824851211,0.38866473020347814,-0.0732396211724131,1.0292638645373444,-2.362008785234864,0.8998777863667498,0.8655698581804262,0.8290264931643758,1.4323343614714408,3,right
8.174,-0.5536049616857391,0.38891531156824194,-0.07524310271264176,0.3988344894825976,-3.7191947738143005,0.942721089132255,0.8902127665078328,0.8753338694079338,1.5540693403841872,3,right
8.175,-0.5708775997664832,0.39018375448835646,-0.08554819905563714,0.24860430697250097,-4.042586322665466,0.9529268642733411,0.8801826695445469,0.8564952038242234,1.5045582218344886,3,right
8.175,-0.5915718724179241,0.39171184754155985,-0.09665001990420863,0.36249668491910525,-3.7974143967735325,0.9451885994483873,0.8800576712697499,0.8562167871817699,1.5038057707880708,3,right
8.177999999999999,-0.6031006581549104,0.3893380619062381,-0.1035339433116999,0.2938019322833606,-3.9452926660439163,0.9498512862974499,0.8852792679086345,0.8661224561811969,1.5298706050801005,3,right
8.179,-0.6130286632028487,0.3863110555475542,-0.10963426450778824,0.3217716360991779,-3.885083077942793,0.947967983866074,0.879033756983052,0.8542499919138018,1.4986350868425067,3,right
8.183,-0.6188975748667327,0.3842895561747165,-0.11374122436062276,0.32211743992880415,-3.884335280505576,0.9479100907106336,0.8838858722451434,0.8635049453199701,1.5229846947755115,3,right
8.184,-0.6220745942798953,0.38154851942999535,-0.11319639046014313,0.30753664564496214,-3.9157300264706087,0.9489497082738656,0.8812637048071719,0.8585183790489214,1.509869096373918,3,right
8.187999999999999,-0.6241763375505263,0.38223165949834637,-0.105859087442997,0.3250155414224255,-3.878095572092764,0.9477134026187923,0.8819144755318962,0.859620780188845,1.5127501848618974,3,right
8.187999999999999,-0.6264692962141836,0.3834590184687944,-0.10071765598304162,0.31137631441139274,-3.907459940973328,0.9486608066683804,0.8824664804030143,0.8610454321290996,1.5165450772655618,3,right
8.192,-0.6269082341068307,0.38367786677943694,-0.09898731983929979,0.3188180940333021,-3.8914484990531952,0.9481983822498743,0.8815100294400741,0.8585803212178971,1.509981478948465,3,right
8.193,-0.6252608894808154,0.38563181566766846,-0.09552593230946736,0.3169115546650476,-3.895526235330213,0.9481899923294699,0.8823328407566096,0.8609464887398407,1.5163025599285775,3,right
8.199,-0.62262842905086,0.38689053257909845,-0.09519319372326596,0.3153399522009587,-3.89895502145837,0.9485341675910582,0.8818213935731486,0.8593314464071569,1.5119770836128024,3,right
8.2,-0.6176754667799123,0.38882017919219136,-0.09825327554387459,0.31825233819579873,-3.8926295999692164,0.9480450111785912,0.8821574969089038,0.8599571951744795,1.513621086088238,3,right
8.203,-0.6147012807355032,0.388811150101981,-0.10150748289806164,0.3154541016526115,-3.898697633296554,0.9484672840054096,0.8816889950100673,0.8602908525284512,1.5146463754508876,3,right
8.205,-0.6096337119932497,0.3869332821953707,-0.10326605273919257,0.31758483328875886,-3.8941122661363132,0.948324828509487,0.88257617598763,0.8591832607147067,1.5113967316985475,3,right
8.208,-0.6033012722194666,0.3890986125047079,-0.10297882490486998,0.3159573572638024,-3.8975308766856513,0.9480039150411524,0.8812098310138783,0.8607554377790505,1.5160335720064535,3,right
8.208,-0.6012818115745804,0.3930882275950527,-0.10110265227927419,0.3175534181229672,-3.8942871833867208,0.9488812289302394,0.8827231686896472,0.8591858437179927,1.5113704231954812,3,right
8.212,-0.5979968288863593,0.3974738833753727,-0.09795437384804392,0.31568125536813463,-3.8980321205610093,0.9475380539218348,0.8818491021921964,0.860093813096267,1.5140675194175068,3,right
8.213,-0.5953181874394089,0.400863337155025,-0.09477110790176196,0.3175816129819431,-3.894243598490951,0.9489761576515543,0.8809708939049679,0.8606409134540551,1.5157731642685364,3,right
8.217,-0.5950488328017884,0.40195809964697626,-0.09051351724200446,0.3166344818965158,-3.8961107807007207,0.9481353874190612,0.8846535392428883,0.8579417759950225,1.5075073625086075,3,right
8.218,-0.5950333660994513,0.40398044733184874,-0.08239039348331181,0.31507298826838714,-3.8993146840717468,0.9474598970598005,0.8778313884254805,0.8629622939788089,1.522875617871318,3,right
8.222999999999999,-0.5986747622908963,0.4052265244257302,-0.07182878376290724,0.3206852781258871,-3.8879025505414218,0.9504963533227365,0.8866025279126015,0.856535521981657,1.5031941150507082,3,right
8.224,-0.605916873510681,0.40470832004585666,-0.06399795140154223,0.31049987453155775,-3.908595461174582,0.9448512376729075,0.8792740582183253,0.861891613483931,1.5196008438733197,3,right
8.227,-0.6143835080142783,0.40591565355389175,-0.058678701906904364,0.32352550891726917,-3.8821304466551165,0.9521023050375009,0.8794619283519391,0.8617227443783284,1.5190937281041565,3,right
8.228,-0.6220407200172418,0.406815950823224,-0.0553915066331592,0.31267657755646516,-3.9041819232119495,0.9460486776324476,0.8934855280495853,0.8516133703017299,1.4880823423385414,3,right
8.232000000000001,-0.6251896312639706,0.4082861293981177,-0.055820587207949475,0.31288087039835843,-3.903749341227059,0.9462147522065,0.8590219693000063,0.8764779786006804,1.5643496468419973,3,right
8.232999999999999,-0.6242553828722971,0.41405650802909255,-0.05638587929673739,0.33384917765560024,-3.861162754386246,0.9577478949673962,0.9161686367333788,0.8352543704369342,1.4379027095290042,3,right
8.237,-0.6236732641931511,0.4179237661995354,-0.05586647334606161,0.28242797753579485,-3.9656417476188226,0.929400719188342,0.8407865540554207,0.8896210633723605,1.6046672871385481,3,right
8.238,-0.6204950519847394,0.4202801864000398,-0.05585002247385351,0.36764344102139723,-3.792460780831024,0.9763986675485054,0.5244146625840089,1.1177815465608623,2.304539592661225,3,right
8.238,-0.6146762820649521,0.4240046440608093,-0.05574222819003664,0.2552667014254659,-4.020881563688406,0.9144130491680285,0.4490302784789535,1.1721392942667634,2.4712803961771765,3,right
8.242,-0.6112324256405661,0.4264090265206376,-0.055372545774519444,-0.21677423139284382,-4.979912052086609,0.6541843976432391,0.5061722687335102,1.1309278662264788,2.3448666431926317,3,right
8.243,-0.6024157749766583,0.43451823742551166,-0.054894706727007164,-0.3291267825736881,-5.208353345911771,0.5922069810731969,0.4717350433364828,1.1557872934149778,2.4211172989466894,3,right
8.243,-0.5855144921104412,0.4479222380467538,-0.05376286504893517,-0.24393748415784597,-5.035150178611863,0.6391960563265561,0.4856980470484078,1.1456640857944889,2.390075081953176,3,right
8.248,-0.5692266592995929,0.46086056477065773,-0.05205402307777684,-0.2953686561180474,-5.139620763545674,0.610845503021282,0.48598133339248645,1.1455371869572835,2.3896707076605637,3,right
8.249,-0.552435559268861,0.47250448954502605,-0.05014523713916132,-0.2743135015554268,-5.097107722415452,0.6224080862934404,0.4785440481857822,1.1508233290223457,2.405900978854266,3,right
8.251,-0.532323974592777,0.47996714210583324,-0.045959965950406745,-0.27429604613103215,-5.096516853788067,0.6225108194130383,0.4873885813608059,1.1444784201847313,2.3864316018378293,3,right
8.252,-0.5152483677418057,0.4862841023674516,-0.04030694605178247,-0.28487711098234153,-5.11879531630739,0.6165480079807947,0.48059968768637223,1.149440943325671,2.401640709032652,3,right
8.255,-0.500204120754095,0.4921191758841784,-0.03406225054695056,-0.27211819021082945,-5.09210422737784,0.6237086451120408,0.4840697086327838,1.1467237562273256,2.393348576560346,3,right
8.256,-0.48358748984691335,0.49793991670203996,-0.023755548594604138,-0.2821885592243857,-5.11289476619638,0.6181025418912559,0.4836190456532143,1.1474188716154479,2.395407082844456,3,right
8.261000000000001,-0.47175543652666324,0.5057957128935044,-0.0153905497184613,-0.2763471300234993,-5.101676578162749,0.6212166667310084,0.48215442891622706,1.1480208004854524,2.3973440574198266,3,right
8.262,-0.46423315700569123,0.5128648915505625,-0.014741558258532333,-0.2786465564032314,-5.104255407754563,0.620291010517919,0.4842373027596867,1.1468809296040172,2.3937752441954627,3,right
8.266,-0.4569673080263911,0.5237392765573075,-0.01694520296521874,-0.2783223056820493,-5.107199800682365,0.6198812716185742,0.4826488490557076,1.1480296952482516,2.397298542740505,3,right
8.267000000000001,-0.45091089988818683,0.538250021373841,-0.023813354515558927,-0.2779821383545453,-5.102089077315716,0.6207904076971604,0.4829999281375717,1.1471042638314646,2.3945936924769144,3,right
8.271,-0.44758590944472487,0.5501312754863703,-0.03672814345376704,-0.27861061253755554,-5.10688842637016,0.6198689274632101,0.4841692480656511,1.1477973164007884,2.3964133647945607,3,right
