time,gFx,gFy,gFz,ax,ay,az,wx,wy,wz,subject_number,foot
8.577,0.001432859633029,1.105811413654942,0.6908565741842488,0.09769042821366697,-2.473617699076845,1.5825772155011555,-0.4946835830581834,-0.4865960415452253,-0.6757805693712605,1,left
8.581,0.0988970082234766,1.2668345476793983,0.9131739865841872,-0.11615866563869182,-2.6782291000362757,1.778351088765215,-0.5452652650065535,-0.39166343170418083,-0.6101565671628388,1,left
8.582,0.18529424923808993,1.3989489135222364,1.04975812433779,0.16590045872779755,-2.408351937099544,1.5201336410386812,-0.5246584911978431,-0.43027929096195305,-0.6367477466237759,1,left
8.586,0.21362558872741064,1.4309811279950855,1.0702477945810185,1.349711351978242,-1.2751606426517217,0.4363558177628477,-0.5244124677711277,-0.4308389887718158,-0.6373172916180392,1,left
8.587,0.3383145084274598,1.5463670922022814,1.0628324302215224,1.6317299319779548,-1.005242499719551,0.17817481146825337,-0.5351575469545058,-0.4105725660131354,-0.6231132616610813,1,left
8.587,0.5244930410918309,1.6956688884693667,0.926343441557839,1.4179363147760804,-1.2099007728991578,0.3738977574213355,-0.5222531402085961,-0.43484098487318873,-0.6399825875928374,1,left
8.591000000000001,0.6926136089579142,1.7604717858513663,0.6162764431231756,1.5468702489065307,-1.0864536844571204,0.2558611968727622,-0.5323524369506116,-0.4159486592957228,-0.62706892878843,1,left
8.593,0.8657894374067142,1.7977438433293709,0.2500358126869765,1.4943992843389424,-1.136686126151113,0.3038995464939014,-0.5268126935465739,-0.42612294881246204,-0.6336013151669917,1,left
8.593,1.0058667500577694,1.7846525189859639,-0.1274613455995362,1.4937136608493486,-1.1373991696244827,0.304521355706488,-0.528246442989697,-0.42382068348922436,-0.6328820388157711,1,left
8.599,1.094966341208044,1.739116628959289,-0.46171960621109576,1.521100169181163,-1.1110422863107128,0.27946000187699915,-0.5294477400587669,-0.42108829941930137,-0.6299193125761514,1,left
8.6,1.1382423627325826,1.690101560842502,-0.7158467071164349,1.4883266187320756,-1.1426262590304246,0.3094494540159089,-0.5271469839718066,-0.42578770051700937,-0.634025628545068,1,left
8.602,1.1323591096419154,1.6264082614974633,-0.8751114221245981,1.5138101625360088,-1.1180174782622148,0.2861334339763447,-0.5294840453896282,-0.4214026830681127,-0.630999385587002,1,left
8.603,1.0934015268605428,1.5604070611982395,-0.9186712410958868,1.500049190738364,-1.1312847899010434,0.2987256321192433,-0.5275686662547643,-0.4242969362124719,-0.6314151598286099,1,left
8.607999999999999,1.0339120219190678,1.490975497811439,-0.8621240619377625,1.5033685503853356,-1.1282897748442327,0.29567482540670564,-0.5290531580963049,-0.4231139046959993,-0.6342227956921925,1,left
8.609,0.9669543364872247,1.425169269586424,-0.7298964202946265,1.5065309970757814,-1.1246690364861052,0.292817747075182,-0.5278573789222074,-0.42296618265212793,-0.6287109166518539,1,left
8.613,0.8943373142061577,1.37022586609663,-0.5523936832335753,1.501054049741808,-1.1309367219077255,0.2977663587882954,-0.528759264074701,-0.423823433958639,-0.6350709206766514,1,left
8.613,0.8153248110965452,1.3319462604944192,-0.3615245882556611,1.5059394610474592,-1.125001438553952,0.2933741100658691,-0.5284881376055981,-0.4228589118991789,-0.6310714619697408,1,left
8.618,0.727847267891722,1.320174309686878,-0.17400463799830995,1.5028006109193237,-1.1290097283749176,0.2961836372096854,-0.527477296414222,-0.42348636780796156,-0.6286331888171419,1,left
8.619,0.6223005139816985,1.340928114372165,0.0008033614142616274,1.5045551375178665,-1.1273397125326654,0.2945770083904409,-0.5304674583702657,-0.4234316619964603,-0.6411663036896651,1,left
8.624,0.5045282615636267,1.398924581208839,0.14614087047368995,1.502962951675093,-1.1269997700538954,0.29615302517175096,-0.5252609492411022,-0.4228974058813114,-0.6174836707659699,1,left
8.624,0.38769036356694064,1.4798023414242445,0.254060884212109,1.5056410826353737,-1.1286950631064188,0.29343032420241005,-0.5318242503616954,-0.4238123233334732,-0.6480517263248999,1,left
8.628,0.2797232297549731,1.576989403819486,0.3323542714496258,1.5014221827197796,-1.1263810609609455,0.2976971184642716,-0.5263964785916888,-0.4229520981129412,-0.6224652512923703,1,left
8.629,0.18784386330966812,1.669765569479739,0.38651632413758275,1.506216167279797,-1.1285623769154411,0.29287674822945814,-0.5264638834495947,-0.4231236497704239,-0.6232604621372206,1,left
8.633,0.11359569802306378,1.7421550271120732,0.4254696650893365,1.5034488431263513,-1.1273024803212295,0.2956602261126787,-0.5370250122485334,-0.42436922483961903,-0.6717754296561433,1,left
8.633,0.05628760627709268,1.7929770917683259,0.45968092090943546,1.5004080759610856,-1.1268340962612604,0.2986573791407192,-0.5111820509301228,-0.4210939648630463,-0.5523834604416349,1,left
8.638,0.022049345226190377,1.778942182127195,0.49221445718433976,1.5128689712237189,-1.129674613438103,0.2863112401642892,-0.5539874436233262,-0.42660427882905383,-0.750396178066037,1,left
8.638,0.009460617059472733,1.7456888272938529,0.5106758133787865,1.4898009785087056,-1.1243761098367406,0.3091717611283711,-0.49754312485256996,-0.419308520775703,-0.4891990073265139,1,left
8.642000000000001,0.011341129982114055,1.7254095927865714,0.5145543044444909,1.5194773269391884,-1.1311177485354045,0.2797646565923728,-0.260556665126212,-0.38879054415667874,0.607099343956361,1,left
8.644,0.036448338940118744,1.6327122060566466,0.5208741768849894,1.494675096712591,-1.1255276054268486,0.3043426071654137,-0.20411509253195964,-0.38149441755306296,0.868297887679213,1,left
8.644,0.09657845227525147,1.4615102300572727,0.5164892729284946,1.49528223245342,-1.1257117249471962,0.3037296764586863,-0.24690827498832968,-0.38702017147614665,0.6702727377907055,1,left
8.647,0.17476642874770887,1.2733556742444656,0.49776358028413886,1.5428580287269509,-1.1361687747415954,0.2566208917992542,-0.22109690860753523,-0.38369178677821303,0.7897029158433251,1,left
8.647,0.24649023601482456,1.0898364604421262,0.480677182875883,1.4259649350071166,-1.1104839653926022,0.3723827487516965,-0.23160042739192502,-0.3850458736466644,0.7411129397899763,1,left
8.652000000000001,0.30927050478194107,0.8783218878540803,0.45842165877943536,1.619791543354263,-1.1530146204336211,0.1804229481315084,-0.23174671633126823,-0.38505732432169826,0.7404257173088409,1,left
8.652999999999999,0.3430054063045369,0.7378074531173524,0.4421000257976583,1.3641110328586286,-1.0969842823856952,0.4336490633269674,-0.22624192521775244,-0.384367906258498,0.7659001129708467,1,left
8.656,0.3486820099218777,0.7031400125692383,0.43949491376703687,0.2907997058370234,-0.8613825156660817,1.4965359098812172,-0.2328368487861422,-0.38518611288419535,0.7353902616675414,1,left
8.657,0.3647599128167647,0.5834594502662621,0.42876248633293923,0.03508182625097333,-0.805461579558856,1.749812925986411,-0.22770039342820403,-0.3845573279280292,0.7591469479549376,1,left
8.658,0.37641075790258127,0.42762905424525866,0.4154473419592895,0.22896167331653128,-0.8478616366100267,1.5577863318719978,-0.23047054026181213,-0.3848996365564078,0.7463353483427139,1,left
8.663,0.3699730737438936,0.33288126329417017,0.4129828226453699,0.1120385912284666,-0.8221751359329863,1.6735687631270346,-0.22983663496384674,-0.38478834977335996,0.7492775808107042,1,left
8.664,0.35983639947627455,0.240505558960699,0.41658992030890507,0.15957379950201106,-0.8329354935949711,1.626557058979964,-0.2291043988683391,-0.38479004769811287,0.7526318819995159,1,left
8.668,0.33838364545610855,0.17685132001870768,0.42562150024098905,0.16033074670816005,-0.8324073347706227,1.6256780628786873,-0.23037212310124722,-0.3847872208048211,0.7468266019980896,1,left
8.669,0.31379118480541723,0.13903283194054122,0.43324735065173436,0.1352636923778196,-0.8278862308781574,1.650683281246931,-0.2291835935067736,-0.3848384956647604,0.7522504233863208,1,left
8.672,0.2933855913201173,0.11602861871776785,0.43642998413171663,0.16526623948304878,-0.8335036489333832,1.6207935155331994,-0.2299799291621052,-0.3847778823493093,0.7486264718801041,1,left
8.673,0.2704546429109371,0.1216233246133265,0.4394791924335177,0.14194145153835577,-0.8288010567734438,1.6439685045589538,-0.22963016641425676,-0.38473148372179,0.750245343186686,1,left
8.676,0.251666206427456,0.1426900987576042,0.4322533898050164,0.154389647697452,-0.8323515621982582,1.6317920906763292,-0.22963706064370942,-0.3850352963800554,0.7501002326594115,1,left
8.677,0.24311656740987067,0.18394472152767408,0.40901074205607163,0.15184980127861034,-0.829156772224118,1.6338214967949973,-0.2298137138031,-0.3843654079811275,0.7495418027273522,1,left
8.68,0.2455107622114096,0.23764779309596212,0.3742802124618515,0.14795826000754436,-0.8328439602167005,1.6385114168929675,-0.22959484115012646,-0.3853708301012497,0.7501681725360478,1,left
8.681000000000001,0.2617530132924104,0.2983390180155806,0.32975232273109367,0.15440915842761282,-0.8286892062901378,1.631097648023227,-0.22976886366001703,-0.38429108175630616,0.7497746452064823,1,left
8.686,0.29587239807227617,0.3644190410046396,0.27898300996664815,0.1484552787566013,-0.8318220230605533,1.6378109346478484,-0.22966774266518208,-0.38491530999866175,0.7500052344873975,1,left
8.687000000000001,0.3475495992342982,0.42389124317927773,0.22434306346584587,0.15207078363690535,-0.8326558512163883,1.6342379788383081,-0.22971182989157016,-0.38546907460019675,0.7495947289612859,1,left
8.691,0.4086314626059262,0.47775554532532105,0.16823400622952675,0.1515127942339918,-0.8242952820968379,1.6332741428580846,-0.22968862695963227,-0.38306473814855957,0.750601854017009,1,left
8.692,0.4757618980249587,0.5234535033150918,0.11551437775656721,0.14917483159478392,-0.8426063503936051,1.6390543488209213,-0.22972338838369488,-0.3875236647646537,0.7487740637882127,1,left
8.696,0.5534386093455368,0.5554736123600488,0.06739303180930603,0.15352818191845086,-0.8154815823837559,1.629574622227437,-0.22966764278916924,-0.3817956388873638,0.7511707409692587,1,left
8.697000000000001,0.6310486127048213,0.5783375261774826,0.02175725537453379,0.14872603407569718,-0.8443591171730415,1.6398395248954514,-0.2297194596554375,-0.38657998293428897,0.7491480056278846,1,left
8.7,0.710909307439768,0.5884642908352282,-0.02147213360653922,0.15175555618664582,-0.8277339306054572,1.6336568969898007,-0.22973116169800106,-0.38644842664691714,0.7491361605236544,1,left
8.701,0.7933253542434626,0.5865880016925296,-0.06075622239475273,0.15310542605284921,-0.8131123518238792,1.6295742737318752,-0.22957510679539633,-0.37732724371430404,0.7532723190552201,1,left
8.706,0.8620544991035036,0.5786628065074058,-0.09414244733762903,0.14513209963227167,-0.8766216702304469,1.6494821723388844,-0.22994965950925395,-0.39975242878137374,0.743159893266566,1,left
8.708,0.9401666281598857,0.5594388580788396,-0.11268154380935105,0.16029206248739428,-0.7589367513695614,1.612195221422019,-0.22932652674597456,-0.36256441216630064,0.7599273629567652,1,left
8.711,0.9959292924643025,0.5451593876674306,-0.11562977331641214,0.14074145470128185,-0.910019871511992,1.6601550284747766,-0.2301528746479093,-0.41162159438260965,0.7377998244122095,1,left
8.712,1.0096394510131437,0.5397831571160538,-0.11471750868833194,0.15709843062944578,-0.7839123244798945,1.620083990649749,-0.23364520518142276,-0.6174751163085759,0.6447042679131127,1,left
8.713,1.0623381734198225,0.5279301266323555,-0.10573283431878663,0.1565228988731637,-0.7872591114977376,1.6212932578490884,-0.23447829568743983,-0.6665429399785688,0.6225609239545715,1,left
8.717,1.132097481415392,0.5180955677794599,-0.08696597379986526,0.1257663767639497,-1.0279041153213417,1.6972880668153052,-0.23384530703541995,-0.6293430766615304,0.6393573536765574,1,left
8.718,1.1778982358836037,0.5163429777239965,-0.07177624283959093,0.20152133732652094,-0.43654085976291795,1.5103587044010924,-0.2342261557298007,-0.6517650635548582,0.6292094247477376,1,left
8.72,1.2275555095000792,0.5385088594118265,-0.05842314938052304,0.0758716606372903,-1.4169754092764617,1.8203286671393841,-0.23407559951527473,-0.6426796373366375,0.6333754607217056,1,left
8.721,1.2520538506267282,0.5647127042511074,-0.048828220421203855,0.24161184552630735,-0.12386006630758678,1.4114840137187787,-0.23406297773902368,-0.6424695198191606,0.6333571861897751,1,left
8.725,1.2553023021713252,0.5730270408413547,-0.04743103574090874,0.9370888830924444,5.304410078645932,-0.3044939106705323,-0.23415967215213018,-0.6473678066819014,0.6312973479105608,1,left
8.725,1.2660565199533673,0.6133691315549912,-0.04133315385974691,1.1028284527585432,6.597344889224484,-0.7133049139618359,-0.2340467436147276,-0.6415246911902652,0.6337888348286148,1,left
8.726,1.2619499103917624,0.6810033948376821,-0.03176084627624534,0.9771717461739747,5.617194288680867,-0.40337963969815277,-0.23412938112627285,-0.6460362970826787,0.631812680541683,1,left
8.73,1.2404405146058446,0.7454980618472591,-0.0216267969724254,1.0529542176030908,6.208317921586659,-0.5902935166203431,-0.23410181476612388,-0.6437238297549743,0.6329860059418926,1,left
8.731,1.2080685898959953,0.819033682017967,-0.005808635633590532,1.0221392933302016,5.967672164029523,-0.5142384126588764,-0.23406798127143527,-0.6439696863546727,0.6324660813708253,1,left
8.735,1.1574526428983534,0.8956953506798877,0.008947577759725777,1.021651879466376,5.964759343562257,-0.5131992766742972,-0.2341533280428723,-0.6451312484307532,0.6326434245302752,1,left
8.735,1.0936129666863543,0.9729653991328785,0.01916389112787512,1.03791256955197,6.089898519008843,-0.5529940359548959,-0.23404308008500477,-0.6433848421124773,0.6325719387668096,1,left
8.738999999999999,1.0227528820441383,1.0482138568786532,0.02285598686119052,1.0184202959018887,5.940212094163559,-0.5053497486851873,-0.2341336196620738,-0.6449325307175917,0.6325582022031105,1,left
8.741,0.948422189462933,1.1118279071365205,0.02170996868091445,1.0336248149863034,6.056491370191864,-0.542425525685249,-0.23412251722753072,-0.6442426772729859,0.6328763656737124,1,left
8.745,0.8759823698296323,1.1618115706538452,0.02528989634583243,1.0254407226872302,5.993633071678517,-0.5224195885577384,-0.2339921934897964,-0.6435970633634911,0.6318954440323483,1,left
8.745,0.807024528266099,1.1922172670109652,0.03873673141389205,1.0271931291072978,6.009340642048123,-0.527115454693905,-0.23430172251044679,-0.6457654174621226,0.6338234124296964,1,left
8.752,0.7427603783668453,1.2013924125815758,0.06828202741617329,1.0296859516299899,6.022287845370478,-0.5320726122328547,-0.23383720645516248,-0.642364659762932,0.6310225399155772,1,left
8.753,0.687058891382704,1.1903763689881068,0.11639739955835965,1.025375902483797,5.999842352968763,-0.5234909111324835,-0.23433281721727456,-0.6460208682399047,0.6339941477051163,1,left
8.754,0.6440224193527719,1.1622565262119724,0.17748695788633828,1.0295856850025142,6.018974415497135,-0.5313610206455526,-0.23404580904101585,-0.6438594289703995,0.632299443974188,1,left
8.755,0.6169918949313684,1.1240136491030017,0.2434880518732385,1.0266739309423107,6.007185361676833,-0.5261825506320319,-0.2338019161488306,-0.6422382512949708,0.6307286486748217,1,left
8.759,0.6073991176077287,1.0813331942357793,0.3054739287816063,1.0276955056911068,6.015255712002494,-0.5287203401760154,-0.23487478909041792,-0.6497295669978631,0.6374229410177757,1,left
8.76,0.6128073590359724,1.0407569336285363,0.3593113735908837,1.0287400561748785,6.003121094132828,-0.5275783554130968,-0.23288443857298818,-0.6357652133913652,0.6250411592428126,1,left
8.764,0.6271837922157666,1.0035792691327532,0.40228036143772994,1.0257883201591251,6.0264438142294505,-0.5287957105557441,-0.23543990307067045,-0.6537123660939926,0.6409322011847911,1,left
8.765,0.6422339271770363,0.9695978285339392,0.43163100646998087,1.0300607252309635,5.990628213739116,-0.5266556007285041,-0.23330712178514107,-0.6387223650109615,0.6276692324325537,1,left
8.769,0.6530368806052633,0.9365439014466181,0.4495644258017927,1.025679989080405,6.030165164535301,-0.5293667690482526,-0.2333635123004041,-0.6391537846160618,0.6280153020058312,1,left
8.769,0.6598925208917645,0.9030210897359423,0.4586276113692136,1.0282136790038359,6.007337250868639,-0.5278042400912721,-0.23743312779512066,-0.6676531020147517,0.653345992932896,1,left
8.774,0.6632047727983601,0.8736971875251146,0.46240645766869276,1.0300097322220854,5.98464100947588,-0.5255069575865314,-0.2274335733160367,-0.5975743288844558,0.5911028759566301,1,left
8.775,0.6663362974536852,0.8410949880045777,0.468402497659871,1.0216453450451946,6.08005851856397,-0.5343322317254742,-0.24401071807238534,-0.71377690905344,0.6942988427401509,1,left
8.779,0.6693088694782561,0.8175847733666535,0.47468404210074355,1.037183872841935,5.9033051098262135,-0.5180253064386238,-0.2221482562093245,-0.560504465687305,0.5581867037283729,1,left
8.779,0.669672276187887,0.8133816712958699,0.4766210292885634,1.0172617433344477,6.130509647515881,-0.5390448834087693,-0.13035031940115438,0.08280472818425869,-0.013187542531589852,1,left
8.78,0.6734556173945427,0.7985915892674812,0.4810450174864169,1.0338821110160659,5.940722003171484,-0.5214581339363269,-0.10849243326835714,0.23607632823678834,-0.14929698635130323,1,left
8.785,0.6779059466546726,0.7816378348193032,0.4877914109745794,1.0333845291847612,5.9455235781612625,-0.5218401106564038,-0.12506462755579195,0.1198746607337491,-0.0461039381999076,1,left
8.786,0.6776565046984138,0.7799001792652687,0.49500156858665584,1.0018835060755746,6.3088071612383025,-0.555786816377916,-0.11506318958454737,0.18995377997610025,-0.10834815498333512,1,left
8.789,0.6734888190925252,0.7802590407410352,0.505097676164201,1.0793536471030785,5.416176129363384,-0.47241390512655385,-0.11914922806611683,0.1614514378967145,-0.08300781040755414,1,left
8.789,0.6631026234168897,0.7889428107395596,0.5084504663439685,0.950898425086558,6.896198611786286,-0.6106654302196121,-0.1191702833080679,0.16102652751858876,-0.08268252460352972,1,left
8.794,0.6558549026196571,0.7982574074120861,0.505583734167713,1.1203271377016826,4.943996742593216,-0.42828164756794807,-0.11708816494884772,0.17600719469446707,-0.09591568345946495,1,left
8.795,0.6537763028242055,0.7994655956910264,0.5044407203595259,1.8311777884851042,-3.251761235458843,0.33737130823194955,-0.11959318060168331,0.15806933786019103,-0.08005433868036436,1,left
8.796,0.6483074113548005,0.8059767103400337,0.493095480238359,2.0005825411733067,-5.20410828388067,0.5197883703197198,-0.11762459623530065,0.17202967816002063,-0.09242328304347427,1,left
8.798,0.6450170923709706,0.813236586314863,0.4667608985537305,1.8721895243144413,-3.7237899531677474,0.381500549540125,-0.1187407938590389,0.16453038531276884,-0.08570354386511231,1,left
8.799,0.6490859534211426,0.8179106655810979,0.4363097580552935,1.9495410126455845,-4.616852785027978,0.4648607918614607,-0.11835734659092406,0.16617726872126387,-0.08735640409332371,1,left
8.802999999999999,0.6599138213010156,0.8232655745087265,0.40161329349477337,1.9182189401795489,-4.253076875822083,0.43103140857811106,-0.11831079276552803,0.16829441075451235,-0.08890965339960442,1,left
8.804,0.6728704388142026,0.8246898365080064,0.3627401866312372,1.9175133197252716,-4.248657615388673,0.4303955845901169,-0.11851130967623397,0.16469257159036177,-0.08611170202827058,1,left
8.808,0.6870809236079722,0.8249243579686771,0.32693226714827733,1.9342902665227042,-4.4384391091063495,0.44834743347687367,-0.11828205078911908,0.1680499752469577,-0.08877404311361409,1,left
8.809,0.7061739025829633,0.8265117964941758,0.2930039204144719,1.9143892227486548,-4.210563659012334,0.426962872185367,-0.11859368992476464,0.16588125366117007,-0.08684503379020617,1,left
8.814,0.7244766976062541,0.8258848523910277,0.2612999623460133,1.9295899558000285,-4.388863815441567,0.4434299309148215,-0.11802675985995865,0.16660727795272048,-0.0880825891635527,1,left
8.815,0.7410200628001631,0.8227931671572317,0.2331914478051145,1.921964864108681,-4.291125341011557,0.43491194929039523,-0.11901342340178031,0.16711333268198564,-0.08717758079084748,1,left
8.818,0.7574819005507513,0.8188495151737936,0.20552911596483014,1.9226824414401682,-4.316314126547837,0.4362088748530165,-0.11761547804574696,0.1658398694041623,-0.08806707683848225,1,left
8.818999999999999,0.7691009112638891,0.8141932066165276,0.18108055210280422,1.9263346775401793,-4.33767654097335,0.43950093908147464,-0.11909196618070673,0.16729391120252535,-0.08720463544409407,1,left
8.824,0.7772154107293745,0.8086720836623078,0.1580711789985341,1.9213667725329364,-4.296933711347409,0.43466109720233526,-0.11826054968773497,0.16630133318934645,-0.08756750295607765,1,left
8.825,0.780896225968979,0.8023598950604269,0.13792833270260757,1.9249336626319598,-4.338198823476752,0.4385071220495888,-0.1174362644703101,0.1662009716095473,-0.08855126058088102,1,left
8.828,0.7774581224380097,0.7952076403954339,0.12595757164242036,1.9246775997615289,-4.304592913489373,0.4372851803094279,-0.12086771843920757,0.16787631868446634,-0.08534411125387564,1,left
8.829,0.770983954551574,0.7899295070887586,0.11671356500583595,1.9208323872281168,-4.330316719949506,0.4353057654617095,-0.1145357205187691,0.1645464095109312,-0.09109361043955955,1,left
8.833,0.7586552730965329,0.7896142340654673,0.11324813008402185,1.928129032258235,-4.309929303999919,0.4399394104143167,-0.12265935011322118,0.16887202061045578,-0.08375539834692175,1,left
8.834,0.7416387233776023,0.7918909926596918,0.11358513162086006,1.9197795954897996,-4.325080557048826,0.43438470835112575,-0.11587996464961464,0.1652408355230382,-0.08986377875815825,1,left
8.837,0.7233800519994796,0.7961196567911261,0.11040675452950019,1.924987104035809,-4.320739244930154,0.43800679220238947,-0.11605298022509841,0.16541616960605515,-0.0897673307168457,1,left
8.839,0.6998195907483111,0.8019740165827249,0.11116669501287021,1.9282845460435247,-4.303277045516479,0.43984649060782943,-0.1290148466030505,0.17208664034738014,-0.077893701528536,1,left
8.842,0.6760473726034444,0.8083433761673968,0.1118804596733977,1.9116548531066906,-4.3543884175610525,0.42942856632025356,-0.09716795000713263,0.15560133348997793,-0.1069966581545782,1,left
8.843,0.6511870350039224,0.8208667147697792,0.10824633238732825,1.9430146519173959,-4.265581549380773,0.44930812444235696,-0.1499692410947614,0.18295708684792084,-0.05876324691337982,1,left
8.847999999999999,0.632120929307471,0.8314807648235762,0.10762197937336378,1.9025590857545631,-4.377459855679579,0.4235797839922513,-0.0803236720363314,0.14687452652823046,-0.12238162303683045,1,left
8.85,0.6268846279330815,0.8336699935252738,0.10749843882780122,1.9364140380761126,-4.284966498360741,0.4451450913105216,0.21202234985684215,-0.004478491172109064,-0.3895154073563859,1,left
8.851,0.6101966193644448,0.8454289472390937,0.10397450967412117,1.9353721111867748,-4.286072544929976,0.4444281388144631,0.28167250830050516,-0.04054797838621,-0.45314340811031023,1,left
8.853,0.5844352375380666,0.8615429528151586,0.0994914628484104,1.8711506272416882,-4.466157329836644,0.40366132075033717,0.2288647266276021,-0.013207871950070614,-0.4048992048058705,1,left
8.854,0.5658752583828679,0.8740332742334174,0.09615970306372387,2.0291830097947816,-4.025548450444937,0.5040551205840337,0.2607151369060008,-0.029693235794716832,-0.43399954282725917,1,left
8.857000000000001,0.5418712833317205,0.9004851866254071,0.09122737473498099,1.7670857718072481,-4.755341466014087,0.3375227767573481,0.24775860417773649,-0.022986820122738456,-0.4221576888690243,1,left
8.857000000000001,0.5264765125161333,0.921889302459856,0.08549592556511257,2.112820765740145,-3.7930166444788362,0.5572073775142992,0.24756667223085738,-0.02289615667999822,-0.4219910243056717,1,left
8.863999999999999,0.5222632300538718,0.9269582187674368,0.08329238972122432,3.5638756807162153,0.2473150002483362,1.479190470367773,0.25437913695907194,-0.026400072107144554,-0.4282015606227436,1,left
8.865,0.5031350454223049,0.9485123083244051,0.08002584138951414,3.909625248038423,1.2096086833653625,1.698885386980694,0.24621512603204826,-0.022208526536165608,-0.4207597742318796,1,left
8.865,0.4787510191230353,0.9831090374181394,0.07320790183322329,3.6474981583674,0.4800117957994027,1.5323267075050258,0.2525783667247132,-0.025466973813297683,-0.4265573962922088,1,left
8.867,0.45893527223382424,1.0108306982150617,0.06434359615920815,3.805574430778907,0.9200581277972284,1.6327700111506267,0.24914974496352596,-0.023707877021153647,-0.42343127779824397,1,left
8.867,0.43786663673248916,1.0372659148943444,0.051803681942708804,3.7413024026296595,0.7410477527642059,1.591929407219847,0.24991012785562455,-0.02413199026208887,-0.4241404063764874,1,left
8.872,0.41731508480049073,1.0618534014760694,0.03814504522411005,3.7403005205214566,0.7384224049907118,1.5912971878310982,0.25088274401491434,-0.02453609623328609,-0.4249841942789444,1,left
8.873,0.39582563737738374,1.0761444780723668,0.025923069575501213,3.774153064648626,0.8324597064998435,1.6128002714459098,0.24919995705365913,-0.023836781358101508,-0.4235233435367121,1,left
8.876,0.38054356683733026,1.081810038264943,0.014586344114505326,3.733631186667701,0.719836409247205,1.5870598637068163,0.25081167441396834,-0.024459967022135248,-0.4249021657327522,1,left
8.877,0.3728593331479615,1.080189133434665,0.0029168044369900243,3.765147189241617,0.8074931700893462,1.607082097687366,0.24971345103247214,-0.02405990721680973,-0.4239733355930986,1,left
8.882,0.36362765200256597,1.0641005170149267,-0.012403303494156779,3.748280438333861,0.7604123445253139,1.596357774683848,0.25014392510595956,-0.0242842197400091,-0.4243674714992248,1,left
8.883,0.36086926938500374,1.0379389181667262,-0.02906835104335396,3.7518357164081424,0.7707245336922401,1.5986395183281752,0.25035002563638764,-0.02407825266645877,-0.4244170957561015,1,left
8.886000000000001,0.36740161166717134,1.0067687432712056,-0.04146686899393891,3.7568861128987217,0.7840738044647966,1.6018093201009735,0.24964175063337193,-0.024426211191859643,-0.4240866168666969,1,left
8.887,0.37433988790145745,0.9656519939879374,-0.045203244892925,3.748424518763652,0.7613848948010757,1.5964810984316635,0.2506431880529738,-0.02387851470353969,-0.42452938511147553,1,left
8.891,0.3851727404021833,0.9219647463616341,-0.03724294350293289,3.756266253766273,0.7825262556236933,1.6014251313978258,0.24964884608001378,-0.024500246379278938,-0.4241241268046687,1,left
8.892000000000001,0.4015236363831974,0.8806371115793337,-0.025539160088888208,3.7513767550057944,0.7689093244161262,1.5983181182123065,0.25022405454263785,-0.024141466970770097,-0.4243591118096055,1,left
8.896,0.4199148207486072,0.8401136947908633,-0.01541218992175839,3.752516332601382,0.7733531960332647,1.5991137160497686,0.25055799745784896,-0.02374800253640213,-0.4244131256281021,1,left
8.897,0.4411392993510064,0.8069568792506947,-0.005173228359563366,3.7547958759342484,0.7767947803951436,1.600398405703476,0.2488871883055812,-0.025360855807405096,-0.42398416424809976,1,left
8.901,0.4648196896612995,0.7796228948335784,-0.0038901422293717482,3.7502258694370934,0.7684033558216024,1.5977391699463714,0.25199586782995254,-0.022375384859738036,-0.4247895009298214,1,left
8.901,0.4928755631247781,0.7568673814643362,-0.01352669471319741,3.75531492086731,0.7779557700285755,1.6007117145480174,0.24801793113749593,-0.026215654255633384,-0.42376743063213973,1,left
8.908,0.5250190392306975,0.7426177085187433,-0.023877434554415995,3.75203119810266,0.7714784015068393,1.5987766320709738,0.25133232493686464,-0.023006729558093596,-0.42461551129679204,1,left
8.908999999999999,0.5558583654537093,0.734633585266329,-0.03625523487620824,3.750902437310509,0.770638998263437,1.5981881725993532,0.25122662934940787,-0.02308403129460528,-0.424575998852476,1,left
8.91,0.5828197240760483,0.7300066525302099,-0.04972541417237608,3.758626998100146,0.7820787330733666,1.602529159251711,0.24497691281067277,-0.029242256416959534,-0.42302775884489396,1,left
8.911,0.6071263356337062,0.7276936747458592,-0.05846889355037746,3.7438003666180486,0.7594616294040415,1.5941617481285029,0.2603487739935144,-0.014114164993829609,-0.4268468066271284,1,left
8.916,0.6277118450651743,0.7348781516469802,-0.06831145201621985,3.76294934631868,0.7888180079239745,1.6049748051924873,0.23486420822384255,-0.03919695719061012,-0.4205145658894307,1,left
8.917,0.6382778328785866,0.742278967534587,-0.07672679659696381,3.746920138858625,0.7641819390141473,1.5959226756838683,0.2684729389412731,-0.006111410363534169,-0.4288638515788483,1,left
8.918,0.6391809706429421,0.7448147860362819,-0.07913044849499348,3.7475224175912025,0.7653384261928671,1.5962694377396067,0.40952882205088137,0.13281040340699496,-0.46383790370723377,1,left
8.921,0.6404275735480289,0.7602827797074607,-0.08375529440905577,3.777528070949076,0.8107091029968496,1.6131875663768813,0.4431318865657927,0.16590023314242552,-0.4721799298620784,1,left
8.922,0.6412804078838237,0.7846866616773414,-0.09002206388482639,3.7035854049319052,0.6986155721773155,1.5714932570870503,0.41765349191565415,0.14080813241860607,-0.46586277228287154,1,left
8.925,0.6334473856123687,0.8198806081949531,-0.09171886823586564,3.8262281136255885,0.8846218635343179,1.6406431730168043,0.43302754070954347,0.1559510193541243,-0.46965920267485367,1,left
8.926,0.62679119493138,0.8474237915351781,-0.09153434460263651,3.6644697640437025,0.6392670465557325,1.5494472242375572,0.42675778564427724,0.14977402938424317,-0.4681376954705214,1,left
8.93,0.6236962149438802,0.8546669750736033,-0.0898003805256831,2.98561779595118,-0.3898849447863122,1.1666406237590383,0.42669540397596895,0.14971429778464757,-0.46807592870555215,1,left
8.931000000000001,0.6113756537282022,0.8872487987918471,-0.08012011159050325,2.8238994090979235,-0.6351822683936992,1.0754837138711042,0.4299475350586514,0.15291628845051336,-0.46892768389581385,1,left
8.932,0.5959072507335441,0.9328162836381857,-0.06343772926526695,2.9464988810323876,-0.44923816479053663,1.1445913865453803,0.4260317989445572,0.14906011757104076,-0.46793722174020563,1,left
8.935,0.5793978264512103,0.9652925427025695,-0.044793523860503476,2.872539769553175,-0.561355411539192,1.102881033297161,0.42911326718361087,0.15209480101008604,-0.46866342881025014,1,left
8.936,0.5586787612555442,1.000610021056555,-0.026736108902592086,2.902688846398295,-0.5157782789965184,1.1199392258672831,0.4273899080896554,0.1503980135153481,-0.4683582354043051,1,left
8.94,0.5373274107957392,1.0288229751444646,-0.009295321535491674,2.902982533003768,-0.5150659276038606,1.119984594891922,0.42789460365504106,0.1508939675812847,-0.46827317342608993,1,left
8.941,0.5076032885346314,1.0514808145771195,0.010371413236281062,2.8873957827447483,-0.5390652598055916,1.1113646240875772,0.4281747733229957,0.15117145918093844,-0.4686004137788336,1,left
8.945,0.47215412303317933,1.0724806833009075,0.028361133449552156,2.906104169027449,-0.5103428583620275,1.1217473134745934,0.427543369575433,0.15054827904362295,-0.4682384383818357,1,left
8.945,0.4399717900847795,1.0849176133935172,0.0414289662838597,2.8914676424416257,-0.5326865608490153,1.1135656496502797,0.42825423046135447,0.15124832590821738,-0.46841290514449063,1,left
8.95,0.4067917824925372,1.095014112787291,0.05351991026014232,2.8995705528958853,-0.520702081038674,1.1182760791402826,0.4275460919809454,0.15055365990102598,-0.46861823919812695,1,left
8.951,0.3741429177978803,1.0992222650783159,0.06994567702189787,2.897223035973461,-0.5232956698893934,1.1164973383515902,0.428285354494535,0.15127541971540653,-0.4679310582624492,1,left
8.955,0.34564419393383183,1.0962254031577232,0.09239878383512701,2.8960392734077893,-0.5267508379938273,1.1166132757036338,0.4274920726267041,0.15050359799941632,-0.4690329157212109,1,left
8.956,0.3192457691283061,1.090792647323614,0.1168546264784503,2.898551155406631,-0.52090706553042,1.117068582455719,0.42822444485086597,0.15121479257638248,-0.467830279174824,1,left
8.959,0.298164516759197,1.0810001396754307,0.14235616339749751,2.8960357801967582,-0.5263423142659399,1.1164163925912156,0.4278772664650381,0.15087868222663037,-0.46854393588073995,1,left
8.959,0.28435568251753063,1.0690929400032065,0.16701932552012547,2.898333662787563,-0.5228731591384932,1.1177185487062196,0.42734172314889485,0.15035635385869053,-0.46910072391185287,1,left
8.964,0.27457361915423717,1.0580417352101479,0.18847856102158644,2.89566032069839,-0.5239179835930006,1.1147905620958145,0.429249614695628,0.1522131881200589,-0.4665562802111032,1,left
8.965,0.267751412449493,1.0450847538722101,0.20786185895595832,2.899484558285762,-0.5249936413343983,1.120193938646616,0.4258144311589328,0.14887106670101827,-0.47130033642609714,1,left
8.969,0.26327631487905223,1.0296401757101405,0.22107999984780652,2.894326857246563,-0.5225600467560152,1.1124412429658923,0.43018819480554593,0.15312596421705016,-0.46519970398387367,1,left
8.97,0.25933051032545684,1.015758923838026,0.22585792982737263,2.8997229183570257,-0.5253081977663323,1.1206487830618175,0.42655255568852196,0.1495892108882957,-0.4702964597984747,1,left
8.974,0.25574637878935486,1.0000478394024666,0.22425940941,2.896766552059799,-0.5234768758092109,1.1159964428978666,0.426626512511662,0.14966113409357107,-0.47015308388066374,1,left
8.975,0.2544663720230976,0.9806356930279274,0.22015006733608483,2.89341908907423,-0.5231055715984432,1.111538898084493,0.43362391332832284,0.1564683211948767,-0.4604491554657542,1,left
8.98,0.25386183645669347,0.9618318115509403,0.2143974830315672,2.9067605559233916,-0.5267058970199758,1.1303164999424058,0.41646065540885363,0.1397715242764413,-0.48430778637600574,1,left
8.981,0.25234980920566236,0.9390841003297153,0.20106626890657706,2.8822556970246698,-0.5196733939307372,1.0956239338128748,0.4449045591610476,0.1674425699278313,-0.44474656299732085,1,left
8.984,0.25219131234588676,0.9234395359615395,0.19125259702439318,2.913666812582396,-0.5287821966891784,1.140143218355489,0.4073922657767222,0.13094933119968952,-0.4969282314754241,1,left
8.985,0.2525512597143332,0.9187280634442213,0.19002014294255187,2.8874668080852084,-0.5211472261662917,1.102985204993248,0.2499076987625452,-0.022249387200508706,-0.7159717141308145,1,left
8.986,0.2544684289005458,0.903923494126399,0.1795500618387033,2.8880888537129277,-0.5214739066467616,1.1039520260080997,0.21239591389368467,-0.05874183145106712,-0.7681541609655667,1,left
8.99,0.2577001943568372,0.8868432396359742,0.16759338489062636,2.938328315642993,-0.5356344806666375,1.174939057403387,0.24083750751481375,-0.031074386445671925,-0.7285894032579157,1,left
8.991,0.26392430936053324,0.8770022993473567,0.15861088072250906,2.8149527072733247,-0.5006919022139644,1.0005012383231942,0.22368027413606387,-0.04776180133268783,-0.7524572497158917,1,left
8.995,0.2791151000293103,0.8710402534172716,0.1413680726976155,3.0194825134226413,-0.5586592084064892,1.2897243845028403,0.23066664838580164,-0.04097177889972667,-0.7427364556747824,1,left
8.996,0.2901852871675315,0.8713379214669685,0.13190142673168226,2.749718386352386,-0.48220456598558487,0.9082301903294213,0.23075574464297804,-0.04087629559861942,-0.7426162348553724,1,left
8.999,0.2918699595176546,0.8723670925872566,0.13083066065239093,1.617180888722557,-0.1613870451460464,-0.6930222943194463,0.22710527238271283,-0.04443612367905189,-0.747690305713135,1,left
9.0,0.3002489771307747,0.8770414335863272,0.12330977101678012,1.3474190894765294,-0.08495935443737805,-1.0745418550631682,0.23148522082504394,-0.04017162085305604,-0.7415991288650796,1,left
9.0,0.3117142565401373,0.8853931798169805,0.11611687006962035,1.5519463813339898,-0.14289748744447822,-0.7852912590266616,0.22806331236579333,-0.0434930549181517,-0.7463634942622708,1,left
9.003,0.31975442860585135,0.8960800206616055,0.10992200900819615,1.4285697999848195,-0.10794386527736809,-0.9597186572384797,0.2299291549141559,-0.041701687316378064,-0.7437547327154086,1,left
9.004,0.3308027195669379,0.913025376350329,0.0989151256498455,1.4788176473085617,-0.12220106930960609,-0.8888226276483414,0.22946585959411983,-0.04211156707053375,-0.7444220239312418,1,left
9.008,0.34149701618535133,0.9285942448596085,0.0847265713971643,1.4794216715021915,-0.12231977384873483,-0.8876599810172816,0.22903007693626926,-0.042585545814971926,-0.7450001678268454,1,left
9.009,0.34724770591357434,0.9433831638799474,0.06960676365606056,1.4532474894322855,-0.11498305008135487,-0.9250987875872231,0.22983307961746693,-0.041764506134965754,-0.7439055438010951,1,left
9.013,0.3527554794105454,0.9585466788225223,0.054322757829387565,1.4846329120428634,-0.12379479703789133,-0.8802998678649241,0.2290404282312379,-0.04253521851604141,-0.7450083903750524,1,left
9.014,0.3593022589832965,0.9695352834753913,0.04025970915839987,1.4601391005456863,-0.11689058738774182,-0.9151131354896969,0.22964859618081748,-0.04201763347257044,-0.7441206742203959,1,left
9.019,0.3624864374333997,0.9792016777521909,0.02885062689335579,1.4735027192447252,-0.12074572306503482,-0.8965755580366417,0.22924008744176372,-0.04224587150082132,-0.7447843062868971,1,left
9.019,0.3633532587744365,0.987661448727958,0.01796585839502432,1.4700840522045124,-0.11955313197773192,-0.900259743621616,0.22950388656937287,-0.0422415694667241,-0.7442750070856881,1,left
9.023,0.3644054723692971,0.9947218499213889,0.006752685316053054,1.467250286501047,-0.11913718967594154,-0.9062447127677464,0.22934916183556553,-0.0421231432226435,-0.7446420515889332,1,left
9.023,0.363122136276848,0.9983164257435853,-0.005963049089056326,1.472495978298089,-0.12014803054540503,-0.8964015981360499,0.22935372721188513,-0.042274035362369365,-0.7445478667677595,1,left
9.027999999999999,0.3579690250480835,0.9976667384603342,-0.020666499564011447,1.4674580209781716,-0.1190999280916758,-0.9054584089003077,0.2296214052889317,-0.04214773088203193,-0.7441001417992663,1,left
9.03,0.35242225517706904,0.9965492274550012,-0.03465857191149964,1.4712836432200356,-0.12018695565394136,-0.9000662949710694,0.22893653031614467,-0.04222752745940622,-0.7453834373938224,1,left
9.033,0.3499896993902808,0.9909585643117033,-0.0474354162976805,1.4683873600376076,-0.11866291412918904,-0.9005750123205521,0.23009162395303495,-0.042191262595529216,-0.7431632268117825,1,left
9.033999999999999,0.35023051234962227,0.9808648492895599,-0.055702970046838836,1.4711941610510144,-0.12106624491128638,-0.9048023426301928,0.22864993823557145,-0.042197608725461445,-0.7459566558357134,1,left
9.038,0.3517608862715371,0.9699122201701985,-0.05826801578611179,1.4679200241537314,-0.11773927716611465,-0.8972049145264305,0.22983589790078696,-0.04220923092569612,-0.7436486370220168,1,left
9.039,0.34840482902424963,0.9538140846793163,-0.05589247685275102,1.4712401981274468,-0.12123797850104615,-0.9055445376180873,0.22983106320765778,-0.042182919254346044,-0.7436742057771651,1,left
9.044,0.34251964685612823,0.9361268512867202,-0.048413107917926856,1.4695903776831307,-0.1192921530391491,-0.9003458568587143,0.22749724389322817,-0.042229976508162285,-0.7481734689260348,1,left
9.045,0.33724902595486217,0.9213832256022996,-0.03716450385652867,1.4668380425961725,-0.11723902785645132,-0.8977463221904532,0.23319386382185925,-0.042151764472529815,-0.7371678086015605,1,left
9.048,0.3218203086661543,0.9063830529291346,-0.0195841484745155,1.4767061862814488,-0.1256098891731851,-0.9122040072212279,0.22376383050751902,-0.042267522204888205,-0.7553962560480459,1,left
9.048,0.31004415809279046,0.8983985015661811,-0.006894329344638804,1.45879869599114,-0.1101964517775768,-0.8848354170183927,0.2361960852795736,-0.04211958882129058,-0.7313592869241806,1,left
9.054,0.30497845845590044,0.8971565647784161,-0.0027162539415462117,1.4817044974661913,-0.12996398528048486,-0.9201037807066164,0.2884043908643459,-0.04148065921689259,-0.6304414620858427,1,left
9.055,0.28322570728900354,0.8924168033371956,0.010324712570731498,1.4626174435396329,-0.11346985225163247,-0.8906078646180201,0.30083425602253433,-0.041332489295629236,-0.6064027347563636,1,left
9.055,0.2558574500579165,0.8901423230613628,0.025075150700624597,1.4629968080992988,-0.11388056848906872,-0.8916037218283354,0.2914106439190789,-0.0414460040888225,-0.6246301945689592,1,left
9.057,0.23455574317848105,0.8933503219545467,0.03186729069170416,1.4998419845653825,-0.14545147797902727,-0.9472019306880817,0.29709466064035694,-0.04137674040959105,-0.6136354938370994,1,left
9.057,0.21264503138529106,0.8976218707476513,0.03556282965358661,1.4094430230699553,-0.06789352822677272,-0.8103123864823584,0.29478027520292266,-0.04140470150254022,-0.6181073442462179,1,left
9.064,0.1922984769756975,0.9016952931566604,0.033185437850700966,1.559286599845719,-0.19648110471799918,-1.0373461874741638,0.2947523384202083,-0.041407287410881205,-0.6181777971730997,1,left
9.065,0.1813886320196939,0.9022829461140874,0.028883758093819448,1.36164738329733,-0.026870891688068013,-0.7378791814891309,0.2959564403977609,-0.041387235889994545,-0.6158167102126217,1,left
9.067,0.17846990521579179,0.9011243381724094,0.029651671026029565,0.5318577727442708,0.6850668359361106,0.518783468421231,0.29451540205000243,-0.04141293202299304,-0.6186488863822073,1,left
9.068,0.1740333161685127,0.8988160407108625,0.03279379259554754,0.3342019935185415,0.8546900786634202,0.8182367028999161,0.2956354660962701,-0.04139095480760022,-0.6164381351266831,1,left
9.068,0.1745025573425047,0.8909715586798526,0.037189183528218046,0.48406348642595287,0.7260884011936464,0.5912178017118228,0.2950301087267859,-0.04140197530280822,-0.6176278392845775,1,left
9.073,0.18186923733571464,0.8800238587221949,0.04538196747190065,0.39367135312216056,0.8036410024096758,0.7281130130341417,0.29517939358850065,-0.04140748095894374,-0.6173778227383848,1,left
9.073,0.1892197444067046,0.8701847919769893,0.056821123992710464,0.43045706188122146,0.7721168278906451,0.6724653794599048,0.2953097515880592,-0.04138220637423504,-0.6170018994410782,1,left
9.076,0.19790949274860645,0.860029813644578,0.06996983679445627,0.4309643610855077,0.7716055374714226,0.6715758653910617,0.29508370009857426,-0.041425866818413544,-0.6176521179311023,1,left
9.077,0.20471864630815684,0.8514974161684431,0.08116877081386273,0.41169388895746617,0.7882438878737432,0.7009193072907283,0.29528028334749357,-0.04137320356284731,-0.6170105985753143,1,left
9.081,0.20728512893989184,0.8473556146358778,0.08646242407602864,0.43478231904471437,0.7683327259711595,0.6658027757021096,0.2951568393933629,-0.04141481722158134,-0.6174576426831195,1,left
9.081,0.2072027819479744,0.8454183818482943,0.09080799601313866,0.4167960606467588,0.7838081697748438,0.693105853857104,0.295234349166344,-0.041414216059324244,-0.6173096179610742,1,left
9.086,0.20569461635112016,0.8466436848727301,0.09505782989657059,0.42650730351622695,0.7755605668549033,0.6785177872276504,0.29513642229817694,-0.041340965870755274,-0.6171124076224092,1,left
9.087,0.20644001622479316,0.850810338264588,0.09502711234574165,0.42426025914182475,0.7772165104836379,0.681537314042832,0.2953178151688236,-0.04150892938041983,-0.6176450911731216,1,left
9.091000000000001,0.20977656446976706,0.8568720336750161,0.0946076620669687,0.42173987571398763,0.7798467712852516,0.6860123326139371,0.29503738102365573,-0.04125843696458258,-0.6168693892816643,1,left
9.091000000000001,0.21308416817240194,0.8651343398606013,0.0923963243334276,0.42612837004396764,0.775508016716792,0.6785608224310191,0.2953493881435584,-0.0415253459103643,-0.6176711188548419,1,left
9.096,0.21783297463924217,0.8731781532124654,0.08540712950103752,0.4220026342348348,0.7795048340340714,0.685450207209096,0.295169234364124,-0.041371074857125066,-0.6172075154965613,1,left
9.097000000000001,0.22272124917344083,0.8833533586303791,0.07680218481408062,0.42480157527382256,0.7771071998528681,0.6812165597168028,0.2949850374058121,-0.04123858516820594,-0.616864158059425,1,left
9.101,0.22462052779530056,0.8961178778658405,0.06629764116352557,0.42348625590626143,0.7773888033451688,0.6820218006801095,0.2957538023823474,-0.0418191866748677,-0.6184399431137395,1,left
9.102,0.2249430574781422,0.9080771817908937,0.05724045713498923,0.4236993416137783,0.7791416549410712,0.6844110961958538,0.29432993357107773,-0.04074230379546437,-0.6155137812656375,1,left
9.107000000000001,0.22531998387235916,0.9201631283167504,0.05264340031512808,0.4240503075537262,0.7759527219683375,0.6798339921853831,0.29616070696248165,-0.042125170402811454,-0.6192667124550227,1,left
9.107999999999999,0.22622639256476046,0.9305843884488556,0.04930579180644037,0.4235517625011169,0.7794591487275982,0.6849016451686212,0.2946311087658705,-0.04097051886126157,-0.6161353489669759,1,left
9.111,0.2215075273745779,0.939150018242751,0.04433483734657352,0.4240361484777281,0.7772642129333316,0.6816758833547778,0.2946696577695757,-0.041002214459254185,-0.6162267801712487,1,left
9.112,0.21279239268827638,0.9479488567813286,0.037636461119121875,0.42348058747554496,0.7762086435309332,0.6803704111100026,0.29759882489619194,-0.043202785796796796,-0.6221706801503258,1,left
9.117,0.20480377251334347,0.9550326910442044,0.03304985234930219,0.42431971504110333,0.782197754611449,0.6884980364588786,0.29040119640739354,-0.03779317598777411,-0.6075551966451103,1,left
9.118,0.19107078483143053,0.9610641139555824,0.03105957560002754,0.42305029012855877,0.7708435352311929,0.6729899510591226,0.30233573500981137,-0.046763240564514655,-0.6317892533899423,1,left
9.121,0.18212959438599619,0.9647148452856026,0.030975968515051504,0.424616833571886,0.7854786657483228,0.6930002519636369,0.2865930477182407,-0.03493100158050554,-0.5998245337010051,1,left
9.122,0.1796641528342518,0.9651864291600768,0.03189033358225789,0.4233335043719705,0.7732375957908171,0.6762559503773953,0.22050750177372186,0.014730440760415209,-0.46567603812551095,1,left
9.123,0.17076066667609568,0.9647429561991343,0.03192356140417517,0.4232717069786245,0.773656140561401,0.6768591125031655,0.20476283580201998,0.026564699305045375,-0.4337092592191507,1,left
9.126,0.16495537325148224,0.9616308960725318,0.03186020857599574,0.42603892155380924,0.7967122786094527,0.7082932881422196,0.2167004672963222,0.01759147758270825,-0.45794653519086365,1,left
9.127,0.1625213971727257,0.956117079102058,0.03252445839598656,0.4193477489929428,0.7399393273413171,0.6308570968151751,0.20950028070198556,0.023003699599543175,-0.44332838787734713,1,left
9.131,0.15936011258594007,0.9466136728694178,0.04091881335684739,0.4304179733622075,0.8340995223894407,0.7592925629909505,0.21242929892865076,0.020803277660118993,-0.4492721361560532,1,left
9.132,0.16059663225235316,0.9383808914624123,0.05201603313008637,0.4158115642337096,0.7098984487873368,0.5898869982464385,0.2124728129597038,0.020766518279796392,-0.44936872964017005,1,left
9.136000000000001,0.16089265975908337,0.9363416736640093,0.05502640178825326,0.35439748235381885,0.18869989312372393,-0.12099545155538428,0.2109323772385012,0.021932227149309303,-0.446226092703911,1,left
9.137,0.16152169948343925,0.9284675148460377,0.06250000575027101,0.33976004918764363,0.06450345843925745,-0.2903729268768297,0.21277858777842137,0.02053360681983661,-0.4499950863817785,1,left
9.137,0.1645348596810987,0.9191723561800951,0.07702068249733267,0.3508725919984632,0.15866170122099865,-0.16197201580996218,0.2113394316070118,0.02162609508172103,-0.4470530121850259,1,left
9.141,0.1654788944633416,0.9190558160911184,0.08740466492264833,0.3441631842330925,0.10187597861805497,-0.23940501610642856,0.2121148190119988,0.02103872492222138,-0.44863570110627365,1,left
9.142000000000001,0.1652624770781334,0.9222907986842348,0.09168213379452217,0.34688296951640396,0.1249711590843249,-0.20790043870881764,0.21194348527508322,0.021158103235201862,-0.4483057081930838,1,left
9.145,0.16514658648016012,0.9293805718733643,0.08891237063450946,0.3469659199858919,0.12532065991203417,-0.20746906926790765,0.21172175757637107,0.021354784007645154,-0.44779886800967916,1,left
9.146,0.1662650142797818,0.9413725751023887,0.08147612534055673,0.345440866284375,0.11316660681683902,-0.2239507905152987,0.2121053937810593,0.02101478683683099,-0.44867511591204823,1,left
9.151,0.16784577241948706,0.954001020520226,0.06891098684444105,0.34729082001956935,0.1277300493338014,-0.2042222818012522,0.2117370774404474,0.021354972012211794,-0.44780796127752953,1,left
9.152000000000001,0.16997838807821836,0.9653404779112138,0.04947319869215988,0.3458198062105507,0.11637897537509191,-0.21957104910244513,0.21198851787648046,0.02111548738662813,-0.4484135768069085,1,left
9.156,0.17498860688148635,0.9759723264681481,0.02869870697800031,0.34659830676624886,0.12249367580860773,-0.21128838848023468,0.21189121646179912,0.021188169018582233,-0.44821692909099203,1,left
9.156,0.18155133426443007,0.986372335832644,0.011472397662781308,0.3465524009009455,0.12114369601758182,-0.2132428351425952,0.21183876806297636,0.021321301468142907,-0.4479337980502426,1,left
9.161,0.18788255417400118,0.9922377749621121,0.00039451990195694497,0.34598019559658466,0.11939352024599903,-0.21526549312038257,0.21201229614362843,0.020976708908580527,-0.4486897389363206,1,left
9.162,0.19374565833733734,0.9931716334523736,-0.004065147111397881,0.34696779470929273,0.12242049336387209,-0.2117644809966036,0.2117658759798971,0.02148143775764604,-0.44758729922705387,1,left
9.164,0.20011308903415764,0.994219663289661,-0.0010028166336178473,0.3458510147837274,0.11951467161456336,-0.2149579783636003,0.21201203919863978,0.020955778957075934,-0.44872898748874424,1,left
9.165,0.20550154979458218,0.9958789798055713,0.007044726259546498,0.34670215804666893,0.12149819847268324,-0.21286614452909253,0.21186961328280307,0.02125969995360285,-0.4480688906746456,1,left
9.169,0.2096549197486295,0.9960395780321813,0.012228299279838265,0.3466171078244689,0.12073112152632322,-0.21391795884145787,0.21178356116709132,0.021493928518880108,-0.4475745462633063,1,left
9.17,0.21264853197498523,0.9950147161293996,0.011567515171465856,0.3454229265340982,0.12031606802056628,-0.21334547219350958,0.2122077441657684,0.02043273886049219,-0.4498348838460272,1,left
9.174,0.21199882929771574,0.9932673172014742,0.00660211664196445,0.34820202433076886,0.12168727682628362,-0.21407696654022285,0.21141868931566707,0.022402674916572475,-0.44563807071894157,1,left
9.175,0.21004529727887536,0.9916123974088938,0.002018534170566574,0.34406760088865074,0.11974026093122897,-0.21285149881256682,0.21242887503229904,0.019875286390998764,-0.4510210204801198,1,left
9.18,0.20611104275513115,0.9916345754113818,0.000312046993119607,0.34845966161495057,0.12168515130534506,-0.21433578662418,0.21158684171339492,0.021984512581899096,-0.446529547718593,1,left
9.181000000000001,0.20183414813266348,0.9905164758724089,-0.0006164237611286328,0.34592172555768674,0.12056034368289797,-0.21348011445630016,0.21161364876831726,0.021923857765513192,-0.44665974705098027,1,left
9.185,0.20048790009887962,0.9870100441623803,-0.00010650484917961865,0.3437681547993767,0.11987893428742134,-0.21234781170491074,0.2132023908513167,0.017915988715013605,-0.45518871111841,1,left
9.186,0.19840926935231512,0.9833917826244173,0.002574403039544617,0.35323754440925215,0.12323333717477697,-0.21679221387243153,0.20929423294586644,0.027770320515586103,-0.43421809334214434,1,left
9.19,0.19663043785649983,0.9791991206162133,0.005585652290582142,0.335674195961368,0.11699485199453136,-0.20857559649032698,0.21577405299090308,0.011430743252554219,-0.468988781588198,1,left
9.191,0.1961773361912349,0.9772751486600388,0.006961671673265163,0.35822363793539336,0.1249805026869398,-0.21915867660498756,0.2072280028114669,0.03298249548557361,-0.4231275799046557,1,left
9.191,0.1964632367969016,0.9766270372296062,0.008542937715858838,0.33939941993945294,0.11832585736449847,-0.21030875510960095,0.17137156877264043,0.12341786872310534,-0.23067151290549387,1,left
9.196,0.19234962202605135,0.972383006866782,0.011934278825396794,0.33991276835372,0.11853357348127902,-0.21050618898409396,0.16282723200047086,0.144967735000942,-0.1848143214266728,1,left
9.197000000000001,0.18322104456006144,0.9694620134004392,0.016494520324061797,0.37579086074511864,0.13109955269637014,-0.22755963569320886,0.16930369455080094,0.12863339144402922,-0.21957578304047565,1,left
9.198,0.1757052494943481,0.9706982774555698,0.023353641893828554,0.2876036437015287,0.10019672283308612,-0.18567708349043738,0.16540015773023609,0.1384771888156615,-0.1986208279861339,1,left
9.199,0.162689495503538,0.9745757336483778,0.028662349259745014,0.4338222712897824,0.15142813808138406,-0.2551221461651952,0.16698406868315402,0.1344858689575512,-0.20712849200847216,1,left
9.204,0.15182053214041769,0.9787555097368863,0.029812651851582515,0.24096095128832334,0.08386668090727949,-0.16351584328008825,0.1670139349473003,0.13440518409485608,-0.2072806764555429,1,left
9.206,0.1501010872594915,0.9800058751833042,0.03024793688542001,-0.568560787811014,-0.19967320860328897,0.221112912486559,0.16617338837771728,0.13653065762410652,-0.2027767719452744,1,left
9.206,0.1404314744949668,0.9850009697894643,0.02815061569686809,-0.7614226967121087,-0.26721115953183083,0.31272976942126773,0.16717475745011784,0.13400266855831944,-0.20814825502855513,1,left
9.209,0.12957326775384334,0.9953778863857503,0.021591975575125814,-0.615203147695146,-0.21601648905707505,0.24326820772025426,0.16640313013186425,0.13594393496445928,-0.20400067157335744,1,left
9.21,0.12663457279657975,1.002326522741929,0.015514814750438486,-0.7033911293280423,-0.2468889222993435,0.28516441129300796,0.1668034920426644,0.13494992024089555,-0.20616881807700843,1,left
9.215,0.12563986597991778,1.0066862653846693,0.00843798957983168,-0.667513074573785,-0.23432118849705003,0.26811174491887535,0.16674016996258656,0.1350824375854111,-0.20579590702779121,1,left
9.215,0.1304274898348195,1.0117894630198254,-0.0066324623438436805,-0.6669982583642389,-0.23417243448737265,0.26788784875803673,0.16658923589904295,0.13549650816490622,-0.20502622758860972,1,left
9.219,0.13920920020055141,1.0133553258783745,-0.023882143373318995,-0.6858256912168401,-0.24069835539824402,0.2767955542481739,0.16681328678842886,0.13490480802363766,-0.20619657499520216,1,left
9.22,0.15157186581111115,1.0120613465605668,-0.03633995486830845,-0.6632716609271203,-0.2328960812035088,0.26613014691324294,0.16663312500856553,0.1353588917867317,-0.2052293840568066,1,left
9.222999999999999,0.16939515229240587,1.0116647655675017,-0.044726282313261964,-0.6808395648816172,-0.23895294411845894,0.2744283170227008,0.16669530014150605,0.13525166235416647,-0.20562256911976534,1,left
9.224,0.18546650259561342,1.008288233409747,-0.04713337844311412,-0.6713681799274758,-0.23567726628018196,0.26994854097415055,0.16677669817183421,0.13493316214436438,-0.20592344986026279,1,left
9.229,0.19912538045736067,1.0029466003737224,-0.046438327664116597,-0.6735179679206693,-0.23651138993630108,0.27101232758703436,0.16657655438362676,0.13560674235144154,-0.20505218847788403,1,left
9.23,0.21316439972989243,1.00124487320595,-0.04700646384775217,-0.676068217352986,-0.23714243780384145,0.27208962563206074,0.16681873161374536,0.1348161221229709,-0.20613554755428692,1,left
9.234,0.22643010328326046,0.9990557006825918,-0.04889968988963639,-0.6716548919951548,-0.23604836856109165,0.27022338834827575,0.16665944487809417,0.13532154965753307,-0.20540590083667043,1,left
9.235,0.23641721576795366,0.9960199879868155,-0.05295281238196821,-0.6758154578083364,-0.23695139359158512,0.2719175818655218,0.16658232723046074,0.1356061097714974,-0.20509930450395586,1,left
9.238,0.24238289869233415,0.9979408571763105,-0.057246909585944,-0.6730154441970804,-0.23641247901162807,0.27081232023395974,0.16703091057014657,0.1340820039608052,-0.20703588326912664,1,left
9.238999999999999,0.24725610659986666,1.001479264563045,-0.058878488236078025,-0.6742096199466381,-0.23683457567368477,0.27138184656627806,0.1661727100609245,0.13697421549856503,-0.20330391404627268,1,left
9.243,0.2496005328866365,1.004690852105837,-0.05849998102491159,-0.6743330593148518,-0.23605840083549387,0.27102261188045185,0.16728423993727382,0.13323694052060278,-0.2081466724807297,1,left
9.244,0.2490097792377245,1.009960933370436,-0.059881951847346,-0.6733938629470785,-0.23760211774711015,0.27153112402359064,0.1663521094923041,0.136366694132759,-0.20408214893560617,1,left
9.247,0.2499324735616835,1.0127811809762077,-0.06391205472166563,-0.674642258227721,-0.23524566423658927,0.2707000689593492,0.16638390467113803,0.13626731010832804,-0.20422549410661917,1,left
9.248,0.2522760482019981,1.0125536910253161,-0.07229859918284215,-0.6735140423471696,-0.23782864716276933,0.2716821933839111,0.1681439490417196,0.13033877156975604,-0.2118871638643276,1,left
9.253,0.25254588771474823,1.0117485415109715,-0.08396238923509408,-0.6741680291122076,-0.23633694555864798,0.2711157562821934,0.16380821072546625,0.14493109434618728,-0.1930072757840387,1,left
9.253,0.24783183737823106,1.0076326471117811,-0.08619176831737624,-0.6742827570144929,-0.23489378232091146,0.27041406073394403,0.17100113089478544,0.12072927879520416,-0.22432961053981326,1,left
9.257,0.24275686972611857,1.0036511317975296,-0.0828126095096076,-0.6731995349065348,-0.24100616541694114,0.2732087407537561,0.16151167771855915,0.15265287189430782,-0.1830083607651679,1,left
9.258,0.24140044314486317,1.0019571055247107,-0.08031729698950665,-0.6752371241675237,-0.22968080378857048,0.26803972042600355,0.12168892651380857,0.28664817846553936,-0.009592268470947816,1,left
9.259,0.23422458901913787,1.0008117286023426,-0.0679250799287098,-0.6726581988852931,-0.24423616582755353,0.274694672687138,0.1121971437843508,0.31856837695180784,0.03173207222209659,1,left
9.262,0.21931987233555894,1.0021276983000826,-0.052352792315014704,-0.6747939869474915,-0.23207872373433874,0.2691308313133174,0.11939431708403477,0.2943703251002303,0.000401623080538171,1,left
9.263,0.20489103514523363,1.0015838614191246,-0.03789461216332419,-0.6746894989756593,-0.23239105927912057,0.2692585631838903,0.11505340007959171,0.3089637226016575,0.019297135486644638,1,left
9.267000000000001,0.191660590775325,0.9996753985165747,-0.018926583400700317,-0.6708171928686877,-0.25564401741596,0.2799647569311138,0.11681773655105786,0.303023665281683,0.011611725484545796,1,left
9.267999999999999,0.17877276983365592,1.0015528357337868,-0.0071137140946143755,-0.6803694470135041,-0.1985037042691879,0.25366750604525157,0.11684874949134952,0.3029495091455432,0.011496189729462238,1,left
9.274,0.16388090997878801,1.002915418353406,-0.0059050349711663504,-0.6645357583803582,-0.2932466147200511,0.29727205384314676,0.1159109731149182,0.3060427355403559,0.015539471119380336,1,left
9.274,0.1526128617745156,1.00250244098091,-0.005495477249371052,-0.6854078325008601,-0.16827572023534934,0.23974950061465694,0.1170365786698514,0.30234227867323915,0.010694593477068234,1,left
9.275,0.15065838991142944,1.0030219140862795,-0.0062916535458778285,-0.7728975948738439,0.3563714479263597,-0.0018419899341784104,0.11615660640406592,0.3052177772322817,0.014470692688286619,1,left
9.277000000000001,0.143678076912082,1.004385692387324,-0.011621206273474658,-0.7937498789984723,0.4813593687869256,-0.05939494132294627,0.1166292765496327,0.3036639619724767,0.012436353853919281,1,left
9.277000000000001,0.13255271262853963,1.0061955118487784,-0.01810126718415982,-0.7779481047603772,0.3865833104430141,-0.01572953754081692,0.11653679841554834,0.30404749935304176,0.01288654974566669,1,left
9.281,0.12914715439115526,1.0071176397152368,-0.022484538004808718,-0.7874713008088832,0.4437687789321444,-0.04211334032081499,0.11636865318992137,0.30438053306890045,0.013466022768280414,1,left
9.282,0.12790247445529732,1.0054903112857172,-0.024692450518452938,-0.7836046652642911,0.42046939000631633,-0.03131201847953867,0.11665921196500965,0.30380343554639816,0.012463681050670193,1,left
9.287,0.12945044324614718,1.0025670898959635,-0.029787141838413002,-0.7835392133574828,0.4201851160470421,-0.03125253468270484,0.11636446640619741,0.30430389667150926,0.013424656908576544,1,left
9.288,0.13626669369597177,1.0003148434496123,-0.03504420060897516,-0.7855780097808469,0.43235983853050275,-0.03682774887501675,0.11657399418725907,0.30399044835673805,0.01276933016003413,1,left
9.292,0.1456889309922837,0.9979735490150154,-0.03390163676719421,-0.78314690994738,0.41771542923971633,-0.03002504200648358,0.11651586589461518,0.30418946045683065,0.013024687921163949,1,left
9.293,0.15820235241106534,0.9957466271308377,-0.03420590347657247,-0.7850255570898894,0.4292126126469378,-0.035511151448493775,0.11637668586152153,0.3039315089149972,0.01315393188424176,1,left
9.297,0.1691799286771889,0.9935484610455377,-0.03456034696929143,-0.7840346697228396,0.4228693185472565,-0.032259621331862484,0.11672709733097603,0.30441221280307745,0.012717799396233147,1,left
9.298,0.17902263329752272,0.9923263733558183,-0.033276683148662896,-0.7842291765664099,0.42452748533046847,-0.0334286763832516,0.11621184493730899,0.303669827703032,0.013335714813003285,1,left
9.301,0.1914196726408699,0.994622020789354,-0.03914186616191972,-0.7845315760439797,0.4259489795982092,-0.03376005004744412,0.11675117162553938,0.30449473940703126,0.012720387173294555,1,left
9.302,0.20159654426832196,0.9968377489539776,-0.0462067083750844,-0.7840622051632122,0.42313321644161384,-0.0324606734228723,0.11643939567907832,0.30401848990640956,0.013076432667264812,1,left
9.306000000000001,0.20819881475138463,0.9987558008242265,-0.052507527040490644,-0.7844457407141031,0.42615190237069345,-0.03444995375808635,0.11619289033517023,0.3035335143581188,0.013286953673575252,1,left
9.307,0.21192848282136484,1.0040149110057022,-0.06257958459185942,-0.7842805116466423,0.4235164430596769,-0.03186692226859084,0.11730064168358073,0.3055595693462545,0.012240702866023223,1,left
9.312000000000001,0.21240308710864103,1.0088677398687067,-0.07060419318209099,-0.7842158285433956,0.4255825537833279,-0.03486125227537946,0.1152447508911982,0.30180708894556263,0.014187314856010498,1,left
9.312999999999999,0.21379944347942437,1.0122542287104217,-0.07433824636114167,-0.7844218780068664,0.42420182439929566,-0.032047735952538556,0.11788291893526219,0.3066315543310544,0.011695612656316676,1,left
9.316,0.21588902727041304,1.0152622950731742,-0.07690662880654937,-0.7842327101628301,0.42458003567387076,-0.033480056151832575,0.11568106725330127,0.30260114465338844,0.01377239479341908,1,left
9.317,0.21700981223689184,1.0163568031841415,-0.07914591054607494,-0.7842175312285703,0.42578965043207706,-0.0351219763303075,0.11574350060545063,0.3027021666186449,0.013705521713533548,1,left
9.321,0.2193034952457375,1.0164904434875492,-0.08092280545303793,-0.7845960594576097,0.4223610096031176,-0.02879582114419955,0.1199308145495109,0.31042131354712355,0.00979002707232245,1,left
9.322000000000001,0.2203966908684834,1.015414253820207,-0.08376503813522787,-0.7838029940165185,0.42817558292597796,-0.0402769485966966,0.10963616221505174,0.2914549896520391,0.01942253079963857,1,left
9.326,0.22115493678562637,1.013300473739212,-0.08590745023228052,-0.7848619596469704,0.4209508767202424,-0.025646170166866804,0.1267056533757113,0.3229022822047438,0.003451462478832751,1,left
9.326,0.22405828535135658,1.0122943499977066,-0.08476567995938884,-0.7839600912580317,0.42687892390716453,-0.037812511816014804,0.10419115823778288,0.28142178017014674,0.024515242158838275,1,left
9.327,0.22438362522482483,1.0129759617817595,-0.08417483702345363,-0.7840007791757063,0.4268085801214612,-0.03752585378272465,0.009708551264099235,0.1072790810100402,0.11288589189886009,1,left
9.331,0.22407077734164002,1.0144104555360502,-0.08313670008566953,-0.7856895287091299,0.4153375993109659,-0.0142472661365101,-0.012804452952601724,0.06579521633897642,0.13394504130145451,1,left
9.331,0.22532371315082045,1.0170311009137336,-0.0823397700587156,-0.7815092966606887,0.44337011037035956,-0.07138636648668213,0.004260937680699125,0.09724880590180453,0.1179833855577346,1,left
9.336,0.22282132852142073,1.0206993044711834,-0.08501253100543402,-0.7884551922601164,0.3969687485530212,0.023315262292474593,-0.006025517554043866,0.07827444797610769,0.1276021993682315,1,left
9.337,0.2198699291044121,1.0221217918908319,-0.08465473574306773,-0.7792852139532649,0.4581331500801062,-0.10157607900755872,-0.001851016781652475,0.08600094235083534,0.12370223829597436,1,left
9.341000000000001,0.2203360390422454,1.022262470065499,-0.08596207369713293,-0.7408166936218721,0.7148722655009068,-0.6258273048946964,-0.0017731488822071814,0.08609912620669669,0.12362342175953189,1,left
9.342,0.22154540911691165,1.0210921038499985,-0.09212474618872146,-0.7316396963733155,0.7760139273948592,-0.7507053154033314,-0.003987415422047922,0.08206240101203076,0.12570013184649553,1,left
9.342,0.2257772740586688,1.0144903926880966,-0.09136151743384485,-0.7385971598058181,0.729660995949215,-0.6560290823989745,-0.0013490199985265491,0.08690612728259092,0.12322998196034052,1,left
9.345,0.23321199387935548,1.0038878693281321,-0.08583210188113699,-0.7344057406886089,0.7576184661796939,-0.7131348025191178,-0.0033824740489770714,0.08312124702182706,0.1251274049978221,1,left
9.346,0.23778267175831475,0.9921915703793356,-0.07896872542491315,-0.7360983178286166,0.7462398709168784,-0.6898884980979427,-0.0023268439932342083,0.08518627098990914,0.12415456372851608,1,left
9.35,0.2381290504363304,0.9807477342496341,-0.06698231197383395,-0.7361501554466205,0.7460869855236247,-0.6895859066591037,-0.0024947836274230514,0.08467125733516864,0.12428673891847368,1,left
9.351,0.23456167744070436,0.9714176853168986,-0.0535271468055773,-0.7352167810527196,0.7520403223793851,-0.7017322397498942,-0.0028912178025670933,0.08419255759170255,0.1246880128153545,1,left
9.356,0.2259516944691341,0.9660909513252757,-0.040724734526134856,-0.7363265045454754,0.744906665566861,-0.6871749114245365,-0.0023018524256234905,0.08507803689836083,0.12411250039966022,1,left
9.357000000000001,0.21790763026430665,0.9643409773966162,-0.030224951814303163,-0.7354755436769476,0.7504661242867643,-0.6985249563300974,-0.00277653292799362,0.08420138279870687,0.12455627744149637,1,left
9.361,0.21338079577851288,0.9647872152506217,-0.021854361948006346,-0.7358934215405805,0.7474565972022721,-0.6923647375391212,-0.0026110106241179596,0.08487881177008597,0.12444639045721621,1,left
9.361,0.20959218434662896,0.9679014648254346,-0.011434084059616018,-0.7358941775018186,0.7481717312438397,-0.693866139347691,-0.0024004622213252493,0.0844159954711645,0.12414679117867793,1,left
9.363999999999999,0.21212802174620837,0.9705355770648579,-0.0038828050698631058,-0.7355965310063997,0.7489161298477944,-0.6953168542180433,-0.0029219172099430118,0.08472418321480965,0.12478766924920459,1,left
9.365,0.2224155677616749,0.9713550386690455,-0.0011251927149993767,-0.7360217882295816,0.7476021318821768,-0.6927184459422531,-0.002290169789889605,0.0845355605753772,0.12403352874335423,1,left
9.37,0.23494463510575703,0.9710556324194921,0.003757443069719348,-0.7356536792934595,0.7488435547920715,-0.6951860079688157,-0.0027060564188044933,0.08455068550236819,0.12451684658481718,1,left
9.37,0.24968094372209812,0.9681376155143981,0.008824004499928208,-0.7357820809912756,0.7479776252429124,-0.6934165441339277,-0.0029064159862266935,0.08485553241940741,0.12478554094306953,1,left
9.375,0.2639550772667537,0.9657223804685645,0.014533203320769487,-0.7360485791688536,0.7484486124905663,-0.6945053799390137,-0.0017378089417374116,0.08405980399252916,0.12333670270302444,1,left
9.377,0.27708382907808354,0.963931340274317,0.02679099334335977,-0.7353097945396554,0.7482359374414123,-0.693781336794226,-0.003973905918767464,0.08540818119226011,0.12608804518962594,1,left
9.38,0.2898549931338565,0.9627359668020232,0.040325066807363696,-0.7364431145454577,0.7483464023944134,-0.6944389896619794,-0.0010778467985808455,0.08372281999022016,0.12253197862640179,1,left
9.38,0.3000088148357496,0.9647133085798696,0.047471000620589496,-0.7352289957071996,0.7482670918808103,-0.6938165082891425,-0.0035060509920327616,0.0851101753821521,0.1255105349516295,1,left
9.385,0.309603159240057,0.9675247160331008,0.04607757096612448,-0.7359399891200146,0.7482522116813946,-0.6940520832451318,-0.0034243051537113265,0.0851031760512855,0.12541487993276906,1,left
9.386000000000001,0.31666162199659187,0.9720091098523963,0.0413729981546207,-0.7365065664696202,0.7485403300872322,-0.69487017990067,0.0011631270739530853,0.0823766970791506,0.11977539873803635,1,left
9.389,0.3208401291556787,0.9778438757936759,0.03560888700689742,-0.7339506341150656,0.7477717924487868,-0.692296236349131,-0.010135299314580444,0.08903344260324608,0.13365823850598815,1,left
9.39,0.3265226748312866,0.9815617792731913,0.025402941769798522,-0.738704954262239,0.7491083933987485,-0.6968882844491988,0.008606593884631204,0.07801365052528364,0.11063175095629801,1,left
9.397,0.32965516804868344,0.9828121324292121,0.019898941295639246,-0.7325962181921406,0.74741173447466,-0.6910321596777291,-0.01611682858954104,0.09254166776925557,0.14100641558700538,1,left
9.398,0.32960363140922044,0.9827154444947168,0.018805877651303905,-0.7376987257226018,0.7488206530687623,-0.695905386243809,-0.11988324676809033,0.15355899144948665,0.2684936127322347,1,left
9.398,0.3329128350851237,0.9820520537274535,0.01430099429925292,-0.737552669112778,0.7488122662967531,-0.6958350897325059,-0.14460684700209236,0.16808411723380845,0.29886857899443375,1,left
9.399,0.33729938036404805,0.9801150896182603,0.014081481858902373,-0.727846387461851,0.7460270135081679,-0.6863391445311988,-0.12586288894649517,0.15707090455367076,0.2758400140442802,1,left
9.399,0.33996347966351737,0.9779283647133549,0.019214796977430747,-0.7517153904639704,0.7528388632822934,-0.7096079454452993,-0.13716787474541006,0.16371661626355571,0.28972893197563954,1,left
9.405,0.3466644592468055,0.9737871181253277,0.02591250014114733,-0.7121330232637979,0.7415519487495414,-0.6710437045760262,-0.13256740681512813,0.1610049604010283,0.28407774669121977,1,left
9.406,0.35317145410591927,0.9688762808330799,0.03182961068067609,-0.7643471702101919,0.756440584394744,-0.7219110056233369,-0.13250457411004568,0.1609829025169411,0.2839987322773751,1,left
9.408999999999999,0.35419578299538834,0.9670072170837365,0.033994975349350434,-0.9834503363223261,0.8189571692588742,-0.9354850730954453,-0.1349129741445409,0.16237837035319513,0.2869602683421869,1,left
9.41,0.359711686977327,0.9626883331201571,0.03473354863302679,-1.035672493274736,0.8338530211770019,-0.9863649710484934,-0.13202750068467162,0.16070176668197994,0.2834126078834929,1,left
9.41,0.3693675902384037,0.9559755898051134,0.03380788300724934,-0.9960814602795801,0.8225582990406455,-0.9477871010753152,-0.13427599374505625,0.16201510171426656,0.2861761864085447,1,left
9.413,0.3760157100789956,0.952163999507999,0.03273032839915835,-1.0199471654185486,0.829367179607461,-0.9710507187135201,-0.13305920854348535,0.16128389145139685,0.28468357739341743,1,left
9.414,0.3832446945916937,0.9493481599010221,0.032506287863637726,-1.010269634397475,0.826607824633363,-0.9615999816988379,-0.1333475167739655,0.161504840951528,0.2850303855164309,1,left
9.419,0.3892833494868891,0.9445164798510951,0.03234813656810371,-1.0100617196846993,0.8265437151380839,-0.9614324137446092,-0.1336500415559172,0.16159416481652045,0.2854148107623371,1,left
9.42,0.3923607713878654,0.9397277662487403,0.03810721740744119,-1.0152529171757494,0.8280325290557669,-0.9664451080800395,-0.13311687054994636,0.16138920842041238,0.2847441196838094,1,left
9.424,0.3955377357819093,0.9384095186182808,0.04704527632628325,-1.009055866921742,0.8262563107560135,-0.9604501021944448,-0.13362031855202391,0.1615987657222201,0.28537512053114067,1,left
9.425,0.3943425215892076,0.9377101689480236,0.048792224244755336,-1.0138482883461952,0.8276272406749996,-0.965102075521423,-0.1332701232350017,0.16139213990411982,0.284944995698681,1,left
9.427999999999999,0.3872561723889195,0.9390621535985566,0.044454414629337094,-1.0113682031509243,0.8269270202850922,-0.9626473894329817,-0.13345805850131537,0.16166277404551982,0.2851527175517011,1,left
9.429,0.377904305167612,0.9469067092901404,0.038749514731779,-1.0116904744610866,0.8269950678336997,-0.9630813227227344,-0.13337786759983877,0.16124970021045854,0.2851071432485198,1,left
9.433,0.36765584891551445,0.9556843972876993,0.03327295286348994,-1.0128224067512033,0.827359380044848,-0.9639788283002939,-0.13341384455490918,0.16181667607732497,0.28507236060449886,1,left
9.434,0.35626133122562853,0.9618419288080264,0.027778460197432242,-1.0110917017136787,0.8268147042470733,-0.962543991027944,-0.13339107210332096,0.16122151486064262,0.2851285755092461,1,left
9.439,0.3417718780440504,0.9680362644824675,0.020929187031233372,-1.0126368521757814,0.827296182436855,-0.9638492947022533,-0.13337961675335053,0.1615508060243455,0.28506586558980906,1,left
9.44,0.32659487245243857,0.9755679549911188,0.02083900444242183,-1.011901776789427,0.8270868102599596,-0.9631310199196679,-0.13349165359784693,0.16190669019924628,0.2851615517261258,1,left
9.443,0.31309393005183417,0.9829485758311732,0.02748006370731565,-1.0114039366089478,0.8268693026678946,-0.9630179942899568,-0.1332008905242803,0.16046726680268614,0.2849878918319154,1,left
9.443999999999999,0.30252032500832604,0.9872251494359869,0.029303399743119254,-1.0132790345490268,0.8275768194772875,-0.9639951896114706,-0.13370408088750413,0.16311517472402148,0.285265705874944,1,left
9.449,0.2958719112275082,0.990587645182689,0.029451858090166514,-1.010305195631564,0.8264709098527975,-0.962365177122865,-0.13306606494321416,0.15972022938694444,0.28491890827350524,1,left
9.45,0.29176585642754893,0.9948322403582278,0.028046244639240218,-1.013508153112329,0.8276592335111405,-0.9641348881511242,-0.13359540137123227,0.16255206954840204,0.2852044060568678,1,left
9.453,0.2954827744154159,0.9966171921387178,0.019730451497722637,-1.011605690836801,0.8269577894242925,-0.9630617206782768,-0.1335937166265958,0.16248396514504304,0.2852121140714173,1,left
9.454,0.30308462460076924,0.9975411277796357,0.008936927861414926,-1.010222594884692,0.8264265612484458,-0.9623873876132466,-0.13254298281536764,0.1570572228004238,0.2846171018027669,1,left
9.457,0.3097674756381208,0.9987181516938483,-0.001412824258547579,-1.0166959050262285,0.8288716807170907,-0.9657490440214976,-0.13511058521026348,0.17038443608196135,0.28606136998555265,1,left
9.458,0.3235369130826969,0.9968975219174361,-0.00637676895928674,-1.0046154798793392,0.8243154760412515,-0.9594407556610299,-0.1308573331410402,0.14829134081466971,0.28367141158300363,1,left
9.462,0.33371207690674487,0.9949980294911543,-0.005883942563600455,-1.020143998984703,0.8301707481225017,-0.9675574962338572,-0.13646691148903417,0.17743004277660648,0.2868233639085005,1,left
9.463,0.3353582673284725,0.9954133776094315,-0.00396217871386983,-1.0071736483529752,0.8252804817163641,-0.9607745573983331,-0.16003267326775167,0.2997705992041081,0.3000760494515094,1,left
9.464,0.34431726075027236,0.9947643217694653,0.002420156060883154,-1.0075500239051192,0.8254204551109159,-0.960983851954484,-0.16564358557046793,0.3289072388942744,0.3032298864397287,1,left
9.468,0.3567724483232015,0.9925563109586996,0.009953249543696672,-1.0321976868128673,0.8347202914007356,-0.9738331137418929,-0.16138889020509123,0.3068163746289385,0.30083788843917053,1,left
9.468,0.3642361583556347,0.9891434469718512,0.018080782858707074,-0.9715880775521709,0.811853409986304,-0.942221027070815,-0.16395594384357376,0.320144437376226,0.30228138292399687,1,left
9.472000000000001,0.37207188499548105,0.9849233037144494,0.028415153651675976,-1.0720874116843726,0.8497701470687133,-0.9946429413944716,-0.16290999710706044,0.3147102920313088,0.3016931307077699,1,left
9.472000000000001,0.3777093276672261,0.9828430285719991,0.032573393198263925,-0.9395314084858052,0.7997578285551132,-0.9254983199795105,-0.16289801215533434,0.3146581149331349,0.3016862911050239,1,left
9.477,0.3783287110156792,0.9830701412091394,0.03459987543998932,-0.3831652390724101,0.5898420529076085,-0.6353005348616343,-0.16344211715957113,0.31746711951919937,0.301992649230019,1,left
9.478,0.3815593397363361,0.9833204143191416,0.04290951569547901,-0.2506213510266242,0.5398300083119144,-0.5661596606397293,-0.16278939458407388,0.3140949124648911,0.30162507657080095,1,left
9.479,0.38512252725898805,0.9822018249339514,0.051098559571529686,-0.35110157574939926,0.5777469257095386,-0.6185772155130328,-0.1632989309788206,0.31673301143821875,0.30191185932903947,1,left
9.482000000000001,0.3879301497733313,0.9802485955761648,0.055038489003962285,-0.29050823897522343,0.5548782431834736,-0.5869646680354088,-0.16302079575767447,0.31527405734235053,0.3017560284775092,1,left
9.482000000000001,0.39552922863190887,0.9784362087937487,0.05753207875593716,-0.31515555689053154,0.5641825433058509,-0.599825149174795,-0.163092153270202,0.31569284653530205,0.30179426389434627,1,left
9.487,0.40422505821701005,0.9760464595083188,0.06523451820584905,-0.3155033965076982,0.5643152376237158,-0.600008814844494,-0.16315079096605234,0.3159137547167631,0.3018305544221499,1,left
9.488999999999999,0.4135188844353839,0.9733919163284662,0.07899882869903499,-0.3025974022039355,0.5594335460890765,-0.5932638148256996,-0.1630419958714358,0.3154516012771008,0.3017652598605822,1,left
9.492,0.4182556229313482,0.9713633976876401,0.08897506507040756,-0.3180325528345809,0.5652826051895582,-0.6013412869774089,-0.16314655556722124,0.31591254488501364,0.3018273669960593,1,left
9.492,0.41525702081100424,0.9697737321022039,0.09419495141945632,-0.30604679625992803,0.5607247620265114,-0.5950527079679101,-0.16306697277850538,0.3154985077832301,0.3017826179980613,1,left
9.497,0.4135686999974174,0.967908171050624,0.09815075986418215,-0.3124749659701769,0.5631851699567628,-0.5984417112447311,-0.16312764364072038,0.31596595189224486,0.3018106255368798,1,left
9.498,0.4087148334689459,0.9673860472225421,0.1011444492866135,-0.3110217104900366,0.5626218150340416,-0.5976683229781214,-0.163068295376381,0.3153095830967002,0.3017912768019274,1,left
9.501,0.39771533840743173,0.9708326560654452,0.10383258525915638,-0.3093624865216701,0.5619660089635737,-0.5967720542029427,-0.1631378423682121,0.3161900572776163,0.3018094111586411,1,left
9.501,0.38669481628409175,0.9744644882664344,0.10163831494811029,-0.3121370501000924,0.563108639045729,-0.5983180608510792,-0.16306722563274928,0.3152699199142704,0.30179211785017546,1,left
9.507,0.3739472284436195,0.9773936018889369,0.09360316510913477,-0.3096986779300771,0.5620237555603425,-0.5968762590384864,-0.16310248052104465,0.3157724151994754,0.30179889965368534,1,left
9.508,0.3607285208609968,0.9835958443582709,0.08327896385566402,-0.3111322911285507,0.5627669038279217,-0.5978324363420506,-0.1631604106689183,0.3163497228643589,0.3018205097726573,1,left
9.511000000000001,0.34691854166248726,0.9897001608582762,0.07109617731288156,-0.3106641791546608,0.5624290923444388,-0.5974221890910306,-0.1629519026915463,0.31405932757523003,0.3017518406295878,1,left
9.512,0.3282891500267806,0.9957670748515446,0.058274072010420015,-0.3106712175849479,0.5624303158810497,-0.5974243615330195,-0.16333052107475787,0.318264015667736,0.30187440467628124,1,left
9.517000000000001,0.30693938825932743,1.0052418990376695,0.04451636709233646,-0.3104589496311235,0.5626492701350201,-0.5976218020843119,-0.16284607363209017,0.3128749469517541,0.3017182470996971,1,left
9.517999999999999,0.28502993562754275,1.0144632108103866,0.029229552624483592,-0.3114002217789459,0.5623210279445083,-0.5974085848752075,-0.16324995278603283,0.31736950342395975,0.3018479129631105,1,left
9.522,0.26756072411763454,1.0219028892484383,0.017181354329055556,-0.3096203074129298,0.5626689396089619,-0.5975306723841267,-0.16324143583936726,0.31726418693525515,0.30184668106534174,1,left
9.522,0.2567119072721068,1.0279825007516687,0.010658248703337448,-0.3117373349670441,0.5623809245478016,-0.5975150837732608,-0.16246303738716805,0.3086416692407588,0.30159252676549797,1,left
9.525,0.24757635371009712,1.0298604272256078,0.00856118860727679,-0.31044396052209255,0.5625208620702585,-0.5974874882871162,-0.16437372835899428,0.3298143500503034,0.3022140123609566,1,left
9.526,0.24569993297583712,1.0282897124718873,0.01232451596171092,-0.30929972699260033,0.5626304453687507,-0.5974484284641282,-0.16120601613493288,0.2947155716929363,0.3011849245387368,1,left
9.531,0.24884498961089666,1.0281333359830827,0.016838457381704884,-0.3143916540753092,0.5621826709724635,-0.5976633429250475,-0.16538457222765912,0.3410088181209264,0.30254158564490835,1,left
9.532,0.2503565234272128,1.0261126725541199,0.017605436903439173,-0.30486801007328124,0.5629826330826986,-0.5972227208077125,-0.18291534696961081,0.5353904774779016,0.308258299255484,1,left
9.533,0.2612318903048553,1.0169470136365937,0.022957478214785762,-0.3171526284962014,0.5619765251771516,-0.5978175994248363,-0.18709380201920497,0.5816872647300035,0.3096158938247435,1,left
9.536,0.27842873028359016,1.0050769293846387,0.034974480878873226,-0.3068724342974912,0.5628072143552183,-0.5973082823222458,-0.18392780750196525,0.5465789555456428,0.3085832818498556,1,left
9.537,0.2972198283421017,0.9933539230882071,0.0403087147244148,-0.3071473536697507,0.5627836457759168,-0.5973202009701534,-0.1858328431110538,0.5677703684792075,0.3092132887177901,1,left
9.54,0.3219927175154582,0.9815139437005223,0.03648586471283219,-0.32680096249456003,0.5612185825982752,-0.5983185393018555,-0.18506582682491018,0.5591189364735218,0.3089441251834051,1,left
9.541,0.34547202321117165,0.9676578661456903,0.030398500799110797,-0.27848128658247606,0.5650599990527676,-0.595857826602731,-0.18504066594134883,0.559048026863206,0.30896292242388107,1,left
9.545,0.36794878682924637,0.9527200066543501,0.016955861095128286,-0.3586121315059605,0.5586961958604424,-0.599945576964559,-0.18546212735058043,0.5635155125535914,0.30907369015245256,1,left
9.546,0.38183007668665825,0.9462171643727981,0.005891609077275303,-0.2529091953886448,0.5670865029439105,-0.5945476114863766,-0.18496801815835884,0.5581255937930956,0.3089240856169523,1,left
9.546,0.3853431155173267,0.9441972555903169,0.0025735484997303527,0.1908073403954168,0.6023130599796973,-0.5718545364111163,-0.18533623476256011,0.5623822849336599,0.30906659878800713,1,left
9.552,0.39886102319581185,0.9369883556733416,-0.013536829429890438,0.29651684923435256,0.6107057259833755,-0.5664481163333375,-0.1851695976388149,0.5599736374690962,0.30893981973235374,1,left
9.552999999999999,0.4155516547916005,0.9313234197496221,-0.03383910198289368,0.2163761560849132,0.604335111918284,-0.5705519476831957,-0.1851504106261469,0.5607271734781903,0.30905832760972884,1,left
9.555,0.4258834240894753,0.9341085298592289,-0.04388389521539516,0.26470282169121384,0.6081906421002901,-0.5680701547941844,-0.18528574968748956,0.5610422297400797,0.308949410408758,1,left
9.556000000000001,0.4391246523224947,0.9452592546015994,-0.05268934462509825,0.24505281614464422,0.6066029465608607,-0.5690887817127861,-0.1851271318438396,0.5602287043090853,0.3090196672716228,1,left
9.559,0.4531026297020316,0.9600332705008763,-0.05442434072864183,0.24475679123975802,0.6066072997042108,-0.5690908717321732,-0.18521480076055885,0.5612085931474833,0.309049345656602,1,left
9.56,0.4694153615960429,0.9743658082580526,-0.04096178154545173,0.25507793871097406,0.6074145858510948,-0.5685685659865081,-0.18527542386471896,0.560128521609869,0.30884281455248874,1,left
9.565,0.4942360725256587,0.9884621279379602,-0.02275723403143589,0.24273917977982976,0.6064110115495142,-0.5692102059087565,-0.18502757032693587,0.5613856657875878,0.30927911163817445,1,left
9.566,0.5212575471058185,1.0003995250276625,-0.008812271398751412,0.25231100038497145,0.6072484459073972,-0.5686865896268619,-0.18543584637124844,0.5599367044079655,0.30864084377514656,1,left
9.57,0.5463729575093347,1.0108046826957329,0.0014388137399799278,0.24720836766751056,0.6067096422128022,-0.5690060989637868,-0.18498647928231005,0.5613253842535717,0.3093165790590886,1,left
9.57,0.5693914875478909,1.0226847657066531,0.0014287839290935875,0.24828872789047768,0.606959565745598,-0.568879125890996,-0.185255662372791,0.5606273843106496,0.30892935136458777,1,left
9.574,0.5869595346234686,1.0395686372174393,-0.011222971053502761,0.2497479419708283,0.6069445298969574,-0.5688616482726871,-0.18545804346991193,0.5597012062656266,0.30858556801572035,1,left
9.575,0.5973302671710812,1.0603877495386307,-0.023781410247553654,0.24736825504292662,0.6067543997261136,-0.5689837541140148,-0.1845175278607522,0.5631561872069775,0.31007159426280007,1,left
9.58,0.6005144741485895,1.080025782102226,-0.03513832205719015,0.2494457046103956,0.6071623436363567,-0.5687718218322371,-0.18627478642197545,0.5568899304057456,0.30732028431420144,1,left
9.58,0.6031063505693154,1.0999690985297834,-0.0428951964130502,0.24830460636108725,0.6065164429823771,-0.5690718394217538,-0.18401350139380807,0.5648857961527766,0.3108512305834022,1,left
9.584,0.6097087707478582,1.1176758100512043,-0.03369656196311187,0.24842844631085076,0.607354649109428,-0.5687048944543039,-0.18590367858115814,0.55823085038108,0.3079045913409387,1,left
9.585,0.6246720667819408,1.1278942481723289,-0.012541909873774114,0.24899227457471967,0.6065164278394942,-0.5690606184519007,-0.18584859593036723,0.5583804823418627,0.30798212998082386,1,left
9.59,0.6496458501412248,1.1325435984938104,0.007236363627946974,0.24831027630642313,0.606972308773364,-0.5688730314822604,-0.18225460043944627,0.5711519646970984,0.313606346085359,1,left
9.591000000000001,0.6782527252686134,1.130806281001988,0.02729664607406055,0.24847394347713272,0.6074254862455841,-0.568673755918726,-0.19109440479327783,0.5398037147869368,0.29978663339158973,1,left
9.595,0.7183028284273048,1.123762961023658,0.054932343523620725,0.24934413860610966,0.6055692243964981,-0.5694665484126338,-0.17643455475822933,0.5917666638052892,0.32269791180948115,1,left
9.596,0.7497595708966627,1.1204200059851415,0.07340829579945383,0.24726664523588998,0.6089744074335974,-0.5680192780081553,-0.19577284024495253,0.523230070843437,0.29248015794754234,1,left
9.6,0.7568039091052464,1.1180844675971893,0.07761157139978041,0.25014218547430234,0.6046189517382654,-0.5698677510605996,-0.27692640316705863,0.23557211842966935,0.16561885487708214,1,left
9.601,0.7805126226852871,1.1078133342484207,0.10162379540858116,0.24764858060720532,0.6082470496764248,-0.5683282124213704,-0.2962671970866474,0.1670293560113523,0.13540429740677007,1,left
9.601,0.811681483831663,1.0971474994676567,0.14409609461243605,0.24780487614151306,0.6081574623868119,-0.5683678895173025,-0.28160428548188543,0.21899512888531952,0.15831200537601642,1,left
9.604,0.8215425718263991,1.0918933129498685,0.18302512494051665,0.2523879201640591,0.6012220265521989,-0.5713061492394278,-0.2904442888737313,0.1876630583385251,0.1444913746686428,1,left
9.604,0.8241882759171071,1.0911264928365396,0.21380362021043275,0.24096106627765895,0.6182524326699511,-0.564087410472841,-0.28685675751445794,0.20038427770603542,0.15012624319557893,1,left
9.609,0.8094773242021898,1.0974825212955341,0.22226837020622037,0.2599924660618314,0.5900244006218989,-0.576055965287571,-0.2867860707246301,0.20062326990799628,0.15018031465305204,1,left
9.609,0.7897925432045245,1.1024348243498059,0.2173072954104725,0.23483789679136025,0.6272504722342382,-0.5602682357724404,-0.28869997871095315,0.19385524068642362,0.14726776064265645,1,left
9.615,0.7833045444890951,1.1044640545471067,0.21522426762848307,0.1294768551501923,0.7835519400087727,-0.4940330684541813,-0.2864133669560488,0.20194492636474914,0.15076421796494993,1,left
9.616,0.7600332726103334,1.1176268151151145,0.2096594150467782,0.10427037691705224,0.8207699046390311,-0.4782413803517036,-0.28818470256869666,0.19567307578020648,0.14802880542805402,1,left
9.617,0.7242096233253775,1.1391434935478393,0.2019322858049396,0.12337809488435811,0.7925522395976645,-0.4902131870808094,-0.28725867919261105,0.19896710279197408,0.14954210647637495,1,left
9.62,0.6940912489003208,1.1612638356621425,0.1979671123143068,0.11190120771181519,0.8095803293732622,-0.4829997291466948,-0.2874018935478909,0.19842110081547681,0.14910643564895298,1,left
9.621,0.6631199989288739,1.1864799337220713,0.2047480279152445,0.11644514192451173,0.802627451407004,-0.485916253218651,-0.2877801104145672,0.19714655833778155,0.14887982057672444,1,left
9.623,0.6388914666172799,1.211635013909056,0.22140899161151267,0.11678391401221581,0.8025831777112147,-0.4859976676967007,-0.28718940467212284,0.19915941022212463,0.14935601532415876,1,left
9.624,0.6248102681057985,1.234363125211932,0.2334219859909986,0.11394995561557365,0.8061400728684134,-0.48440231276229945,-0.28772160889548426,0.19733742548821143,0.1488804594475246,1,left
9.629,0.6139209942607956,1.256047958467108,0.2379495072038467,0.11726273962704045,0.8018633045926524,-0.48630133779593104,-0.2874489664936435,0.19830437300589993,0.14930985193050808,1,left
9.629,0.6036581947277998,1.2771305766467527,0.23940289824673935,0.11481401155113412,0.8052200810482777,-0.4848415940734975,-0.2873390218176593,0.19857474199968683,0.14882053954143623,1,left
9.634,0.5908240483011421,1.3004754942953567,0.23640000847249412,0.11572941196158883,0.803329554370536,-0.4855694587989764,-0.28786344077649095,0.19698854057365123,0.1495116144242472,1,left
9.635,0.5736484174994788,1.3228783663667485,0.22815743210542427,0.11647122334201199,0.8039504092938428,-0.4855423114812716,-0.2870156840842697,0.19958686970661338,0.1485830506603837,1,left
9.639,0.5510135504796698,1.3434725967696746,0.21821065554926822,0.11438209462981047,0.8040848385780832,-0.4850791620961396,-0.28793159154181247,0.19677366477025598,0.14955371828511801,1,left
9.639,0.5224031663826849,1.3687655463943886,0.20749939905655657,0.11710942909717952,0.8036756855309799,-0.48575073690906057,-0.287383132781469,0.1984675963116051,0.14902320077098002,1,left
9.644,0.4885793637852137,1.394759646374799,0.1915329073120843,0.11485580912854165,0.8041201498674682,-0.48516536295549695,-0.28700568941152016,0.19958915003817115,0.1484160985936775,1,left
9.645,0.45127540693699497,1.4162799656546272,0.17555520872950492,0.11519660391392554,0.8035897415841327,-0.48538654768589623,-0.2888136256663849,0.19412598946288406,0.15082751412265072,1,left
9.648,0.41337653770031746,1.4326756717752218,0.1610489973631974,0.11823628427984526,0.8044552467139178,-0.48575642302523797,-0.2854326141322141,0.20435799404990262,0.1464002338201162,1,left
9.648,0.37413933991376713,1.4433444390574228,0.13901536034979384,0.11093438188860275,0.8030038385024735,-0.4846882033634665,-0.28978033480650456,0.19119650014130254,0.15207452027740115,1,left
9.652999999999999,0.33539767833761186,1.4505469832803723,0.11710787886118479,0.12191272681104641,0.8050426968041107,-0.48633519094726374,-0.2861480508861117,0.20219446717947176,0.147342317841201,1,left
9.654,0.2964693285070906,1.452203381314225,0.09415549416765845,0.11019347327344053,0.8028931681073678,-0.4845695143775236,-0.28625625597665916,0.20185964946478024,0.14745284371573655,1,left
9.658999999999999,0.2594644242564785,1.4502299510060306,0.06678029020353639,0.11699045167416294,0.8040973178014177,-0.48560545990245474,-0.2931499065428984,0.18100843508307596,0.15653177133042956,1,left
9.66,0.22708639436276312,1.449818668793517,0.04195566078196902,0.12272376050198713,0.8053213506627592,-0.4864205580469307,-0.2761944328128585,0.23230405808300425,0.1342395694282214,1,left
9.662,0.1866347116160047,1.4507146248357883,0.008944660232049999,0.0974252767340164,0.8002700569607757,-0.48272572782983925,-0.30431049463194426,0.14723902912890385,0.17119266188209725,1,left
9.663,0.1582175463251124,1.4525727071744337,-0.014115889488534358,0.14437976464955454,0.8095813647518206,-0.4896009027035852,-0.26722515893678944,0.2594447281468333,0.12245630458590812,1,left
9.669,0.149255882908923,1.4538468622394958,-0.019834412096886102,0.08407813924063223,0.7976394112915861,-0.4807675918240058,-0.11157459825517176,0.7303532984510304,-0.08215871680873041,1,left
9.669,0.12177052715993388,1.4563793099671267,-0.04301092028013363,0.13442650517237703,0.8076013533771514,-0.48814430812331355,-0.07448998489261119,0.8425666420520617,-0.13088615081262261,1,left
9.67,0.08272900362897567,1.4611953786918603,-0.07644860103497318,0.1330459374582015,0.8073570012486011,-0.4879363146363393,-0.10260552242657178,0.7574875211139787,-0.09394794965501732,1,left
9.672,0.05224883046381718,1.4644039323750586,-0.10047542715076878,0.037095350661670086,0.7882847612090811,-0.4738974288040461,-0.0856488403423451,0.8088006166746591,-0.11622527430951393,1,left
9.673,0.022071738454314836,1.4679231691863728,-0.11783948092421227,0.27295611365810873,0.8351259473580485,-0.5084134270021067,-0.09254696162466841,0.7879343313741349,-0.10715256278197767,1,left
9.677,-0.01406911681013958,1.4725300960258991,-0.1316064523511089,-0.11812530804212656,0.7574789089319551,-0.45118127302653294,-0.09264680228199593,0.7876035433790669,-0.10705420967795384,1,left
9.677999999999999,-0.03665982555834427,1.4735429342298838,-0.13975122321267192,0.3977217315297515,0.859879306518631,-0.526671194756422,-0.08902550655955023,0.7986184685422052,-0.11174850456255966,1,left
9.684,-0.04459605939306199,1.474738459337046,-0.14328825398156708,2.5629674823833026,1.2897333970693348,-0.8435283423645286,-0.09336354031733655,0.7854116870356052,-0.10613751680179939,1,left
9.685,-0.07411226315422016,1.482934047933344,-0.1523773207421683,3.0788557878665603,1.3920851034295425,-0.9190202086617473,-0.08998437782210929,0.7957159746687872,-0.11049003554046813,1,left
9.685,-0.11230750265381327,1.4937553782509665,-0.16484624739735587,2.687700210230269,1.3145258986706096,-0.8617839098806412,-0.09180600305684475,0.7901701665450412,-0.10813360444974214,1,left
9.687999999999999,-0.14156352060529698,1.5024695598067699,-0.17959212224375593,2.9236485136684545,1.3612626086105934,-0.8963063368430846,-0.0913937026668862,0.7913488780160745,-0.10875167791827536,1,left
9.689,-0.17247859926652925,1.5098005130101129,-0.2009589215540435,2.827630545847187,1.3422723147204438,-0.8822595267347635,-0.09090005983855329,0.7930629969873986,-0.10915652821581263,1,left
9.693,-0.1968112906900193,1.513044253343102,-0.22427696445058248,2.826251000570883,1.3420231352730374,-0.8820586269428043,-0.09175426208941853,0.7900990234302443,-0.10845343527475176,1,left
9.693,-0.2132864117775966,1.5106780458417433,-0.24138957414588819,2.876713159048225,1.351854695310557,-0.8894331438934558,-0.09094738475923508,0.7930057166148861,-0.10899939473418856,1,left
9.697000000000001,-0.22519690842380635,1.5032435657792913,-0.24979727516367947,2.816154240195942,1.3402140932865163,-0.8805920650978578,-0.09149130491100357,0.7909892054962682,-0.10869450853546028,1,left
9.698,-0.23502543688744607,1.490397909400806,-0.2555432791832034,2.8634871320585775,1.3490768452084234,-0.8874890848160846,-0.09126160571991401,0.7916806136463247,-0.10900023246961812,1,left
9.703,-0.24596916304992109,1.4757708875085815,-0.25866908690627927,2.8377934254600046,1.34450079181264,-0.8837583095594513,-0.09122791648658675,0.7924711692113404,-0.10828343939807979,1,left
9.704,-0.2588173115427299,1.4597838322789336,-0.26005162619691735,2.8437399361367905,1.3454565901278563,-0.8846158898366058,-0.0914314957952333,0.7902820084318785,-0.10975481775869272,1,left
9.707,-0.27717638201774836,1.4413199059325024,-0.25840324366257456,2.850771136961929,1.3464062801218493,-0.8856202435577049,-0.09115695435759714,0.7934592334804684,-0.10752166915053374,1,left
9.708,-0.2984325754650521,1.4249037311965989,-0.24920426807661653,2.8381258366667286,1.3453297757944238,-0.883849171023791,-0.09141092169150813,0.7901897732754466,-0.10995290206214747,1,left
9.712,-0.32034400175188454,1.4101872236055568,-0.23631487821663094,2.8507959962985687,1.3453772654096616,-0.885566408844791,-0.09126333035345813,0.7920807068656126,-0.10854957866111492,1,left
9.713,-0.34481631464180607,1.3987622411502847,-0.214915906222967,2.841314997139709,1.346521953847137,-0.8843470604206203,-0.09122384185646987,0.7934475515862385,-0.10722355950224688,1,left
9.718,-0.37075896544298564,1.3917602642495215,-0.18560518878332471,2.8462470768684778,1.3450885126182728,-0.8849345935391056,-0.09151134391599211,0.7871234066121349,-0.11287399879786258,1,left
9.719,-0.3977699586712521,1.3840971416501762,-0.15758476378062453,2.846246011908657,1.3450672685894256,-0.8849338257151403,-0.09097141672283598,0.7988700291892319,-0.10240495673295397,1,left
9.721,-0.4253323311660363,1.3789415128333657,-0.12841586366625518,2.8413049411500846,1.3485611522698386,-0.8844584251952239,-0.09165872976280881,0.7838068579186657,-0.11585471854096106,1,left
9.722999999999999,-0.44723039368968104,1.372693122923874,-0.09723682986154158,2.850823399897286,1.3402240590653292,-0.8852843137830219,-0.09108644869037887,0.796374855509083,-0.10462542809856068,1,left
9.726,-0.4701355654352289,1.3701466211824207,-0.06604359645339938,2.8380841680064623,1.3529519199722513,-0.8842668008961478,-0.09111506590729858,0.7960016379182921,-0.10490925135930082,1,left
9.726,-0.497023208899661,1.3761846035470076,-0.04085006306778765,2.850811791249889,1.3392137920172726,-0.8852257073980563,-0.09215784518796287,0.7721675832756225,-0.12639177032576285,1,left
9.731,-0.5228701566922987,1.3829594876786957,-0.023546405604023324,2.843727281994946,1.3472065368554331,-0.8847128087496805,-0.08957975678368182,0.8307808440473712,-0.07361595923915706,1,left
9.732000000000001,-0.5616365781095085,1.4111621770951195,-0.009172669613153186,2.837745540688612,1.3541169581681722,-0.8842836219538471,-0.09385989955922316,0.7335908233503143,-0.16110897099533836,1,left
9.736,-0.5906186004315842,1.4392111019946512,-0.0036999780492254645,2.8636202051651565,1.3238041210065485,-0.8861060606576803,-0.08821034319871586,0.8617859748776435,-0.04571589193885975,1,left
9.737,-0.5981662994891502,1.4474043489084916,-0.003587643521125657,2.815939254141962,1.3800837311330267,-0.8827755845531633,-0.0645920375984474,1.3997121491460018,0.43882127186071374,1,left
9.738,-0.6267590022523291,1.488748667074579,-0.0019122835417030102,2.8769569501877323,1.3077729028254401,-0.8870169006857538,-0.0589352103955249,1.5279121847389538,0.5541975640232255,1,left
9.741,-0.665109020470848,1.5530032191107677,-0.0037043782191351644,2.826095586299593,1.3681634643970135,-0.8834950733812532,-0.06322153682184348,1.4307219749988174,0.46672050330953824,1,left
9.742,-0.6856372771396031,1.6109767203896983,-0.014823376608712054,2.8275227562782574,1.366524155106669,-0.8835800506539551,-0.06065240127590191,1.4893151787227705,0.5195110544866153,1,left
9.746,-0.70084054128493,1.6716391053415327,-0.0347658333965699,2.924213033849016,1.2513497627996788,-0.8902961443973416,-0.061656797359128414,1.465535858487952,0.4979521422486415,1,left
9.747,-0.7080844681517864,1.722745910745103,-0.060269397005510886,2.6865405764595067,1.534458955755818,-0.8738202403367598,-0.06175979088798425,1.4650697292527708,0.49782190122455267,1,left
9.751,-0.6933532817173869,1.7637675223461886,-0.09911356505885091,3.0806030587676316,1.065030054336965,-0.9011136546391635,-0.06108744249968442,1.4777510423583218,0.5088396228099129,1,left
9.753,-0.6767793408600091,1.7866439179387887,-0.1281061093629532,2.5608443927556337,1.6842202708900373,-0.8651323125264537,-0.0618661906837663,1.4625998919602539,0.4955897505372415,1,left
9.753,-0.6700909198963301,1.7886931551823135,-0.13603977133437012,0.38044155786950085,4.28307808428053,-0.7137669747079249,-0.06130205933698562,1.474338310174053,0.5059925796741238,1,left
9.756,-0.6400582442402178,1.7942421025235173,-0.16003131148842586,-0.1392341762754693,4.902268476100521,-0.6777786666640994,-0.06147590731507674,1.4681960957728895,0.5001243236664905,1,left
9.756,-0.588490485464061,1.7978520360450152,-0.1844459903047836,0.25456999206219333,4.432862170108621,-0.7051208986737422,-0.06174208440687305,1.4691598951398026,0.5020725678056589,1,left
9.76,-0.5332542889204966,1.785074556254044,-0.18388604774500264,0.01746054849231099,4.715890585624804,-0.6885016425253743,-0.06110212832372317,1.4716414174306092,0.5024488532217835,1,left
9.761000000000001,-0.46533077948475804,1.7631133695919967,-0.16842347874276026,0.11321739785706815,4.60088320439048,-0.6954941802348085,-0.06192392416694984,1.4677574403067084,0.5012301905404817,1,left
9.766,-0.38899055895789303,1.7373626452141187,-0.13722640468498387,0.11583053104409739,4.598995702246893,-0.6951857354983124,-0.06125108330450894,1.4712598858564743,0.5025681001656443,1,left
9.767000000000001,-0.3053448804811518,1.7070286035022573,-0.10163265775562062,0.0639271843663559,4.659653133225688,-0.6920667677628887,-0.06132590999669387,1.4694526836502626,0.5009242319149876,1,left
9.77,-0.21406262745098462,1.6771679636249732,-0.07329934465009996,0.12516000513497857,4.587187711540908,-0.6961083063576876,-0.062318530952038986,1.4687702852951847,0.5036796840496488,1,left
9.77,-0.1245730993648289,1.6539906514716638,-0.052972243490946466,0.07891355181239028,4.643327623829119,-0.6924900671810273,-0.05997056420534666,1.4721400438551306,0.4990134680366457,1,left
9.775,-0.037291759017800984,1.6362655292586141,-0.044129492651627036,0.10108413959016609,4.6136231283623115,-0.6953457507315116,-0.0634923595154734,1.4666795982519476,0.5055840493553938,1,left
9.776,0.047914882457585864,1.622488033093771,-0.042352163988190375,0.10097974999076297,4.61939213305085,-0.6930706552476049,-0.05973446911473121,1.4725810334586495,0.498652343914405,1,left
9.781,0.12475007961140336,1.6177217288306935,-0.04330913847671399,0.08720543637374752,4.628887032178031,-0.6948966852116553,-0.06191149150325981,1.469044007872239,0.5025428087935748,1,left
9.781,0.19445324760797383,1.6197180052287263,-0.047957201484692194,0.1044929889102839,4.613798835757663,-0.6938790755837965,-0.06375999187862492,1.4666257175139348,0.5064647972322274,1,left
9.785,0.25968565148807676,1.6202284397836126,-0.04957986891031248,0.09357155553342789,4.626865627315011,-0.6931015804898839,-0.05562385337863947,1.4782411298416878,0.4902302860406297,1,left
9.786,0.3172848702482244,1.6194358192061042,-0.039470273494492725,0.09055196346751865,4.620229611973447,-0.6970052406013283,-0.07072092701994559,1.4565145720564803,0.5201698269552593,1,left
9.79,0.3741195055931891,1.6118451408489132,-0.02457081116408169,0.111039951489987,4.619197988453294,-0.6890272684448419,-0.05133336171573898,1.484453430261893,0.4817630897017193,1,left
9.79,0.4309451566255357,1.5960626951224666,-0.012820637933892085,0.07569129009153616,4.62644129362288,-0.700596767468173,-0.06752036456866804,1.4611131666595756,0.5138126693484406,1,left
9.795,0.48450620317635573,1.572860190764343,0.00234284147010147,0.11512339391091878,4.616632134415648,-0.6883850886079981,-0.06707803352211404,1.4618065631916193,0.5130013606914667,1,left
9.796,0.5346610203771869,1.542568891218071,0.020315527433305627,0.09116736924619426,4.623700220058689,-0.6953593637657933,-0.03622536947163686,1.5061066043614835,0.4517030182978764,1,left
9.8,0.5732287329128907,1.5107191231398152,0.03777137608996004,0.07416141453446079,4.625439214115075,-0.7016250709081853,-0.11206340039586135,1.3971524771946777,0.602302491214153,1,left
9.801,0.6028442901643303,1.4681709709032855,0.06089587683996244,0.1553096607597248,4.609795559570203,-0.6746716149952472,0.013682109056738952,1.5778186706301853,0.35261634366945144,1,left
9.804,0.6192563488799672,1.4376634830221808,0.07614676572904884,0.0032338300868185385,4.640705731900459,-0.7245462351704219,-0.15217692920104017,1.3395227712304534,0.6819520665178563,1,left
9.805,0.6233602031189301,1.4291074885019301,0.0803542320915504,0.19907439845934372,4.600329755577663,-0.6605449708458735,-0.8483232934609728,0.3392748806040976,2.0643457925254523,1,left
9.805,0.6323033344436466,1.4019313193927632,0.09503035670649881,0.03534310278342589,4.634329885236097,-0.713959080004724,-1.0141804208194571,0.10098386345298835,2.3936862880161294,1,left
9.809,0.642495606070733,1.3631415944756362,0.11470950315888889,0.04012823753881431,4.6329562775689865,-0.7125404173767484,-0.8884423113635868,0.2816566433425528,2.1440043655256957,1,left
9.81,0.6495996245369676,1.333077997260451,0.12984259118217067,0.3513861369147201,4.569329035303827,-0.6106187509756704,-0.9642622406528993,0.1726584678150447,2.294568619361977,1,left
9.814,0.6611073190097588,1.3036086198910994,0.14509941557184974,-0.4141490538299083,4.726376620104341,-0.8610899782616637,-0.9334416579779662,0.21706269896681415,2.2333559641503333,1,left
9.814,0.6839526378672784,1.2731586351035542,0.16290615993341293,0.8553208894113983,4.465731012650374,-0.4458129677853884,-0.9329563136260597,0.2175898171813858,2.2324060900935754,1,left
9.818999999999999,0.7016552775045092,1.2550081703699734,0.17525079206750027,-0.8191574590471805,4.809617338140459,-0.9935548495266412,-0.9491841618948825,0.19444160794374266,2.2646176753415723,1,left
9.82,0.7066259550115604,1.2502065732719578,0.17791468212215816,-7.848040224134078,6.252482255782156,-3.2927451396927965,-0.9297819378232804,0.2222471217084414,2.2260954173262353,1,left
9.821,0.7297560161258929,1.2348433194336343,0.19288016417833048,-9.522551495172308,6.596374297541505,-3.8404871290667075,-0.9448370281328311,0.2004705786176286,2.2559997489887325,1,left
9.825,0.7661136727277584,1.2139472335760544,0.21886688913615404,-8.252932289091158,6.335702828576544,-3.4252096765492226,-0.9368247910249327,0.21244824898538325,2.2400604220085585,1,left
9.825,0.7975203090101197,1.1991626658477776,0.237770082209025,-9.018856458075566,6.492817757203978,-3.6756820127924668,-0.9384656728540974,0.20928925623902533,2.2433687099345536,1,left
9.829,0.8334006067688124,1.1826383998161254,0.25678373150389283,-8.706886868051328,6.429067344785267,-3.5737583551402494,-0.9408917105763979,0.20678651074758225,2.2481251876116755,1,left
9.831,0.8707718734039116,1.165752063881401,0.2776815360576398,-8.703078638871377,6.427862762965269,-3.572342388607151,-0.9369436841219241,0.2116756255156384,2.240333967303397,1,left
9.834,0.9012416485873644,1.14703530158518,0.29518839276740727,-8.865853097886813,6.461697394670234,-3.6257539037487465,-0.9404445394437992,0.20663825576496947,2.24728603673227,1,left
9.834,0.9209206147594552,1.1227874575878034,0.30805418679525626,-8.670410932881705,6.4213902260967695,-3.5617536341356857,-0.9384936101882841,0.2108958969508853,2.243322596236836,1,left
9.839,0.9304578634648686,1.0957146704520029,0.31335517595842677,-8.823344369727018,6.4524489654999755,-3.611630774682518,-0.9386136888801971,0.20739985102706435,2.243765441043333,1,left
9.839,0.9296021342431402,1.0687025658930152,0.3161107961362483,-8.739481776871665,6.436335480368622,-3.5846696680951706,-0.9399623752712856,0.21041982426335962,2.2461386419972458,1,left
9.844,0.9160554220956392,1.0405373818930799,0.3229061884856427,-8.761150246529244,6.438881291242358,-3.5909483275884204,-0.9379656314871792,0.20800401418974734,2.242498736763407,1,left
9.845,0.895059827691578,1.0136822589985572,0.32896500639610843,-8.779389522769877,6.444960371965637,-3.597906923461484,-0.9394941362343727,0.20886078619159956,2.245345977823821,1,left
9.847999999999999,0.8667075157921915,0.9901002307205164,0.3378985080406214,-8.744512532329438,6.435938895235903,-3.585707436818505,-0.9396464948617173,0.211275442565522,2.2454869407790974,1,left
9.849,0.8346744475666386,0.9659017409932168,0.35663369533653533,-8.779906372854176,6.443190836940469,-3.597277749633288,-0.9368300488289264,0.2038002876920622,2.2406022771638394,1,left
9.853,0.8048301108754417,0.9425696253293582,0.3760905306962487,-8.750953447574297,6.440693543703244,-3.589275531073609,-0.9425609328726379,0.21693189740710084,2.250668856274895,1,left
9.854,0.773508057351403,0.9191684012126986,0.3940077971916053,-8.773312297878977,6.437404549089152,-3.593233329362927,-0.9350193836414826,0.20033447116666347,2.237380196640342,1,left
9.857999999999999,0.7460195025312388,0.8951885101001154,0.41231755419325294,-8.7553852264523,6.445479765282147,-3.5923760834896195,-0.9413923974148319,0.2140780814581939,2.248626539238937,1,left
9.859,0.7220993613381947,0.8705372990438871,0.43290371699394503,-8.768849272839535,6.435710961681595,-3.591442250649564,-0.9411016058546079,0.2138810137310822,2.2480883906514038,1,left
9.862,0.6986646536697905,0.845625585831447,0.4561030277029232,-8.764857592775392,6.442135223287921,-3.5932219921467885,-0.9292644923332705,0.18721048858929545,2.2272665225064867,1,left
9.863999999999999,0.6801645671002909,0.8229730733815941,0.4786805392933051,-8.749639858199293,6.4452480825630065,-3.5909003383757128,-0.9585291619161744,0.25250810350833214,2.2787802814131712,1,left
9.868,0.6594498835312108,0.7968099827137953,0.5056126290363456,-8.794511023346582,6.427148912456861,-3.5939457870029514,-0.90994349221453,0.14434126416383053,2.1932439427703807,1,left
9.869,0.6460794442400305,0.7798170386341619,0.5230410159858287,-8.716433731205726,6.461774542456161,-3.5899814416738014,-0.9740496191832515,0.2869719744493754,2.306107180732225,1,left
9.873,0.6418361467967015,0.7753262931959766,0.5266336067583491,-8.814833208513008,6.416926730305061,-3.5944616262475453,-1.2430512681685646,0.8858333511524812,2.779696165992954,1,left
9.875,0.6240471781772055,0.7594117293284983,0.5380866124642169,-8.733475421735186,6.454538959956699,-3.5909849128724054,-1.30715718426071,1.0284405964591565,2.8925532788557082,1,left
9.875,0.6016711578915904,0.7365672749856117,0.5579052257406152,-8.734450888102186,6.453248935959038,-3.590666562269657,-1.2585599694606353,0.9203274965274586,2.8070029345145304,1,left
9.877,0.5860865433462851,0.7186156647813877,0.5780962669957268,-8.892840528939264,6.38224702651374,-3.598388147629088,-1.2878664270048978,0.9855343442207107,2.858592295313649,1,left
9.878,0.5699105063305961,0.7031551436897971,0.5958501003536583,-8.505325273943983,6.557168684820798,-3.580016732823091,-1.2759425855764976,0.9589866375183824,2.837597780256301,1,left
9.883,0.5535678425439607,0.6877800228595017,0.6127920546395569,-9.147151277814546,6.26696762563421,-3.610233769783685,-1.2757809663604203,0.9586636204079682,2.8373304507560775,1,left
9.883,0.5447860415292478,0.677065103347207,0.6246278561719005,-8.300859623227367,6.649828649506744,-3.570484537290744,-1.2820147549411214,0.9724770830049487,2.8482690762891014,1,left
9.888,0.54286579598446,0.6748385015070902,0.6267067944438904,-4.74721921113016,8.256250578753193,-3.402999387461418,-1.2745544101182873,0.9559484170973329,2.8351861855355867,1,left
9.889,0.5358248851141674,0.6660913705415046,0.6341831423366426,-3.9010267841981436,8.639184740406186,-3.3633120112871815,-1.2803569090329063,0.9687935013943594,2.84535088431723,1,left
9.89,0.5275109631113437,0.6510867387416739,0.6450972522280307,-4.542606122691248,8.348875962787627,-3.3934165616487046,-1.2772249800978765,0.9618511679373324,2.8398588579893893,1,left
9.892000000000001,0.5210855034618147,0.6405813909519058,0.6469643863632807,-4.155543467168607,8.523868785313113,-3.3751810755623257,-1.2779708039137017,0.963567671714095,2.8412153742105453,1,left
9.892000000000001,0.5117646912010899,0.6303105959100255,0.6466583537355072,-4.31327196791508,8.45292060114917,-3.38279195056885,-1.2787167802008645,0.9650493608490726,2.842388835576842,1,left
9.897,0.5041849196276056,0.6186649379503275,0.6466601687972043,-4.314990372936938,8.451375518353156,-3.3824895405308784,-1.277425443815161,0.9624804614135667,2.8403562457546987,1,left
9.898,0.49679168892992465,0.6057138598846019,0.6466413326309697,-4.233111447813325,8.489465105340315,-3.3791679206593757,-1.2785927087832303,0.9647054500463617,2.8421157490441358,1,left
9.902999999999999,0.48813480885791716,0.5920980316174556,0.6481536017157441,-4.3313502584526775,8.444002477910756,-3.3832713898964166,-1.277833978184224,0.9633134539101086,2.8410155344981396,1,left
9.902999999999999,0.48262243167249147,0.5771702456772064,0.6500852830663851,-4.254604302271976,8.479152373848255,-3.379882345088552,-1.2782324900536008,0.9642030289896271,2.841719234658288,1,left
9.907,0.4837473123083428,0.5603155592532628,0.6581571025152462,-4.296705462764506,8.460984391514563,-3.3823001993281787,-1.2779542590486752,0.9630342320975471,2.840792300050552,1,left
9.908,0.4856319528631979,0.5411829242682569,0.6661334668482712,-4.285407860497093,8.463292258183783,-3.3803639737256974,-1.2783715882845827,0.9652186209731716,2.842525907189102,1,left
9.912,0.4828142417894502,0.5177430226793984,0.6666596696183825,-4.277501842229354,8.471686411048736,-3.382408529307361,-1.2776983663038184,0.9618473961100177,2.8398505273542822,1,left
9.913,0.4889624999864009,0.49754661278780526,0.6693642891036621,-4.292753261787165,8.458881025059831,-3.3801631235621437,-1.278483174370141,0.9655906248652503,2.8428207269603556,1,left
9.918,0.5062351572677921,0.4795289455579022,0.6718726379435109,-4.277908284508722,8.470302071005616,-3.381825614678108,-1.2780308015922035,0.9634299204557634,2.8411064881103796,1,left
9.92,0.5208119176533983,0.455282123452596,0.667119254680535,-4.2899174849243025,8.464913352713092,-3.382411918817432,-1.277490344692469,0.9612335144888009,2.8393637321265173,1,left
9.921,0.5302359101713692,0.4317075324865623,0.6565631183922506,-4.279054534179051,8.461093156277265,-3.3775209002078377,-1.2796598603043419,0.9704125578145548,2.8466460143106316,1,left
9.922,0.5386099001213598,0.4113539998568969,0.6429998817927833,-4.291921059431675,8.475229348300799,-3.388134504813741,-1.2756471215486531,0.9534127186096513,2.8331597683081107,1,left
9.926,0.5478423448625694,0.38988381564926594,0.6293408873154175,-4.27559092270032,8.452847098614344,-3.372436658694804,-1.2808110231535736,0.9752675467738778,2.8504966815118875,1,left
9.927,0.5557350675379907,0.36960322324140626,0.6153026857402369,-4.292465919569464,8.476946502203287,-3.3891448260337405,-1.2764958263165709,0.9570114374512076,2.836015809721052,1,left
9.931000000000001,0.5618202220386714,0.3514834454710959,0.6011462933065671,-4.283556890538192,8.46264355651757,-3.3795317589868263,-1.276593371360955,0.9574661504159873,2.8363736579020746,1,left
9.932,0.5679236716517497,0.33554719278841444,0.5885646601968038,-4.271708498109863,8.452193094627571,-3.3710450726900767,-1.2848970817843992,0.9924366412093376,2.864119170868397,1,left
9.936,0.5721150231596388,0.32001046539456535,0.5769828077413568,-4.316740617284255,8.501001042798503,-3.4078575352874756,-1.2645066553805862,0.9065189836899801,2.7959580962752195,1,left
9.937000000000001,0.5742740318097617,0.30175673178382617,0.5612234994680636,-4.234457774331693,8.409935864626169,-3.339649856537447,-1.2983105948767595,1.0489700290800787,2.908964353869468,1,left
9.941,0.5761945204751486,0.2897191239763494,0.5489956066330224,-4.339839461572032,8.526986090065776,-3.4272155113768163,-1.2537250841071717,0.8610763333338314,2.7599130008467325,1,left
9.942,0.5764042446534394,0.2872767232787571,0.5450281176117414,-4.251968833020051,8.429226187034612,-3.354121354594712,-1.066473592599643,0.07222352241068389,2.134084534744945,1,left
9.943,0.5768023949222556,0.2774979319781954,0.5310459420123335,-4.253928817446913,8.43204323286259,-3.3560686900800474,-1.0218916804502678,-0.1156711618400044,1.9850399497177085,1,left
9.946,0.5795958481938994,0.2611802416670697,0.5114537693961454,-4.42286276191842,8.617869942304413,-3.495536782286967,-1.0556946361540978,0.026787428715337604,2.0980440084073324,1,left
9.946,0.5849278875985149,0.25022483265483264,0.4973954852663545,-4.0081272431831225,8.16094886323785,-3.152787104115361,-1.0352924227997709,-0.05915275898537266,2.029862000851284,1,left
9.951,0.5958508700268046,0.23763891314214675,0.48117145812635753,-4.695664538532174,8.918568065146946,-3.7210588849191257,-1.043630295262024,-0.024138529245668124,2.0576692169991175,1,left
9.951,0.6032800340782404,0.2289129729399046,0.4713815962817115,-3.7887990775470826,7.919303503459263,-2.9715285189216893,-1.0436685309144849,-0.0237463353532774,2.057919298026447,1,left
9.955,0.6054832936660359,0.22601812125304876,0.4674472030554592,0.018172958598650868,3.724770618891692,0.17483617432587828,-1.0394270070184706,-0.041938097796175314,2.0435729304979633,1,left
9.956,0.6162732344042088,0.2138694454403599,0.4518837245471889,0.9251223230200568,2.7255891869940188,0.9243419449873528,-1.0445317420874116,-0.020115750921424917,2.0608009037107147,1,left
9.956,0.6297331375439723,0.20280502721467503,0.42931412685390735,0.2374942593296437,3.483118450843903,0.35609678718770343,-1.0405181690362633,-0.03716024867897527,2.0473152399789383,1,left
9.961,0.6397676771979699,0.19682546874665324,0.4111031447918252,0.6521952180305168,3.026163154011156,0.6988565420482564,-1.0427992424452368,-0.02781810888178422,2.0547980456580817,1,left
9.962,0.649339569807741,0.18722417756625537,0.3934179208511308,0.4835624633890767,3.212288227452473,0.5593002711962773,-1.042003933561066,-0.03030730854492972,2.0525933725134458,1,left
9.965,0.6584813854475007,0.18225137700075325,0.36928208231706083,0.48095447860280216,3.2144633201092367,0.5575427238852115,-1.041931362020386,-0.03209553575139971,2.051570581340761,1,left
9.966000000000001,0.6719679671187979,0.17794026447063374,0.3463210410618507,0.5697541700865072,3.1176238359408783,0.6303647143490854,-1.0423130375970686,-0.028669266981846006,2.0538031001144335,1,left
9.97,0.6878703054841631,0.16947026586669725,0.33243070060325197,0.46344737764164995,3.2337575309290694,0.5430701410523278,-1.0418671570446374,-0.03199712127070731,2.0515502140831927,1,left
9.97,0.7048202200383411,0.16372780362028755,0.32295850527363357,0.5461292979962686,3.143087791461371,0.6111607404390782,-1.0425029795125416,-0.02933058574262863,2.0536687614021782,1,left
9.975,0.7256345937551256,0.16189744723390448,0.3178610060116077,0.5018917811132296,3.192682837798895,0.5741157566245088,-1.0413063636045483,-0.03168485470023794,2.0510835091216557,1,left
9.976,0.7463184335777485,0.16117904337474148,0.3141873086821102,0.511180891924414,3.1796970247079646,0.583351904282225,-1.0434108906829294,-0.028960278878604293,2.0548853395697524,1,left
9.98,0.7620422943125515,0.15916413613034414,0.3061310201796843,0.5244994695455277,3.16976253222873,0.5916733649561954,-1.0404221355882972,-0.032388587476322256,2.049718026707186,1,left
9.98,0.7738856560347941,0.1596033106072061,0.29541346120717593,0.5022130646355024,3.188500815688278,0.5765505911356332,-1.0435802907905476,-0.028852721164394194,2.055132801042486,1,left
9.985,0.7846595953937814,0.16231977609890658,0.2800855397951938,0.5228571170001082,3.1703926087690073,0.5909840838309138,-1.041799523975949,-0.030708201260363468,2.052151977402975,1,left
9.986,0.7898016161659731,0.16606605386401763,0.25954935328860324,0.5100297735778146,3.184567122286156,0.580360135219236,-1.0400457933268372,-0.033235640269474155,2.0488492534526275,1,left
9.99,0.7921317183955043,0.1725084007283088,0.23990177727114426,0.5128855428002537,3.172814897663737,0.5875953412252806,-1.047363576237693,-0.023694093451471412,2.062104214593262,1,left
9.991,0.7963126176838895,0.17763494823740666,0.2261474428203688,0.5191740787133572,3.1855530787041957,0.5816501147075788,-1.0338565660164882,-0.04111389267908933,2.037738342246125,1,left
9.994,0.7982600911609532,0.18138402032738374,0.2176104978145788,0.5067228725937705,3.1699320755329543,0.587983606421439,-1.0511867617025796,-0.01880883486606339,2.068978198456682,1,left
9.995,0.8017803863612494,0.18407533604282822,0.20862904206272026,0.5205685374661202,3.1859537404735034,0.5817034630796323,-1.036722838504803,-0.037403241076342214,2.0429148543907516,1,left
9.999,0.8024803831110587,0.18334719925834952,0.1989224872847578,0.5116646648625872,3.1776925438169696,0.5845877085910198,-1.037095801329805,-0.03700031784422274,2.0435505915892427,1,left
10.001,0.7947560465282497,0.18287954357654973,0.19263450469417104,0.5084639704652518,3.1656399553163976,0.5907641563834265,-1.0647397824852396,-0.0012194242709801725,2.0934817810189514,1,left
10.005,0.7894540138276848,0.18320856137448938,0.18812002866676028,0.5297979424061463,3.2103136517158966,0.5697710980005425,-0.9968129847938263,-0.08904248103076733,1.9708346554504608,1,left
10.006,0.7884979583843189,0.17704768460153958,0.18628828563921987,0.48890970528199856,3.128925675453672,0.6076155731881039,-1.1094371765072235,0.056536759990033846,2.174173961450734,1,left
