time,gFx,gFy,gFz,ax,ay,az,wx,wy,wz,subject_number,foot
0.7190000000000001,-0.11380576724461657,0.9872039406621953,-0.11939023732469214,-0.054100462222749224,0.006399728665493215,0.06869998666661356,0.004299856701419311,-0.020999426718797013,0.013500334443904038,3,right
0.725,-0.11341126749080174,0.9872737263700264,-0.11948962635294051,0.050127595956542315,0.06327824636325204,-0.0052704437826610485,0.00430024510988661,-0.021000980477754862,0.013499428041506204,3,right
0.726,-0.11279636422743028,0.9882620096295026,-0.11936727717199071,0.054975144797409746,0.0659235167276419,-0.008712453821214142,0.00429970091017245,-0.02099880371233777,0.013500697809839597,3,right
0.727,-0.11442363168861086,0.988586557903423,-0.1210754961568014,0.04894380506831206,0.06263225198961647,-0.004430047304540042,0.004300236230583981,-0.021000944688141423,0.01349944901242909,3,right
0.73,-0.116710446972181,0.9888691096134451,-0.1214970207588153,0.0543808267925641,0.06559922280927558,-0.00829008400513703,0.004300006707798093,-0.021000027236555485,0.013499983972651097,3,right
0.731,-0.11768610169435828,0.9879883516112339,-0.12244934373982229,0.05059661309565556,0.06353410873677849,-0.005604841467196868,0.0042995518214063305,-0.02099820678588722,0.013501046213371046,3,right
0.733,-0.1157317833660994,0.983931290884269,-0.12207953503186923,0.052504864728997555,0.06457565795039719,-0.006955670999302244,0.004301014568555913,-0.021004058676565997,0.013497632300344994,3,right
0.7340000000000001,-0.11416943563632603,0.9793661913023608,-0.11973234045551226,0.05210815232757672,0.06435876786009054,-0.00668126357314477,0.004298496651313207,-0.020993986599026966,0.013503507819382312,3,right
0.738,-0.1140758878397522,0.9773368314588073,-0.12014970480171207,0.051603282738644035,0.0640838143994442,-0.006312947999418417,0.004301585257165558,-0.021006340305664343,0.013496301736910906,3,right
0.7390000000000001,-0.1118952781858707,0.978035103129348,-0.11940669660770044,0.05243092256008692,0.06453491652965923,-0.0069101707230346835,0.004299123203631046,-0.020996494482670987,0.013502044311627596,3,right
0.743,-0.11161462901746612,0.9794490608931009,-0.12091671228732273,0.05167735176861712,0.06412392010277396,-0.0063711405579951995,0.004299102302119591,-0.020996406710789388,0.01350209694404786,3,right
0.743,-0.11482093362154752,0.983079456027449,-0.12656425361986606,0.05217442816207683,0.06439564858928487,-0.0067155486415925655,0.004303667633749926,-0.021014673201651946,0.013491439715593374,3,right
0.748,-0.11767081836000744,0.9889918286978749,-0.12590844191194805,0.05194738264780152,0.06427024244968,-0.006581314616511592,0.0042932329800280215,-0.020972930386361426,0.013515791135272247,3,right
0.7490000000000001,-0.12042935950458125,0.9914629418901704,-0.12166296564593847,0.05198211523279006,0.0642917863462662,-0.0065596656369716335,0.004308800877266043,-0.02103520213717523,0.013479465891572602,3,right
0.753,-0.12315960681841882,0.9921931033376774,-0.12122999286617557,0.052044852538329245,0.06432284624375603,-0.0066609738576211015,0.0042922035019265226,-0.020968819961859272,0.013518186308667024,3,right
0.754,-0.12178898617057447,0.990812651392709,-0.12182840785193348,0.0519464542971891,0.06427168083392987,-0.006545890127273203,0.004301796492075672,-0.021007174838345334,0.013495818503947012,3,right
0.757,-0.11739784261333908,0.9838754627088585,-0.12412502300682597,0.05207065491941051,0.06433948126075735,-0.0066336190870477495,0.004310056204847736,-0.02104023941294179,0.013476521992005787,3,right
0.758,-0.11598857780362379,0.9782377563425723,-0.1271424658225151,0.051889384166298465,0.06423586253841532,-0.006588951171832202,0.004273887569861792,-0.02089553723342778,0.013560941099009523,3,right
0.763,-0.11766763527411486,0.9754884004033655,-0.126569577791665,0.052166262928280346,0.06439769227125089,-0.006593563993116397,0.004340970967688691,-0.02116388702383455,0.013404398151895279,3,right
0.763,-0.12070438131971335,0.972301400677928,-0.12569089370008407,0.051794202715306,0.0641786422911792,-0.006615750831887698,0.004254824428015603,-0.02081931439275785,0.013605394203213677,3,right
0.768,-0.12652756708317803,0.9714220230262142,-0.12355909178499501,0.052178633091095085,0.06440549951006713,-0.006583473666982694,0.004326755711144074,-0.021106978843213404,0.013437610801679392,3,right
0.768,-0.13690226228068897,0.9734244451767804,-0.11969440156956077,0.05196739702329328,0.06428036362311962,-0.006609805075051354,0.004324781639142999,-0.021099196818814402,0.013442111033778986,3,right
0.773,-0.1493393754572923,0.9759757957449593,-0.11710387801918506,0.05174288565639398,0.06414934218278076,-0.006602537257757536,0.004187687393430475,-0.02055066919828602,0.013762137266747654,3,right
0.773,-0.16042768435158516,0.9787555729619715,-0.11324134466411115,0.0526519331434299,0.06468262918913872,-0.006582463255462882,0.004524704776528828,-0.021898874534583064,0.012975637465026217,3,right
0.778,-0.16909049829371814,0.9794030154767099,-0.10942613355925465,0.05098142967230176,0.06370201278225038,-0.006630449318782135,0.0039658687279196265,-0.01966349518043899,0.014279620844586921,3,right
0.778,-0.17234169199278,0.9785428636319177,-0.10726871168413059,0.05312174488607761,0.0649586096388763,-0.006565624753527081,0.0047030225589469,-0.022611942221757813,0.012559751254545722,3,right
0.782,-0.17282077406543406,0.979974805790108,-0.10778832936690119,0.05133700508966703,0.06391068925887944,-0.006621057319710641,0.007796939802940522,-0.03498806124185753,0.005340193775686784,3,right
0.7829999999999999,-0.17497286830489306,0.978720799845283,-0.10807594930020668,0.05138049943737737,0.06393642165083907,-0.00661655255414206,0.008534229170598161,-0.037936495811829896,0.0036205221336712713,3,right
0.7829999999999999,-0.17785040821811765,0.9755725578291179,-0.10350771179274598,0.05479778188833185,0.06594232478918283,-0.006519906994563847,0.00797518124539175,-0.035701135948262686,0.004924196075352379,3,right
0.787,-0.1796067483804949,0.9753207179054549,-0.09993081540469997,0.046405120545347386,0.061015672608773844,-0.006761302382569931,0.008312373919103347,-0.03704932517354308,0.0041379522713002135,3,right
0.787,-0.17788893376047965,0.9748771516180177,-0.09778407676999673,0.06031801215672869,0.06918290173332343,-0.006359897737356506,0.00817528974044264,-0.036500796589021854,0.004457993227787013,3,right
0.792,-0.1767052651340772,0.9750993587108464,-0.09516343709594463,0.041968159015175276,0.05841101975967934,-0.006889551716073809,0.008172975767873056,-0.036493045896327514,0.004461997012289151,3,right
0.7929999999999999,-0.17706623455507434,0.9762249574792501,-0.09518727519246119,-0.0350684477329704,0.013188818962866824,-0.009110568728155813,0.008245649194465986,-0.03678064199877297,0.0042952975267997046,3,right
0.7929999999999999,-0.1734752804596219,0.9787563397677622,-0.09683936444885183,-0.05341732218321608,0.002417483024184388,-0.00963987209887121,0.008158445354631115,-0.036436166689288535,0.004494749397268734,3,right
0.7959999999999999,-0.16814544894279843,0.9829446373014173,-0.09954835114043314,-0.03950571781676866,0.010583996758144056,-0.009238684834094742,0.008226576025634577,-0.036704420147138386,0.004339735950120315,3,right
0.797,-0.16272761883017628,0.9868122021210566,-0.10448322590543999,-0.04789797301474206,0.005657561280253391,-0.009480798138818,0.008189953281409708,-0.036559759614865475,0.004423491917351846,3,right
0.8009999999999999,-0.15784208280121337,0.9913912574068313,-0.11241021516280278,-0.04447884570745718,0.007664514107478454,-0.009381711680902273,0.008197332786830762,-0.03659290543872827,0.004402909741237316,3,right
0.802,-0.15339328404416563,0.9948694246196004,-0.11884255725673265,-0.04444043487466095,0.007687380022480625,-0.009381668720705269,0.008209772340076228,-0.03663099805165147,0.004384699461217169,3,right
0.807,-0.14615381246667059,0.9981514262710418,-0.12149265780891011,-0.046216993910375044,0.006644056361624977,-0.009431336588000128,0.008188269545467058,-0.036565067549926625,0.004416255462345478,3,right
0.807,-0.13718552703669173,1.0010066521794487,-0.1233183468596899,-0.04408593944636646,0.007895467717793304,-0.009371462118816586,0.008209856977630704,-0.03662678534042262,0.00438872164790613,3,right
0.8109999999999999,-0.12515496812939522,1.0004160772556525,-0.12353381090189529,-0.045750377278531165,0.006918218225789443,-0.009418780197744257,0.008194622820175019,-0.036585483765466435,0.004406063718786276,3,right
0.812,-0.11224648344444232,0.9990860756220832,-0.12440447234555303,-0.044838147477679266,0.0074533551406139285,-0.009391072627191712,0.008199148890335222,-0.036603754887629264,0.004395348586758707,3,right
0.816,-0.1026683469583207,0.9969100798229384,-0.12622974034058115,-0.04508111422821652,0.007311897645363368,-0.009402576191181053,0.008208024191878974,-0.036602846903555974,0.004408394814258311,3,right
0.8170000000000001,-0.09488685947873916,0.9939626465657262,-0.12690994181636164,-0.045255895861499834,0.007207283724091934,-0.00939986507528836,0.008185226592976519,-0.0365948741219235,0.004384436772209791,3,right
0.821,-0.09165340975379113,0.9918169398458767,-0.12920394402484872,-0.044921142849066675,0.007406260384062398,-0.009399727888593345,0.008218655651927743,-0.03660443475484261,0.004421542923970611,3,right
0.8220000000000001,-0.09117493457414343,0.9888557482821436,-0.1316248516840181,-0.04524622932897385,0.007213459069497058,-0.009401516962262185,0.008183790269086597,-0.03659733868944261,0.004380175974422142,3,right
0.826,-0.09016696543566863,0.98598699567098,-0.13099986803274047,-0.04498587683596312,0.007366276071123135,-0.009393930680061578,0.008203950049697508,-0.036601473541813465,0.004404066775930315,3,right
0.8270000000000001,-0.0924530626135327,0.9836064525861187,-0.12882155565413772,-0.04521547979054062,0.007235140609078874,-0.009414660014173931,0.008219591314761326,-0.036598165119502125,0.004428640872528575,3,right
0.8320000000000001,-0.0968634430587287,0.9829064406877692,-0.12641389895790955,-0.04495002296249364,0.007382633759418746,-0.00937477867685995,0.008148873187827102,-0.036603743218907546,0.004326223611266111,3,right
0.833,-0.09976997935784421,0.9830192425943676,-0.1256961162875056,-0.04528396215474206,0.007199041380834088,-0.009432473678902417,0.008280148516795267,-0.03659384501852192,0.004515922567309443,3,right
0.8370000000000001,-0.10146424898579982,0.9812061014582796,-0.12732955093997692,-0.04493950594816293,0.007387984234948325,-0.009371316295497478,0.008111709699591211,-0.03660712029400809,0.004271984421388746,3,right
0.8370000000000001,-0.10481420260205639,0.9812811172701473,-0.12665297387793328,-0.045120335005455155,0.007289499419156443,-0.009406102034653694,0.00825229151909649,-0.036595783968907745,0.004475821770536298,3,right
0.84,-0.11061058035787341,0.9817907800936155,-0.12599815479559143,-0.04536646891585121,0.0071516089844783845,-0.009438775117996031,0.008248246320411413,-0.0365953544412221,0.00447064621862908,3,right
0.841,-0.11445690405823405,0.9809024565865033,-0.12815657157457344,-0.044436908626991845,0.007668389791243855,-0.009300215642580822,0.00798109827856816,-0.03662008545878935,0.004080363306309346,3,right
0.846,-0.11628361875951788,0.9817883785901297,-0.1257901377080125,-0.046134244361072066,0.006725606745458138,-0.00955633750868343,0.008637972771178882,-0.0365598752488643,0.005039473081561052,3,right
0.847,-0.11975271149368256,0.9822260953130268,-0.12091486016650767,-0.04396059455948505,0.007932763664693861,-0.00922770419365353,0.0075487664373879125,-0.036659736969222693,0.0034490725353138276,3,right
0.85,-0.12117085346446294,0.9826358052571599,-0.11997890832099668,-0.04577311142655098,0.0069262493092044925,-0.009501895598426981,0.008985472873003374,-0.03652786819056815,0.0055470272959404696,3,right
0.851,-0.12150777332412391,0.983951558106725,-0.12080083920203798,-0.04573272924011812,0.006948362241827318,-0.009494970325349184,0.015014496022745853,-0.035972190356332534,0.014352866925162404,3,right
0.851,-0.12641592354576375,0.984098827930217,-0.12365289766615703,-0.04224759663542526,0.008884710531922645,-0.008970715643960899,0.0164512948718123,-0.035840103475387644,0.01645117899167964,3,right
0.855,-0.13150414931893178,0.9867077952949445,-0.12895580531652753,-0.050803944045808416,0.004131161220766757,-0.010258492695666487,0.015362022035228075,-0.03594033507660675,0.014860313824384108,3,right
0.856,-0.13595144177498336,0.9919365670420927,-0.13148789406497935,-0.03661897491910407,0.012011623304727857,-0.008123730204910086,0.016018739904572477,-0.03587974030797877,0.015819552987852564,3,right
0.86,-0.14019747006501904,0.993480089808316,-0.13089588614281247,-0.05532964583238871,0.0016169393748024126,-0.010939113512508734,0.015752168018937304,-0.035904666408433636,0.015429982543332945,3,right
0.86,-0.14180206546392687,0.9933083383493059,-0.12939768648370514,-0.13386946985432144,-0.04201645008751082,-0.022761057984787215,0.015747046488360394,-0.035904470391304,0.015422893321976659,3,right
0.861,-0.1425443918077315,0.9955312658246954,-0.12435636777383531,-0.15258298159093558,-0.052412705797466624,-0.025575890372298026,0.015889040772465647,-0.03589227623795612,0.015629779291660845,3,right
0.865,-0.1389212860419885,0.9969875733172588,-0.11949456639573103,-0.13839493879839232,-0.04453054327095192,-0.023441723918564424,0.015719358796817066,-0.035907059069706204,0.015382424602908768,3,right
0.865,-0.133915273887401,0.9961317922203186,-0.11939222343881477,-0.14695011751474246,-0.049283445377601966,-0.024729727749907192,0.015850867152247004,-0.035895297093283644,0.01557430481794559,3,right
0.87,-0.13191416066030415,0.9942190862190864,-0.12056828020439465,-0.1434751796843646,-0.047352738892968524,-0.02420349572016487,0.01578191561766915,-0.035902376485734605,0.015473192014995302,3,right
0.871,-0.1261756949023467,0.9918525689527958,-0.12251159135393416,-0.1434128617705432,-0.04731848749811912,-0.02420082484995227,0.015793068789308896,-0.03589904153378106,0.015490761182292414,3,right
0.8740000000000001,-0.11857822608945938,0.9893574184272058,-0.1264930133957599,-0.14525683032657027,-0.04834240546939564,-0.024468916393765625,0.015820279135391378,-0.03590049213158457,0.015528312736809817,3,right
0.875,-0.11227891136319418,0.9874519912020467,-0.13179228555098232,-0.14305186082324917,-0.04711791877553713,-0.02414635715546757,0.01577748565928112,-0.035899588698634015,0.015468491505222734,3,right
0.88,-0.10551524848352083,0.987610414368127,-0.13515094457541044,-0.14476271114037315,-0.048068178193713194,-0.024399858377528703,0.01581615305142857,-0.0358998837067748,0.01552283289072546,3,right
0.88,-0.10084281886750715,0.9870681298899076,-0.13287712680068262,-0.143860043806789,-0.04756628121285015,-0.024256082542832572,0.015795893097333417,-0.035901790491594386,0.01549322272906506,3,right
0.885,-0.0980752336647776,0.9840113879438077,-0.12840074359448767,-0.1440195453111977,-0.04765623114019847,-0.024305558127153973,0.015789334047448925,-0.035895227433342516,0.015487601170802662,3,right
0.885,-0.09558245852986448,0.9827244393048324,-0.12544886959676516,-0.14434964716884957,-0.04783731693737221,-0.024311392933199127,0.015824612666135395,-0.03590834507908461,0.015530083131706039,3,right
0.89,-0.09244094727910768,0.9812738178988877,-0.12504669860238266,-0.14382199418870129,-0.04754700465004428,-0.024285765091856107,0.01576712634600494,-0.03588923173853542,0.015459613448738519,3,right
0.89,-0.09240221952101675,0.9779483878227718,-0.127422808304496,-0.14430198908972985,-0.04781140961839403,-0.024315134996873673,0.015829309535113363,-0.03590951516929322,0.015536051544424756,3,right
0.894,-0.09590857180015247,0.9764221026672396,-0.12895458378792335,-0.1440378283578487,-0.04766464589050226,-0.024274999462283422,0.01579195583841161,-0.035897940102736864,0.015489808108912264,3,right
0.894,-0.09386730119377451,0.9740423058114075,-0.12869304017011257,-0.14399640310081446,-0.047645793315689945,-0.024348296767594646,0.015766821234397037,-0.03588726981070907,0.015460254946566063,3,right
0.899,-0.0919749788397238,0.9716068617644954,-0.12846483830852412,-0.1443554501916522,-0.04783573206822479,-0.024220578404033122,0.015888379041332376,-0.03593281583627965,0.015606453858371096,3,right
0.899,-0.09666257828226238,0.9725765936546991,-0.12774635447097693,-0.1437564850744464,-0.04751721094901608,-0.02440158246072153,0.01566087109489788,-0.03584857810409292,0.015332299773724082,3,right
0.9059999999999999,-0.10016995796106597,0.9739859420433311,-0.12539425777160917,-0.14440680301537495,-0.04786329967209391,-0.024210400953001594,0.015953457939616583,-0.03595666562284942,0.015684984165904116,3,right
0.907,-0.10312296133926337,0.975203620262684,-0.12309848325000093,-0.1440124004924579,-0.04765300691679615,-0.02431806860625795,0.015709021722166663,-0.03586649672197549,0.01539030948165853,3,right
0.909,-0.10839044117223086,0.9771672015982058,-0.12277561490658959,-0.14376474063228903,-0.047522901724388306,-0.024424743724682077,0.01571632107406795,-0.03586875344611938,0.015399254452455343,3,right
0.91,-0.1140568845405279,0.9786878168595043,-0.12170386188327467,-0.14499977908558642,-0.04817603220721736,-0.023980566812475484,0.01618012927183395,-0.03604118724133107,0.01595787544206336,3,right
0.914,-0.12096016885265107,0.9792447517712323,-0.12003066695019161,-0.1426820644311449,-0.046949718641045704,-0.024800211925750264,0.015039379270064547,-0.03561768138455297,0.014583792693403232,3,right
0.915,-0.127935683591692,0.9798213499157574,-0.12044740528452633,-0.1456643099363379,-0.048527701121273185,-0.023748651545233743,0.016930945702012812,-0.036319673886848924,0.016862260639323556,3,right
0.919,-0.13088583249587832,0.9803245792394203,-0.12105092864076585,-0.14317200113563844,-0.047209034031433804,-0.02462619842593708,0.014436032573859874,-0.03539393116602098,0.013857095643121225,3,right
0.919,-0.1316390166453795,0.9799165841162669,-0.12107505267508922,-0.14324919983147022,-0.04724980511043783,-0.024603818570008967,0.003963903248313586,-0.03150597791039171,0.0012427870960767884,3,right
0.92,-0.13411552401486093,0.9804430730388184,-0.12257409507095286,-0.14796979717222494,-0.04974739332562912,-0.022925959411080804,0.0014691962907021831,-0.030580527284626416,-0.0017620012145788794,3,right
0.924,-0.13704775035132963,0.981014228412447,-0.12490364847233587,-0.13635545032005544,-0.0436028204760715,-0.02704836673658035,0.003360539646265596,-0.03128220372212436,0.0005160592178374352,3,right
0.925,-0.13915319978517549,0.979603569605161,-0.12559412353874144,-0.15561586289037543,-0.05379207319710402,-0.020213564120289455,0.0022197048539290103,-0.03085857780135042,-0.000858178660630557,3,right
0.929,-0.13951249533297944,0.9789912202580909,-0.1254248056440298,-0.13021077827986172,-0.04035274576676223,-0.029228710910608482,0.0026842528748876418,-0.03103205961918635,-0.0002982055329781517,3,right
0.929,-0.1392207299137609,0.9787279375971126,-0.12554431405939193,-0.02358920906097604,0.016053207362351322,-0.06707114996012165,0.0026899603394777384,-0.031032061210734915,-0.00029216968268534174,3,right
0.93,-0.13927134572806943,0.977416369923079,-0.12430487327265301,0.0018159769136896538,0.02949095423166456,-0.07608677564549603,0.00244780661690557,-0.030945125856207095,-0.0005826734187081321,3,right
0.9329999999999999,-0.1367090105384246,0.9783803103198474,-0.12421400251149245,-0.017445178795815836,0.01930384737755153,-0.06925131239495969,0.0027381205087599336,-0.0310499932580037,-0.0002341422452489484,3,right
0.934,-0.13392223471007111,0.9800919525120753,-0.12640143978674356,-0.0058286298917625025,0.02544752699386308,-0.07337402740005153,0.002511593418813075,-0.03096714528021515,-0.000506504618424357,3,right
0.938,-0.1333482335777854,0.9784602331923029,-0.12487594261360108,-0.01055348916671918,0.022947448658965388,-0.07169684636596502,0.0026351027618643557,-0.0310154556893553,-0.0003567385388819361,3,right
0.938,-0.13088828905487065,0.9772582891675784,-0.12290493958505054,-0.010624608081710347,0.02291416139660441,-0.07167231226545384,0.0026036812514082536,-0.030995879237440637,-0.0003977812366051896,3,right
0.9440000000000001,-0.12683871560378265,0.9789538455697664,-0.12478988494161242,-0.00813854223498095,0.024220396048090523,-0.07255350447788375,0.002577160421810346,-0.03099965060120693,-0.00042422846228914394,3,right
0.945,-0.12160186044781514,0.9787241528748026,-0.12315197631996987,-0.011117661759109082,0.022656919959552248,-0.07149761884672629,0.0026260486873461103,-0.031001099325595256,-0.00037208449185813653,3,right
0.95,-0.11357896703552292,0.9781692711132103,-0.12082001126297152,-0.008795556272301976,0.023873025645186886,-0.07232042137218098,0.002579162137919594,-0.03099700309744047,-0.00042318690425892776,3,right
0.95,-0.1069996992064238,0.9802954406178565,-0.12473847647600916,-0.010046505154771545,0.02321653739380872,-0.07187698335331294,0.0026145342620982684,-0.03101025186740924,-0.0003805296348091258,3,right
0.9540000000000001,-0.10290156122575789,0.9813839155587986,-0.1284621616097591,-0.009770345598251389,0.02337311146190335,-0.07197616013327399,0.0025883070294503733,-0.030975827213310207,-0.0004220979566690212,3,right
0.955,-0.09857727847467629,0.9827592345611558,-0.12746437482624284,-0.00941213478023297,0.023528912630935775,-0.0720996528714766,0.0026129971485055457,-0.031041411916253966,-0.0003695627376838149,3,right
0.9590000000000001,-0.09429309831776597,0.9847182263744055,-0.125399241472944,-0.01003174759260523,0.023259131443258006,-0.07188596566524366,0.0025846049407907057,-0.030946705875771,-0.0004377649580533992,3,right
0.96,-0.09066886965669523,0.9844571278139113,-0.12582940304708468,-0.009436785254437549,0.023502729340090872,-0.07208951864678076,0.0026133003081811254,-0.031047080664837908,-0.00036695664469325645,3,right
0.963,-0.0876460255839894,0.9841103962450969,-0.12786877558247792,-0.009842995255911839,0.023344544384649134,-0.07195139988792457,0.002599201969983766,-0.030990005124018727,-0.0004048735935539983,3,right
0.963,-0.08646413171080888,0.9839112185287331,-0.12869248323966745,-0.009686048659178619,0.023428071239642453,-0.07200716807813358,0.002574753109399701,-0.030936242243539306,-0.0004523903016939137,3,right
0.9670000000000001,-0.08788130626191183,0.9847325081094882,-0.1276903071037001,-0.009600375961076322,0.02336820100176565,-0.07202632950267746,0.0026616280264588742,-0.031164066876655943,-0.00026871937774032936,3,right
0.9670000000000001,-0.08955977949589111,0.9867987328091606,-0.12628943193768793,-0.009882690326519923,0.023459250466195063,-0.07195180750254576,0.002504148406980343,-0.030742910481945322,-0.0006049475303668609,3,right
0.973,-0.09305369357061752,0.9874775912753805,-0.12604981096660345,-0.009481653255683085,0.02331277148139866,-0.07205585302354187,0.002705547332871281,-0.03128339561947795,-0.00017421046871377783,3,right
0.9740000000000001,-0.09803300312594544,0.9876255799473416,-0.12482192799702971,-0.009882479417617687,0.023483045372685772,-0.07195439687849849,0.002537735726266802,-0.030832290240172578,-0.0005333932338417524,3,right
0.978,-0.10175675479847926,0.9870298358112493,-0.12156453716127409,-0.009650600256972426,0.023384796519953975,-0.07201313672060788,0.0025410203663143705,-0.030844039764508585,-0.0005252428956516481,3,right
0.9790000000000001,-0.1075524884580209,0.9866061509046906,-0.11860882809234073,-0.009509878491047726,0.023268851298469097,-0.07204271854312422,0.0028651367929282473,-0.031705725800590764,0.00016475967760769042,3,right
0.982,-0.11520701354101337,0.9876116716177472,-0.11625733134397934,-0.010202326272930228,0.02373586404322812,-0.07188595680412388,0.0020699716656908005,-0.0295883405062781,-0.0015292891172432998,3,right
0.983,-0.12607582715127508,0.9880897539759588,-0.11382320786653635,-0.008914372027176112,0.022871757452381118,-0.07217807137940033,0.003388022521320465,-0.03309893604075828,0.0012789805753851576,3,right
0.987,-0.1362730051132957,0.9883954606128582,-0.11137561524869835,-0.010563255835938565,0.02398395082463396,-0.07180467802735972,0.0016495331122156405,-0.028468469902433503,-0.002424989322382621,3,right
0.988,-0.13783281256040705,0.9897424243654837,-0.1113097850224232,-0.009188924705932605,0.023054191482745297,-0.07211567920699632,-0.005649471297492665,-0.009031564649320433,-0.01797501281945916,3,right
0.988,-0.14284164484587936,0.9920758566814397,-0.1110550001250045,-0.009232341698727763,0.023076209405055278,-0.07210489633944685,-0.007388163709157956,-0.004400981367728666,-0.021678951407116943,3,right
0.992,-0.1536023609881187,0.9941794204520339,-0.10592191548886314,-0.011826377171636076,0.024862769639708182,-0.07152167660209813,-0.006069873476178133,-0.007911731063071874,-0.018870824547852875,3,right
0.993,-0.15777724873824664,0.9959575949355783,-0.10303003520399227,-0.0054458506956867265,0.020473824484462375,-0.0729571491613091,-0.006865024995237428,-0.005794296852001298,-0.02056450029566774,3,right
0.998,-0.16010518550666233,0.9980439603205002,-0.10563254658153978,-0.01602459996141301,0.027751354935857085,-0.0705769888530633,-0.006541492960943475,-0.006655762697860683,-0.019875180985512525,3,right
0.998,-0.16290812468043053,1.0002947362824295,-0.10726811855070845,-0.0020727825840461565,0.01815131498063856,-0.07371612020475393,-0.006536854619450908,-0.006668119751715607,-0.01986609205873608,3,right
0.9990000000000001,-0.16343020460790209,1.0005317009912695,-0.10715886760462108,0.05647338134725838,-0.022150876574661575,-0.08688396588642057,-0.0067066842667427105,-0.00621603620307376,-0.020226194999805214,3,right
1.003,-0.16549549853999018,0.9969976083795452,-0.10691506749042834,0.07042301663000093,-0.031752461689985634,-0.09002272891551985,-0.006503179473765254,-0.006757629172431145,-0.01979507324020528,3,right
1.003,-0.1675400101997529,0.9950647188609588,-0.10787463145852527,0.05984778163625831,-0.024472649309093396,-0.087643376363927,-0.006661746608093884,-0.006335746331617807,-0.020130480156006585,3,right
1.006,-0.16881451772739264,0.9937473761627699,-0.10900241256961014,0.06622512070563735,-0.028863119865787212,-0.0890775508936944,-0.0065762678401753445,-0.006563192142059079,-0.01994941449017372,3,right
1.0070000000000001,-0.1699891798297904,0.9902260933121105,-0.10834461414717456,0.06363167622650791,-0.02707764946158,-0.08849599775540523,-0.006595510264407688,-0.0065116343689563495,-0.01999245235684953,3,right
1.011,-0.16982048735106242,0.9899959705496687,-0.10856095906104696,0.06359261429895921,-0.027050310006746195,-0.08848362549467514,-0.006618981977367641,-0.00645020034220041,-0.020035865227868786,3,right
1.012,-0.16955477846959918,0.989264466111495,-0.10843153437117223,0.06495619622981048,-0.027990082544898008,-0.08879530706409916,-0.00657835583426941,-0.006556517564315504,-0.019960670383197113,3,right
1.016,-0.16701495716271908,0.988391741853878,-0.10701997251271785,0.0633236437520981,-0.026864941118935913,-0.08842323294248863,-0.006616897970755216,-0.006456187605024744,-0.02002884771004182,3,right
1.0170000000000001,-0.16102618455012946,0.990605443498833,-0.1080298764365426,0.06459410092146083,-0.02774016304505033,-0.08871107018243442,-0.006590829635233926,-0.006523762056822268,-0.019984418229738236,3,right
1.022,-0.1527624357562792,0.9889445441308857,-0.1127926057139242,0.06391171060533721,-0.027271529385732622,-0.08856172038166364,-0.006601589889198389,-0.006495095174891932,-0.02000744053840294,3,right
1.022,-0.14309498855212294,0.9867868544062594,-0.11761851919967557,0.06406146038588602,-0.027370780847526727,-0.08858212543233257,-0.006604229986523961,-0.006491483999034877,-0.019992458075171103,3,right
1.026,-0.135102399119775,0.9861049734844858,-0.11886159351370647,0.0642542700005817,-0.027510233091855497,-0.08864833380608925,-0.006592270803088308,-0.006515509132093936,-0.02001407256122366,3,right
1.026,-0.128665458777368,0.9844902077056603,-0.12000339677174814,0.06392635645033229,-0.027276185577979135,-0.08854657004326599,-0.006608734876481715,-0.006483338919920614,-0.01997889527930737,3,right
1.031,-0.12347278526572228,0.9836680203515552,-0.12067576356530164,0.06423198107270811,-0.027493231444653772,-0.08863763168916895,-0.006593011673365716,-0.006512762859016885,-0.020020287258404604,3,right
1.032,-0.11960494770303816,0.9810438004522474,-0.1200161629527044,0.06403462289550194,-0.027357417469790885,-0.08859344069069766,-0.006602112517184389,-0.006495721398881157,-0.019996408334455127,3,right
1.037,-0.11499733267816008,0.9805952297071193,-0.12017118403785569,0.06410054614592614,-0.027390450578432507,-0.0885668627495893,-0.006605919141396876,-0.006491780156647105,-0.019967210021193317,3,right
1.037,-0.11200552883839864,0.9818155701290873,-0.11886327933573322,0.06414692323316717,-0.027450625892893387,-0.08867191231513606,-0.006584040869348657,-0.006522913842737594,-0.020083855674152627,3,right
1.041,-0.11110581417387959,0.9808499467646988,-0.11802978857769171,0.06403055784619861,-0.027328359578578692,-0.08850458945865852,-0.00662486473718234,-0.0064645143038101205,-0.01986807798994696,3,right
1.042,-0.10756263408177069,0.9825196483842527,-0.11873181938141994,0.06416338535647158,-0.027464751039173244,-0.08868493130149582,-0.0065727913961600715,-0.006538574911263872,-0.02014587597036788,3,right
1.045,-0.10238075288356935,0.9826272672004595,-0.12036122394077424,0.0640727618909285,-0.027376388284044824,-0.08857761032594119,-0.006616096090164306,-0.006477200925383382,-0.019913610346511245,3,right
1.046,-0.09917123681536663,0.9806297382322363,-0.1209684557750321,0.06406339273379397,-0.027347548462366984,-0.08850055837751214,-0.006614534457419664,-0.006479885400344885,-0.019919036286028688,3,right
1.051,-0.09558449309715705,0.9816692206096908,-0.11973935848501528,0.0642169221608645,-0.027551239150437272,-0.08886307730175041,-0.00653369083994736,-0.006592340406543315,-0.02036567885252055,3,right
1.051,-0.09094857472502049,0.9810626419294254,-0.12199620234306136,0.06391189986561174,-0.02715951090478637,-0.08818622021515936,-0.006732643462635887,-0.006315305321425982,-0.019268478827902502,3,right
1.056,-0.08891763553971194,0.9789497162541129,-0.12279904874583739,0.06430810344982946,-0.02766564399677702,-0.08905635424575549,-0.006402857607653529,-0.006774389817707125,-0.021087823825172332,3,right
1.057,-0.08864649930397095,0.9788293781844403,-0.1201843764284861,0.06397552389239744,-0.027241833461998457,-0.08832952466756816,-0.006837684866696191,-0.006169303700658743,-0.018687826570021444,3,right
1.057,-0.0891248909819594,0.9789727607668334,-0.12031210633556,0.06399149780332647,-0.0272581647427044,-0.08835074160501125,-0.008662385501767912,-0.003630497459597487,-0.008612299867848588,3,right
1.061,-0.08998949302838505,0.9783608375159066,-0.12080744121260586,0.06460273674633733,-0.028050332014365756,-0.08973157015731985,-0.00909696901557755,-0.0030260972301124405,-0.0062118587446370385,3,right
1.062,-0.08981625155295861,0.978360168852737,-0.12181653553945451,0.06309217920587551,-0.026097562355292342,-0.08633584759666901,-0.008767525778604991,-0.0034842294532772622,-0.008031852095234653,3,right
1.0659999999999998,-0.09141864182603433,0.9787629652244402,-0.1222734991755303,0.06559895682218127,-0.02933681446960323,-0.09196661625937355,-0.008966299229801102,-0.0032076566186651535,-0.006934239245267605,3,right
1.067,-0.09326818950513409,0.9782907809199973,-0.12028008454134095,0.06229200137245259,-0.025064132184606062,-0.08453946740960896,-0.008885156995411442,-0.0033210383603906523,-0.007380516447406777,3,right
1.067,-0.09446390655636963,0.9790335841904024,-0.12042582835278672,0.04840846134579106,-0.007135717058320434,-0.05336079394709219,-0.008884622786100386,-0.0033207034734557403,-0.007387548652649208,3,right
1.07,-0.09781303674413253,0.979123313739154,-0.12104538415958008,0.04509924157203067,-0.002863473824708587,-0.04593246624118656,-0.008926146188713478,-0.00326447959263183,-0.007152323335992157,3,right
1.071,-0.09951700003346954,0.9789903900226522,-0.12095235433603047,0.04761193840561112,-0.0061024527199315375,-0.051566023493565746,-0.008876231602121934,-0.0033323862675958315,-0.007433888794344232,3,right
1.075,-0.10109954425507084,0.9819299003093134,-0.121724511256057,0.04609002401114254,-0.004148787591477592,-0.04816542641832387,-0.008915409110778484,-0.0032785464642334124,-0.00721496226919324,3,right
1.075,-0.10638302840474609,0.983373770046268,-0.12190899496102407,0.04671847081180383,-0.004944004203849597,-0.04955307358376383,-0.008893324460992991,-0.0033105761418036938,-0.007331882827683381,3,right
1.08,-0.1118136589553353,0.9865901787367276,-0.12282910892178905,0.04671434438731749,-0.0049547589104171185,-0.04956700095582722,-0.008900629765233857,-0.0032961994326811015,-0.0073078371725408455,3,right
1.081,-0.11770922653856411,0.9910929422558221,-0.12330370230863646,0.04639703506825639,-0.004538155899852441,-0.04884471357114186,-0.008902093689107594,-0.003301423761232131,-0.007271652637575059,3,right
1.084,-0.12545445248772247,0.9908115911331493,-0.12314440275445653,0.046794956505631966,-0.0050380962276099514,-0.049717705752966704,-0.00889745068078018,-0.0032989726081873805,-0.007331785486782149,3,right
1.085,-0.131798606570682,0.99248019293121,-0.12325752893453858,0.04645776770644881,-0.0046472120976817745,-0.04902590947167339,-0.008902530620947762,-0.0032990089973180033,-0.00727623274592193,3,right
1.089,-0.13722099677731192,0.9952152608603073,-0.11989273666650063,0.04668223022739383,-0.004860432431153793,-0.04941755450144926,-0.008896339861091639,-0.0033076842698246765,-0.007310172716396246,3,right
1.09,-0.14248859679929166,0.9949940415367713,-0.11587338972983696,0.046568944023985204,-0.004808141461329668,-0.04930101331222407,-0.008906642484258726,-0.0032801716115129238,-0.00730431494083134,3,right
1.094,-0.1417915038496265,0.9927855781081972,-0.11387955062315941,0.046586636553291455,-0.004756071346818699,-0.04923088223609588,-0.008889239897685359,-0.003334502093897187,-0.007283789101062525,3,right
1.095,-0.13641120977315907,0.9902907278466412,-0.11183654170036458,0.046661684055769065,-0.004852294029633055,-0.04939835936250235,-0.008913729666384911,-0.003255498173297128,-0.007322530669500663,3,right
1.1,-0.1355120522375408,0.9925775825793722,-0.11355701790805059,0.046479052851955346,-0.004755518121209258,-0.04919230044771668,-0.008887898651283586,-0.003339334163207124,-0.007279722092993964,3,right
1.1,-0.13835406279793472,0.9946607506717202,-0.1184793628849516,0.04678355860365433,-0.004830969823015386,-0.04940984366981918,-0.008902387949265676,-0.00329150124573936,-0.007306838972523528,3,right
1.105,-0.14097430030406333,0.9951258420350314,-0.12092258348750237,0.04637866922329888,-0.004782160123229769,-0.04919617401364468,-0.008917031339729323,-0.0032472687507528724,-0.007318403123236112,3,right
1.1059999999999999,-0.14579989462924658,0.9992011910781472,-0.1205480654898487,0.046788541515439014,-0.004806118802757641,-0.049375114671443864,-0.008856474420851008,-0.003435932950656478,-0.007248469776227639,3,right
1.109,-0.150040355762225,1.000871865290824,-0.1195158714142358,0.04656281972270699,-0.0048065963929365425,-0.04929665478968204,-0.008968135419070619,-0.0030869504833951652,-0.007381638220455303,3,right
1.109,-0.14869617335114038,1.0004082894480595,-0.11746046116493594,0.046344859288639344,-0.00477686326907585,-0.04917651616180075,-0.00882490886905412,-0.0035348465760749992,-0.007209879120329736,3,right
1.114,-0.14527786998073305,1.001194387527736,-0.11137167636682474,0.04724940270029088,-0.004843360461561811,-0.049591468326314905,-0.00894440945508047,-0.003161026074693855,-0.0073535592319861984,3,right
1.115,-0.14216081847189846,0.998528913300301,-0.10592204179440948,0.04558630382903084,-0.004738576116549583,-0.04885424898439816,-0.008941430274739013,-0.0031707767238809163,-0.007348524736504923,3,right
1.119,-0.13857355005365612,0.994764941889197,-0.10521246830477123,0.04771542442302061,-0.0048649242532896615,-0.049786532516064824,-0.008712758089614603,-0.003884731918371795,-0.0070783748084565145,3,right
1.12,-0.13701431081753118,0.990604115976597,-0.10551199412872368,0.04594064857462502,-0.004762902986883116,-0.049014352397213135,-0.009274479363406491,-0.0021303960608135475,-0.007743664674936196,3,right
1.123,-0.13589286087040675,0.9862971513410048,-0.10496635764789665,0.0459863454034228,-0.004762758967176976,-0.0490299301758072,-0.008343231857301119,-0.005038993042136723,-0.0066403091170913284,3,right
1.124,-0.13329458846854003,0.986452445964475,-0.1022384061813015,0.049374810719335055,-0.004962602644872785,-0.050512192687771476,-0.009571503257053906,-0.0012026355747262716,-0.008095585675168283,3,right
1.125,-0.13391103399784327,0.9867824855697082,-0.10395372478964135,0.04105056496077407,-0.0044765766898189506,-0.046878518748482846,-0.014728485357520077,0.014902618895741425,-0.014204457473274859,3,right
1.129,-0.13551690340172978,0.9856242168987815,-0.10867001813670712,0.054850561664867736,-0.005280063622360531,-0.05289874381756428,-0.01595682189161802,0.018739078952129437,-0.015659654302636994,3,right
1.129,-0.13310975544884412,0.9847089380924736,-0.10704515846604193,0.036649373656571796,-0.004221264012404717,-0.04496034479852619,-0.015025376537297115,0.015830152393075447,-0.01455612238193978,3,right
1.1340000000000001,-0.13278839253724734,0.9853543064030987,-0.10624657278311311,-0.039749448012411245,0.0002212174221992118,-0.011639369130548555,-0.015587522181836157,0.017585220263293157,-0.015222375277791715,3,right
1.135,-0.13512344561186732,0.9886112952320325,-0.10548264353053782,-0.057950279469473905,0.0012800701091664965,-0.0037021996369703933,-0.015358153618700306,0.016870037103161258,-0.01495002147127576,3,right
1.136,-0.132740709588494,0.9892209740256691,-0.1017268778312914,-0.04415119342771625,0.00047695655824334907,-0.00971970940578792,-0.015356051396288792,0.016861862256769895,-0.014948447731337215,3,right
1.139,-0.1289021287982426,0.9889795781881582,-0.10072262727900105,-0.05247372670065728,0.0009614347338149135,-0.006090435360580266,-0.015474792091652112,0.017234277083732433,-0.015088191537463477,3,right
1.14,-0.12717232409514304,0.9893651719967933,-0.10003574709762092,-0.04908781471305295,0.0007649274419446492,-0.007566996598475923,-0.015331700824939185,0.01678671439145398,-0.014919070963712346,3,right
1.1440000000000001,-0.12483254633521493,0.9871951760320155,-0.10057780404081379,-0.04903918466094394,0.0007599943681904843,-0.007588084807956067,-0.01544445738253671,0.017137533185975815,-0.015053480092060171,3,right
1.145,-0.12395835901523668,0.9864421248852087,-0.1035817045132696,-0.050816116212443134,0.0008676127695215638,-0.006813413069851124,-0.015381125364236933,0.01694401988264526,-0.014975798868249325,3,right
1.148,-0.12439423242385653,0.9861572447523035,-0.10464099555206591,-0.04868740937749608,0.0007377922120311781,-0.007741421466622269,-0.015400133743494153,0.016996022909521583,-0.015002889690765537,3,right
1.149,-0.12517989468319776,0.9829622565163023,-0.10379240787169908,-0.05034557552124371,0.000840173648872897,-0.0070185922234616985,-0.01540969895928882,0.0170349233691248,-0.015008607877277265,3,right
1.153,-0.12921951259507414,0.9795340929717689,-0.1046795107725254,-0.04945163094736835,0.0007856464377719473,-0.007408309070571624,-0.015387152861330846,0.016957316643671914,-0.014986374109335187,3,right
1.1540000000000001,-0.13253873330292504,0.9778306430719432,-0.10718107729965645,-0.049654296687608956,0.0007922870479497252,-0.007319726841209221,-0.015413144821453641,0.01703842620785635,-0.015017209252622132,3,right
1.159,-0.1339047915017687,0.9767582465309917,-0.10829947213442283,-0.04989566943028925,0.0008228141358622784,-0.007215133685340599,-0.015386267207584165,0.016967832071883435,-0.01497704985395374,3,right
1.16,-0.13766985169320245,0.9752959950395206,-0.10808892665215847,-0.04947796120045908,0.0007701432070818001,-0.007396144329791261,-0.01541555262575989,0.017028796015809422,-0.01503075040225925,3,right
1.162,-0.13954798024910117,0.9749945559492139,-0.10795573194010223,-0.04987209710368688,0.0008278746951132362,-0.0072256704929274124,-0.015383182892967525,0.01697319437126959,-0.014964048791518794,3,right
1.163,-0.13962258466266586,0.9755932500931965,-0.10935710299294407,-0.04960665706492348,0.0007846968093690789,-0.007340307869751558,-0.01541354713266383,0.01701953392570639,-0.015030245139429946,3,right
1.168,-0.14461132903372215,0.9754162334921374,-0.112284559757362,-0.049719353181761114,0.0007909861091284422,-0.007291154146555884,-0.015398781176386541,0.017001429287186096,-0.014995291928162499,3,right
1.168,-0.14819257873147076,0.9748963610769834,-0.11390983911701652,-0.04973320223886912,0.0008433087198416432,-0.0072871806847793815,-0.015377414468605015,0.0169588667792841,-0.014954916203371728,3,right
1.172,-0.14722152391369311,0.9750548378910533,-0.1135689558660753,-0.04963952242862158,0.00072015700871351,-0.007323311892965256,-0.0154549875812723,0.017095411688493864,-0.015112714331658166,3,right
1.173,-0.149248857683973,0.9760388727734579,-0.11416340385540574,-0.04976487851030019,0.0009030208670384949,-0.007275688165721227,-0.015314894810463879,0.016853934090584527,-0.014824548829981127,3,right
1.177,-0.1506444084383987,0.9770210168226882,-0.11621306373063985,-0.04965034833588229,0.0007092172298327511,-0.007318126951382395,-0.015493420592635303,0.017159774354653476,-0.015192946622360834,3,right
1.178,-0.1496320451933077,0.9774595839903983,-0.11678513165930361,-0.04971675218981128,0.0008211723719465051,-0.007293505208765776,-0.015344956863032682,0.016906222484588573,-0.014886088975806254,3,right
1.183,-0.15056448067046962,0.977832199971956,-0.11575587287164968,-0.04973152514845265,0.0009153302776075486,-0.007290803183102489,-0.015348079793134224,0.01691035284512562,-0.014893301435852819,3,right
1.1840000000000002,-0.1505689380865156,0.9795832989060231,-0.11684573106588855,-0.04961183407815968,0.0005003006102422801,-0.007326635487177223,-0.015633548763168637,0.017401099853143004,-0.015481312503330513,3,right
1.188,-0.14932467962904844,0.9820186079037796,-0.1190282254700331,-0.04983659578344319,0.0012700367738887324,-0.007258963198466639,-0.01493320318938282,0.01619884063909429,-0.014037661164309507,3,right
1.189,-0.14771916507561889,0.9834411268403414,-0.11862103208020439,-0.04955144513889671,0.0002819587749098651,-0.007344354080464233,-0.016093907164108415,0.018190775452220122,-0.01643065812591183,3,right
1.192,-0.14733313910396342,0.9841488125559269,-0.11768127539113926,-0.049787989999544036,0.0011066245691818677,-0.007273721511305852,-0.014563138416588146,0.015563929946446784,-0.013274586599093998,3,right
1.193,-0.1464630216809771,0.9844098868707649,-0.11790896998573111,-0.049776926721455686,0.0010843579644715475,-0.007277674398681856,-0.008136849949518604,0.004536084572835865,-2.5374274328065355e-05,3,right
1.193,-0.14049830263808735,0.9851780656593131,-0.1192583058952638,-0.04934537968052068,-0.00048774913865963943,-0.0074038342467814995,-0.006606141491130134,0.00190926398242485,0.003130544418750741,3,right
1.197,-0.13501254465747212,0.9875937744319322,-0.11966085029377649,-0.05040987109339996,0.003375841988201851,-0.0070920729836981555,-0.007766678029907926,0.0039008526850008883,0.0007378338684215584,3,right
1.197,-0.1306197792885252,0.9896677584149796,-0.11911249598368011,-0.04864486704668396,-0.0030296222969683315,-0.007609014493444759,-0.0070666696676119755,0.0026997136694861764,0.0021811193169386962,3,right
1.203,-0.12728666982988263,0.9899514357278466,-0.12170049372279114,-0.05097223455031842,0.0054184965742639785,-0.006927444338088198,-0.007351608668386578,0.003188219561135408,0.0015934437208264484,3,right
1.204,-0.12534270443960682,0.9910201819805984,-0.12176423889612084,-0.060727886174290355,0.04088194906635158,-0.004072514624323018,-0.007355373294825767,0.003195615029405075,0.001586099998171365,3,right
1.204,-0.11869796362584836,0.9915538893005009,-0.11871940876896853,-0.06305481895251691,0.04932846319769915,-0.003391092243791349,-0.007206388686728046,0.002938628157247819,0.0018926730511460929,3,right
1.207,-0.11379827966742466,0.9892008198799459,-0.12048583238164892,-0.06129049444860283,0.042925507378021824,-0.00390780275952618,-0.007384934538152256,0.0032463319745368604,0.0015251492218051796,3,right
1.207,-0.11111142220390863,0.9871155639852628,-0.12213670781416966,-0.06235442376347613,0.04678702354878835,-0.0035962325657566407,-0.007245759019345323,0.003006941558666691,0.001811840965315573,3,right
1.213,-0.10684143633146109,0.9852194526948159,-0.12036719798723386,-0.06192284415300353,0.04521479629025041,-0.003722403491040755,-0.007321181380261613,0.0031352240445966352,0.001655819315867205,3,right
1.214,-0.10421336597430264,0.9828659793137603,-0.1199430516996381,-0.06191287150063093,0.04519655550158437,-0.0037259856366905434,-0.007303072373957737,0.003107815613286582,0.0016948198461182206,3,right
1.216,-0.10113734010369595,0.9816454017778361,-0.12150945353781871,-0.06214703553571999,0.04601243286036348,-0.0036561623834475802,-0.007284777068047633,0.003070106807758705,0.0017296744949045894,3,right
1.217,-0.10241664872456971,0.9798467608675671,-0.1225840367268186,-0.061865276373546274,0.04503687407038514,-0.0037404004041339187,-0.007317259559700928,0.003133594772660922,0.0016662203774630226,3,right
1.222,-0.10605385057047076,0.9784463905640151,-0.12098175500964926,-0.062086679250803634,0.045794211440008836,-0.0036738698662802773,-0.007286507802261779,0.003074647317372177,0.0017268192072323676,3,right
1.222,-0.10854217333140528,0.9796815132457602,-0.11877480663331752,-0.06196844368724212,0.04538455486875415,-0.0037092074259127404,-0.007308194161153348,0.003111807415839679,0.001682081744810401,3,right
1.226,-0.11703258365362747,0.9803773160255771,-0.11726621526860058,-0.06198604176823288,0.045489140914411724,-0.003705545025465326,-0.007295782576358939,0.0031019699782589925,0.00171287637051369,3,right
1.227,-0.12516499375973195,0.9796627216912754,-0.114187802250699,-0.062043312934848195,0.04556738439832336,-0.0036840277803703142,-0.0073025185094598,0.0030873339180951284,0.0016870936669191256,3,right
1.232,-0.12968081135541515,0.9811052722237809,-0.11155636699556072,-0.0619445188409966,0.04543166817855365,-0.003721117404416579,-0.007297649888822482,0.0031180610393457754,0.0017148770143770812,3,right
1.2329999999999999,-0.13590310108623016,0.9833198553070022,-0.11040835286201772,-0.06205056708640505,0.04554325943220024,-0.0036800569367116146,-0.007301875400967832,0.0030836457626487257,0.0016872474929720796,3,right
1.236,-0.13954584966042416,0.9830668365149733,-0.10822767801971944,-0.06197227851171075,0.04547692354704079,-0.0037109563186627998,-0.0073009566292162355,0.0031061511192647393,0.001700073016044342,3,right
1.237,-0.13888530325367315,0.9828147253629745,-0.10760538322397406,-0.06198626111533516,0.045529737031469245,-0.003706937286688162,-0.00729262101240063,0.0031125841154196476,0.001726680147162095,3,right
1.2409999999999999,-0.1398954183575626,0.9829612123285021,-0.10792696853326308,-0.06207041098848111,0.04543065451104471,-0.003667487481440224,-0.007316754840358517,0.0030631959984293846,0.0016356866415559346,3,right
1.2409999999999999,-0.14391401398235548,0.9817920355504663,-0.10546247017964251,-0.061870210072574504,0.04562829529267648,-0.0037599479816250326,-0.007274225616231839,0.0031586284074317014,0.0017998449018783115,3,right
1.246,-0.1479062358217864,0.9819157627621727,-0.10360327138030502,-0.06216702075647579,0.045326765468838265,-0.003622557910029432,-0.0073283372854080955,0.0030352142541429455,0.0015900823750763702,3,right
1.247,-0.15309610684022446,0.9835434094166191,-0.10322539436149833,-0.0618530625449285,0.04565707431074864,-0.003768300997096064,-0.007283361226068669,0.003138617380585647,0.00176479503739137,3,right
1.251,-0.1572413509002304,0.9848974063596978,-0.10489859281883013,-0.06203448935296818,0.0454663163632383,-0.003684084957466764,-0.00728380981254274,0.0031344314338406848,0.0017616444971048472,3,right
1.252,-0.1577302864758058,0.9856902447681326,-0.10915557034052267,-0.06218547907513398,0.04528220401867797,-0.0036130690639246833,-0.007372099423835657,0.002941765789028217,0.0014233037432778725,3,right
1.256,-0.15720581482558216,0.9864745225841228,-0.10952041808886331,-0.061517688370734014,0.0460624994503315,-0.003925910233515704,-0.007155993103484056,0.003416994246906285,0.002253064457191554,3,right
1.2570000000000001,-0.15417309508018057,0.988113454152473,-0.1080355394876364,-0.06275645576251343,0.04461669730946839,-0.0033456441944330773,-0.007514084161190991,0.002628556470759005,0.0008777329699779957,3,right
1.261,-0.1508856683576732,0.989156761620077,-0.10940939877404918,-0.06116626522604434,0.04647481679622344,-0.004090602071358871,-0.007041769443806527,0.003668616768411028,0.0026917871697932083,3,right
1.262,-0.15036196776642224,0.9890925613449238,-0.10884421023082766,-0.06249364640322031,0.04492280693029829,-0.003468731000941394,-0.0050582676031298325,0.008031391242013745,0.010308130691555324,3,right
1.262,-0.14756410519566746,0.9876627789051716,-0.10777752662167567,-0.062457091942089676,0.044962789953195005,-0.003485742598037645,-0.004585833876840096,0.009071425811097628,0.012122448761701207,3,right
1.265,-0.141635663132089,0.9857623450277548,-0.10854774045027504,-0.059928646161444575,0.047930866807512296,-0.004670773742891949,-0.0049440536844458215,0.008283015851698,0.010746831763213695,3,right
1.266,-0.13624167742729765,0.9868269223989874,-0.10799055883547722,-0.06614374104019863,0.04063719724442369,-0.0017579759059864533,-0.004727996370734355,0.008758254967130272,0.011576483970008059,3,right
1.271,-0.13220720075757175,0.9884938227534787,-0.1100573046974147,-0.0558389474043163,0.05273059133799189,-0.006587493175676986,-0.0048158588010748056,0.008565496840491096,0.011239090062093036,3,right
1.271,-0.1294102078573129,0.98844920630446,-0.11347605434318092,-0.06943047972348954,0.036779043903396265,-0.0002175049368371624,-0.004817226472292962,0.008561509782992013,0.011233902162655154,3,right
1.272,-0.1280148708553503,0.9888528890068736,-0.11406469058613605,-0.1264701343378179,-0.030179028278763866,0.026517665905006153,-0.004770932671159965,0.008664627820335509,0.011411536065151471,3,right
1.275,-0.12640651541199807,0.988513016850358,-0.1168140917985782,-0.14005909261563898,-0.04613049701926583,0.032886980618473935,-0.004826356487145753,0.008541497459212614,0.011198864492155094,3,right
1.276,-0.12024126011107629,0.987728122363524,-0.12044094534579713,-0.12975976624675253,-0.03403776291821898,0.028058889726914536,-0.00478326118698609,0.008636807597421622,0.01136427813886761,3,right
1.28,-0.11163121746800375,0.9889453564407036,-0.12249812661319814,-0.1359664194551716,-0.041329428719179745,0.030969493553980924,-0.004806268049360931,0.00858717536939099,0.011275782234882667,3,right
1.281,-0.10635788763738721,0.9893538034329721,-0.12373034654067269,-0.13344832278162705,-0.038365267182054616,0.029787139762346967,-0.004801562336965984,0.008594393999525659,0.011294343165549278,3,right
1.285,-0.10034941282659116,0.986588018880811,-0.1229403738414337,-0.13340258603862426,-0.0383196641046036,0.029767770922712433,-0.004794389295433799,0.0086155460822262,0.011321033043500479,3,right
1.285,-0.09387060302911863,0.9851056740486877,-0.12238899979590309,-0.13473265693820385,-0.03987748704302367,0.030390297059277198,-0.004806290143817602,0.008582791180207664,0.011276388043092717,3,right
1.29,-0.09093771292606133,0.9852871755881195,-0.1218084013979008,-0.13315287265974507,-0.03801638275951075,0.029648090175150434,-0.004795302705659548,0.008612195216001435,0.011317737606435011,3,right
1.29,-0.08781669580417123,0.9833368555515827,-0.12023141148640089,-0.13436285337182563,-0.03945826685937753,0.030220849703641667,-0.004801983347083091,0.008597545878611237,0.011292074293986033,3,right
1.294,-0.08623141057479075,0.9834837642696259,-0.11932146652495296,-0.13374210958387664,-0.03869252896494789,0.029920207311428228,-0.0048009284224609546,0.00859016714910461,0.01129769706210422,3,right
1.295,-0.0867701307865805,0.9858053579871492,-0.11931572217355171,-0.13383786594075947,-0.03885038586307845,0.029976979692899988,-0.004796662418954142,0.0086217109757602,0.011310488394729317,3,right
1.2990000000000002,-0.08573947217145422,0.9855581199180141,-0.12076186306150463,-0.1340597721579095,-0.03907466143745808,0.030071513130816827,-0.004804626264793457,0.008571139931540019,0.011285261424357911,3,right
1.3,-0.08705336738082678,0.9862302107991073,-0.12294918828885311,-0.13375423624591756,-0.038715676488762465,0.029928219843351048,-0.004795838348302746,0.008625701070999492,0.011313302322859264,3,right
1.304,-0.09174972611326468,0.9886468255873121,-0.12474644464061811,-0.1339574899901469,-0.03902143545780273,0.030041069468549068,-0.00480138650310071,0.008593145652107552,0.01129528725472562,3,right
1.305,-0.09446275266994399,0.9892945228800195,-0.12555033358098971,-0.1339564637088222,-0.03886676836974495,0.030000411504412825,-0.004803839568586065,0.008570193840400111,0.011288724250118499,3,right
1.31,-0.09478348538531234,0.9882498530958866,-0.12407127279211635,-0.13375520427983914,-0.03885941937088302,0.029966011715989116,-0.00478929017845212,0.008679002122062967,0.011332134718405494,3,right
1.31,-0.09453923197407782,0.9863266008177423,-0.12206956686344675,-0.1340590555237198,-0.03897212945760228,0.030044545867824023,-0.004816960772417623,0.008475714138499003,0.011248967210971995,3,right
1.315,-0.09405050266961465,0.9846632438725939,-0.12084464563556302,-0.13383794038958186,-0.038853465070316645,0.02997781035836573,-0.004781275548477026,0.008737073595198583,0.011356371499105438,3,right
1.315,-0.09485339027990494,0.9829939059581198,-0.1197827296432475,-0.13374319511438415,-0.03886391892378109,0.02996524100295887,-0.004811130432600704,0.008518757675924343,0.011266434318544086,3,right
1.319,-0.0984542872354838,0.9817986952752283,-0.12183321517544814,-0.13436019996998352,-0.039056165951363075,0.030115153467562612,-0.004810081278133913,0.008525153232923775,0.011269862550467087,3,right
1.319,-0.10340925306262422,0.9839411042414944,-0.12613025238225822,-0.13315700904475214,-0.03863025141011541,0.029809485384880194,-0.004753943874016742,0.008939806927307604,0.01143815461573882,3,right
1.324,-0.10669099534407239,0.9849233171549089,-0.12691472021794575,-0.1347280445876275,-0.03920794553674026,0.030214224767591204,-0.004892207711895169,0.007920097115366915,0.011023287285574692,3,right
1.324,-0.11029254698162058,0.9814765488764304,-0.12553058841786044,-0.1334054585732333,-0.03871247845767037,0.02987113715031061,-0.004662885636606157,0.009610928679864936,0.011711530109894334,3,right
1.329,-0.1141935270193223,0.9798614146392758,-0.1253312580644403,-0.13345050765770988,-0.038737322330980845,0.029884830083011148,-0.004965366981576021,0.007380759256161587,0.010803648716541221,3,right
1.329,-0.1155201046168402,0.9803863110351343,-0.12452098482177797,-0.13595548226502657,-0.03966087354731471,0.030530929757892435,-0.006234642694637229,-0.0019807773127028627,0.0069963089913844595,3,right
1.33,-0.11776262619717076,0.9795556031616949,-0.12337483785931963,-0.12978214668498447,-0.03737039070458291,0.028935049884166203,-0.006537091546120537,-0.004210921501593166,0.006088625496323812,3,right
1.335,-0.12138680961691482,0.9785215999047648,-0.12072100455006896,-0.14002526587687808,-0.0411779405365648,0.03158471497607939,-0.006307810911869407,-0.002519971078930782,0.00677637751509324,3,right
1.337,-0.12329889270018586,0.9783908342405521,-0.11617135050627249,-0.12651168897936843,-0.036150968140595846,0.028088268135029473,-0.006446065858222846,-0.0035402089794748784,0.0063624088033688506,3,right
1.339,-0.12440622294836155,0.9794838825395673,-0.1154307851448014,-0.06978781852235288,-0.01504965787776993,0.013411647505899602,-0.006389857735054188,-0.0031243974220988343,0.006529390628277183,3,right
1.34,-0.12757823617613778,0.9801883861150956,-0.11602216111479202,-0.05627585703696791,-0.010020008264489932,0.00991540147078961,-0.006388991402759222,-0.003119780133945681,0.006534288211144799,3,right
1.34,-0.13155661216154824,0.9813573568207772,-0.1140178838388721,-0.06651707999156334,-0.013833425849865395,0.012565162372850776,-0.006418559609310004,-0.0033361172273307753,0.0064433249405552,3,right
1.344,-0.13160337939082878,0.9833960972404155,-0.11427758008424416,-0.06034360551377176,-0.011533520650753047,0.01096809095462873,-0.006383190518687158,-0.0030760152235476306,0.006550401155996015,3,right
1.345,-0.13260696661019236,0.9834706414925223,-0.11678403029951881,-0.06285329373808879,-0.01246916001133628,0.011617197492068175,-0.006410667768372413,-0.003280084734418917,0.006469881811598235,3,right
1.349,-0.13793695733747696,0.9852824211716134,-0.11720269860521677,-0.06288747628320018,-0.012482488949859451,0.01162594790874464,-0.006395978110798549,-0.003167145636814428,0.006507798190193101,3,right
1.349,-0.1386817971879621,0.9883252115609226,-0.11675069694539669,-0.06158105161754286,-0.01199192808108867,0.011288724531998513,-0.006399108729835928,-0.0031981550175764367,0.006508996573376499,3,right
1.3530000000000002,-0.13558540054961005,0.9897404217100213,-0.11766462241291363,-0.06313526651740106,-0.0125792301942811,0.011689150515086757,-0.00640336128916821,-0.0032198068468876195,0.006483249539891645,3,right
1.354,-0.13470918786603442,0.9913433948371039,-0.11755270760003515,-0.06194068718525826,-0.012122257483377995,0.01138251078623444,-0.006396299488987104,-0.0031754622455123613,0.006514788125450985,3,right
1.36,-0.13311664144122431,0.9908542241997289,-0.11519170506190288,-0.06256901050245031,-0.012368264018636305,0.011542652312543316,-0.006402683845539656,-0.003222616977469573,0.006495724579516519,3,right
1.36,-0.1303289781237975,0.9902921520540072,-0.1141034186257412,-0.062432445050481636,-0.012312231998075115,0.011508364420847982,-0.006398871951377995,-0.00318015507242287,0.006487959811618375,3,right
1.364,-0.1287710486925705,0.9897085600492815,-0.11325839670865612,-0.06228640721622755,-0.012247545578123555,0.01147266510822978,-0.006399673925130085,-0.003218854450139961,0.006529435374247428,3,right
1.365,-0.12786671619271273,0.9881717435090265,-0.1105502205300175,-0.0624949597819792,-0.012358372057825941,0.011519909948072754,-0.00640126209083039,-0.003181665571109457,0.006459205440420482,3,right
1.368,-0.12697466291934456,0.9899901073134492,-0.11160418657765463,-0.062374306758741754,-0.012256319751612612,0.011500260650015132,-0.006398551271971857,-0.003213794603963453,0.006537128534615716,3,right
1.368,-0.1262841969555968,0.9913379218507337,-0.11236857169448765,-0.06236351916583829,-0.012322391739224236,0.011483275177403832,-0.006400798575135704,-0.003200266402363796,0.006490055422850551,3,right
1.3730000000000002,-0.1252814511929472,0.9912791603432274,-0.10846467948932942,-0.06244088125394376,-0.012295332356386551,0.011514604746664641,-0.006400618407148436,-0.003172947678872113,0.006455849703088118,3,right
1.374,-0.12380211045244714,0.9919216087977878,-0.1080966980037393,-0.062442743366870425,-0.012295514244599164,0.011515194247432758,-0.0063975027609658765,-0.003263626328119325,0.00661730451755544,3,right
1.3780000000000001,-0.12148846304989887,0.9902240526356894,-0.10951395691736338,-0.062188942777151056,-0.01230470327418506,0.01142851707615905,-0.006404200104734484,-0.003102279032043422,0.006315109867612858,3,right
1.3780000000000001,-0.11853240616088284,0.9877882924882478,-0.10910432611364718,-0.06281540038585248,-0.012301023859703834,0.011638606027775526,-0.006395273428145314,-0.003307009292788027,0.006704140312034488,3,right
1.383,-0.1158341081087211,0.9864555323843903,-0.10824345642995614,-0.06184257727518446,-0.012292247664016256,0.011315300837207179,-0.0064028570157250355,-0.0031371092457483643,0.006378940180559305,3,right
1.383,-0.11353352241311307,0.98622708474286,-0.10727296764601912,-0.06290196555631028,-0.012309945038303951,0.011665718694053489,-0.0064024569060880145,-0.0031401534440109306,0.0063883834787804355,3,right
1.3880000000000001,-0.11242144930594837,0.9878745713556863,-0.10777937139000539,-0.06228278163510625,-0.01229704525597618,0.01146143938109585,-0.006388521518388871,-0.0034682676957277113,0.00700676536133228,3,right
1.3880000000000001,-0.11086204306220247,0.9891377958780382,-0.108407189011965,-0.06174578337045603,-0.012284848414301202,0.011284438563467055,-0.0064230404352208885,-0.002664019930427585,0.00548593800499855,3,right
1.3940000000000001,-0.11085178277009683,0.9886352414552659,-0.10952559982993003,-0.06410398215429444,-0.012341499601363031,0.012061017053002217,-0.0063657259082042505,-0.003996706982380965,0.008007876806202572,3,right
1.395,-0.11397789526345933,0.9885009293885153,-0.11058295465689372,-0.05972269145114436,-0.012233347798295099,0.010618837313336068,-0.006441323569206605,-0.0022391236274009792,0.004681343226039515,3,right
1.3980000000000001,-0.1150553118377137,0.989264145484853,-0.10990553729776163,-0.06535393692302435,-0.012374369803156631,0.012472017148052319,-0.006758706619855213,0.0051390600613333455,-0.009281354092267408,3,right
1.3980000000000001,-0.1153942793225683,0.9900611801532988,-0.10885856152584229,-0.06065056002014375,-0.012255664254193506,0.01092443042216194,-0.006834201012448478,0.006896832184727479,-0.012607864864886907,3,right
1.399,-0.11555215156347132,0.9902238005492879,-0.10809066017932298,-0.06077668391695505,-0.012258863468147776,0.010965793938419658,-0.006777026259148607,0.005564009734411766,-0.010085896774704405,3,right
1.402,-0.11433284685904259,0.9870889528894035,-0.10646492342934291,-0.06975237267442734,-0.012486886700775555,0.01391915367871946,-0.006811488337834865,0.006367936000502727,-0.011606924662673606,3,right
1.403,-0.11309247065350804,0.981591829783944,-0.10437810242051629,-0.04769146783315281,-0.011925698736207586,0.006660642328001153,-0.006797387114587867,0.006041001881604762,-0.0109880668590795,3,right
1.4080000000000001,-0.11067445979540261,0.9796302365690474,-0.10534769097600831,-0.08426987730666738,-0.012856885779279324,0.018695410157253015,-0.006797480631712587,0.006035754281100491,-0.010979384305891446,3,right
1.409,-0.11021995629509312,0.9803584616791472,-0.10681435007877327,-0.03602281073028008,-0.011628110583624097,0.002821742575378268,-0.006804246919520047,0.006208544728584795,-0.011303704448476965,3,right
1.409,-0.1104958429713911,0.979838879968589,-0.1070790977972131,0.1665224560974911,-0.006471989948958463,-0.06382163439314316,-0.006796270941961247,0.006001271994903552,-0.01091528703038491,3,right
1.412,-0.11061586861975989,0.9803567627246487,-0.10990185362791058,0.2147715058672829,-0.005242924707196898,-0.07969604866644638,-0.00680230394412158,0.006163092884921161,-0.01121770602064433,3,right
1.413,-0.11576463013348504,0.9810915730689069,-0.11314773650961747,0.17818718659076505,-0.0061742787835717995,-0.06765869266724739,-0.0067989575567107205,0.0060760339121708985,-0.011054598389977358,3,right
1.4169999999999998,-0.12229448528222547,0.9813861705943899,-0.11414398407809503,0.20026060795721412,-0.005613730063937658,-0.07492320262236103,-0.006800528035595934,0.006094164186237315,-0.011092190383465355,3,right
1.4169999999999998,-0.12894515967263337,0.9844103837767029,-0.11296027344225762,0.19126455022340255,-0.005839640536748509,-0.0719595225241983,-0.0067991872054415925,0.006122120868617749,-0.011134529080779956,3,right
1.422,-0.1367728313749409,0.9865537025092185,-0.11120184673511532,0.19116389009421775,-0.005846669611513602,-0.07193167966501027,-0.006801486695451723,0.006073776093446983,-0.011061247565178754,3,right
1.422,-0.14152651725889764,0.98526727287422,-0.10929709765569462,0.19584545859852426,-0.005723046009201924,-0.07346683376684758,-0.006798174606854475,0.006121662489355924,-0.011129523586898357,3,right
1.4269999999999998,-0.14514680448597628,0.9822789451194914,-0.10673968685477378,0.19021756595743033,-0.00586824951281993,-0.07161734890501115,-0.006801016842597843,0.0060881973148683675,-0.011084008642383025,3,right
1.4280000000000002,-0.1493347522173984,0.9801710227612542,-0.10745877084045505,0.1946315113440296,-0.005759622573752897,-0.0730740627768624,-0.0068015201844522175,0.006099009927080705,-0.011104628712347138,3,right
1.433,-0.15200455353211242,0.9803919054886682,-0.10925804745087445,0.19219185477241618,-0.005809620899163986,-0.07225714735512932,-0.006794258433966711,0.006114880618651836,-0.011101603220700093,3,right
1.433,-0.15444800332681796,0.979160151378218,-0.10856661391892077,0.19285606882401168,-0.005813585553093709,-0.07250014908006501,-0.0068105955303450535,0.00607262284284681,-0.011097187587219764,3,right
1.4369999999999998,-0.15650051222020578,0.9785163616806908,-0.1089789109431147,0.19333279645040896,-0.005775831863922177,-0.0726270026190059,-0.006786164028059302,0.006134271810232803,-0.011101137472299944,3,right
1.4380000000000002,-0.15786442383854823,0.981336292048189,-0.10912527400766266,0.1923667410066842,-0.005820849318067973,-0.0723330583303406,-0.006812287544873723,0.006070399987552713,-0.01110042525515396,3,right
1.443,-0.16152454821393303,0.9850486067058798,-0.10598756359412173,0.19338690589518348,-0.00579505250749692,-0.07266893085440772,-0.006797194761100781,0.0061073224285227105,-0.011100866494351592,3,right
1.443,-0.16337776387202047,0.9900292887040985,-0.10111443706206516,0.1924805813670261,-0.005780249434705422,-0.07232636477150281,-0.006784006763925745,0.0061350642803671435,-0.011093522401613664,3,right
1.4469999999999998,-0.1611992128618481,0.9936542115836496,-0.09814281867907013,0.1932895674644684,-0.005846221924241749,-0.07269392004813402,-0.0068414923526148065,0.006008369463025294,-0.01111568353472759,3,right
1.4469999999999998,-0.16052623943213906,0.9939718834425016,-0.0986541109526714,0.19252722446309278,-0.0057364816458496705,-0.07229185407593389,-0.0067348975505958815,0.006243582742361923,-0.011075063006815948,3,right
1.4509999999999998,-0.15801730997013552,0.9941073973418911,-0.10000262461450538,0.19317725537556668,-0.005857611077149796,-0.07266694859664932,-0.006871783684560342,0.005941904173643304,-0.011127886243196848,3,right
1.452,-0.153173493751248,0.9942112141188271,-0.10185925794717515,0.19291069453011483,-0.005784841901560718,-0.07248609507261716,-0.006757499661850765,0.006193595092288265,-0.01108346098297993,3,right
1.456,-0.14748047298529163,0.9945596956004141,-0.1045967981405018,0.19234195096354875,-0.005730758169500954,-0.07221865843277167,-0.006760569806938906,0.006186377150463995,-0.01108392686381763,3,right
1.4569999999999999,-0.13989762558634453,0.9959897210182533,-0.10829556617492124,0.19420573248995326,-0.005983405901635651,-0.07318332401458175,-0.0069785766280360245,0.0057082291690141555,-0.011171921936783008,3,right
1.46,-0.13613720412127792,0.9973419653103271,-0.11098171537012844,0.19089701222050975,-0.005511095528830745,-0.07144294228702261,-0.006442765531466752,0.00688373550118156,-0.010956105684085189,3,right
1.4609999999999999,-0.12943688323180613,0.9988309754900847,-0.10928437068555133,0.19509243821109332,-0.006118930853667629,-0.07366018638046491,-0.007331160051266884,0.004934757484018981,-0.011314101735890397,3,right
1.4669999999999999,-0.12054890496509087,0.9999136573998944,-0.10785688994741718,0.19161217626690896,-0.0056108920028258655,-0.0718164670526484,-0.006159372389972375,0.007505317986149755,-0.010841628464200448,3,right
1.4669999999999999,-0.12036809545647173,1.0009033213502132,-0.1068594385292059,0.19167221737933626,-0.005625561255310984,-0.07185510162713096,-0.001240629904464845,0.01829472669661707,-0.008858453522680092,3,right
1.4680000000000002,-0.11825553478628816,1.0023255425855324,-0.10302266068657062,0.1983993433468472,-0.00659185328210821,-0.07540070601490914,-6.883058132905827e-05,0.02086514091915821,-0.00838573977429551,3,right
1.47,-0.11076423482672293,1.0013141481973813,-0.10159604805751557,0.1819140332604482,-0.0042154807183073725,-0.06670227158211066,-0.0009572568571359192,0.01891633338207073,-0.00874389386361628,3,right
1.4709999999999999,-0.10349596624384577,0.9988456190625389,-0.10322424042227644,0.20922918493241982,-0.008156141909357215,-0.081118630205955,-0.00042138276973123533,0.020091856641562766,-0.008528538358084928,3,right
1.476,-0.09737990910263586,0.9973291225302721,-0.104459379756156,0.17320699013298163,-0.002958221625344743,-0.06210564707072673,-0.0006394874926825058,0.019613272875205118,-0.008614924515392572,3,right
1.4769999999999999,-0.09573030580975483,0.996639458464814,-0.1044129467279907,0.02199288772663128,0.018858222378245804,0.017705685244881413,-0.0006424403543889093,0.0196070521728495,-0.008618353903781543,3,right
1.4780000000000002,-0.09411515134101572,0.9961522929191258,-0.10630468686989328,-0.014027568091945317,0.024056131454729693,0.036718124505501604,-0.0005282497429559012,0.01985726553077639,-0.008570078480970866,3,right
1.4809999999999999,-0.09120056689607674,0.9939138253615825,-0.1089156477997959,0.013279696107875848,0.02011552158866548,0.022304233096608936,-0.00066513622840875,0.019557117934838997,-0.008626237447452563,3,right
1.4809999999999999,-0.08881185503117306,0.9906244487217971,-0.10595399942708654,-0.0031850561166177115,0.02249175991978506,0.030996236648228273,-0.0005583678893306538,0.019791559853910005,-0.00858510272377981,3,right
1.485,-0.08698143273412445,0.9870801395263747,-0.10549645160117122,0.003504453575185626,0.021525713911975226,0.027462399634391333,-0.0006162527004231566,0.01966380570220678,-0.008602267908138613,3,right
1.486,-0.09004622774805443,0.9848294413828419,-0.10794216253651866,0.003616131571901328,0.021510706545012116,0.027407611366173465,-0.0006024660219776861,0.0196953990021287,-0.008607349695989816,3,right
1.4909999999999999,-0.09661534514248762,0.9849694982359686,-0.10516942604009227,8.529012055135386e-05,0.022019077085560362,0.029267153981823387,-0.0005880145947039186,0.01972543629785522,-0.008588463312282864,3,right
1.4909999999999999,-0.10310544483212652,0.9843335540042881,-0.10584418078757174,0.00430178242878855,0.021411102700158016,0.027043318816280533,-0.0006137653952184056,0.019670278049572675,-0.0086092578113962,3,right
1.494,-0.11022287818925622,0.9837189319117438,-0.1083021668262036,0.0010383819271734592,0.021883117962851778,0.02876952428549314,-0.0005890119370094409,0.019724587225476563,-0.008599370503504742,3,right
1.495,-0.11866760542357986,0.9838317737514922,-0.10640942410970144,0.002758701279546007,0.021631407905630503,0.027849737044351598,-0.0006067714905750766,0.019683166313548627,-0.008587208424733116,3,right
1.5,-0.12695581463898303,0.9839582455288266,-0.10644949461325251,0.0024364008771990586,0.02168387885051836,0.028040078943177827,-0.0005968370973433169,0.019710592148635575,-0.008627360582697563,3,right
1.501,-0.13357859806901476,0.9832486159568866,-0.10595212110125148,0.0018676592467004277,0.021758627729204984,0.028315465215678053,-0.000600863730179852,0.019693352428884647,-0.008563109287441237,3,right
1.507,-0.1394482349748184,0.9805426289368496,-0.10442690057813625,0.0027584902926746126,0.021635917507819347,0.027865037542942936,-0.0006005194292008529,0.019703071338632142,-0.008633192715640423,3,right
1.507,-0.14495218604809335,0.9804336657248025,-0.10525794374085096,0.00199848487194762,0.02174564983874276,0.028266377793109528,-0.0005980731851376168,0.019703256327425922,-0.008591635903148254,3,right
1.51,-0.14802686734164827,0.9811816369763583,-0.10499044055584311,0.0023600995251171156,0.021682597259865953,0.028038767704347593,-0.0006041883180552612,0.019685381230964333,-0.00855911575671986,3,right
1.51,-0.14911794463056374,0.979562055622107,-0.10588936440650587,0.002475945631062626,0.02169071539629802,0.02806157179000255,-0.0005925947304803944,0.019730347485878878,-0.008707528426432375,3,right
1.515,-0.15058813998555193,0.9811468131483042,-0.10946019901686865,0.0019712578588747896,0.021726495425466834,0.028202721604237743,-0.0006105154992130717,0.01965480478513206,-0.008430863536224558,3,right
1.516,-0.15060735263752315,0.9842151431230468,-0.11341089721022224,0.0026307375477968055,0.021670822365318212,0.027988136933831148,-0.0005887882425512127,0.019748993375026336,-0.00878662148691672,3,right
1.5190000000000001,-0.15042627840967998,0.9848215485174341,-0.1178240093636929,0.002168197715248857,0.021714755711803924,0.02815513883698184,-0.0006063948266023019,0.019671521801124144,-0.008489418046288177,3,right
1.5190000000000001,-0.1495724693585867,0.9858576767442926,-0.12253710718156345,0.002022831591490681,0.021716046289514485,0.028165365668060903,-0.0006067282404530637,0.019671855821500314,-0.008497753208771126,3,right
1.525,-0.1451721747449543,0.987549837177699,-0.12737301329586612,0.0031264983780833954,0.02164289759237433,0.02787385270283628,-0.0005709920141583909,0.019824292796654267,-0.009063672235717616,3,right
1.527,-0.14020778314247528,0.9882468824686963,-0.12850656252291848,0.0009691997520557515,0.02179451979578133,0.028472813159380782,-0.0006576764956957944,0.019452116833807712,-0.007672322698500922,3,right
1.53,-0.1343743856779825,0.9880600688384784,-0.12685170308354782,0.003779243568287057,0.021594046390902594,0.027682622210181064,-0.0005143547406754379,0.020068336437089287,-0.00997934716362016,3,right
1.53,-0.13146082435676087,0.9875241626215847,-0.12680817298259256,0.0014161820294339327,0.021763901934480363,0.02835133779415719,-0.0007032902963019531,0.01925574997379103,-0.006936418389829253,3,right
1.535,-0.1299000859077773,0.9879031107867231,-0.12749347114200643,0.0015067193899352793,0.021755415072299,0.02831920850047872,-0.001496667619260509,0.015844361545573754,0.0058364819448163486,3,right
1.535,-0.12318875334242593,0.9893550635001712,-0.128325778329955,0.005942088591457542,0.021441840593880712,0.027081324546951172,-0.001685733634439086,0.015031419755206232,0.00887919036392553,3,right
1.537,-0.11733508256779399,0.9894079055671681,-0.12668254419247732,-0.004998339810394061,0.02221828154662395,0.03014439124955804,-0.0015422918460731338,0.015648010764543616,0.006572476507763745,3,right
1.5390000000000001,-0.11004500174035695,0.9882026270784108,-0.12301803806282796,0.013156574848929285,0.020928632949039384,0.025057670680489953,-0.0016288478526973438,0.015276027186671022,0.007963660987327151,3,right
1.54,-0.10242632710360058,0.9879058166066984,-0.12173023237691669,-0.010795856492237091,0.022630649480986472,0.031770297679466375,-0.0015937340219073092,0.015427093747185084,0.007397478348366229,3,right
1.544,-0.1004606798951882,0.9867925317663434,-0.12343136108873316,-0.1113035127547719,0.02976921681140736,0.05992937133478832,-0.0015928312772384872,0.015430312810268614,0.0073900625991303315,3,right
1.545,-0.09625834589868452,0.9853671081695159,-0.1264221122272393,-0.1352586422622708,0.03147175981635632,0.06664341625254275,-0.0016121278059831434,0.015348755544281568,0.007685665782804236,3,right
1.545,-0.09038724009328486,0.9857432075951389,-0.12860116059350693,-0.11709781159025788,0.030181109225845874,0.06155357983441188,-0.001588820690895994,0.015446949140085025,0.007331853634592745,3,right
1.5490000000000002,-0.0875564204777726,0.9872681601791309,-0.1293898909067206,-0.12804774436414873,0.030958865052427894,0.06462166568606173,-0.00160723196143759,0.015369796147166187,0.007607024717601107,3,right
1.55,-0.08466381013145147,0.9896841267759202,-0.1303295903859968,-0.12360017541781722,0.030644022655827743,0.06337732013690386,-0.0015974354581969486,0.01541105203553991,0.007458448776127302,3,right
1.554,-0.0814870788456882,0.9910348723032572,-0.1319964671758358,-0.12352126811196229,0.030636154572184705,0.06335137747185962,-0.0015985196287823327,0.015404661884210778,0.007494088218076074,3,right
1.555,-0.08005929437241652,0.9912290220861345,-0.12969664409428627,-0.125879358823553,0.030806811646224307,0.06401740044307785,-0.001604311341674928,0.015385323844580228,0.007528798486698975,3,right
1.5590000000000002,-0.08002902983933743,0.9915667412526764,-0.12392124851203036,-0.1230596451623075,0.030603430702359016,0.0632221741920939,-0.0015943149193234957,0.015418718333360566,0.007468679848389714,3,right
1.5590000000000002,-0.08112026767965794,0.9911490366804441,-0.11839454322445707,-0.12524826442999665,0.0307602244913418,0.06383763666674772,-0.001605351341653161,0.015383030779118054,0.007522654028382602,3,right
1.5630000000000002,-0.08320879031331095,0.9889348596423679,-0.11025743612998455,-0.12409034522154963,0.030680546758363143,0.0635174293137433,-0.0015970596273186095,0.015409302035228908,0.007487777814560796,3,right
1.564,-0.0855859912052104,0.9847905893587378,-0.10268060210331692,-0.12430285318479092,0.03068734139916485,0.06356328471231859,-0.0015981807583809002,0.01540439896796467,0.007506702570143617,3,right
1.568,-0.08967261124378353,0.9807429513694772,-0.10145006232337248,-0.12471080326038227,0.03073060647860873,0.06370114601819538,-0.0016085953399092678,0.015377025045767925,0.007491390547747018,3,right
1.568,-0.09445260355255969,0.9777159248721949,-0.10669387104348119,-0.12405342815594611,0.03066639092506148,0.0634880736105558,-0.0015841504719756754,0.015442350810136082,0.007516014280093132,3,right
1.5730000000000002,-0.09830041827907134,0.9777710127439462,-0.11413495619308835,-0.12465339389987062,0.030722970510382707,0.06367919290009855,-0.0016204686598980571,0.015345540454331208,0.0074768709787370775,3,right
1.574,-0.10199473058092723,0.9796511086636117,-0.11913604454155403,-0.12431516506688392,0.030699065486744257,0.063584616349291,-0.001581950855760936,0.015447887711290794,0.007521794951804749,3,right
1.578,-0.10655327120087726,0.9804942530272515,-0.12018933203021899,-0.124288928674087,0.030671314492995167,0.06353461908128105,-0.0016042089931574653,0.01538874435015606,0.007495871061437488,3,right
1.578,-0.11384360292699916,0.9849691593507253,-0.11522672629035771,-0.12468721478045816,0.030758766804284746,0.06374367992902177,-0.001622954585175135,0.015339647922443314,0.007466439696019677,3,right
1.5830000000000002,-0.12174378305255713,0.9899165617844523,-0.10935458239934927,-0.12401203591560579,0.030622550748388527,0.06340910206156183,-0.0015403424831758874,0.01555695415995262,0.007586076969392333,3,right
1.584,-0.12855264561017987,0.9895937904839964,-0.10732273155516525,-0.1247468580901755,0.030768829178327874,0.06376999086938046,-0.0016935768565474393,0.0151538414502919,0.007364661772759245,3,right
1.588,-0.13678673051603046,0.9892239549983445,-0.1043171724730928,-0.12429846429968285,0.030682617750760765,0.06355479187975463,-0.001496851827764988,0.01567129531162915,0.00764956086366381,3,right
1.588,-0.1457326388087909,0.9901307254789801,-0.10122020297436778,-0.1240299530907589,0.030616687186782746,0.06340237361604643,-0.0016610728115969507,0.015239378359623622,0.0074114399922282645,3,right
1.594,-0.15258876955577583,0.9889394280415932,-0.10227743682726592,-0.12539822524964483,0.03091895410981818,0.06412358538671788,-0.0016565773914325294,0.015251250308017428,0.007417151703488246,3,right
1.595,-0.15665078629585147,0.9874606320941576,-0.10368300460654276,-0.12282592203374605,0.03035592223294844,0.0627763177097665,-0.0013436487236487896,0.016074021813651494,0.007874351206551753,3,right
1.597,-0.15764346045114436,0.9868731731187278,-0.10261186122055421,-0.12613666465963663,0.03107943615416516,0.06450846883383762,-0.0021128327144909935,0.014051635063749655,0.006751151103706277,3,right
1.598,-0.15614189942667778,0.9846677646987887,-0.10290227437831312,-0.123369582140233,0.030475187996804935,0.06306149094017269,-0.0008374873716220282,0.01740480321957817,0.008613540353374086,3,right
1.6019999999999999,-0.1554686006165955,0.9830969838997453,-0.10372838541966531,-0.12345650734148576,0.0304924021802916,0.06310407372271781,-0.0025196569641127878,0.012982066140176222,0.006156860625587583,3,right
1.6030000000000002,-0.1552538357520528,0.9839452917424752,-0.10434736892578814,-0.1286931859863661,0.03164175805400307,0.06585196504620565,-0.00958034340102321,-0.00558209772351024,-0.004156777860630319,3,right
1.6030000000000002,-0.15217303860182663,0.9828168122446906,-0.106888831162138,-0.11580802030539104,0.02881577365851262,0.05909394553331557,-0.01126250989821331,-0.010004725083790494,-0.006613754433385078,3,right
1.607,-0.14765037630200606,0.9815853020926053,-0.1065857058764227,-0.1371756708022313,0.03350163983844509,0.070300109159259,-0.009987176477972804,-0.006651712474881852,-0.004750905900011249,3,right
1.608,-0.14498914067122765,0.9833750937640227,-0.10368013440304476,-0.10899183855253873,0.027320992351893843,0.05551911792735183,-0.010756331374240806,-0.008674013892537922,-0.005874473065762005,3,right
1.6130000000000002,-0.1448857980917044,0.9841005674081617,-0.1035600127389743,0.009292530573752057,0.0013789728294449199,-0.006519204761061773,-0.010443454204715687,-0.007851117616683445,-0.005417330346891871,3,right
1.6130000000000002,-0.1438568085652664,0.9833660100819398,-0.10546527388795188,0.03747401792069972,-0.0048015625519590354,-0.02129994563198847,-0.01043888980541283,-0.007839693836700558,-0.005410822671272486,3,right
1.6130000000000002,-0.14145199081722432,0.9834538403926757,-0.10655761124652444,0.01610944780302758,-0.0001158187873636264,-0.010093925378706327,-0.010603176203960332,-0.008270824323891396,-0.0056506242526616225,3,right
1.617,-0.1401990051951372,0.983214427828961,-0.10576962741132781,0.028993653849086008,-0.0029418453289739364,-0.01685249952614852,-0.010406427866912628,-0.0077543333495625425,-0.005363377654472777,3,right
1.618,-0.1377085192380969,0.9817527774168101,-0.10554340222989961,0.02375252725811209,-0.001792095337944148,-0.014102778649430825,-0.01055959461411692,-0.008156696816507443,-0.005587057180829984,3,right
1.6219999999999999,-0.1347867680879496,0.9810201722613194,-0.10751650948298634,0.0236778230367181,-0.0017757346349119643,-0.014063510376308649,-0.010477181536384612,-0.007939332869667578,-0.0054665520245688395,3,right
1.6219999999999999,-0.13285240188688074,0.9813862550744364,-0.1098434610277794,0.026425260900585335,-0.002378754681105055,-0.01550623394406219,-0.010495593956383054,-0.007989938292533827,-0.0054938183813652945,3,right
1.6269999999999998,-0.12925738495366668,0.982425002478092,-0.1117767366206952,0.023136731345969407,-0.0016564691904449472,-0.013777697133825597,-0.010518251371979696,-0.008045730584287807,-0.005526288431917992,3,right
1.6280000000000001,-0.12557574859510268,0.9853225535639804,-0.11192362452614028,0.025694526655753485,-0.002218960830257471,-0.01512456062348861,-0.010479429127488681,-0.007948293266902776,-0.005470341214256127,3,right
1.633,-0.12306996668332904,0.9862201973417332,-0.10956390155240786,0.024318525266050148,-0.0019156625258073398,-0.014397582882628993,-0.010515712885854407,-0.008039998406023319,-0.005522737367894557,3,right
1.6340000000000001,-0.12058397119578461,0.9852913395944265,-0.10823578485190077,0.02463145069389315,-0.001984955853419475,-0.014563995225891023,-0.010491905555637485,-0.007977367704502934,-0.0054879565302007275,3,right
1.636,-0.11827661926768296,0.9867745494008008,-0.10891370508430656,0.024992240126750796,-0.0020653501700266964,-0.014757681133376707,-0.01050092103937112,-0.008007929687683227,-0.00550224246041476,3,right
1.6369999999999998,-0.11624242623292835,0.9872903031705885,-0.11095385716691783,0.02437668888880523,-0.0019262351334100854,-0.014420435017489651,-0.01050408214729007,-0.008000573982076856,-0.005504307966820364,3,right
1.642,-0.11585856081961723,0.9873771858241291,-0.11297850456509576,0.02493922203631912,-0.002056703842810093,-0.01474028378592615,-0.010493675514557092,-0.007996579764240746,-0.00549291434790824,3,right
1.642,-0.1177207258324253,0.9890610833308874,-0.11330266833637423,0.024580333181017024,-0.001969283946219659,-0.014521611092817284,-0.01050582801587419,-0.008003627897587885,-0.005506604893165798,3,right
1.6469999999999998,-0.11762332394008193,0.988977941316581,-0.11545108082163409,0.024722957222480513,-0.0020075086936708238,-0.01462068375352676,-0.010497134109584867,-0.007995148173554817,-0.005496256512511224,3,right
1.6480000000000001,-0.11391125288793665,0.9893001511657156,-0.11823936298136106,0.024721864858592763,-0.0020073259059924997,-0.014620316073372367,-0.010497926330877127,-0.008009659307177135,-0.005499424886936339,3,right
1.651,-0.11145454415013838,0.991413854303424,-0.11964605383746181,0.024686985338812962,-0.0019868032659039643,-0.014557022505976864,-0.010508020388522617,-0.00798187793761013,-0.00550533563858937,3,right
1.651,-0.10961394689985432,0.9906873962111737,-0.11924501224629072,0.024669672185470636,-0.0020124316819024805,-0.014650794407017071,-0.010486856114429233,-0.008026941431568037,-0.005490816304070313,3,right
1.656,-0.10455720977051479,0.9882720207068135,-0.11658636518446369,0.024775400281384717,-0.0019917181417293483,-0.014552800608463015,-0.010514576753202127,-0.007970539129727078,-0.005510242019981024,3,right
1.656,-0.1000371488499111,0.9862292287232094,-0.11719491372896837,0.02461598218790003,-0.00200355869688097,-0.014632775457481626,-0.010491218864030278,-0.008017017473846737,-0.005493729978848682,3,right
1.662,-0.10020988595767792,0.9831102619765257,-0.11683115083781703,0.024723040245264182,-0.001999989253021527,-0.014594388108888048,-0.010492688129546807,-0.008018059831234247,-0.005495352858532204,3,right
1.662,-0.10259169790835904,0.9814794169996156,-0.11580657976897628,0.024821465636361284,-0.0019982774358086345,-0.014564571144810537,-0.01053446591182167,-0.007921937051115373,-0.005522917125110893,3,right
1.666,-0.10587966392727388,0.9822509355931446,-0.11896651445314779,0.024372606804434135,-0.0020018380827037793,-0.014685682595849115,-0.01043080929685664,-0.008155438061275071,-0.005453842344486865,3,right
1.666,-0.11372963346902065,0.9849469077187725,-0.11646969481011041,0.025222239672856785,-0.001998995521029102,-0.014470065574367069,-0.010602909971878563,-0.007769048995556259,-0.005568640493069661,3,right
1.671,-0.12044360314286442,0.9884654575409475,-0.11178496794029619,0.024119331305345652,-0.0020000428618684386,-0.014740712736007357,-0.010375915808392186,-0.008278555478070366,-0.0054173029765155435,3,right
1.671,-0.12195843878072458,0.9896002255413465,-0.11198960716295607,0.025045383379647082,-0.0020003055382409205,-0.014517469314141876,-0.009424037586265402,-0.010421401721890364,-0.004782591220753303,3,right
1.672,-0.12764857626313708,0.9888363935111464,-0.11211859538993801,0.025020791643844284,-0.002000455679097307,-0.014523918057793458,-0.00919719314118959,-0.010931045704944426,-0.004631593583134889,3,right
1.675,-0.13460155709855193,0.9878707205111295,-0.10952919097909694,0.023244627615455364,-0.001997552420931804,-0.014943780439708553,-0.009369131824225253,-0.010544507837429717,-0.004746024032630289,3,right
1.676,-0.13642235510043021,0.9885126434822483,-0.10557965049469657,0.02761359377597093,-0.002005319789320414,-0.013913259092904001,-0.009265413623988679,-0.010777952391712729,-0.004676809295963197,3,right
1.681,-0.13760971005619416,0.9878880746106466,-0.1072886919882449,0.020366115638939013,-0.00199174831927727,-0.015620300203396257,-0.009307728680001319,-0.010682322826988002,-0.0047055935483024695,3,right
1.683,-0.1380171908840684,0.9848679843392615,-0.11136698692194072,0.029928305979800795,-0.0020101812163878224,-0.013369947349803372,-0.009308041902304422,-0.010682303797969306,-0.004704591610982932,3,right
1.683,-0.13855584343086866,0.9838355792778815,-0.11276449171769962,0.07007087475627756,-0.002089682953155875,-0.00392975317265777,-0.00928634156929136,-0.010730304091903894,-0.004691842915625501,3,right
1.686,-0.14101270596230076,0.9835373467899595,-0.11594912131449889,0.07963605573435341,-0.0021086308641432086,-0.0016805505310032325,-0.009312411597122096,-0.010672386074452842,-0.004707521260956893,3,right
1.6869999999999998,-0.14395635224407274,0.985237556622352,-0.11662590221258654,0.07238374165000994,-0.002094151324367318,-0.0033855079891740025,-0.009291959588512692,-0.010718103889562354,-0.004694618594072728,3,right
1.6909999999999998,-0.14892805260637423,0.9881270190362769,-0.11423754610318049,0.07675714537873403,-0.002102949514362442,-0.0023574857921445317,-0.009303470912814735,-0.010691623350183276,-0.004703747840701046,3,right
1.6909999999999998,-0.15476781324835615,0.9898038989909345,-0.1116306727673751,0.0749800289015437,-0.0020993325480114645,-0.002775348170445081,-0.009299697501843245,-0.010701942892655303,-0.004696549564463862,3,right
1.695,-0.1615137102779308,0.9930859762563393,-0.10693480762352656,0.07494967970668183,-0.0020993066941985914,-0.002782006228682118,-0.009298870497002724,-0.01070068616813237,-0.004704062779318343,3,right
1.696,-0.17015724850506508,0.9943405197730207,-0.10475511386431727,0.07589023729444193,-0.002101192124543459,-0.0025617405059857722,-0.009301368204670342,-0.01069886911392373,-0.0046958332829571126,3,right
1.7,-0.1756149990815109,0.9942476825747437,-0.104939633479147,0.07476507641731411,-0.002098911634078333,-0.00282532788759232,-0.009298659037247848,-0.01070194378031649,-0.004701914459339879,3,right
1.7009999999999998,-0.17615456715429384,0.9945118924945897,-0.10444347919177707,0.0756388112431218,-0.002100684172393388,-0.0026203611839213875,-0.009301888287745572,-0.010694648471911476,-0.004704137813647176,3,right
1.705,-0.17325079398859702,0.9908585831797034,-0.10550607671889581,0.07517564625938089,-0.0020997763360252847,-0.002730011994858306,-0.009296620351506704,-0.010712098434233227,-0.004685990280114821,3,right
1.706,-0.16616173152432712,0.9875141876846001,-0.10432951190691088,0.07526267611994752,-0.0020998563844066634,-0.002706970064245039,-0.009305456209942158,-0.010679437771264745,-0.004725326846286955,3,right
1.71,-0.15780747018403207,0.985823510910374,-0.09972569773807181,0.07542199280512879,-0.0021003521903402928,-0.0026740172106741763,-0.009293040973541576,-0.010726428710785494,-0.004667154961756047,3,right
1.7109999999999999,-0.15153685396247674,0.9831815898260231,-0.09863281412819998,0.07516380907464032,-0.00209961080313667,-0.0027291616327469468,-0.009306133827007092,-0.010676662405612387,-0.004729072118083313,3,right
1.715,-0.14472415103232888,0.98178781606114,-0.10031066363869226,0.07539998771325582,-0.002100265526650217,-0.0026780809802901063,-0.009298793683447548,-0.010704902866082739,-0.004693447454631926,3,right
1.716,-0.13768560324369755,0.980282689627197,-0.10073099627369414,0.07526484675980585,-0.0020999958437369825,-0.00270987126046376,-0.00929135023412204,-0.01073178112992617,-0.004661990497828233,3,right
1.719,-0.1337433832913024,0.9788743248998009,-0.10243560476648131,0.07526076942802719,-0.002099648906428237,-0.002702622289732291,-0.009322100694804238,-0.010618307518657437,-0.004798436390488358,3,right
1.72,-0.1310035189232695,0.9797727632503963,-0.10601061251169616,0.07540527704980748,-0.002100714271111105,-0.0026874430474650556,-0.009265401985047848,-0.010827984711162267,-0.004545618233811052,3,right
1.724,-0.1297435803787354,0.9815573248367652,-0.10810749424258262,0.07515729165937073,-0.0020990595936245943,-0.0027176805550099114,-0.009338133786164392,-0.010558933247840553,-0.0048701978610728395,3,right
1.725,-0.13014089318598768,0.9836411547347077,-0.10673056173559572,0.07542772155392868,-0.002100834708894563,-0.002684045091256663,-0.009277440700086736,-0.010783457379816275,-0.004599245234034447,3,right
1.729,-0.12753914035991842,0.9849322778926751,-0.10475917578363073,0.07526187557554054,-0.0020997928350717726,-0.0027056950057520925,-0.009278975331829795,-0.010777700310889461,-0.004606496218582663,3,right
1.73,-0.12339992171978886,0.9838239913028901,-0.10462241118433005,0.07516628928337907,-0.0020989793408529816,-0.00271334105582549,-0.009395065438149315,-0.010348579413660838,-0.00512341474330162,3,right
1.735,-0.12156000764053504,0.9822828336584378,-0.10315518147124468,0.07566227638136831,-0.002102673811274243,-0.0026618786031517147,-0.009109852231758208,-0.011402882693240253,-0.0038529944341452477,3,right
1.735,-0.1197743750777183,0.9820542624706523,-0.10235393234612572,0.07472833317736127,-0.0020958031092912356,-0.002760530286416516,-0.00958272291025296,-0.009654957858749726,-0.0059593779314607,3,right
1.739,-0.11659720341806223,0.9819649629849303,-0.10450356879124523,0.07593089163570997,-0.002104622611174188,-0.002633183116261444,-0.008959004760549403,-0.011960395431641669,-0.003181077026690997,3,right
1.739,-0.11542309788585042,0.9813521296783371,-0.10594258604303644,0.07492535951495019,-0.0020972712195869653,-0.0027397044154723986,-0.006340999283107061,-0.02163958972918007,0.008481073616222815,3,right
1.74,-0.11686334871045291,0.9812061065246551,-0.10620903822716336,0.07495817257376841,-0.002097446052161102,-0.0027358984243857328,-0.005717274134009798,-0.023945125019210128,0.011259389356180753,3,right
1.744,-0.1167604117091828,0.9823437317717131,-0.10626026233268604,0.07685777566773275,-0.002111514798796214,-0.0025359939239112343,-0.006190125666701735,-0.022196871246498703,0.009152972506332992,3,right
1.744,-0.11627523780318672,0.9836206104821409,-0.10681897301632254,0.0721816307222893,-0.002076989533905325,-0.0030282565565075328,-0.005905009978817977,-0.023251924948369904,0.010423447994441646,3,right
1.749,-0.11615274228547712,0.9842771085264506,-0.10858952720992104,0.07993732597980283,-0.0021341929934970702,-0.002212000577336417,-0.00602087985913222,-0.022821524780768848,0.009906456369427406,3,right
1.749,-0.11356375534474397,0.9846823322011613,-0.11077633856852248,0.06970676603618174,-0.002058774937345828,-0.0032884495208753556,-0.006022757992335744,-0.022817431309240948,0.009899278265428163,3,right
1.75,-0.11342925272473313,0.9852903202079057,-0.11072016508981225,0.02679298402186948,-0.001741227257278004,-0.0078115797313792305,-0.005961676748487181,-0.023040441976128798,0.010170193971232769,3,right
1.754,-0.11492972274772437,0.9860037503311233,-0.11019601782442143,0.016563853327911292,-0.0016657739370889283,-0.008888114770969464,-0.006034664726547984,-0.0227718086554685,0.009845566702869537,3,right
1.754,-0.11312257017448049,0.9857522808653049,-0.1141687619175572,0.024315208762949476,-0.0017231413867173358,-0.008070962525724461,-0.005978097530604371,-0.022983327567992,0.010098562156062665,3,right
1.76,-0.11320053591259471,0.9858098105138453,-0.11782885406729507,0.019648370227454137,-0.0016881849159934978,-0.008566034387666165,-0.006008070270313203,-0.02286483540434185,0.00996179600691429,3,right
1.76,-0.11355300288882453,0.9854469935555048,-0.11855438551683468,0.021532704174161078,-0.0017030459926895085,-0.008360574338195837,-0.0060021725513223914,-0.022899863715445196,0.00999366325449663,3,right
1.764,-0.11246524173344041,0.9833515420439413,-0.11971844566386271,0.02158474328017913,-0.0017021298996302582,-0.00836480394915206,-0.005992713793567446,-0.02291861222507939,0.010028933720796215,3,right
1.765,-0.11525716334321401,0.9825967740822682,-0.11925082193952515,0.02056255518650732,-0.0016958512013598272,-0.008462940507052189,-0.00600782816241971,-0.02287566153273228,0.009967076607506304,3,right
1.7690000000000001,-0.11611537594340003,0.9822260117221085,-0.11851317507142779,0.021768071586330658,-0.001704216418778293,-0.008340024788182316,-0.0059946657193867495,-0.022924440499342284,0.010025760395750868,3,right
1.7690000000000001,-0.11446527290323127,0.9811599303726735,-0.11991879416491302,0.02085815859925776,-0.0016964017555294443,-0.008444039950990334,-0.006001504619430977,-0.022875168336242792,0.009985139566867855,3,right
1.7730000000000001,-0.11772124881315019,0.9815492050761156,-0.1213375352306615,0.021293293514211623,-0.0017031130998137385,-0.008372007536480933,-0.006002189897384703,-0.022927450616944962,0.010005294255034592,3,right
1.774,-0.12035612669364829,0.9813650589750325,-0.12391777357494996,0.021293409766372055,-0.0016971004750630956,-0.008417073569220872,-0.005995422596776276,-0.022870698337848355,0.01000082059633842,3,right
1.778,-0.12054440077189393,0.9816678714795865,-0.12661780477072487,0.021019617775560308,-0.0017024513505449015,-0.008390621297603984,-0.006004738154675076,-0.022923423505999234,0.009996226044896795,3,right
1.7790000000000001,-0.12152022037905703,0.9837690926838735,-0.12416811531222673,0.021362035999917272,-0.0016991057703350187,-0.008398628955140548,-0.0059979476364198266,-0.022898171805300543,0.010005156905475966,3,right
1.784,-0.11984898830199565,0.9835391638814349,-0.12069822864764632,0.02114703631020881,-0.0016974623108831262,-0.008421650132933894,-0.005996471470692282,-0.02286019769845392,0.009993342852064605,3,right
1.784,-0.11910998337406078,0.9829604431592657,-0.12209717024127086,0.02108375036322048,-0.0017079014404374811,-0.00834658182191475,-0.006011006231240668,-0.022996490344323224,0.010009051470108513,3,right
1.7890000000000001,-0.12125057382802638,0.9836892285946207,-0.12366445282852566,0.02149590177655816,-0.0016860265066215292,-0.008489987956502767,-0.005982145855364697,-0.02275079943826399,0.009988419217813974,3,right
1.7890000000000001,-0.12114497407372139,0.9843704409615732,-0.1235751994040311,0.020786813978575926,-0.001717960470091346,-0.008285946834230805,-0.006019887604196602,-0.023063731439352107,0.010011855918924692,3,right
1.794,-0.12099468027141969,0.9860697278819762,-0.12432453548001339,0.021577232189998942,-0.00168417653987322,-0.008499865100211008,-0.005988095113867076,-0.022803557449130086,0.009993569525597533,3,right
1.795,-0.12155466136753144,0.9857156147620555,-0.12591097816245989,0.021097324639668825,-0.0017035203660407416,-0.008378632396452486,-0.005989387725742935,-0.022808938535658664,0.009992104367320807,3,right
1.798,-0.12059336212227328,0.9846290751874497,-0.12782442837062527,0.020755789808480477,-0.0017207439433267586,-0.008266763708242348,-0.0060488554437829675,-0.023309454756164256,0.010032197574396957,3,right
1.798,-0.12235120552742985,0.9863317250875574,-0.12698140068526972,0.022383697556045034,-0.0016463824481064986,-0.00874282323018483,-0.0059020764776004314,-0.022081651345416918,0.009936464536564885,3,right
1.8019999999999998,-0.12593369819984473,0.9868946565912742,-0.12285038607074243,0.01933315204670359,-0.0017840396015746125,-0.00786308443482564,-0.006145660022537457,-0.024116495240085196,0.010094166843695351,3,right
1.8019999999999998,-0.12684497124019956,0.9868770548463454,-0.12029833966965277,0.023261742041202772,-0.001607379744942961,-0.00899170426918824,-0.005824316605489448,-0.021432880712146506,0.009886483286705978,3,right
1.808,-0.12788853085588525,0.9876654206309148,-0.12045522836145588,0.019976815301377463,-0.0017548068277493968,-0.008049710805007226,-0.004475662652774619,-0.010167111892257033,0.009013561998562038,3,right
1.808,-0.12981353233206455,0.9857901995602656,-0.11861553491163622,0.02007395169634671,-0.0017509218907705388,-0.0080750555621254,-0.004154382708494146,-0.007483565496016675,0.008805765372003525,3,right
1.8090000000000002,-0.1325978661432389,0.9840168597265757,-0.11535850232246488,0.026315994394664588,-0.0014695412826759857,-0.009871814274503222,-0.004397911668888852,-0.00951813776569234,0.008963445475992527,3,right
1.8130000000000002,-0.13601038950143474,0.982758793486053,-0.11533807425652094,0.010961418834027572,-0.0021609584123102304,-0.005455461011372077,-0.004251056680779788,-0.008291007324974892,0.008868270920068767,3,right
1.8130000000000002,-0.13666340588754838,0.979761789790326,-0.11600262252092261,0.036425359174473475,-0.0010146653254732808,-0.01277850999029053,-0.004310855076233909,-0.008790322870457898,0.008906902888216401,3,right
1.817,-0.13654076099369478,0.9795991363148944,-0.11480212477012372,0.0028357423538882195,-0.0025265305060793446,-0.003118635573851113,-0.004311504922083967,-0.00879732188598739,0.00890787667508149,3,right
1.818,-0.13634097093929837,0.9804161816701821,-0.11505888318990679,-0.13813500538404183,-0.008873510128919125,0.03741813207080778,-0.0042805790084042075,-0.00853560108385057,0.008886657823922322,3,right
1.818,-0.13562607811892002,0.9804300546220394,-0.1163064403243064,-0.17172718039131915,-0.010385243355303254,0.047079603852175134,-0.0043175265415995746,-0.008849107875124029,0.008912309559598538,3,right
1.8230000000000002,-0.13560555645268443,0.9825955956487353,-0.11542202960146764,-0.14625962165994297,-0.009239099352659309,0.039754916318717914,-0.004288881276199277,-0.008604961876842801,0.008892030822748375,3,right
1.824,-0.13534609538311043,0.9832165051726067,-0.11511653018006417,-0.16161615739203475,-0.009930548400811607,0.04417029459284814,-0.00430439197243704,-0.008736629629842261,0.00890282060489843,3,right
1.829,-0.13510436402044865,0.9828928917256551,-0.11452188396682314,-0.15537708443036352,-0.009648740363391632,0.04237992356199244,-0.004300277832594696,-0.008706446162695291,0.008901661259185588,3,right
1.83,-0.1322848197437607,0.9827187573974364,-0.1115419644448383,-0.1552694087735824,-0.009645805917084901,0.042341272444292394,-0.00429774536008247,-0.008671805883932827,0.008895180560639319,3,right
1.8319999999999999,-0.1282356801125591,0.9803333602057211,-0.11216957793789374,-0.15857276880753363,-0.009791845512313263,0.04330199422835064,-0.004302140645831955,-0.008731767770718712,0.008906369328187908,3,right
1.8319999999999999,-0.12666563551939147,0.9811272693235754,-0.11489951189056344,-0.154621673454219,-0.00961659812733981,0.04215516245403639,-0.004298839115000223,-0.008675648955771834,0.008893991202085592,3,right
1.838,-0.12331671260015988,0.9839428186713994,-0.11609515603586926,-0.15768963533043862,-0.00975358858730434,0.04304194683648514,-0.004300608388213869,-0.008713194925480075,0.008903300486190924,3,right
1.839,-0.11938495714129044,0.9835313447912183,-0.11827095700085968,-0.15606329740307873,-0.009678146076226395,0.04258339837623573,-0.004298597259169608,-0.008696571196405524,0.008902075637251275,3,right
1.8419999999999999,-0.11725756581219368,0.9850325716642455,-0.11811550126133927,-0.15636922871391296,-0.009699078803134024,0.042642080120691435,-0.0043037550482914536,-0.008697466321396197,0.008890252233525112,3,right
1.8430000000000002,-0.11416010364611567,0.9871131883136062,-0.11631305595399961,-0.15692782465450344,-0.00971190279494342,0.04285312748737848,-0.004293055083825027,-0.008704553720038883,0.008917969988380726,3,right
1.8459999999999999,-0.1132170557043608,0.9860908361023234,-0.11726412995715907,-0.15602241764056057,-0.009686257145345403,0.04253092628825787,-0.004309278120261023,-0.008696114985993212,0.008876793087149708,3,right
1.8459999999999999,-0.11217824660144474,0.9868593750663811,-0.11686049659477532,-0.15685069973986615,-0.009711498467401922,0.04281839389431969,-0.004291639013606331,-0.008702279182199239,0.0089204590528667,3,right
1.8519999999999999,-0.10960321159399444,0.9873668595677361,-0.11478939788793543,-0.15637624907220193,-0.009690034528650294,0.04268241258441553,-0.0043018400586941515,-0.008698710460864924,0.008895246439390127,3,right
1.8530000000000002,-0.11233552848456986,0.9845921920104367,-0.11409877110228442,-0.15636372009844451,-0.009711813589321858,0.04258733349007097,-0.0043113419282984145,-0.008701811975613647,0.008873933530616319,3,right
1.8559999999999999,-0.11466638735603435,0.9826847551340775,-0.11309166077949734,-0.1568668599727795,-0.009683401325743399,0.04294104204610727,-0.0042706417530405305,-0.008696176767173582,0.008967703074789345,3,right
1.8559999999999999,-0.11371099052444483,0.9824005588522154,-0.11449555336719264,-0.15600262734132758,-0.009720673481587184,0.04238071141723776,-0.004346107533124201,-0.008706288912031433,0.00879383046920389,3,right
1.861,-0.1157823744972104,0.9820450392308694,-0.11768833137518482,-0.15694507754152262,-0.009681890067523352,0.042984101694166534,-0.004249108785766277,-0.008692722006314529,0.009016996435847966,3,right
1.861,-0.11705244902715764,0.9815865974485882,-0.1181335281924911,-0.15636709969157517,-0.009702800440937132,0.04262587977991249,-0.004330167791683196,-0.008704378633395998,0.008830785123548044,3,right
1.867,-0.11625538845733144,0.9811957519224334,-0.1183193929157724,-0.15603446537432872,-0.009728259980133764,0.042364609548745005,-0.004327933367000545,-0.008704502178464146,0.00883568952291308,3,right
1.867,-0.11702253308233158,0.9806176170750169,-0.11780747453754312,-0.15776129330236888,-0.009628996918179575,0.043585801319516934,-0.0041733200241091985,-0.00867999440143461,0.009190987160020467,3,right
1.87,-0.11730184887507092,0.979363336673943,-0.11722014516784851,-0.15450994184350514,-0.00981089627421855,0.0413071013806565,-0.004553522229614719,-0.008740175489668458,0.008318048153723466,3,right
1.871,-0.11597140020438755,0.9780723070544204,-0.11784553122567366,-0.15869583203460208,-0.009577805105031575,0.04423614183266855,-0.003922940971075293,-0.008640009803958478,0.009765130693261986,3,right
1.876,-0.11516025753033714,0.978060729205067,-0.11618880362165804,-0.15519675950122505,-0.009772228161059007,0.041789669003865396,-0.00475487757868993,-0.008772623196362697,0.00785673665259882,3,right
1.8769999999999998,-0.11539926132142969,0.977354783912645,-0.11634026734589689,-0.15530861516527206,-0.009767668605839941,0.04186052117752583,-0.008245018534507329,-0.009327137419333024,-0.00015689101719046903,3,right
1.8769999999999998,-0.11475893652842206,0.9747721831947743,-0.11932221092819918,-0.1619244617700319,-0.009394583503165861,0.04651002148532977,-0.009077292126565465,-0.009460547050759348,-0.00206478708821653,3,right
1.881,-0.11455540940161474,0.9733475429967753,-0.11998421996236841,-0.14564324761592135,-0.010310801846667546,0.035076863049427906,-0.008446331759309604,-0.009359398434848131,-0.0006182526066145073,3,right
1.882,-0.1166542696980446,0.9730155587020887,-0.11984955174017892,-0.17264353585738162,-0.00879181892526382,0.05403469688277417,-0.008826446705338876,-0.009419682060101301,-0.0014913636281532962,3,right
1.885,-0.1172384843517979,0.9731029396795599,-0.11908824738588235,-0.1370298117822129,-0.010795395125462903,0.029029565929216735,-0.008672936777024597,-0.009397145023431704,-0.0011343466575441264,3,right
1.886,-0.11782728577778491,0.9728235913261025,-0.11809056516486784,0.012430501123858004,-0.019204579161139407,-0.07592974227152616,-0.008668257414993413,-0.009392435786997303,-0.001133186926682947,3,right
1.886,-0.12157228066444001,0.9700000676736293,-0.12080710989408466,0.04804189574836422,-0.021208184058205827,-0.1009345140393065,-0.008752878651383293,-0.009411496007892352,-0.0013139928709640061,3,right
1.89,-0.12337463331969062,0.9682060175345686,-0.12334576069471385,0.021044640643662543,-0.01968941051390708,-0.08197614422871417,-0.008652261855396614,-0.009389964108328368,-0.0010962548339058346,3,right
1.89,-0.12409232786697418,0.9687882710263267,-0.12432784647683782,0.03732499691710586,-0.02060476545628638,-0.09341272539921956,-0.008729420256321865,-0.009404613423529197,-0.0012677012426166364,3,right
1.896,-0.12816694741178047,0.9690989979112296,-0.12925975742602452,0.030704534957166425,-0.020233538983812187,-0.08875518442785275,-0.008691523920540074,-0.009403282092057357,-0.0011694645727120703,3,right
1.8969999999999998,-0.1327242896290734,0.9700270357990033,-0.13254394645772058,0.03060511152558277,-0.02022615322468878,-0.08869712228750712,-0.00869147258314996,-0.00938815751497458,-0.0012055008760627848,3,right
1.901,-0.1346441680267706,0.9700572835464903,-0.13110059082472558,0.034084355862978706,-0.020423689468946515,-0.0911288679321549,-0.008718430077576046,-0.009418469101821663,-0.001205155143246215,3,right
1.901,-0.13622504715783004,0.9691220872204981,-0.13033373039361834,0.0299207122183442,-0.02018867112894719,-0.08820998205341371,-0.00867991248131783,-0.009380424934426852,-0.001193056674803986,3,right
1.905,-0.13905471471963593,0.9694433542060686,-0.12797459382465315,0.03315781896131409,-0.02036922396822618,-0.09049267653582044,-0.008713249982163333,-0.009411157091376281,-0.0012087662684183422,3,right
1.905,-0.13995672951746865,0.9681654404621205,-0.12542143118421867,0.031422592548244026,-0.02027663454234242,-0.08924346451424645,-0.008701622851793822,-0.009409558266958428,-0.0011815124044781483,3,right
1.91,-0.14087915888857022,0.9664141620202968,-0.12482883089517158,0.03180069714995654,-0.020289230625389655,-0.08956179165498834,-0.008677497127692089,-0.009358486345578645,-0.0012390118489288273,3,right
1.91,-0.14249563906730495,0.9673513427710875,-0.12405770576677906,0.03228987238319833,-0.020327403454527014,-0.0898405528392379,-0.00874436775010971,-0.009477019977717,-0.0011345981489329425,3,right
1.915,-0.14129312284493928,0.9696251662274336,-0.12708899348499325,0.03146750961420548,-0.020272640746442937,-0.0893146600500635,-0.008641805134506166,-0.009299782040283767,-0.0012838899685658548,3,right
1.916,-0.14063566615613898,0.9730461868926742,-0.13019254533560842,0.03221941130507812,-0.020314873771204424,-0.08984311974864037,-0.008751650999418114,-0.009488754946570636,-0.0011259624352676408,3,right
1.92,-0.14096935981362524,0.9760604503969814,-0.12794341994776162,0.03175347061186076,-0.020304415210120472,-0.08942025342247917,-0.008687374142061218,-0.009379519090926366,-0.0012152843479646966,3,right
1.92,-0.13903071715319798,0.9766246185805673,-0.12581917120855868,0.031886808527039415,-0.020275896190961366,-0.08973250227799577,-0.008636004484480948,-0.009285743356462855,-0.0013017816114703853,3,right
1.926,-0.1355221037371081,0.9759254295055979,-0.12383872443332908,0.0320159114294132,-0.02033690919493023,-0.08949705041329266,-0.008867403880339266,-0.009696661806780242,-0.0009388206735877708,3,right
1.9269999999999998,-0.13351915009139964,0.9766676016208442,-0.11955461220456026,0.03175827184441717,-0.02026510020207864,-0.08966374476674674,-0.008437114164254154,-0.00893464861319198,-0.0016090763932300241,3,right
1.93,-0.1317856911629448,0.97770723237903,-0.11651891215031343,0.03198760008522562,-0.02031114445100848,-0.08962396787450927,-0.008989845649855097,-0.009912923895549909,-0.0007491369606526498,3,right
1.93,-0.12875649708812567,0.9755639173310446,-0.11563208095819226,0.03193510139305779,-0.02033667925474287,-0.08941389196630592,-0.008528365456139577,-0.009096530502208381,-0.001466691227624885,3,right
1.935,-0.12921059535912832,0.9745765442364354,-0.11650405538214786,0.03170332909819093,-0.020198790172173648,-0.09000896546215878,-0.008541098829148192,-0.00911791371924004,-0.0014485005722899616,3,right
1.936,-0.12989979444611105,0.9767221771910145,-0.11974660523120502,0.03224216178749366,-0.02046071058081638,-0.08898203849698122,-0.009420093527909058,-0.01067626258216187,-7.646237902701194e-05,3,right
1.939,-0.12731603963691457,0.9779085190629614,-0.12266006613842528,0.0315110336292012,-0.02012211469761431,-0.0902730152977751,-0.00725949807388701,-0.006847533342576641,-0.003447092153031739,3,right
1.94,-0.12401248310617581,0.9779316667651372,-0.12612330012820205,0.03213792413715113,-0.020405820350423223,-0.08920696550728846,-0.01084171646766327,-0.013194562349277277,0.002140869364713794,3,right
1.944,-0.12088849794336513,0.976983943555281,-0.13024164571494568,0.032095586896000845,-0.02039648570635308,-0.08921771296262201,-0.0061170556511834645,-0.004824068230429631,-0.0052291960184679505,3,right
1.944,-0.12015655614806144,0.9769006915293487,-0.13174586965810917,0.030967785547422518,-0.01985985672199515,-0.0912985802132516,0.013717214613307799,0.03032469623990228,-0.036170974278042736,3,right
1.945,-0.12012394397841346,0.9766592055080753,-0.13416444496080518,0.033776326123250835,-0.021181356695553988,-0.0862103325502484,0.018441364740683107,0.03869317290342411,-0.04354049263506843,3,right
1.95,-0.12206898747915336,0.9737140974370635,-0.136009996918603,0.02910605358676041,-0.018989099425832927,-0.094636848206686,0.014859699024020769,0.03234832670173169,-0.03795312277866819,3,right
1.9509999999999998,-0.12526343695425857,0.972364102903046,-0.1350503245872177,0.03527075577040366,-0.021881372678265218,-0.08352612594116694,0.017020504110016103,0.03617788593284057,-0.04132397830626206,3,right
1.955,-0.12631896160045697,0.9721506136744026,-0.13440012256311773,0.06112948173129853,-0.0340183264586542,-0.036873652105787164,0.016139677669207063,0.03461229703901958,-0.039949975551434376,3,right
1.956,-0.12837951737739434,0.9699928138211565,-0.13003906424403838,0.06729396949997977,-0.03691171913536481,-0.025764179009899496,0.016130886225425054,0.03460649190020401,-0.03993601099288382,3,right
1.956,-0.12680704074077329,0.9662390759245593,-0.12120170382168205,0.06262148238416304,-0.03471756868999097,-0.0341869518332998,0.016586713928093855,0.035400549300096604,-0.04064750661953184,3,right
1.96,-0.12002594343020616,0.9618452892608755,-0.11141105752505369,0.06543877698206274,-0.03604102379900784,-0.029106660237629943,0.01603961184893525,0.03444451624341921,-0.03979359942273984,3,right
1.9609999999999999,-0.11350627399388774,0.9585314335966243,-0.1021043131034248,0.0642923407405179,-0.03550343195694905,-0.03117454869448462,0.016467471271197368,0.03519693188741216,-0.04046125402607381,3,right
1.963,-0.11044677265783773,0.9540848379785782,-0.09815115217423757,0.06427816371476998,-0.03549284182303726,-0.031201556037343037,0.01623124085475398,0.03476691479327705,-0.040093109261277744,3,right
1.963,-0.11481925381940976,0.9509356645767308,-0.09802912089415547,0.06487423349028683,-0.03578101145318567,-0.030121532529601383,0.016298177744341193,0.03492221424616376,-0.04019629838654731,3,right
1.9680000000000002,-0.12263263242197896,0.9513624305575057,-0.09536995981738097,0.06416186104701899,-0.03543464283482147,-0.03141475806125365,0.01633562867466326,0.03492544121135206,-0.0402568633188685,3,right
1.969,-0.12834095334753987,0.9508091509864491,-0.09280210726538908,0.06471476409106068,-0.03570609642311473,-0.030408524587312098,0.016258708062032334,0.034866568791617744,-0.04013422377777815,3,right
1.974,-0.13011320062145373,0.9521134891076936,-0.088719465536654,0.06441581757073243,-0.03556064259197791,-0.03095174831517635,0.016335016430193222,0.03494008286418249,-0.040255388334074126,3,right
1.974,-0.12857044357047404,0.9579321044931737,-0.08152492398600404,0.06449184691252435,-0.03558604999160099,-0.030822816415360187,0.01626792253250555,0.034820628271243464,-0.040150710097927964,3,right
1.979,-0.1272104660183263,0.9662904093054465,-0.08285161679528821,0.06454959740021197,-0.03564621842254184,-0.03069197892582534,0.016340744677593846,0.03506417651580396,-0.0402604381431256,3,right
1.979,-0.12527830063095902,0.9751693154914228,-0.09530489236256903,0.06444954526983689,-0.03554231179009244,-0.030918649855824064,0.016241064892345034,0.03462589678933075,-0.040113849733830635,3,right
1.984,-0.12380346561981477,0.9833618153238263,-0.1109477360019931,0.06453218136991623,-0.035650965860630435,-0.030712740052884803,0.016373794782068574,0.03525139689531698,-0.04030756689712579,3,right
1.984,-0.12150664545295646,0.9923106910158228,-0.12533339636187063,0.06448280950073872,-0.03557211565577595,-0.030847151179709695,0.016235261517969765,0.03458987579106549,-0.04010573285157883,3,right
1.989,-0.11415333399843042,0.9987492367127255,-0.13332103772204223,0.06452139282510934,-0.03558967328286542,-0.030778084136805897,0.01631063535018999,0.03496377841083657,-0.040214972723665546,3,right
1.989,-0.10431549952475382,1.001610404599123,-0.1305167171782198,0.06445074274542403,-0.03565996184968855,-0.030820937400370733,0.016398801770988666,0.03532733434999098,-0.04034561310295598,3,right
1.994,-0.09462240182586915,1.0055476823982938,-0.11992532446733521,0.06459109122679815,-0.03548952130665719,-0.03076091591334292,0.016050860048749987,0.03380373885012284,-0.039833634978712104,3,right
1.994,-0.08477206512730914,1.010456056358949,-0.10757130713357238,0.06437692820288497,-0.035741464903297784,-0.03085922172872819,0.01668932742756246,0.036617092953584104,-0.04077224822673966,3,right
1.9980000000000002,-0.07318370392860724,1.013190173909962,-0.10149824242206244,0.0646115806915504,-0.03547596374400995,-0.030742783351431813,0.01587096073816531,0.033007317765836125,-0.03956955031007661,3,right
1.999,-0.06261428518344608,1.012405958196342,-0.1090220138115496,0.06447628839004474,-0.0356293402303158,-0.03080989909863785,0.016553677935915053,0.03601987377637908,-0.04057247425958397,3,right
2.003,-0.05051711522320868,1.008357678927258,-0.12415536524063653,0.0643446085102918,-0.03575501180423729,-0.030893746724937842,0.01653729709592018,0.035942478496475624,-0.040549469457195134,3,right
2.004,-0.03369488486746268,1.0042255318289541,-0.14006393585319413,0.06490084715046307,-0.03519670293623414,-0.030560530766849163,0.015228344931173777,0.03018445337392305,-0.03862386394554666,3,right
2.008,-0.02128771483915793,1.0042220417140104,-0.14890397879375938,0.06387084133922308,-0.03623235269277193,-0.031176717634801742,0.018443371530123532,0.04433218087906861,-0.04335155008577386,3,right
2.008,-0.010275458532041488,1.0063384139381775,-0.1440215945208171,0.06519397557867568,-0.034903262432792584,-0.03038345560317028,0.013112976982198982,0.020875730070935378,-0.035514579229948426,3,right
2.013,-0.0007544871008950621,1.006951102695978,-0.13989210436925748,0.0640897805208511,-0.03601233324185811,-0.03104654070604527,0.020144148606646706,0.051814734883353725,-0.04585079897325141,3,right
2.013,0.0013681525564801166,1.0060420533714836,-0.141671346693027,0.0641158530641043,-0.035982236715047175,-0.031031665674393406,0.04965551327355819,0.1816850018457301,-0.0892493729169182,3,right
2.0140000000000002,0.005447674958397783,1.0065644761544195,-0.14299303803642255,0.06623341283560777,-0.03386894229443105,-0.029754826346501253,0.056687771113835723,0.21262485243367776,-0.09958504047259581,3,right
2.017,0.008577272707786791,1.0095212525617434,-0.14634432474708736,0.06103430773737931,-0.03906247703765946,-0.03289040424605026,0.051356201237355,0.1891674864047213,-0.09174866704950983,3,right
2.0180000000000002,0.004859257018486269,1.0088449756883615,-0.14645291233089308,0.06965178206286957,-0.030452232724286595,-0.027691724451673463,0.054570781269638824,0.20331486639950924,-0.09647658040480155,3,right
2.022,0.0015200138357764573,1.0057689381643011,-0.14314715301764774,0.058287267419292674,-0.04180830473937797,-0.03454908437895765,0.0532657265664675,0.19755987558738544,-0.09454899317338222,3,right
2.023,0.0006355898537934106,1.0050948175236372,-0.14210689829076073,0.010513069179723097,-0.0894917244745034,-0.0633505960068596,0.053240959293496676,0.1974759508915332,-0.09453025229816957,3,right
2.023,-0.0023924703644801325,1.0035404907946655,-0.1378777520561172,-0.0008545192300444286,-0.10084818577986902,-0.07020941291240507,0.05393570137661845,0.20049786933125008,-0.09552706263578939,3,right
2.029,-0.007964882288046368,1.0002154392055322,-0.13087427538900737,0.007775167263196754,-0.09223536544061012,-0.06500723787194893,0.05310535985862013,0.19687877040399276,-0.09433045260757567,3,right
2.029,-0.013682908651028877,0.996265729337685,-0.13016427598103208,0.0025458505932256853,-0.09743637249195025,-0.06814901299337033,0.05374899517973065,0.19969614885406442,-0.09526643903170401,3,right
2.032,-0.02370245571880658,0.9916800119115713,-0.13488071903171756,0.004717270656315453,-0.09530874004625767,-0.06686339041584241,0.053411334020368614,0.19818055670414075,-0.09474923319565884,3,right
2.033,-0.03506339499394186,0.9861848108909684,-0.1333320399629085,0.004670807522878575,-0.09529898158338733,-0.06685805265066941,0.05346637986321916,0.19851832640284423,-0.09489671351903309,3,right
2.04,-0.04385549580814119,0.980707687055547,-0.12665278963969823,0.0036359061792565405,-0.09638730773925656,-0.06751495783270528,0.05359882412185213,0.19893666275945626,-0.09497693744611205,3,right
2.04,-0.05734860998924286,0.9775609044263541,-0.12566922069042719,0.004933391534674794,-0.09506836250464035,-0.06671848815488206,0.053390248713719834,0.19822060717320927,-0.09481071325509309,3,right
2.042,-0.07236911593154527,0.9763079760396042,-0.12805812683206977,0.0038339474775140976,-0.09611915575139618,-0.06735344336053165,0.05357882319245442,0.19888958949607521,-0.09497604050575495,3,right
2.042,-0.08363291964399201,0.9766751616977218,-0.13427356340786803,0.004597714476293044,-0.09550715466033527,-0.06698292382103671,0.05347963276562119,0.19845168645961775,-0.09482919913247082,3,right
2.046,-0.09548228577234907,0.9805059915551315,-0.14301342493617075,0.004116664152900311,-0.09572839961191049,-0.06711802293429181,0.05344884116793947,0.19861456799529764,-0.09499161127501632,3,right
2.0469999999999997,-0.10797447282340802,0.98662426037214,-0.14466399519851,0.00440217217004024,-0.09576103241766884,-0.06713595210461826,0.0536185541885017,0.1986794832455999,-0.09476653228644086,3,right
