time,gFx,gFy,gFz,ax,ay,az,wx,wy,wz,subject_number,foot
2.654,0.022670954778142936,0.9801021650154313,-0.07290932582643461,1.9376040219879365,-0.547868530152086,0.23700436501731809,0.04353748344118359,-0.024437110136319565,0.17296574798451148,2,right
2.657,-0.00856978008852016,0.9764097938826307,-0.0791164626809339,1.9742680394411016,-0.5400528400816849,0.23961045324829985,0.04341083129996019,-0.024247645880179115,0.17193264726981955,2,right
2.658,-0.036435789280325384,0.9722671521985997,-0.08558090864177618,1.9544891574218435,-0.5442587650008892,0.2381971724789788,0.043587062939257834,-0.024570362150644058,0.173494797349115,2,right
2.6639999999999997,-0.06127563354837971,0.969827168177166,-0.09447470324568433,1.9590860592784898,-0.5433769366154049,0.2385912387070562,0.0434564766915717,-0.02427182122694426,0.17221204326900524,2,right
2.6639999999999997,-0.08139463107867678,0.968452576146588,-0.10119839590139304,1.9641139514710924,-0.5420419453438248,0.23876878705110283,0.0434761969382355,-0.02446376789305118,0.17271514344331196,2,right
2.667,-0.09604459292257597,0.9668777174896667,-0.10975110003755366,1.9554104874136868,-0.5443512253384712,0.2384599406935141,0.043593257361841733,-0.02439491671027951,0.17315631113041116,2,right
2.667,-0.10671374022671776,0.9737433303094684,-0.11866703114238641,1.9634632423442813,-0.542070028558622,0.23864721257318253,0.04336154571731883,-0.024367404869368232,0.17193791515701165,2,right
2.673,-0.1130306867409183,0.9869658314859708,-0.123160002823703,1.9581254191869446,-0.5436610997489035,0.23857687798515262,0.0436294153577159,-0.024444372608761818,0.17344171679261047,2,right
2.674,-0.1156170372084861,1.0014152132047012,-0.1279199825379284,1.9606300057626975,-0.5431380936571578,0.23876236979162196,0.043460688950434374,-0.02436797347480455,0.1724354508491811,2,right
2.676,-0.11454518599437852,1.0184484382086532,-0.13307628622810588,1.9599164910606153,-0.5424203355459777,0.23811838234931798,0.043358619363755846,-0.02440138063525421,0.17199510604911308,2,right
2.677,-0.10618940850225003,1.0311671426505988,-0.13434871941641638,1.9601714683348916,-0.5443503407601907,0.23948985755799326,0.04388529747875583,-0.024438282094807924,0.17471009019428038,2,right
2.681,-0.08566425393778684,1.0377741984395756,-0.13392302909375942,1.959471409246148,-0.5415382458167345,0.23742043931061868,0.04288974650825464,-0.02432662212052035,0.16948912063932722,2,right
2.682,-0.05262016050946591,1.041897052277077,-0.13926433040168448,1.9606417624988923,-0.5444468442750221,0.23965752340308671,0.0441747590473441,-0.02448552548632678,0.17625994579450893,2,right
2.687,-0.015013975046162566,1.043767413789844,-0.14735284819633454,1.9599700413042527,-0.542765239450096,0.23836510925559518,0.043099319698939875,-0.02434639014679983,0.17057939271201505,2,right
2.687,0.02281908947620321,1.0448586173951535,-0.14907259520928293,1.9584506651523617,-0.5415136987804676,0.23718289278146876,0.04313231820180018,-0.024360041798463565,0.170775851691021,2,right
2.6910000000000003,0.0583275470617801,1.0450229474342851,-0.14568527900953535,1.9638829369023203,-0.5472475455318369,0.24226903958482007,0.045172467193725516,-0.02459897579591473,0.1814936582962374,2,right
2.6919999999999997,0.08600179919788417,1.0435713000718672,-0.14026111631159147,1.953869206178427,-0.5366011964194388,0.2328407167306026,0.040152732394426134,-0.023997568881349986,0.15508942559833377,2,right
2.696,0.10970914593845085,1.0415893761958823,-0.13080247025399355,1.9668054078697401,-0.5502553418542069,0.24495327665209185,0.04847724398750328,-0.024999849498102057,0.1988911524447844,2,right
2.696,0.12534994146523587,1.0416514348942285,-0.12241491851297077,1.95596997842206,-0.5388634662186137,0.23483783882729775,0.03749724770065864,-0.023676262269093404,0.14110980090666564,2,right
2.702,0.12894333277076536,1.0416544982707936,-0.12106183407987187,1.9561645737409956,-0.5391930865156636,0.23510603215819523,-0.008597687620596237,-0.018123541673502195,-0.10141047853051761,2,right
2.7030000000000003,0.13450812848964155,1.0387600531961678,-0.11574117551856772,1.9772469856818111,-0.5608251535369515,0.2544209536653259,-0.019576386279147102,-0.016800320547168186,-0.15919078771451434,2,right
2.7030000000000003,0.13556053228929962,1.0363056126299373,-0.10589125451279707,1.9255033771419758,-0.5076395366966733,0.2069495723975823,-0.011252763097740238,-0.01780338128102941,-0.1153851287758436,2,right
2.7060000000000004,0.12070607794865806,1.0346776079133502,-0.10707288139157997,2.011304345007573,-0.5958227505401963,0.28566192148259456,-0.016274857909242893,-0.017197657528539946,-0.1418077125223376,2,right
2.707,0.10985846302378052,1.0331465385298708,-0.11299952689423037,1.898108650945254,-0.4795142503155798,0.18183738149721868,-0.014226287317149849,-0.017446494426365988,-0.13104921683341786,2,right
2.707,0.10571582702829424,1.0325661917890614,-0.11254566313930911,1.4227020020259447,0.008616534962644973,-0.25393672912258136,-0.01420889398469321,-0.017444576709443934,-0.13091562192994682,2,right
2.71,0.0881569482131525,1.0329475753605557,-0.11110290097568767,1.309467155365529,0.12491617207684462,-0.357762349248968,-0.015263972192573767,-0.01732317080583428,-0.13652580264860872,2,right
2.7110000000000003,0.06155141587559264,1.0328351734750505,-0.10727263131912479,1.395332474423087,0.03674934387917651,-0.27905336107725504,-0.01399672004590043,-0.017470157527923018,-0.1298003691856081,2,right
2.716,0.03136359747786667,1.0314854522362698,-0.09601712136926055,1.3435270856096038,0.08991453504092847,-0.3265082540608111,-0.014989278089363482,-0.01735298380823455,-0.13504759116980247,2,right
2.717,-0.006471019856487096,1.0317593013876274,-0.08440961756339,1.3646295637244328,0.06830028770268161,-0.30723028495960214,-0.014436587323729582,-0.017424671139949527,-0.13218800686651305,2,right
2.72,-0.04582810701173327,1.0311877026975023,-0.073976517081835,1.364888262584543,0.06796548107084743,-0.3069046804555075,-0.014603936772149733,-0.017388263777797605,-0.13291243893535643,2,right
2.721,-0.0874099871089469,1.0283139477185537,-0.059020472244052054,1.353875030972863,0.07933824813518778,-0.31708474367293304,-0.014670694126104824,-0.017408177147431852,-0.13353237147121633,2,right
2.7260000000000004,-0.12898597504154866,1.02647132810542,-0.046867346841964544,1.3670955768599031,0.06573628868879425,-0.3049299271268564,-0.014516802797415717,-0.017392414593108307,-0.13239313389191837,2,right
2.7260000000000004,-0.16344910311719665,1.0248564049676723,-0.04319778663148001,1.356759913399258,0.076298545720976,-0.31433545081984526,-0.014674324951460408,-0.017400777124258585,-0.13348458562629106,2,right
2.7310000000000003,-0.19595433935771217,1.0257749231510633,-0.04347822677358071,1.362407137897758,0.07066177296906112,-0.3093801365615202,-0.014518200324559381,-0.017419863012244366,-0.13266537387993083,2,right
2.7310000000000003,-0.22298364800120962,1.0310703626073394,-0.04886990196608578,1.3609851535029374,0.07184469985171305,-0.3103035647159661,-0.014724269163821876,-0.017344204738779366,-0.13326264728184486,2,right
2.735,-0.2398567753456019,1.0368826022328714,-0.05741280746717191,1.3596972987677685,0.07350596967648709,-0.3119495311963438,-0.014408479115831874,-0.017498374883667355,-0.13271404563611178,2,right
2.736,-0.2511588888237567,1.0417782276737273,-0.06392899728511574,1.3620998112995766,0.07076945724890896,-0.3093766429272488,-0.014842434386270519,-0.01727287834249577,-0.13333697008833637,2,right
2.741,-0.2540945358377811,1.0462405763660938,-0.07012039234232798,1.359706468542711,0.0732245825521676,-0.3115671952587312,-0.014386732491129768,-0.017512404697484954,-0.13270930276138992,2,right
2.742,-0.24861559068433806,1.0490660587509477,-0.07594883586482958,1.361582701797905,0.07179729191713798,-0.3105343380004766,-0.014639138796668158,-0.0173753672305222,-0.1330144961354348,2,right
2.745,-0.23638965315051755,1.0499015422703275,-0.07874049243201413,1.3602580620960736,0.0720169743937913,-0.3101789977654465,-0.014910755935370078,-0.01725057187327103,-0.13356234114234528,2,right
2.7460000000000004,-0.2193293549766476,1.0481446670370027,-0.07874254679773283,1.3611903936522762,0.07276059163637305,-0.31166547907388753,-0.013810437049412408,-0.017785762119378504,-0.1316307746153778,2,right
2.75,-0.20304490639030687,1.0412263479722366,-0.0779600320255483,1.3605786992196025,0.07157581931681305,-0.30973094704100945,-0.015835080230463407,-0.016795293599895587,-0.1351288144929279,2,right
2.7510000000000003,-0.18461876212506256,1.0322394915200568,-0.07570399824826692,1.3606756332969794,0.07252335459642253,-0.3110832826680846,-0.013238844230015413,-0.018066555107251882,-0.13065595844593142,2,right
2.755,-0.16322073042047733,1.0249996391018246,-0.07441589191275519,1.3615565251133273,0.07252250534618489,-0.31151975500551354,-0.015404980976662808,-0.017005584068450944,-0.13438259626389448,2,right
2.755,-0.14018982935124052,1.0226416760125059,-0.07770487903771627,1.3591727809818823,0.07101769092977403,-0.30826421915471947,-0.015351643100763639,-0.017033250121911148,-0.13431078372263877,2,right
2.759,-0.11332863620903202,1.0281029826486026,-0.08064702323954834,1.3632452042846606,0.07416492013439958,-0.31461935284954434,-0.011203637466935791,-0.019059409051053997,-0.12710926163291109,2,right
2.76,-0.0871046262171802,1.0338564047524286,-0.07878612983481147,1.3581423808701243,0.06999503094415574,-0.3063447577168771,-0.021392948075963265,-0.014080937958920837,-0.14477574082943212,2,right
2.765,-0.06786003700782674,1.0401589816430583,-0.07355367787025417,1.362347661829304,0.07353097976066225,-0.31330074010630393,-0.0044998202731451825,-0.02233462867284984,-0.1154923463181779,2,right
2.765,-0.06090929664548904,1.0473473809937586,-0.06996389553531135,1.3623199339845335,0.07335053731829072,-0.313038992623941,-0.026782179754794463,-0.011448787110483012,-0.15411682644258268,2,right
2.77,-0.060753792355037785,1.0484087835519433,-0.06843143151609166,1.3540733260687436,0.0668333604734465,-0.29997102345322846,-0.1203172055732263,0.034249271256626114,-0.31628164812809434,2,right
2.7710000000000004,-0.060428528167861206,1.05218735583623,-0.06681248415055088,1.374215673885407,0.08297487646221105,-0.3321961784094375,-0.14260169225350594,0.04513335904014612,-0.35491116755452023,2,right
2.772,-0.06718652158195748,1.056711664618315,-0.06631128961511087,1.3408692624010214,0.05616441903020644,-0.2787261888424003,-0.12570558235012919,0.03688245107034395,-0.3256217011255105,2,right
2.775,-0.07422107384320435,1.054560693186773,-0.06543567728891042,1.3848322879312347,0.09154492405254833,-0.34926644833871445,-0.13589642836763505,0.04185850818673438,-0.34328830175177666,2,right
2.775,-0.07593370671014675,1.0531562975520654,-0.06467099723730209,1.5695675506915108,0.23995496841121816,-0.6453332928189941,-0.1317510870371694,0.03983251957344562,-0.33610033976238074,2,right
2.7760000000000002,-0.08219005631349437,1.0506558605692384,-0.059759910863344014,1.6135328856469313,0.2753370029551523,-0.7158772337111706,-0.13168869630352853,0.039808805744986714,-0.33599632772779897,2,right
2.78,-0.08625529540728999,1.0441366185019278,-0.0477013161136164,1.580175987451648,0.2485196096340817,-0.6623905503972736,-0.13387047134720292,0.040860652395542,-0.33977155359413025,2,right
2.78,-0.0837395054351451,1.0350454704250387,-0.03636236588077503,1.6003456788882906,0.2646792018418339,-0.694659212179787,-0.1312553421754441,0.03960279610016787,-0.33524729038499507,2,right
2.784,-0.08150202970863717,1.0240279041966303,-0.02848740735354911,1.5920490285250772,0.2581289508368373,-0.6815116384877986,-0.13329430415748567,0.04057945942546408,-0.33877312654087577,2,right
2.785,-0.08058461361244401,1.0137912151132595,-0.028179865064924037,1.5920900049256703,0.25799390894573837,-0.6813591631305305,-0.13219599873237592,0.040051241350994006,-0.33687276494683993,2,right
2.79,-0.08409764996747146,1.005976950184147,-0.03469724925197833,1.596227976438522,0.2614853884509506,-0.6882081149505723,-0.13243668471092096,0.04018537338824078,-0.3372978320475706,2,right
2.79,-0.09347620657410473,1.001958979491345,-0.03616699252733658,1.5911532094143286,0.2573340178259123,-0.6799780906879878,-0.13275626214461578,0.040288275542133115,-0.33782721090711965,2,right
2.795,-0.10616464613449697,0.9997349672271127,-0.03499267231564959,1.5952858921803559,0.26052109854664973,-0.6864291415127111,-0.1322033930105852,0.04010980297219971,-0.33691099837929983,2,right
2.7960000000000003,-0.1213045546449841,0.9965921727857014,-0.034864127473449774,1.5927113090735128,0.25889014294596635,-0.682870002576046,-0.13273681520435104,0.04025800837051875,-0.33778399710325746,2,right
2.799,-0.13839611977505553,0.9918134647312657,-0.02946195709085646,1.5939200781569913,0.2591059760460799,-0.6838279963062805,-0.13237127760680886,0.0401690091510989,-0.3371915203185813,2,right
2.799,-0.15424641119784666,0.9868967407853287,-0.027487393684142693,1.5936149274280065,0.259787829075805,-0.68454087611705,-0.13250889853675757,0.04023704046252269,-0.3374304675923494,2,right
2.804,-0.16617142049539813,0.982414840019957,-0.035524825678884125,1.593323721820334,0.2588147620264161,-0.6831158844433161,-0.13260108004483362,0.04011587627155713,-0.33751380947614446,2,right
2.805,-0.1772228930234131,0.9784433771173163,-0.04432007956072033,1.5942589857378398,0.2595604577065872,-0.684607371090213,-0.13231447109078426,0.0403556581659372,-0.33719169320877196,2,right
2.8089999999999997,-0.186511803446491,0.9783963562261987,-0.05479923190658464,1.5923393345940737,0.25938676926741433,-0.6833052441536245,-0.13272440936802982,0.039989341237687784,-0.33764164158851734,2,right
2.8089999999999997,-0.19289565766861513,0.9796347686420115,-0.06251120462963664,1.5955753962439858,0.2588582247243661,-0.6844355329045837,-0.1323108018004985,0.04039126468605919,-0.3372025981362388,2,right
2.8139999999999996,-0.2026499354651498,0.9805814151146937,-0.060005101377233985,1.5911532291803776,0.2599726531674622,-0.6833992352004487,-0.13255004877811088,0.04015917152414486,-0.33745663098758316,2,right
2.815,-0.2149850551259527,0.9815189847438752,-0.060804555638584494,1.5957188455523519,0.2586653197338394,-0.6842661533580752,-0.13270433661763337,0.039933698394257554,-0.3375858914744616,2,right
2.818,-0.22546271529684508,0.9813442875696674,-0.0671721304792231,1.5931805540626938,0.2595008501200662,-0.6839247087403979,-0.13196181509939864,0.040887550500398426,-0.33690424999002255,2,right
2.819,-0.23743002762263804,0.9843900032117116,-0.07425612479553431,1.5906825207923025,0.2599718327078878,-0.683134569442887,-0.13334220760944873,0.03912029696708659,-0.33817391707968025,2,right
2.824,-0.2540203541999366,0.9881673276215854,-0.08526017115832166,1.6010429763416045,0.257450597558124,-0.6856779114564135,-0.13157398340765913,0.04139159897345919,-0.3365513132704002,2,right
2.825,-0.27080282045474197,0.9925774660506114,-0.09290468054668052,1.581964929524148,0.262235152732585,-0.6811773513255961,-0.13304828357916682,0.03949450473391747,-0.3379021662153455,2,right
2.8280000000000003,-0.28399452837419137,0.9994542108523381,-0.0936710356517759,1.6064127553703957,0.25605196317721907,-0.6868784269501462,-0.13300277380458952,0.039543044497269725,-0.33785703664909095,2,right
2.8289999999999997,-0.295467906608637,1.0019194464918046,-0.0882046577794262,1.586024084440865,0.2612312932632148,-0.6821517578577763,-0.13021523071178895,0.04317214310020238,-0.3353194133064981,2,right
2.833,-0.30325296383564226,0.9980552287736796,-0.07919849626411377,1.5865418632367425,0.26106381720886135,-0.6822290577270581,-0.1370710818566955,0.03425455409353245,-0.3415620033370892,2,right
2.8339999999999996,-0.30529418712818973,0.989619154058906,-0.07313562365293061,1.6255089164979415,0.2512599904452132,-0.6913765758358649,-0.12570398914781203,0.04904033832956407,-0.3312133813501181,2,right
2.838,-0.30573005327580915,0.9837259177333205,-0.0688463543070297,1.529783369263808,0.27539713107115726,-0.6689662746946399,-0.14069591732429498,0.029537447179700218,-0.3448599372245825,2,right
2.838,-0.3079434405398561,0.9802413669618274,-0.07104622727134521,1.6884796680544716,0.23535992253736673,-0.7060960264582044,-0.2036046833872242,-0.05233714939855193,-0.40214101618013465,2,right
2.84,-0.310111330349276,0.9747990121869023,-0.07720704411161047,1.4791700978450324,0.2881767057112881,-0.6571319850982519,-0.21859426852240718,-0.07184124548449242,-0.4157847578999795,2,right
2.842,-0.312094190856067,0.9715403795600512,-0.07992548556265174,0.6005279303884759,0.5098217107875032,-0.45156796835998,-0.20723155414102323,-0.05705305000716923,-0.4054380718511183,2,right
2.843,-0.3175215505662159,0.9637485021574452,-0.08803137719741108,0.39122551426727004,0.5626442406510244,-0.4026053921991235,-0.2140818403858903,-0.06597406626226252,-0.41168574727415924,2,right
2.843,-0.32489218567465705,0.9527729416862977,-0.09541990069375175,0.5499104159640835,0.5225978718811728,-0.4397276906353429,-0.2112993486428295,-0.062341204246082055,-0.4091299275440453,2,right
2.8480000000000003,-0.3311938900532998,0.9439408440715182,-0.08891677610397156,0.45419487748732684,0.5467430708810068,-0.41733757146072475,-0.2112519625717057,-0.06229535878247629,-0.4091185408298862,2,right
2.8489999999999998,-0.3358990199238887,0.932337713602706,-0.07502473076374624,0.4931609028093097,0.5369383800469358,-0.42644749792786685,-0.21272175349164307,-0.06419291583405401,-0.4104253436156863,2,right
2.853,-0.34685631348292834,0.924775982921884,-0.06492222103721809,0.49366305411185385,0.536758407741172,-0.42657705454907,-0.21096701264860696,-0.061915749395078094,-0.4088411961843671,2,right
2.853,-0.3697734314295278,0.9238914360202793,-0.06145027045293693,0.47331107211074464,0.541967148004143,-0.42179837847814755,-0.2123248870118163,-0.06369556778989743,-0.41010431228880945,2,right
2.858,-0.39594923579970165,0.9267756588165724,-0.05998436171435181,0.49770452358027506,0.5357403161341994,-0.42752261477729936,-0.21160926968465818,-0.06272362926543508,-0.4093665099771072,2,right
2.859,-0.42457669761453565,0.9355852309250654,-0.0643215013679785,0.47868306619108597,0.540570360512697,-0.4230652212040307,-0.2117430934274644,-0.06296758600930853,-0.4096368690680171,2,right
2.862,-0.45055935757375865,0.947994424654413,-0.08077603957773379,0.4890138792026233,0.5380251744058608,-0.4254661818122655,-0.21198002063153376,-0.06319041192202865,-0.40967039159288954,2,right
2.863,-0.4614810725162173,0.9618934227622846,-0.09890616260327043,0.48648000846400485,0.5384676316668227,-0.42492395758014373,-0.21160916502912513,-0.06277588317457512,-0.4094779443342514,2,right
2.8680000000000003,-0.4632875944225824,0.9784570764734136,-0.10554231941139941,0.4840780221909717,0.5394123081277182,-0.4242749838877361,-0.2119254109870014,-0.0631880694730004,-0.40976721795077026,2,right
2.8689999999999998,-0.46099896972675103,0.9979352895664739,-0.10265841335165536,0.4883971745440247,0.5379073055587011,-0.4253922525800195,-0.21177517987303077,-0.06286623920153728,-0.40936090710024453,2,right
2.873,-0.4526866381127791,1.0171622686165644,-0.09710440311170511,0.4842898115355928,0.5392745311858814,-0.4243462158134826,-0.2117264636045304,-0.06309144514602497,-0.40993241351386794,2,right
2.873,-0.4380119402042312,1.035011744869241,-0.08927956845108873,0.4872562783465396,0.5385290371543382,-0.42503930030506154,-0.21193719287678298,-0.06293519965699795,-0.40920559569988924,2,right
2.8760000000000003,-0.41767899270869935,1.0500694441138043,-0.07825983027767248,0.485377436677516,0.5383891672480254,-0.4247581801088086,-0.21166204350728404,-0.06303597524683995,-0.4099343219151961,2,right
2.877,-0.39802904332236333,1.0593978501210572,-0.06532126282766088,0.4867133135306119,0.5394550028212298,-0.4247088455063632,-0.21185488723230744,-0.0630218863331361,-0.4095442499317648,2,right
2.8819999999999997,-0.384207614771729,1.068646847464602,-0.058425885940425755,0.4854291278361039,0.5376862110156788,-0.42494812236420426,-0.211915832257924,-0.06287251337324967,-0.4091116478207074,2,right
2.883,-0.3770452756221029,1.0774481238534594,-0.06093221528053849,0.486665700518611,0.5396051534946549,-0.4246622207176609,-0.21145487608844493,-0.06327302916195887,-0.4108270525192803,2,right
2.887,-0.36818802864566724,1.0800951290700946,-0.06211602470376763,0.48616033300060246,0.5384436379320718,-0.4248760710729249,-0.21235559452465255,-0.062590150965786,-0.40768800865649446,2,right
2.887,-0.35153804402997,1.0819928130097944,-0.06078435119350277,0.48469031100911114,0.5377033571762587,-0.42481928787694034,-0.21118252163212597,-0.06344533600446958,-0.41170324310297635,2,right
2.892,-0.33557936079355927,1.0836562676439256,-0.0592987015928614,0.489429494126966,0.5413706316365945,-0.4246732121324187,-0.21216879606702682,-0.06274067161556254,-0.4083580558083659,2,right
2.8930000000000002,-0.32630414202164726,1.0850908071895815,-0.05125475655057665,0.4809476945195179,0.5344921806314494,-0.42501521088375505,-0.21213145450297408,-0.06274528829575803,-0.4084374792045302,2,right
2.8960000000000004,-0.32504169287444196,1.0901923792939443,-0.04428569381009556,0.4917681423618324,0.5433422502683241,-0.42456027888775216,-0.2102791829888812,-0.06412727881362343,-0.4148453106408755,2,right
2.897,-0.3282587081067076,1.094928084565119,-0.03744337856591754,0.4827656061522765,0.5359459687470227,-0.4249462434856404,-0.2148471619863076,-0.06075167341956559,-0.3991124821097929,2,right
2.9019999999999997,-0.3309370226368451,1.10056310908872,-0.018379833161683613,0.48289558118278164,0.5361748701860793,-0.4249116764458891,-0.2072675611612766,-0.06634026114932587,-0.4251908662105707,2,right
2.903,-0.33289050438632384,1.1061355459212971,-0.0022075797844559857,0.5004280151027493,0.5501855748777906,-0.42425549722116485,-0.21726695272438068,-0.05897239100457513,-0.390797573781669,2,right
2.906,-0.3329836301777447,1.108100032008616,0.004311058986899789,0.4574756821367693,0.5157135465308967,-0.4258961032831826,-0.2592331178643835,-0.028027224960295197,-0.24640136045344077,2,right
2.907,-0.3343782561247943,1.1104504163301048,0.008828602561108297,0.5286489410973343,0.5728807976472505,-0.4231694876678586,-0.2692325621640517,-0.020660952513345397,-0.21201174615525226,2,right
2.907,-0.3366011341031572,1.1113509386192015,0.008120661891378706,0.4347857863481926,0.49747390347568454,-0.4267653348183009,-0.2616516576917363,-0.026246188134238176,-0.23808501601117404,2,right
2.911,-0.33721964597355214,1.1106220944153677,0.0019079089050192798,0.04051238662188726,0.18102661875772422,-0.44183621990660077,-0.26622403044232534,-0.022875675793265462,-0.2223546932607265,2,right
2.912,-0.3410743804362443,1.1113112024938374,-0.011891856683350651,-0.05334489888557236,0.10561804688396043,-0.44542707275518656,-0.26436284530651055,-0.02425154504729648,-0.22876743886204687,2,right
2.912,-0.3467434275409803,1.1144826352502013,-0.021144107235661232,0.01782200987733482,0.1627871134213767,-0.4427058599260848,-0.26433860124956643,-0.024261412416447758,-0.22883075315134582,2,right
2.917,-0.35028095646899626,1.1189334490977365,-0.011841661964882209,-0.025132738023482308,0.12831577452763843,-0.4443485236670689,-0.26531096524863496,-0.0235555604251029,-0.22551309495401312,2,right
2.917,-0.34849494673312786,1.1198470128776472,0.0022571570072909023,-0.007579240572555639,0.1423204600298693,-0.4436744152390838,-0.2641456627573078,-0.024404007805279702,-0.22949538030928157,2,right
2.9210000000000003,-0.33630574031325555,1.1217287441329247,0.010645238091540839,-0.007494586668325446,0.14256231376259382,-0.4436784216038221,-0.26505432148829167,-0.023738744389657528,-0.22638083322706926,2,right
2.9219999999999997,-0.31852185045185333,1.1279970527363852,0.01958870982591432,-0.01643214135510327,0.1351474602811336,-0.4440090826008302,-0.2645606708723453,-0.02411115609901858,-0.2281008444853349,2,right
2.926,-0.3014107905318339,1.1360439495875538,0.02267689496355106,-0.0056764018270569925,0.14401602496336852,-0.44360921790945906,-0.26468216612414985,-0.02399401081059743,-0.22761265239795492,2,right
2.927,-0.2792334000912321,1.1501381005140208,0.010385851195608642,-0.01413028047892265,0.13712959136795533,-0.44392746271313677,-0.26479609488367484,-0.023957492394659857,-0.22734149949844024,2,right
2.931,-0.2542033213837247,1.1693950722255224,0.00010149466604068261,-0.009335532759427691,0.14078098926631555,-0.4437340848784521,-0.2645908008431046,-0.024050640018339765,-0.22789971099628864,2,right
2.931,-0.2379843904423428,1.1880182370320949,-0.000171898851854863,-0.010984545621217645,0.1400918604673867,-0.44382964862582,-0.26478616957940504,-0.023953001769331156,-0.22734554851649968,2,right
2.9360000000000004,-0.2296494365100609,1.2041423022661872,0.0005947958909223513,-0.011181503334170456,0.13884220276986609,-0.44378101372628026,-0.26464445689773314,-0.024057794151916584,-0.2278340658575299,2,right
2.9360000000000004,-0.2258213696869134,1.2179262785310265,0.0015804654932001726,-0.010323427910373575,0.1408693232104209,-0.44381723144872387,-0.26473579022627736,-0.023904682666745187,-0.22730129493765322,2,right
2.94,-0.22427371744788427,1.2359518375138547,-0.006830678330295182,-0.01130585568341444,0.13901427860949653,-0.44379972291558617,-0.2646683405732311,-0.024150553943885857,-0.22803282527847651,2,right
2.9410000000000003,-0.22072122169898273,1.2592473950925585,-0.030600580717753394,-0.009967293475726755,0.14007936408380606,-0.4437480452989512,-0.26473513018259187,-0.02380862662879575,-0.22705792847776213,2,right
2.945,-0.21269664081545725,1.2752781343245407,-0.05323020850107797,-0.012406109288063013,0.1400995141905504,-0.4439435763178037,-0.26467023269163725,-0.024168576197681382,-0.2280754971755809,2,right
2.945,-0.19371449675728722,1.2815544934246805,-0.05344326835864942,-0.00815990871127105,0.1389882872229226,-0.4435474533445587,-0.2646977731651745,-0.023967763221396647,-0.2275217898140859,2,right
2.95,-0.16547678640878405,1.2853474720820492,-0.03620875733246728,-0.01417643140452856,0.1409011548749658,-0.4441262578514766,-0.26477083023319903,-0.023758866992735682,-0.22687489133267444,2,right
2.951,-0.13719185040477438,1.2872678627409604,-0.02533672954392341,-0.007822064422281037,0.13881444944232169,-0.44351150397687056,-0.2645318298464746,-0.024614756780625045,-0.2294284128603206,2,right
2.955,-0.11704727427245956,1.2916141488924153,-0.02065392746392617,-0.011399989791967081,0.14009529282327293,-0.4438631154657675,-0.2649604777596182,-0.02303776713557281,-0.22474300358698024,2,right
2.9560000000000004,-0.11489754828414989,1.3004950295012865,-0.014689512302576289,-0.014947594330459942,0.1408273486544403,-0.4441839911456874,-0.26441335808932076,-0.025060755962280443,-0.23074803564851504,2,right
2.96,-0.1321180695878413,1.3094449154251036,-0.013903590097694082,-0.00018028243132670735,0.13701435936333478,-0.44280881387961446,-0.2648687712014658,-0.023372152445958017,-0.2257393125391146,2,right
2.96,-0.16214247227626452,1.3139776908246017,-0.017961103148180994,-0.027429254517315236,0.14419569763071466,-0.44535380586985673,-0.2648615824767362,-0.023415713567467442,-0.22585737084384833,2,right
2.964,-0.19569167453991992,1.312087883156296,-0.027284511962291907,0.00752874460304394,0.13494958733804963,-0.44208713804628186,-0.2639764000123196,-0.026643981815757993,-0.23546539583537246,2,right
2.965,-0.22811524206593603,1.3053291575506887,-0.025772378540339314,-0.021643136373816985,0.14267904863715658,-0.4448137712217895,-0.2661459651264596,-0.018710468917498568,-0.21187072016198472,2,right
2.97,-0.2541655887291871,1.2873802103280985,0.0012273831274766086,-0.02090193773358896,0.1424308107376786,-0.4447419351757892,-0.26255036201438386,-0.031865912328641846,-0.2509863935371132,2,right
2.971,-0.264002743858214,1.272841165419064,0.026512824209797434,0.034880872191818756,0.12781944191006434,-0.43953650766170044,-0.2672927290691455,-0.014511568460883235,-0.19939350666536115,2,right
2.9739999999999998,-0.2650772934295754,1.2679690750751877,0.03671083080114909,-0.1021685391228325,0.16377941687048564,-0.45232831690689584,-0.2872071215954138,0.058310130352225424,0.017192847744574996,2,right
2.975,-0.26561697647247096,1.2475287043749141,0.027577792345154117,0.12504931021645538,0.10414231253214191,-0.43111984317145235,-0.2919499683526523,0.07566909358549267,0.0687878511452541,2,right
2.975,-0.2640238595086034,1.230518699973211,0.006430726231885498,-0.17464584956818358,0.18280792875551194,-0.459093071660305,-0.28835384636310263,0.06250865444261382,0.029669888787304026,2,right
2.98,-0.26113329582792794,1.231000869280376,-0.0064533560065807676,-1.4326555855774155,0.5129890187487217,-0.5765075553472893,-0.290523213625071,0.07044025899444098,0.0532636901117443,2,right
2.9810000000000003,-0.2541397775375752,1.2296011921453127,-0.026822681002528437,-1.7323434530600152,0.5916681232248253,-0.6044782066616698,-0.2896397536973061,0.06722858455672599,0.043663268113689056,2,right
2.9819999999999998,-0.24658245265435502,1.2340243668937136,-0.04349107007063342,-1.5051454553493422,0.5320000021991795,-0.5832750320554,-0.28962885934977617,0.06714933011465339,0.04352885571478078,2,right
2.985,-0.24008418942801166,1.2449854366462412,-0.03788180250487638,-1.642155498413365,0.568012598318298,-0.596059008520366,-0.2900895850668491,0.06888910231719107,0.04856102350888121,2,right
2.985,-0.2287060293825197,1.2510781394871695,-0.021972976065417846,-1.5864338644994156,0.5533297118122878,-0.5908626660615703,-0.28953717578320404,0.06681517051672914,0.04253265014084881,2,right
2.989,-0.21435640625763752,1.2546569707087953,-0.00680237093542874,-1.585619392920985,0.5531552334174652,-0.5907835311056959,-0.2899681048919365,0.06841412187409315,0.04722812201511876,2,right
2.99,-0.19885110781898058,1.2580571555995201,-0.010446037940309592,-1.6148496098064609,0.5608430874501183,-0.5935108223398806,-0.2897336494651618,0.06760202174485055,0.04469466408228667,2,right
2.995,-0.18524024093093516,1.2640274967491125,-0.019778163639804447,-1.5798918872909193,0.5515582729955013,-0.5902557504844863,-0.2897920706267205,0.06766993573190065,0.04527696687045929,2,right
2.9960000000000004,-0.17808454574291915,1.2788323329326516,-0.01769353241576608,-1.6070323430118,0.5589051375825544,-0.5927729864488891,-0.28984482672697753,0.0681136236220706,0.04594195560043815,2,right
2.9989999999999997,-0.17258738236849713,1.2990223885807042,-0.01539633060730767,-1.5925145886222776,0.5547824221342376,-0.5914402836752402,-0.28974898615696404,0.06745565172923199,0.04478783770485456,2,right
2.9989999999999997,-0.1634147832524233,1.315874232007086,-0.015596687457404062,-1.5956879793511587,0.5559222526291066,-0.5917145272508311,-0.28984044087419236,0.06803510794883671,0.04587156681969827,2,right
3.005,-0.14923794967444776,1.327969342719291,-0.017001804933627032,-1.599666839682962,0.5568352841081511,-0.5920953033846539,-0.28977322071119505,0.0677915120104169,0.04514107840677005,2,right
3.0060000000000002,-0.13273682541524245,1.3337920506019492,-0.012186450042052129,-1.5930792382488703,0.5548446325691541,-0.5914990821545238,-0.2898187599128369,0.06750346885049735,0.045471720010146995,2,right
3.009,-0.11825312059611914,1.3355788315825277,-0.0003536803043845166,-1.5988953434512714,0.5572113875012641,-0.5919820138135841,-0.2897816844496486,0.06840657387513496,0.0454450046667908,2,right
3.01,-0.10313188644615179,1.3401757321089771,0.008586975576775902,-1.595536256103664,0.554883771373981,-0.5917716165673857,-0.28982096559933496,0.06700082351676828,0.04531033834883791,2,right
3.014,-0.08995461960050488,1.348200438534059,0.01764848358678362,-1.5963087847098254,0.5568600309373417,-0.5917172418807322,-0.28978204723365364,0.06851004152961648,0.0454863064692029,2,right
3.015,-0.08181676002999994,1.3531253819848685,0.021129075041228556,-1.5971640500257998,0.5556709982180572,-0.5918978624320241,-0.2897998752188944,0.06762120690368212,0.04533347468774744,2,right
3.0189999999999997,-0.06717443217929585,1.3502339853030163,0.010717137604372692,-1.5961707709946515,0.5553978106182091,-0.5918060703679948,-0.28983842987277003,0.06693911071238214,0.045455471026788236,2,right
3.0189999999999997,-0.04422228400290108,1.3452051285302806,0.0013184820470855396,-1.5958235913723744,0.5579288772851065,-0.5915866310184136,-0.2897075588332194,0.07006127304014018,0.04533661352899613,2,right
3.0239999999999996,-0.021122464069752628,1.3442903479729305,0.0007891109206246143,-1.598463130352707,0.5526291480181693,-0.592260374373355,-0.2899435242911909,0.06424718098586643,0.04548242630398315,2,right
3.025,0.004092609872308002,1.3466447192458952,0.005561817568715995,-1.5935926776460998,0.5602906813856605,-0.5911682524841897,-0.2896419109359686,0.07171718273102573,0.04531152196757538,2,right
3.0269999999999997,0.030359510543045868,1.3494264088994368,0.023975388875976975,-1.599234088132862,0.5522410676612048,-0.5923743789817875,-0.28989333939003503,0.06548037915212397,0.04544816122062105,2,right
3.031,0.05221455795195821,1.3524570599437484,0.048368766475624936,-1.59577364860175,0.5568398863463203,-0.5916588018578426,-0.28988835084552333,0.06565377703537473,0.045468824152442855,2,right
3.032,0.06792407175070103,1.3552381513211618,0.06079508257510167,-1.5930907894400785,0.5608814161680555,-0.5910697642504483,-0.28940244547935906,0.07752731859971569,0.04512674309162991,2,right
3.036,0.08180807727906837,1.3564719569695045,0.0658417137459153,-1.605567839496076,0.5433836439360864,-0.5937158913033478,-0.29059510079828554,0.04834176884489782,0.04594038213129335,2,right
3.037,0.0968620316466106,1.357704843199873,0.06318638888264075,-1.5821747690627161,0.5757680359835171,-0.5887850772713596,-0.28861744678710094,0.09672893730779984,0.044596469766011684,2,right
3.042,0.10355267169826111,1.3584594732528912,0.05575054742042245,-1.6123405799438966,0.5342170787354281,-0.5951282393378132,-0.2912268194022828,0.03291281497803888,0.04637129099343452,2,right
3.043,0.10532721466951336,1.3582984908075848,0.05184531222797401,-1.5870994089388435,0.5688930599481152,-0.5898275891996256,-0.30217260977887295,-0.23501652778581972,0.05382621824837473,2,right
3.043,0.11098686601974836,1.3590549661757425,0.044049791089389,-1.5878196163979368,0.5679589067275987,-0.5899738494096604,-0.3047838161929703,-0.29882072232447515,0.05560904010588271,2,right
3.045,0.1121966500438088,1.3612539995220156,0.044836195861711683,-1.6359082825434699,0.5018410242190163,-0.6000789043329293,-0.3028041777903375,-0.2504464616774263,0.0542564750891219,2,right
3.0460000000000003,0.11186232740683452,1.3620904101242668,0.06524444337579076,-1.517631113326889,0.6643396370588116,-0.5752356331691642,-0.30399607972068987,-0.2796369099847098,0.05506680949996828,2,right
3.052,0.11721115054466286,1.3595163674892716,0.08541564376989488,-1.7137874255860424,0.39491511115332584,-0.6164304646233401,-0.30351675314274956,-0.2677205809560519,0.05475346732188953,2,right
3.053,0.12083206693471489,1.3586935242737885,0.09252559022318294,-1.455029636210329,0.7502823023438007,-0.562092679741903,-0.30349760784845226,-0.2676392589572719,0.05471231205811916,2,right
3.054,0.12064143328437363,1.3593243599011207,0.09310580039957159,-0.3690736723082122,2.2418189845899175,-0.33400767877779436,-0.30376933553523905,-0.27374403379046736,0.054937572337924456,2,right
3.055,0.12292579521423369,1.3569048924440534,0.09019346704521292,-0.11030818884371679,2.5971782064510816,-0.27966847474643075,-0.3034475067241228,-0.266405518376301,0.054678437094715274,2,right
3.055,0.12542102740034505,1.3549056477347432,0.07782328033968926,-0.3064597381692432,2.32777940784502,-0.32086603436880395,-0.3036921978529294,-0.2721628519012413,0.05486228803971109,2,right
3.0589999999999997,0.1257778785289986,1.3534864376803128,0.06795831516010109,-0.18823209123183268,2.4902207136727084,-0.2960191224727021,-0.30357867897457624,-0.2689278374328457,0.05481926880931036,2,right
3.06,0.12727312109187983,1.3515716182988853,0.07182171653290262,-0.2361975757280716,2.424199134662458,-0.3061277938138719,-0.30356132536476893,-0.26997355888586194,0.05469709547489987,2,right
3.065,0.12608325778841808,1.3495484331343124,0.07365806050285185,-0.23711898063686362,2.4231412165068686,-0.30627209155439605,-0.30367549250969417,-0.2702357968454261,0.05496490645809923,2,right
3.065,0.12386422765336011,1.3434579320509439,0.07032123438819843,-0.21164044351354327,2.4579278443175396,-0.30096959635321774,-0.3035183345417177,-0.2694956285215634,0.05462471671109946,2,right
3.069,0.12546571613668184,1.3346764279610785,0.06820929026895252,-0.24197878737635964,2.4163501563216445,-0.3073204157094871,-0.30365189289723554,-0.27028816809701156,0.05490144238382699,2,right
3.07,0.12718088092649993,1.3252884039821056,0.06184401502396027,-0.2186297957872692,2.4485911150072535,-0.3023754889263218,-0.303615632549453,-0.26937979911022036,0.05487865559790478,2,right
3.074,0.1282062582375606,1.3136220625606114,0.05556307561268762,-0.23068560980905883,2.4314733845787497,-0.3050399489940512,-0.3034862756150925,-0.27080533903880755,0.05444526047540052,2,right
3.075,0.13108586931330637,1.3009949984778162,0.05505143085545579,-0.2288897937349937,2.4349050028073504,-0.3044347008571593,-0.3038187967290567,-0.26844901237696217,0.05546037402011818,2,right
3.08,0.13671252185964738,1.2873755035354448,0.058840120945634025,-0.22416780243524115,2.440205994698294,-0.30372274048538545,-0.3033138659611576,-0.2717485103452031,0.053940330272169046,2,right
3.0810000000000004,0.14384524003231347,1.2736459593656315,0.06450639656631155,-0.23107382828666295,2.4316649608507985,-0.3049502334336016,-0.30385383119871046,-0.26827106667125034,0.05556142860916859,2,right
3.0839999999999996,0.15128159433842506,1.2616513247331675,0.06740288381465956,-0.2256193323725109,2.4391650678551633,-0.3038025574786677,-0.3035391468236361,-0.2702174046756127,0.05462371629952426,2,right
3.085,0.15897368326257938,1.2495412960813401,0.06529735302788564,-0.22727628527074484,2.4351374123300378,-0.3045644217838373,-0.30328104596057825,-0.2722079541117188,0.053821855513336056,2,right
3.09,0.16871938291861371,1.237250487888996,0.057965279436989606,-0.2302569759332594,2.4350464602210016,-0.3042448941700473,-0.30443230725803516,-0.26400744786605257,0.05734070344323349,2,right
3.091,0.18310490818857686,1.2279089379259247,0.04630168098850003,-0.2234274781808654,2.4384557277443983,-0.30422089364340715,-0.30229321654196095,-0.2791240457291665,0.05081437846235001,2,right
3.094,0.20319679318182116,1.2242360989538934,0.030741090292322977,-0.23157916021632777,2.433623460096628,-0.30442975258559263,-0.3050410323392667,-0.25973281850652613,0.059193092949674536,2,right
3.095,0.22671847492671407,1.2235646183298927,0.02015098365295478,-0.22628579047682784,2.437218891383729,-0.304186086022459,-0.30274627958354744,-0.27591555417649105,0.052200801440179294,2,right
3.0989999999999998,0.2581386675442953,1.2268520869202095,0.010542415074408033,-0.22353638147307356,2.437820533005132,-0.30435842147601133,-0.30281063168223077,-0.2755043089600286,0.05238421086774579,2,right
3.1,0.2955641098988906,1.2362044140750834,-0.005819524874946049,-0.2389137137764103,2.4305794109020176,-0.30430977651231006,-0.3071797197888957,-0.2445543131840876,0.06573032205775503,2,right
3.103,0.3286780964186321,1.2493506582520735,-0.02131871878450984,-0.20960791310814042,2.4450969996083307,-0.3042331015211441,-0.296437620256584,-0.32059884288357454,0.032939812566844834,2,right
3.1039999999999996,0.3702731603111331,1.27091305683703,-0.05302567540276225,-0.24751947302090888,2.426063066021551,-0.3043919726621259,-0.31425032170701483,-0.19451472280456425,0.08729788394086758,2,right
3.109,0.39971611104275284,1.2863244390980806,-0.08153881148392657,-0.21575441753819183,2.442119803637279,-0.3042333695888256,-0.2907540081574199,-0.3608269889412259,0.015610269425052697,2,right
3.11,0.40875229194800855,1.2906656197614828,-0.09113943856275022,-0.21678608592654042,2.4414285593773104,-0.3042781680144905,-0.19214668887035763,-1.0588671479173597,-0.2854157100070131,2,right
3.111,0.4426811567812922,1.3058263737266622,-0.1286341613615781,-0.2768946809761584,2.41149395545077,-0.30447322792201015,-0.16864813604182402,-1.2251982483349588,-0.35708584657438586,2,right
3.114,0.4903985314870699,1.325379404858313,-0.17979562777351218,-0.12891466304802376,2.48544139809672,-0.30393438153888075,-0.18646326077004177,-1.0990937540123982,-0.30274668695507434,2,right
3.115,0.538880390558981,1.3449205498889258,-0.2143684445017699,-0.3743521433229582,2.3626919108351983,-0.3048513475517054,-0.1757220808288102,-1.175130522135222,-0.33554438228188754,2,right
3.1189999999999998,0.5741994294469897,1.3591750599116823,-0.23132185676847516,-0.05060628630541825,2.524650321920876,-0.303631907522977,-0.18008313626927702,-1.1442481437573433,-0.3221355577267157,2,right
3.12,0.582379529994675,1.362042989835368,-0.2344598264557502,1.308417017621083,3.2042479709121925,-0.2985693568138398,-0.1801647742132388,-1.1436914269353702,-0.32208709252955725,2,right
3.12,0.6060720463015868,1.3733216197130427,-0.2504153488080889,1.6321332260934527,3.3662184948148726,-0.2973448423240162,-0.177845235021527,-1.1600827267495997,-0.3288858945835293,2,right
3.1239999999999997,0.6321089764370402,1.38361691990573,-0.26794617681332666,1.386706302853861,3.2434263379463055,-0.2982718159829435,-0.1806177354860356,-1.1404838289291366,-0.32069986372027026,2,right
3.125,0.638089661062757,1.38328466081034,-0.2739758692988621,1.534774748034567,3.3174735138899214,-0.2977190569178986,-0.17846798905862765,-1.1556900035368491,-0.3271430334910934,2,right
3.1289999999999996,0.6405183687634521,1.3816786800839198,-0.2789355843593452,1.4744025985131262,3.287366495786178,-0.29792889239116493,-0.17959806425201658,-1.147667893919949,-0.3234587622644498,2,right
3.13,0.6319774698380727,1.3751019545209435,-0.27263212250059654,1.4738330154166812,3.286901997894043,-0.2979639367217959,-0.1794082284094655,-1.1490838949302202,-0.3247935594726029,2,right
3.134,0.6123306165875414,1.3685516466914054,-0.25580059827452445,1.5050195867697655,3.3027490948507,-0.29780167567224025,-0.17897590993975881,-1.1520201376198296,-0.3248129648506629,2,right
3.135,0.5763647995185894,1.36435519059631,-0.23382792385641563,1.467579087189628,3.283779690018488,-0.2979862275706558,-0.1796602529625193,-1.1473279032122163,-0.32431889665296837,2,right
3.138,0.5179995772143524,1.3604613403515236,-0.2062408910472711,1.4968765945978912,3.298537264241846,-0.2978575478130626,-0.17904020044971916,-1.1515957854693593,-0.32494036196288234,2,right
3.138,0.45167650646806423,1.358897067882349,-0.18228331574248408,1.4806455222638037,3.2906235906842722,-0.297881148996108,-0.17937173432501194,-1.1492483318181275,-0.3239173685901907,2,right
3.1430000000000002,0.38134721667617044,1.3642167921609185,-0.16235079476025266,1.4853722075788296,3.292329990514663,-0.2979829889929389,-0.17945592417505274,-1.1488762483418746,-0.3260179942403746,2,right
3.1439999999999997,0.2955751237386878,1.3860815877949109,-0.1453035544447689,1.4876974160669536,3.294624637564212,-0.29776868776543075,-0.1789315682915584,-1.152075606056267,-0.32223037297851664,2,right
3.148,0.1904305098862939,1.415283090687822,-0.13967351217568802,1.4827224096405947,3.2907485855248195,-0.2980393259533852,-0.17979334198995106,-1.1467404369110143,-0.3276383423943869,2,right
3.148,0.07411439198964326,1.441311428572599,-0.14583253958722495,1.4877155813867768,3.2943520194998896,-0.2978199184292037,-0.17885982060086733,-1.1525321226381302,-0.32191828573777825,2,right
3.153,-0.0552449081607726,1.4706585476110465,-0.14994214693429317,1.4831154220794702,3.292060528273815,-0.297835154463877,-0.179422681687507,-1.1490210313353484,-0.3251524263558514,2,right
3.154,-0.19530034866884938,1.4992398464128494,-0.13346569211783144,1.4885444090376385,3.2927254958356875,-0.29818755641122413,-0.17979177127348311,-1.1468115663746472,-0.3282923498732542,2,right
3.158,-0.3333773610354209,1.5231465594614229,-0.09916744712969935,1.480711692884824,3.293494236046438,-0.29736553596028403,-0.17798626995465022,-1.1578175734429,-0.3151260925253905,2,right
3.159,-0.4632334120594808,1.5439940754830457,-0.062493541208661484,1.4913014553204156,3.2917991692502735,-0.2985955705052637,-0.18136906471806008,-1.1371669867793406,-0.339439902367874,2,right
3.1630000000000003,-0.5718401044420793,1.5555883681390514,-0.028495237769632198,1.4802161307631698,3.2937086192692684,-0.29728400450251724,-0.17701744544070513,-1.1637352957938887,-0.30824187888381016,2,right
3.1630000000000003,-0.6595900147652827,1.5617036670537852,-0.0070507746291825855,1.48629978222869,3.2924432927516207,-0.29804231491838706,-0.18065391732530472,-1.1415363536146068,-0.3342801228621417,2,right
3.167,-0.7241398997350224,1.5619373852523444,0.003989789250233378,1.4931377067445863,3.2921537829410292,-0.2986922465759848,-0.1805425701087433,-1.142213040249237,-0.33360678372138275,2,right
3.168,-0.7570576613482481,1.5556442578124634,0.0032630119761697532,1.4658191826041302,3.2947335796596016,-0.29584275996123416,-0.17365011433491656,-1.1842859774164067,-0.28384987430360054,2,right
3.1719999999999997,-0.7614004697092192,1.548667089516546,-0.012732251018467873,1.516012253841553,3.2897110052001493,-0.3011269600200672,-0.19060689720459378,-1.0807930020849075,-0.4061129860457857,2,right
3.1719999999999997,-0.7211533620937078,1.5264670637733817,-0.011277355729339312,1.4516655361597945,3.296215613621914,-0.2943433445859742,-0.16248687477892237,-1.252403504862467,-0.20339977834385303,2,right
3.177,-0.6813711274752892,1.5061277777940925,-0.002497459435819578,1.505345768304478,3.2907601693178936,-0.30000395001794145,-0.19957828436321848,-1.0260566508285198,-0.47078145460310117,2,right
3.178,-0.6687813509219995,1.5008908186698384,0.004101145894427751,1.504049632168479,3.2909985232838492,-0.2998567320229403,-0.35522226778636656,-0.07584061797420033,-1.593017478573802,2,right
3.179,-0.6209949552216323,1.4781802092477103,0.04041488283199428,1.4011711625725967,3.3011108897213166,-0.28904927827858484,-0.39231104749510926,0.15050441971240341,-1.8603983638472064,2,right
3.1830000000000003,-0.5639185970439575,1.448402036855546,0.08567485665343035,1.6538554979936846,3.276141912125726,-0.3156000191179409,-0.36419768882505854,-0.0211351488096316,-1.6577048250098414,2,right
3.1839999999999997,-0.532647676827265,1.4267326766422188,0.1318506229948799,1.2349316048171266,3.3175795841968285,-0.2715876460705203,-0.38114202898955907,0.08246848625256756,-1.7799016258477847,2,right
3.187,-0.5131599637160464,1.4117930611487308,0.16632333252758558,1.787497922439678,3.2629084448834567,-0.32962954112901355,-0.37426801777321134,0.04016243553398828,-1.7302792550635333,2,right
3.187,-0.5111191300349813,1.4084868843969722,0.17539538621644749,4.1069893786039255,3.0336952159468105,-0.5733757823978108,-0.37413561217686564,0.03983594310983654,-1.7294082154156367,2,right
3.188,-0.5070685078984437,1.396863104738446,0.20151514732352482,4.659596492493222,2.9790123178347914,-0.6314005764683412,-0.3777873642052002,0.061653973458797216,-1.7556564447148117,2,right
3.1910000000000003,-0.5096964361794993,1.3799672467077588,0.23058837201013543,4.240628453265851,3.0204627058838183,-0.5874067031917047,-0.37343915716512754,0.03531358876469015,-1.7243410992607764,2,right
3.1919999999999997,-0.5324168169839482,1.3697453549514114,0.2449011219790659,4.493296026645398,2.9954985891766013,-0.6139644894047901,-0.3767858880407239,0.05614694491556942,-1.7485351004039926,2,right
3.198,-0.5537689483464756,1.359647114669439,0.26002448189892424,4.3905639175430435,3.0055687089289886,-0.6030956449479586,-0.3750571637142423,0.04429746232959433,-1.7358623018459443,2,right
3.199,-0.5765191089745125,1.355699916201213,0.26343032496478247,4.388952833561378,3.005897931324538,-0.6030805051473855,-0.3753160600113188,0.048109610458833434,-1.738088274550758,2,right
3.202,-0.6003363661768748,1.3553510103388102,0.2584404749265538,4.44308466484298,3.000312224666822,-0.6085517465952079,-0.3759909388390188,0.049491873349805926,-1.7425136277558384,2,right
3.2030000000000003,-0.611837259164428,1.3527370887733343,0.2468783016551331,4.378288213903263,3.006946516560572,-0.6019566864954281,-0.37500262552063457,0.045640863679678595,-1.7357390246914242,2,right
3.207,-0.6139634917270909,1.350475565713284,0.22366829338275085,4.428675401264085,3.0018680429943023,-0.6071595500990205,-0.37578454363889474,0.05043278994315796,-1.7413790614241778,2,right
3.2089999999999996,-0.6099622790674324,1.343910869879199,0.196032270734886,4.40174291961312,3.004336347862942,-0.6041480988516881,-0.37554391159627865,0.04491707218546006,-1.7389949094095565,2,right
3.2110000000000003,-0.5985127868729825,1.33257978054688,0.16495799305820913,4.407337039499094,3.004405758276588,-0.6053196770686988,-0.3751236760886152,0.05160088040154942,-1.7374494678466876,2,right
3.2119999999999997,-0.5861434103919563,1.3196705169903544,0.13558844383827773,4.415563962797639,3.00252212553924,-0.6051792178003361,-0.3760922922279556,0.04371485680929248,-1.7422181321452235,2,right
3.216,-0.5736592746327985,1.3016441878954117,0.11630603840758873,4.401848153117767,3.0051902559261627,-0.6049706152398115,-0.37493461578464055,0.05135896860665197,-1.7362332286861404,2,right
3.218,-0.5595049906046183,1.2792531527879325,0.10248708972937173,4.4145352939241285,3.002890536437846,-0.6053213923870158,-0.3756875422600651,0.04745294380306032,-1.7402958793329988,2,right
3.221,-0.5490907767527389,1.2557553656850904,0.08791874479466848,4.406720742530646,3.003653418540451,-0.6044913559015237,-0.3760753283250362,0.042497945614003586,-1.7419183007106553,2,right
3.221,-0.5410777199876579,1.2297330992601996,0.07515227892111687,4.408258756965491,3.0054415395812777,-0.6064758413627525,-0.37389605790812985,0.061254644474487877,-1.7313498537038305,2,right
3.2260000000000004,-0.5299289876987747,1.2007572775798085,0.06576048142692024,4.412551717691912,3.0005841203305588,-0.6027615507774724,-0.37805168021971447,0.02716096217720483,-1.7517687578194607,2,right
3.227,-0.5127758988630617,1.1689123716171508,0.05935732185342786,4.404277036126998,3.008014821437339,-0.608105729688881,-0.3726741721419147,0.07069166347862336,-1.7252541055194073,2,right
3.2310000000000003,-0.4905978312729241,1.1367138467508147,0.053995141247644304,4.413446808989939,3.000059641887026,-0.6024457709596864,-0.37718168981294853,0.03445169867413972,-1.7475154851553318,2,right
3.2319999999999998,-0.4586666923941096,1.1065987488666287,0.055987044250797535,4.40759767871648,3.004709767720383,-0.6056575848376036,-0.37703114558680206,0.03527908347935433,-1.7467186089085163,2,right
3.237,-0.4210507972034061,1.0807419848361568,0.06863972343655228,4.405282420642209,3.0084511959419658,-0.6087146975033609,-0.3685116463164384,0.10479213356827333,-1.7047870196956532,2,right
3.238,-0.3829219578952799,1.056121994052047,0.09068959301557028,4.419879850524117,2.9916408517162125,-0.5958085635749437,-0.38949389543016144,-0.06584576671613512,-1.8081320216914607,2,right
3.241,-0.33240829544465506,1.0242295407082462,0.13151391277841565,4.392001525730881,3.0228933552145794,-0.6196565505030858,-0.3546869294951258,0.21700502521983972,-1.636673109221464,2,right
3.242,-0.29943222889493615,1.004015574679675,0.161968579824445,4.427981764438391,2.9827477688821933,-0.5890555721584292,-0.4006053335964762,-0.15605580068379005,-1.862867938779054,2,right
3.2460000000000004,-0.29304011762923,1.0001996214245568,0.16809575504552335,4.397866665000382,3.0162675537258945,-0.6145920636349933,-0.593293061448156,-1.7219370378105616,-2.8121297367040254,2,right
3.247,-0.26443935716104705,0.9831226192236814,0.1883298195988426,4.398971560418942,3.0153395929307543,-0.6139375757711367,-0.6392173126480079,-2.0950166473832867,-3.0383370199418462,2,right
3.247,-0.2279964070050736,0.9637533747316654,0.212064053767869,4.4554520007916585,2.95149791489579,-0.5651302794826324,-0.6044009373988328,-1.8121643643680365,-2.8668423940453964,2,right
3.2510000000000003,-0.20756815822914987,0.9579849065345074,0.22101954714828997,4.3162816103034185,3.108431987332329,-0.6850439348873505,-0.6253917010189075,-1.9827278331921523,-2.9702610438304147,2,right
3.2510000000000003,-0.18776016639072202,0.9530227066956308,0.22645891189440243,4.547129528817802,2.8482289020563045,-0.48623996737441405,-0.6168706724915506,-1.9134197082322681,-2.9282117523976288,2,right
3.2560000000000002,-0.17795789312069488,0.9502600759592954,0.22648781136572319,4.242626794844104,3.191429110572612,-0.7484535669136929,-0.6167083781241546,-1.9122432680685266,-2.9275596364648306,2,right
3.2560000000000002,-0.17694764161796667,0.950797365943118,0.22483537188283162,2.965161300338436,4.63217147685863,-1.8493447206300981,-0.6212447847172144,-1.948910157819234,-2.9497003180939867,2,right
3.2569999999999997,-0.17074132312987383,0.950555354577029,0.22175220240731042,2.660704953623468,4.975375477385118,-2.1115697529687676,-0.615823468241357,-1.905046198540034,-2.92319736112138,2,right
3.26,-0.16511256623809495,0.9516215507009151,0.21494677680782381,2.8914663624346826,4.715142960117269,-1.9127269603057448,-0.6200259237018912,-1.9391130763117792,-2.9438126891556924,2,right
3.26,-0.16178807045974797,0.9518451779611009,0.20854812073177,2.7524055363961426,4.872165189162563,-2.0327296176541063,-0.617819913311539,-1.9210356506340132,-2.9327699643951783,2,right
3.265,-0.15756144398391134,0.9471699167722042,0.20222586870407921,2.8087872252945374,4.808152159890297,-1.9837701672987136,-0.6181831146998948,-1.9244788057167248,-2.935121504588409,2,right
3.266,-0.15480878079438726,0.9392033875969286,0.19882614896693063,2.8099274078232748,4.807469318333427,-1.983313998986811,-0.6190412606986161,-1.9306058575596465,-2.938381271041372,2,right
3.2689999999999997,-0.15235705397710936,0.9299595163556706,0.1982262065025498,2.779903573290556,4.840736579006033,-2.0086694665392146,-0.6176876928657152,-1.9206437614057714,-2.9329001467803852,2,right
3.27,-0.15207781064535167,0.9169318136466766,0.19748588752278562,2.8156157357999416,4.800718885102518,-1.9781196865574964,-0.6189122328161399,-1.9297685243986675,-2.9379866935344157,2,right
3.2739999999999996,-0.15512687855734048,0.8998209641218118,0.19825360238439485,2.7881821255554433,4.832145667891069,-2.0021852483533698,-0.6182646135538339,-1.9244985417888483,-2.9347874582749416,2,right
3.275,-0.1573410511927733,0.8808836852195381,0.20195600075002157,2.802251559347016,4.814696765309964,-1.988682902884837,-0.6180760027320653,-1.9244968965639997,-2.9356144079957183,2,right
3.281,-0.16424744088985133,0.8587564883192549,0.21197457056732222,2.800332736469367,4.819585539447879,-1.9927105024330853,-0.6191554293864752,-1.9297706493078526,-2.9369195653339357,2,right
3.281,-0.1754076683783034,0.8330615059029622,0.22946133212111464,2.7945410613204507,4.822775156355208,-1.9947895062382008,-0.6173899716174762,-1.9206411557324345,-2.9342076486737576,2,right
3.285,-0.18581432128257164,0.8064420509719945,0.24674503116028734,2.8028538292893095,4.816063918213088,-1.9899469316163854,-0.6193006865194932,-1.9306081322698179,-2.9372406294144504,2,right
3.285,-0.20071117434608776,0.7771713702882674,0.2602939185264169,2.796437524000001,4.823322378887891,-1.9954953822416546,-0.6181513472771882,-1.9244785207589719,-2.935263815227441,2,right
3.29,-0.21934340878865738,0.7466580238791675,0.2744153138333185,2.7980414173944093,4.816576626471706,-1.9898122138468017,-0.6173858058242305,-1.9210318557532462,-2.9346725466859667,2,right
3.29,-0.2379674465107733,0.7188855886088159,0.2892568381062903,2.802338642061677,4.8230134991774785,-1.9959392465111434,-0.6211042877558379,-1.9391225230471263,-2.9390805986498787,2,right
3.2939999999999996,-0.258018500737365,0.6904213188123951,0.300446557842611,2.793123831606829,4.8165733090042,-1.9892150980150558,-0.6141424495126302,-1.9050314456904658,-2.9305784047032546,2,right
3.2960000000000003,-0.27933032218012877,0.6625694714064668,0.3055295048245208,2.8039732757091,4.822281103876023,-1.9954988716747621,-0.623095816551224,-1.948926458504353,-2.9415675835385446,2,right
3.299,-0.2981647860699884,0.638493299329674,0.30734599296080334,2.797015771753336,4.819759872087813,-1.9924612111859408,-0.6156164444376033,-1.912233508679328,-2.932366189576012,2,right
3.299,-0.3194197946492142,0.617665270173055,0.30339544941069263,2.793159824612686,4.8151715885645405,-1.9879987510019912,-0.6158389101000066,-1.9134110512970748,-2.932723475823522,2,right
3.305,-0.3435476409908484,0.6024423904682399,0.29441521227857803,2.8139866099378352,4.830796139792271,-2.004126507896224,-0.6300319641942669,-1.9827677798582612,-2.9499077540997405,2,right
3.307,-0.36279920274350286,0.5905284389109269,0.286771086878272,2.7744288598414366,4.802874036044253,-1.9750215381601968,-0.5951263592881417,-1.8120843899964785,-2.907548954842448,2,right
3.31,-0.3842535685515817,0.5821678031512831,0.27359782071365985,2.825560771496627,4.83834620692056,-2.0121035195828396,-0.6530034783021277,-2.0951350799747868,-2.9778065091630888,2,right
3.3110000000000004,-0.3971562387188602,0.580402305481273,0.26346124073663024,2.7827287433723984,4.808895477080888,-1.9812688771763889,-0.5766683665616701,-1.7217958155241804,-2.885144598964702,2,right
3.315,-0.40014728668680666,0.5799661950566692,0.26083994101426017,2.784112717940439,4.809438989589581,-1.9819129550819714,-0.2562281180011779,-0.1548929898778329,-2.4962456816289738,2,right
3.3160000000000003,-0.41549235288595265,0.5797937721437363,0.2527395183465047,2.8651890993302658,4.866267879133822,-2.0412144687944807,-0.17990429961852536,0.21841031296462432,-2.403614995775357,2,right
3.3160000000000003,-0.43458455053466694,0.5813515805941927,0.2475914376963308,2.6655842065555957,4.726961101409227,-1.8957355288559887,-0.23776919897851567,-0.06460147064227141,-2.4738387615320656,2,right
3.32,-0.45590627010800994,0.5815838546630572,0.24259896163582675,2.9966687584620164,4.9577904701359135,-2.1368396494411055,-0.20285895039886626,0.10609672333704184,-2.431467134435404,2,right
3.321,-0.4720868648826143,0.5821923786272046,0.23593269084285684,2.5599123878862873,4.653392904348802,-1.8188665028758595,-0.21709252780806682,0.03661092032174386,-2.448763430203152,2,right
3.324,-0.47659159585826666,0.5830315471963288,0.2340913254992512,0.7268011084110525,3.375492105414054,-0.4840290677135308,-0.21722779770700362,0.0357110890793567,-2.448879668182208,2,right
3.325,-0.4957822416120071,0.5799506402431949,0.22559421859502107,0.28998810073246206,3.0711575361057104,-0.1660773762755299,-0.20987345041619468,0.07200586403529408,-2.4400239113370454,2,right
3.325,-0.5193820621120087,0.5759299449243059,0.21500941523181819,0.6211931647774357,3.301852553728068,-0.4071260556736006,-0.21870231408802776,0.028507341684427125,-2.450668879241732,2,right
3.3280000000000003,-0.5349393139729197,0.5710645054482393,0.20767012589708367,0.4214017679619322,3.1627543104897793,-0.26175243992597597,-0.2117942055347485,0.062427356738020925,-2.4423152588499755,2,right
3.33,-0.5512739918108978,0.5622510717146343,0.19959477797432848,0.5027074278673307,3.2193259318970164,-0.3208956166792055,-0.21561957970737727,0.043996181588175726,-2.4470187668535015,2,right
3.3339999999999996,-0.5591812045894808,0.5528976173482136,0.19102500691799856,0.5038870485530813,3.220100075194387,-0.3217231563256202,-0.21450967417399064,0.048539652401678644,-2.4454755436249354,2,right
3.3360000000000003,-0.5600805889795883,0.5431506244650788,0.18180654038935237,0.4611166654232238,3.190577203067302,-0.29075134110457723,-0.2139537081942968,0.05277945837622737,-2.4451391055919607,2,right
3.338,-0.5578108710313133,0.5338287951797406,0.1753976477987778,0.5124761906563768,3.2257982636669755,-0.32781268577104195,-0.21513618463020914,0.0451317078331016,-2.446158807932485,2,right
3.339,-0.5494729045828131,0.5244254824629306,0.16624445699953547,0.4722835446896976,3.198584240360285,-0.2990086020419824,-0.21395134455137516,0.05241226138871927,-2.4450521613354432,2,right
3.345,-0.5393135052708766,0.5132700326010639,0.15425572294701032,0.4941515721012524,3.2130424478527724,-0.3144812707190052,-0.2150358745543054,0.04712189572202284,-2.4463711932017045,2,right
3.346,-0.5289100386734902,0.5064358130738176,0.14738893694794086,0.4890689522399127,3.2098339042090354,-0.3109715832980048,-0.2137699533047546,0.05055499702858211,-2.4442201745057135,2,right
3.347,-0.5180638941724793,0.49885899255670874,0.14198624665706622,0.48301743846785256,3.2062848058228566,-0.3069493074522141,-0.21558447525267108,0.04798320751386022,-2.4478273692991914,2,right
3.3480000000000003,-0.5069580529625455,0.48784066869356707,0.13611355871677808,0.494037210855385,3.2118212156000165,-0.3137437297125696,-0.21313579738172622,0.05055689792264843,-2.4427592014593342,2,right
3.353,-0.49333576003789914,0.48081591306771443,0.1313323639664567,0.48277153394082994,3.2076577172402754,-0.30765473928507064,-0.2156980936832544,0.04804840350809151,-2.4481040126131095,2,right
3.3539999999999996,-0.47824232158315044,0.473196552416984,0.12435274685807254,0.49145834391127247,3.2091891700932855,-0.31138813272081195,-0.21429346494725848,0.049126364277059936,-2.445107318610998,2,right
3.359,-0.46590956860918253,0.4648442715193003,0.11356134349678251,0.486757358654411,3.2095170825583548,-0.310030444786738,-0.2127066589814977,0.05189575810179925,-2.442069426631071,2,right
3.359,-0.4551183380961814,0.4588472014253476,0.10688523113314607,0.486752646640816,3.2095465005903154,-0.31004547100081226,-0.2190359966619287,0.042787564398882955,-2.4546214245093605,2,right
3.365,-0.4445678796938519,0.45146958317054997,0.10863573134009419,0.49191247098442037,3.2064545151480166,-0.30997117289257825,-0.20740906522029537,0.05913524750502958,-2.431476756535296,2,right
3.365,-0.43851916356572795,0.44332959448758846,0.11028595837645896,0.4816238883457806,3.214566812356881,-0.31123505202956375,-0.22231395746267452,0.038265901133043616,-2.4611671312376044,2,right
3.367,-0.4368484986141197,0.43525733018220886,0.10750555556599338,0.4957347211010182,3.201602827075944,-0.3084483202356032,-0.20988028443470053,0.055639414721243355,-2.436389835948388,2,right
3.3680000000000003,-0.4369030432538351,0.4272538842553405,0.1016450916353806,0.4814155912400997,3.2159261258582053,-0.31194591669403127,-0.21017905987285562,0.05535835141824909,-2.437019272649742,2,right
3.373,-0.4379362330782313,0.4208576335195146,0.09721353392850265,0.4894587391122767,3.2074903577307117,-0.30975652036837964,-0.2340123549841759,0.02160962401118293,-2.4844050875624415,2,right
3.3739999999999997,-0.4414490932556688,0.41348126582849387,0.09653900139579422,0.4962930669084825,3.200147085852355,-0.30779948146485636,-0.17547662734366556,0.1043372687232707,-2.367979818370122,2,right
3.377,-0.44938821690996233,0.40347573639983314,0.09282444625531341,0.46665524326685726,3.2324694248533996,-0.3165677146123297,-0.27252144924984123,-0.03277196043426407,-2.5610138116542913,2,right
3.378,-0.4542443036807229,0.3984959694508817,0.08853175996144343,0.5213553329889917,3.172345814370377,-0.30011300134954855,-0.1445188375862027,0.1480704987728739,-2.306392905399708,2,right
3.383,-0.45605045709443903,0.396785817008958,0.08895440916330455,0.4512994171347109,3.2496720434288706,-0.3213760513070743,0.39281591591719883,0.9074217123726462,-1.2376170433644438,2,right
3.384,-0.46309235764940165,0.3890363635117349,0.08868854816946536,0.5097086282233105,3.18506544228197,-0.303565333283931,0.5208284490730578,1.0882892879909034,-0.9829610394920447,2,right
3.385,-0.4734262949137213,0.37981693098140956,0.08763788978331535,0.5081086147199286,3.1867944426463968,-0.30404112702759534,0.4237705030501566,0.9511524600651713,-1.1760470009008208,2,right
3.388,-0.4838370617393959,0.37251846122105475,0.0919764774933167,0.3969229194152236,3.310133098486254,-0.33812182817907505,0.48231061246530665,1.0338712729631196,-1.0595866042985835,2,right
3.389,-0.49462024413298805,0.36438105524599096,0.0998527268726701,0.6701752334739827,3.0069748343628673,-0.2543194829650487,0.4584954742380009,1.0002095858107356,-1.1069486508814133,2,right
3.392,-0.5097588805216182,0.35585867657020664,0.10291085512722203,0.2171471527895587,3.50964087819174,-0.39330602621931987,0.4581459740808021,0.9997391738565293,-1.107697500010799,2,right
3.3930000000000002,-0.5208837119607231,0.351094464751728,0.10227739203853928,0.8146636408711387,2.846619091457376,-0.20995327964798174,0.47066170981176625,1.0173858327531926,-1.0826943304907464,2,right
3.3930000000000002,-0.5243425431654605,0.3494065125451548,0.10112767641109614,3.322439291380225,0.06327827282227616,0.5597447512706388,0.45566344088329447,0.9962424198442063,-1.1126779092578198,2,right
3.397,-0.5355559307102997,0.3445360288505167,0.09556631666273344,3.9199408005924994,-0.5997389201141567,0.7431289418611332,0.46735231485403983,1.01271220322442,-1.089279927719315,2,right
3.398,-0.5471441317732025,0.33912982827400245,0.0880099252938261,3.4669537204559533,-0.09706057124469838,0.6040903278433589,0.4610532666012905,1.0038304919881937,-1.1018723423680217,2,right
3.4019999999999997,-0.5516922368069208,0.3336701936349847,0.08199157127481654,3.740124376065489,-0.40028191484356457,0.6879436688433855,0.4624566716946391,1.0058550793941992,-1.0992069032158964,2,right
3.403,-0.5581592095363194,0.3255996799364194,0.07668467604067203,3.6290659764274986,-0.276800625682481,0.6538440092806717,0.46422602616833064,1.0082250251327158,-1.095283148570859,2,right
3.407,-0.5634478626360935,0.3189908855871668,0.07169374903629916,3.6273130272862497,-0.27529424330720387,0.6533209499262884,0.4611643961522135,1.0041217552169868,-1.1020686051857713,2,right
3.408,-0.5654886892580739,0.31426202538246484,0.06585443479234168,3.6858446728880265,-0.33964913061914354,0.6712699400207163,0.4640884133606389,1.0079805962385144,-1.0953995075713845,2,right
3.411,-0.5663497246173378,0.3116192140161587,0.05707542327371754,3.615787814592987,-0.26248926665578143,0.6497811285547856,0.4621003456512319,1.0053886863871764,-1.10003357835821,2,right
3.412,-0.5636145604816776,0.3108861834791957,0.045129934882178424,3.670263643568849,-0.32269762842337113,0.6664968121137873,0.462891931307852,1.0065093052814302,-1.0984654483832998,2,right
3.4160000000000004,-0.5563447101511002,0.30861943000713177,0.03449453838643175,3.6411443511282338,-0.28987171222820035,0.6575455402621349,0.4632140170867963,1.006561023092008,-1.096563137768284,2,right
3.417,-0.5468371676109567,0.30744539460129006,0.02709971824657622,3.6471989282767154,-0.2982166413286792,0.6594438522981616,0.46204164998447644,1.0058261010048337,-1.1017776142158997,2,right
3.4210000000000003,-0.5359817340009279,0.3080408412755979,0.02274222560755742,3.6560801521210937,-0.3052786915091461,0.6621024182167088,0.46368933116472955,1.0067793917893133,-1.094200539174297,2,right
3.4219999999999997,-0.5256607212042855,0.30622138214167083,0.02120611782977205,3.6412690646789723,-0.29226743774421954,0.6576384080656058,0.4620672737285183,1.0059531844896907,-1.1020099234397627,2,right
3.427,-0.5181550482670114,0.3029386202293481,0.019857109175241687,3.6549709239116748,-0.3047436161606,0.661778875776851,0.4630059946948456,1.006432406879327,-1.0974956331856887,2,right
3.427,-0.5122800286740696,0.29732709358402687,0.019137422767426943,3.6465223189872167,-0.29534244519968905,0.6591849013808251,0.4635168466440245,1.0064248447760251,-1.09419471831135,2,right
3.432,-0.5102986356142356,0.28923723742607876,0.02086176646035462,3.64821305870162,-0.30228551241295204,0.659825035297154,0.46089475523193446,1.005913909667497,-1.1094034050672805,2,right
3.4330000000000003,-0.5121534794383173,0.2821870854357497,0.027582294731407574,3.652789783399251,-0.29578678735450936,0.6609531965815285,0.465776786873788,1.0068879553730063,-1.0811628608164123,2,right
3.4360000000000004,-0.5147331542556381,0.2739140260525907,0.03588857261625948,3.643940649346923,-0.30323815797430287,0.6586495796873235,0.4595326202266624,1.005672833396347,-1.1173736224968864,2,right
3.4360000000000004,-0.5190440318251764,0.2648263685928779,0.04020104717118928,3.6537505214413644,-0.2957123291723408,0.6612208715734824,0.4647344870307382,1.0066703660620444,-1.0871688070810377,2,right
3.4410000000000003,-0.5256403357444199,0.2592214343707812,0.043819627314548484,3.647487570121803,-0.2994016109662472,0.6595526768734188,0.46456187933890847,1.0066013681376498,-1.088041061500306,2,right
3.4419999999999997,-0.5350662866835172,0.25582598001736234,0.04362162760539512,3.645034802513302,-0.3058481502190623,0.6590186417032521,0.4547778263754537,1.0048827502401831,-1.1453878203097396,2,right
3.447,-0.5440948351032968,0.25314251335889965,0.036396216249233476,3.6605918682857146,-0.28298036064329735,0.6628355228099421,0.4788504987157918,1.0091357833654375,-1.0044047703497938,2,right
3.448,-0.5492256336493122,0.25285748098049665,0.027378892854146342,3.630870309581373,-0.3244253965971533,0.6554900362766402,0.43893847615615017,1.0020908129680253,-1.2381448392509875,2,right
3.451,-0.5519976918011289,0.25349257955015664,0.021240936883770305,3.669230265037696,-0.27142233174046176,0.6649818848604538,0.4915754030065549,1.0113688676609724,-0.9298696739197957,2,right
3.452,-0.553940103230647,0.25369871198702865,0.020612300170371807,3.6371251143340766,-0.3155877431981088,0.6570334115903864,0.712427243192477,1.0502372821657455,0.3640817459315938,2,right
3.4530000000000003,-0.5563264005223518,0.2561551124436263,0.018434391746344314,3.6383005186061674,-0.3147203771215377,0.6573414941973801,0.7650543666769969,1.0594937404530518,0.6723155387858821,2,right
3.4560000000000004,-0.5568628025311992,0.26018049738380367,0.013735652370292843,3.6985158418487307,-0.22942252756360668,0.672192580148057,0.7251587604422345,1.052480344483305,0.438631792010326,2,right
3.457,-0.5536196211873383,0.26585353953126734,0.010520709731023821,3.5501505972970846,-0.43869418788387815,0.6355810467454701,0.7492148886456056,1.0567131896152568,0.5795909213927541,2,right
3.46,-0.5468964602915027,0.27256886752260734,0.00432959610082535,3.7962429436486342,-0.0918032184521533,0.6963126657645655,0.7394380763287383,1.0549770051337282,0.5221800938245111,2,right
3.4610000000000003,-0.5413368442944684,0.27505923459902965,0.0015066045104180491,3.4716383840716807,-0.54935119726506,0.6162059857590585,0.7392782315007769,1.0549858482095609,0.5215020844725541,2,right
3.463,-0.5398894679102305,0.275222538696405,-0.00039693210830677524,2.1096492595075915,-2.47013603555813,0.2800903074393156,0.7444391072463825,1.0558397117124008,0.5513832414715603,2,right
3.465,-0.5316766195004874,0.2753358071900416,-0.008340250433811574,1.7850874787490174,-2.927718049160946,0.19999554315902796,0.7382641047409029,1.0548077035621954,0.5155511761787483,2,right
3.466,-0.5177785591521498,0.27423112226168034,-0.011218934723452693,2.031119783928165,-2.5808213833867724,0.26071423517684006,0.7430636536391764,1.0556283647467515,0.5435235810668787,2,right
3.47,-0.5087056327111494,0.27358201772976454,-0.013207142419529964,1.8827856648530907,-2.7899687856941675,0.22409792238154566,0.7405034703072066,1.0551315718452863,0.5282310580312393,2,right
3.47,-0.49886881637601466,0.2727490982646663,-0.01872643777120065,1.943054057091377,-2.705020379889304,0.2389915170698888,0.7410235653596835,1.055373276703245,0.5322172219719772,2,right
3.4760000000000004,-0.4884642746167297,0.2732324286422977,-0.020380287582306957,1.9440481642945928,-2.703552989712988,0.23920796623129617,0.7418279183365217,1.0552556562607007,0.5353151325639094,2,right
3.477,-0.484116886467112,0.2763163735512687,-0.022398187250409134,1.9122566876994171,-2.748457142700702,0.23139101325583478,0.7404965125582237,1.0553395937705332,0.5294942064122494,2,right
3.4810000000000003,-0.48080374196931325,0.27977945689056155,-0.027373621073240463,1.9502371744129186,-2.6948702990645224,0.24075172454042482,0.7417246743014109,1.0553019349758457,0.5351123200955454,2,right
3.4810000000000003,-0.4786351737458546,0.28518182632659395,-0.03563622368815375,1.9208039788822056,-2.736285238769206,0.23346313799381338,0.7409807836535336,1.0551688552581235,0.5307403760776863,2,right
3.485,-0.4812908624234507,0.29281215988823983,-0.046546776533311324,1.9363997233541899,-2.714568508956838,0.2373918985593264,0.7410900381168204,1.0556588447380557,0.5343054882497145,2,right
3.486,-0.48363188241041644,0.30062593110155644,-0.05731968263937902,1.933328310231618,-2.718425006077876,0.2364962136311154,0.7415837205873306,1.0546697451626674,0.5305130341947628,2,right
3.49,-0.48555144570858005,0.31021123437569187,-0.06999164064006386,1.9284117945183088,-2.7259424153415592,0.2354518690415141,0.7406691739058282,1.0561140391390558,0.5351278156430767,2,right
3.49,-0.4879078132011945,0.32176699081568433,-0.08281779310134399,1.936271360060789,-2.71439252813305,0.23725678378372944,0.7416773408847516,1.054580215634699,0.5304024423371372,2,right
3.4960000000000004,-0.48876643001559444,0.33116055103846953,-0.09054281070961978,1.9294221972224976,-2.724045001115069,0.2355652902473928,0.741042255505956,1.0554572067382142,0.5328262252579274,2,right
3.497,-0.49291233806690055,0.3392778561767751,-0.09314126954080092,1.9329919609992405,-2.7198845790240407,0.23669630361271454,0.7407548527112764,1.0562589863742422,0.5364344571546709,2,right
3.5,-0.4997940356663637,0.3484332923908692,-0.09710610963300231,1.933322573265562,-2.717422924231464,0.23620647075309967,0.7424386381364935,1.052825035978321,0.5231289538175261,2,right
3.5010000000000003,-0.50508037812073,0.3550187574206311,-0.1050378957534329,1.9298403028009432,-2.7253107604824294,0.23619956499620717,0.7392388202568357,1.0591797113112444,0.5473558457641208,2,right
3.505,-0.5096744342000761,0.3597301841710335,-0.11062136936248707,1.9346459345834375,-2.715359644488691,0.23647677026662234,0.7433653534194646,1.051023170180409,0.5163474045780813,2,right
3.5060000000000002,-0.5129569887945936,0.36405738254981274,-0.11200911356741902,1.931136219954786,-2.722143494174597,0.23613570369734505,0.7399123996752248,1.0578312022658838,0.54219501747347,2,right
3.509,-0.5164953126139735,0.366099926735889,-0.1122695695962315,1.9303900805629612,-2.724776511825862,0.2364042035888064,0.7400348626021874,1.0576521816097788,0.5416494558719605,2,right
3.51,-0.5201934906969587,0.3685914113580737,-0.111662511602343,1.9378600415022353,-2.7073222857018697,0.23626673385789337,0.7465256997426681,1.0446538711260356,0.49185586604747267,2,right
3.514,-0.5233825859012655,0.3714882177941,-0.11125843859779927,1.9230142064503224,-2.7410923271865757,0.23627668647894112,0.730536119581967,1.0765955258444446,0.6140627679665783,2,right
3.514,-0.5314205397843077,0.37054743473579954,-0.11010989974012425,1.9424338851890093,-2.69722543579051,0.23635197972510766,0.757058643848023,1.0236369503646934,0.4114824582343109,2,right
3.52,-0.5371925687190646,0.3685053437637418,-0.10760028802843213,1.9260719492289304,-2.734060155537933,0.23625225639410063,0.7220727111567562,1.0934883799198603,0.6786835878932679,2,right
3.5210000000000004,-0.5379951829591154,0.3688434583857026,-0.10601706267103296,1.9267436456010167,-2.7327365440930738,0.2363114035115721,0.5753260473488278,1.3867113930471442,1.8004103604124237,2,right
3.522,-0.5439245338205605,0.36753636195264544,-0.10406342808325902,1.9573326329874878,-2.6633695323086517,0.23635109425239548,0.5403460574454361,1.4565639865912843,2.067628953614702,2,right
3.525,-0.5519361818862305,0.36371309314755185,-0.09860578239280651,1.8818203079186948,-2.834336211488725,0.23617256238737433,0.5668534344974272,1.4036022131356027,1.8650385678422556,2,right
3.525,-0.5622667329156261,0.3589404731782849,-0.08755180390110318,2.007143636458089,-2.5506896498086626,0.23649826028365584,0.5508922865559271,1.4355502555092199,1.9872070487225495,2,right
3.535,-0.5704337649214362,0.3547000260078473,-0.0796744841760899,1.8418035007715472,-2.924879664696787,0.23605901117880623,0.5573407943824367,1.4225419662161318,1.9375405271875397,2,right
3.536,-0.5733577221843706,0.3545248431965674,-0.07847575632869037,1.1478935812527986,-4.495321158372118,0.23424023088895618,0.557511807327436,1.422374959024991,1.9367645811063434,2,right
3.537,-0.5876417264913024,0.35176615066333305,-0.07221500836297495,0.9825567690896839,-4.86951706564512,0.23380192328218147,0.5540232901395958,1.429173337774019,1.9629080771535066,2,right
3.5380000000000003,-0.6089966381193772,0.3460416585164731,-0.0672597164341496,1.1079034866874808,-4.5858260554841905,0.2341332628578191,0.5581427087233359,1.4210169518138498,1.9316480186012674,2,right
3.5389999999999997,-0.6268617242725165,0.34538778079741056,-0.07120847941637407,1.0322942128051074,-4.756925166641775,0.2339307525476767,0.5550249340629595,1.427389122457431,1.9559035914593774,2,right
3.5389999999999997,-0.6419137963251134,0.3436830492799409,-0.07571780725673788,1.0630921778374112,-4.687301281817336,0.2340224573959062,0.5565328555327286,1.4239145712227304,1.9429982340954168,2,right
3.54,-0.6503134605964951,0.3412612971804593,-0.07906424448182858,1.0634458736337844,-4.686344631042216,0.23400218082690888,0.5564988956772804,1.4247775177043227,1.945634172062979,2,right
3.545,-0.6533500391308757,0.34295768265105675,-0.08138413339522746,1.04743449266066,-4.722801904289282,0.2339903221306076,0.5556048507589495,1.4255886404431068,1.9495534675119506,2,right
3.5460000000000003,-0.6517564720325482,0.34472720060647205,-0.08187719983230252,1.0666367376509847,-4.679125130178664,0.23401061291664052,0.5567420611742776,1.4240936760507796,1.943183675435262,2,right
3.548,-0.6469756198135519,0.3476637720386849,-0.07911586308324121,1.051640260229858,-4.713158052413926,0.2339839610548497,0.5560066758601737,1.4255697104652596,1.9488241605484151,2,right
3.548,-0.6410503875289345,0.3516261753628853,-0.07388814715055993,1.0598602297774622,-4.694745809990086,0.2340327532911078,0.5558525819803439,1.4244364850475666,1.9456977386821979,2,right
3.554,-0.6363886427781054,0.3578368411212418,-0.07282482190894395,1.0576671890700846,-4.699097571805067,0.23394043782104318,0.5571192984641133,1.425198907638991,1.9458522263662856,2,right
3.555,-0.63353681512314,0.36789125632866077,-0.07676660130420196,1.0561003748520905,-4.703696195914118,0.2340852798713117,0.5549075719537031,1.4247050489523492,1.948083713245667,2,right
3.5589999999999997,-0.6250139128762064,0.37649148641262675,-0.08339662748568856,1.0591059001140866,-4.6956024767911355,0.23391037315698232,0.5573830749082538,1.424996033716328,1.9448039209786354,2,right
3.5589999999999997,-0.6140547465064596,0.38506752906053554,-0.08993025918223746,1.0561857064477427,-4.703241309746885,0.23404842843713003,0.55587384452361,1.4249857857164052,1.947303174801578,2,right
3.563,-0.6008807292344638,0.39429913456283294,-0.09171511962437046,1.058531455220158,-4.697941324206024,0.23405602024181113,0.5548181499113473,1.4244860919926943,1.947579242154131,2,right
3.5639999999999996,-0.5833986754803657,0.4020528333768142,-0.09019776810356947,1.0564460639046722,-4.700750235847995,0.23377968407024208,0.5598907720594295,1.4257674231922994,1.9429055337030035,2,right
3.568,-0.5710993836573028,0.41089999855984793,-0.09119616442539921,1.0588763374278929,-4.6996174918134175,0.23440493570776855,0.5503768391957327,1.4236051105459016,1.9523919268440941,2,right
3.568,-0.5590204998537984,0.4204538428516571,-0.0928416898884449,1.0558097764737675,-4.7000413685930535,0.23347367724962903,0.562631408181222,1.4263045642285723,1.9399155571234865,2,right
3.572,-0.5442094146709575,0.4305493763697317,-0.09226911549810343,1.0589751725883763,-4.699825197085648,0.23446610975311538,0.5523849046957146,1.4240834209456796,1.950456586568077,2,right
3.575,-0.5316166500327364,0.4398358927606403,-0.09335039994227005,1.0573098806148211,-4.699577718816,0.23389319488309435,0.5526862095003755,1.4240935277983136,1.9499781216352607,2,right
3.5780000000000003,-0.518059541569633,0.4461531264353519,-0.0959611454341186,1.0550619322290813,-4.701209117283632,0.23339690515197697,0.5721600733039511,1.4284618970115797,1.9303919017511064,2,right
3.5789999999999997,-0.5046357075707094,0.4527016730329442,-0.0973089081896873,1.0635715057507293,-4.697088868724815,0.23556483082177476,0.5242618675696965,1.417797163261844,1.9788125612687282,2,right
3.582,-0.49267665964147217,0.4595943069221994,-0.0921370111095309,1.0480288065708228,-4.704184920788272,0.2315452464379304,0.6036908061323198,1.4354527570146893,1.8984219964885924,2,right
3.5839999999999996,-0.48609438126767834,0.4628668192112832,-0.08462278033087264,1.0679348336947894,-4.695195559332273,0.23670622918778117,0.4989221960098812,1.4121745790157698,2.0044974507827806,2,right
3.5869999999999997,-0.4844563183073117,0.46450235007119234,-0.0829208698374205,1.0513344138165874,-4.702650717129631,0.23239796958644504,0.05917551641981979,1.3144257249731095,2.4495995804501582,2,right
3.588,-0.4815100778315516,0.4678004816505876,-0.07642161965544583,1.0517087530138625,-4.702639129502376,0.23251357495112934,-0.045585022684651554,1.291147626006342,2.5556910295638,2,right
3.589,-0.4804030959707799,0.47084546964241397,-0.06949833573010374,1.0836158589638485,-4.687799840417499,0.24073120363163092,0.03383196191739055,1.3087984262742134,2.4752543569670964,2,right
3.593,-0.4811598623036251,0.4740196798578399,-0.0717444169550108,1.0052736603403933,-4.724048750371559,0.22053505149405522,-0.014058153886454094,1.2981503357937803,2.5237704537625962,2,right
3.593,-0.4818211838978834,0.4770474506694495,-0.07212039576379559,1.1351547697980444,-4.664004314481412,0.254020109169824,0.005421150938032231,1.3024846098424838,2.5040313154000695,2,right
3.597,-0.4821325835583579,0.4774241908409175,-0.07094042048178678,0.9638354197535839,-4.743197994586992,0.2098542670789279,0.005695032002447042,1.3025451097668483,2.5037413655064555,2,right
3.5980000000000003,-0.4820201357631915,0.4777727175983045,-0.0693876031422119,0.24486724614967345,-5.075894406537406,0.024445799279045707,-0.004499567295485071,1.3002701004363626,2.514124596330987,2,right
3.5980000000000003,-0.4834441404919086,0.480768693914514,-0.06428845851973751,0.07354677847765888,-5.155112868441852,-0.0197208864344604,0.007687594879990462,1.303000226358222,2.501664843679202,2,right
3.602,-0.4841919361656995,0.48553968085363025,-0.05939544285055593,0.20339588538769612,-5.095039966236897,0.013767895855191366,-0.0017680552485823762,1.300867327363976,2.5114050068835807,2,right
3.603,-0.486325084718661,0.4925198572717486,-0.05635139571142525,0.1251717835480756,-5.1312845372582,-0.006437868852905117,0.00329516223937003,1.302024050136351,2.5061157525669753,2,right
3.6069999999999998,-0.49295518426568063,0.502621718521071,-0.058328760876081964,0.15683235861139383,-5.116522108886604,0.0017972650906376026,0.0021540263729211253,1.3017566886700846,2.5073402641114795,2,right
3.608,-0.4992315840906718,0.5122824534166355,-0.06354280993018352,0.15757512228581955,-5.1163370769258325,0.0018889228938787084,0.0008576871588679561,1.301442111146882,2.508792524750708,2,right
3.613,-0.5011379711370424,0.5210169786204288,-0.06824497102532212,0.1405761696260007,-5.12404737867145,-0.0023959829128956307,0.0030022372488625205,1.3020046260314655,2.5061740634257377,2,right
3.614,-0.5014193216127042,0.5293109517961987,-0.07068189243444872,0.16071702866185172,-5.114795878002557,0.002755462037244263,0.0011583466127333415,1.301446654161357,2.5088098995905264,2,right
3.616,-0.5037988341151989,0.5333422073701881,-0.07113804274807772,0.1453738750293025,-5.122020022246132,-0.0012854801838146084,0.0021891824561368163,1.3018576562074504,2.506823355831838,2,right
3.617,-0.5086294847873061,0.5356747312541206,-0.07518159579017714,0.15298851764602012,-5.118090349128812,0.000949332003183115,0.0019007139594398664,1.3016484954965253,2.5078667387354945,2,right
3.622,-0.5178508406860183,0.5384077030016683,-0.08082281977056967,0.15243068621928413,-5.119048453022708,0.00033856233645813364,0.0019070123834898935,1.3016486667352574,2.5078672316994255,2,right
3.623,-0.5301151991663853,0.5396439695817745,-0.0857609045103288,0.1485303768145883,-5.1199948110753395,-9.442748583461246e-05,0.0015879492090575115,1.3018467533640807,2.506795990612472,2,right
3.627,-0.5429283403382724,0.5394213471170047,-0.08864635199051858,0.15371954670778976,-5.1182776885169545,0.0007871688804148382,0.002677648319607757,1.3014741086298873,2.5088787003457833,2,right
3.628,-0.5577340224671085,0.53956599697055,-0.08871592424520575,0.15011405089978924,-5.119951707747502,-0.000146699332130052,0.0007550616020876947,1.301964072769541,2.5060724991025314,2,right
3.6310000000000002,-0.5725137331898702,0.540795043119398,-0.09222917366326708,0.15006555057345802,-5.1187068986197275,0.0006879874347715354,0.0029781496200948854,1.3014803160452844,2.5088881341246867,2,right
3.6319999999999997,-0.586892656430869,0.5403329559301968,-0.09409778248200631,0.15465662412557207,-5.119478563096377,-6.409256060478305e-05,0.001638200155774685,1.301747519061049,2.507317470451313,2,right
3.636,-0.6013835757271628,0.539176303955194,-0.09151133794486818,0.1462298778545812,-5.119057743666545,0.0006509723977181755,0.0004599549218722316,1.301972683072954,2.505986842444372,2,right
3.637,-0.6130342252035781,0.5361694488629363,-0.09149674356995015,0.15579004006949845,-5.119238846401365,3.7578034895700667e-05,0.005683071678229856,1.3010019886115687,2.5117425549829475,2,right
3.642,-0.6226630470436799,0.5325489714450322,-0.09038125707875949,0.14987957769590235,-5.119313787955813,0.000292194201325539,-0.004066977169378984,1.3027880503467602,2.501133262754309,2,right
3.6430000000000002,-0.6302165801014511,0.5321026043451995,-0.0891190412963705,0.145986567474287,-5.118820222713783,0.0008219662564462276,0.008496698158248205,1.3005043269880838,2.514711113589911,2,right
3.647,-0.6333507955172715,0.5293093447306274,-0.09312786040071969,0.16524120692047517,-5.119950084457496,-0.0009241551534291531,-0.002011461546251746,1.3024069572520267,2.5033959429778174,2,right
3.648,-0.6359898358067414,0.526727340032183,-0.09538541492328217,0.12901018620962817,-5.118098717653653,0.002178852470571732,-0.0017293334141778006,1.3023537775926939,2.5037024979786358,2,right
3.6510000000000002,-0.6371095487939127,0.5271864864907975,-0.09542035932305391,0.17572011843046645,-5.120387246915708,-0.001756913621923333,0.018347207354645657,1.298738034279753,2.5252439249087724,2,right
3.6519999999999997,-0.6337347757604238,0.525781508479678,-0.09594319612962957,0.1366467161962116,-5.118515411544572,0.0015084341701587687,-0.031009531637867037,1.307623967369407,2.472311382451651,2,right
3.656,-0.6326371746776427,0.5230870540396275,-0.08980233991994421,0.13782219008255267,-5.118505024553011,0.0014513871961662323,0.05083745944634051,1.292894108502467,2.5600657804522093,2,right
3.657,-0.6331614769158836,0.5208359103450753,-0.0835064310876257,0.21201232033504325,-5.122235521931977,-0.0048584302459380195,-0.05712540915150515,1.3123164858424659,2.444318154136483,2,right
3.657,-0.6335726372935335,0.5209818580731633,-0.07846690280901077,0.029494592338678002,-5.113157090755736,0.010605252939661292,-0.510275850933906,1.393692365747,1.958197698135827,2,right
3.661,-0.6370293242952336,0.5182525693224048,-0.06661672169929722,0.33217647595729044,-5.128172155192862,-0.015017551812132565,-0.6182323108120591,1.4130772936170186,1.8423815301409352,2,right
3.661,-0.6402087192296491,0.5131812549194024,-0.0581907147253362,-0.06707571666697924,-5.108384984212892,0.018773156761937672,-0.5364027828126768,1.3984281570349522,1.9302886600272067,2,right
3.6660000000000004,-0.6390952931682279,0.5125294447622293,-0.06065564718703208,-1.7429280076691143,-5.025211573202839,0.16062657616830672,-0.585724863851921,1.407187095052978,1.8771060093376588,2,right
3.667,-0.6281075320007032,0.5018899991755406,-0.07454638638581684,-2.1421714332648802,-5.005436937698455,0.19441731905687615,-0.5657022110368435,1.4037305333523173,1.898975219376554,2,right
3.667,-0.6092256286538277,0.4778477163919423,-0.08340706945222846,-1.839484775267359,-5.020431854816199,0.1687981506490428,-0.5653555001586021,1.4035309828402807,1.898959814130272,2,right
3.67,-0.5981445129838386,0.4550291737812302,-0.07115315532082432,-2.0220566191803018,-5.011371588748874,0.18424880818661393,-0.5759151388983579,1.405486460947448,1.887799400929579,2,right
3.6719999999999997,-0.607960379325259,0.43608383983307486,-0.05046456071044555,-1.9477308972967904,-5.015098991001041,0.1779659384223562,-0.5633515570402228,1.4033462336432896,1.9016064298559276,2,right
3.675,-0.6390713099310602,0.42665004784453997,-0.024575152456483437,-1.9467776022269594,-5.015063141011277,0.1778688305142928,-0.573006211717594,1.404706206496091,1.890186551159541,2,right
3.676,-0.6817662058821666,0.42964913009720185,0.010975416438592811,-1.9855881385341478,-5.0132535320592275,0.18117727030256728,-0.5680027096039245,1.4044513987118539,1.8973853089168728,2,right
3.68,-0.7299095867771968,0.4416662562125153,0.05313630487228181,-1.939070399764312,-5.015447973111947,0.17721651460385063,-0.5688515370920877,1.4038141676927651,1.8942276141066043,2,right
3.681,-0.7878167833584289,0.4732122979883726,0.07084215141304874,-1.975347674079416,-5.0136968559917126,0.18029702615939838,-0.5705443876343119,1.4047475840438675,1.8942029845143589,2,right
3.687,-0.8684447239301224,0.5352271136393931,0.03732414143751295,-1.9556303312304697,-5.014770059310587,0.17864904539159332,-0.5681164002233223,1.4043170673466734,1.896823388322335,2,right
3.688,-0.9778907323452473,0.6172968958821065,-0.014491822397136127,-1.960501740032848,-5.014222534971555,0.17899460124298264,-0.5698610420839838,1.4034629379951744,1.8916283764173705,2,right
3.69,-1.1071452684530438,0.6950616359899005,-0.07674105041455502,-1.9650171099892222,-5.014524700552004,0.17949173452321288,-0.5695562353258379,1.4060761685846441,1.899550571081205,2,right
3.6910000000000003,-1.2556348552713468,0.7643347673757439,-0.15447068118987783,-1.9568603015322181,-5.014284359442862,0.17866025460945562,-0.5683996971968062,1.4018883607212373,1.8894605263205815,2,right
3.696,-1.4332907806245547,0.8618664734656177,-0.2208366208749229,-1.9646295786587096,-5.014412574423522,0.17943033837556033,-0.5703422771132598,1.4064800745353518,1.8994553181479685,2,right
3.696,-1.6576751901636806,1.0357592678435399,-0.3102710591101523,-1.9589704257460088,-5.014698628968301,0.17895238862826635,-0.5688576760296329,1.4037619544804865,1.8940690801365878,2,right
3.7,-1.9149793887851103,1.2760720694883807,-0.47070230976108324,-1.9626762007948766,-5.013560379961312,0.17905712830986034,-0.5683404067300909,1.4015557983599296,1.8886073251722024,2,right
3.701,-2.151330693499875,1.5212500959302626,-0.6849532277758292,-1.9598494728061608,-5.015880181393454,0.17929530756143652,-0.5722137934808524,1.411499996042712,1.910782342618306,2,right
3.7039999999999997,-2.2978448019787234,1.7154255413334605,-0.8648959645545012,-1.962714541335265,-5.012487797035032,0.17882553095952783,-0.5645614215758782,1.3929741701159255,1.8701624897389078,2,right
3.705,-2.2804577089400837,1.825684190404687,-0.8809649127915125,-1.9599130285129405,-5.016090076603582,0.179347750745463,-0.5745954053564054,1.4167995507608513,1.922096617724304,2,right
3.71,-2.1418670095211327,1.8635116141182453,-0.7151541785220352,-1.9611324602552853,-5.014031045824729,0.17901216610564422,-0.5661300287005181,1.396893068310812,1.8788352796892807,2,right
3.7110000000000003,-1.9043194042365013,1.823716406186168,-0.4369903111442257,-1.964157978761257,-5.0121501985633365,0.17889013247776023,-0.566434969090363,1.3974454453650549,1.879922842360795,2,right
3.715,-1.589773853363552,1.7104903096742523,-0.12241888293979843,-1.9541514167887113,-5.020204404744222,0.1796982917846491,-0.582436934932786,1.4353780691377396,1.9625683023661873,2,right
3.716,-1.2820098421047308,1.5574064339029827,0.1739915049782989,-1.9721218800938585,-5.005303926959585,0.17814974666456282,-0.5429705282066598,1.3421200608759247,1.7595855173281802,2,right
3.719,-0.9050150170081654,1.3600709538160514,0.4588526851240841,-1.9491826829832049,-5.024423164396559,0.18014978722107938,-0.608471500723583,1.4967575121817314,2.096068314241612,2,right
3.72,-0.659408663291492,1.227829363008999,0.628284786582143,-1.9682728800170097,-5.008474687854649,0.17847471464277953,-0.5220462721673518,1.2927861795760323,1.6522849236025432,2,right
3.7239999999999998,-0.6006248183467593,1.2001716001114926,0.6611796037587313,-1.9679768197554448,-5.008871757629716,0.178539217353027,-0.15925592116843515,0.43661429203179747,-0.21048970114207383,2,right
3.725,-0.37149231928387816,1.1159182111819619,0.7463501158816177,-1.9308676675004546,-5.03937409729715,0.18167214989823285,-0.07281989638607995,0.23264074080244124,-0.6542527795889257,2,right
3.725,-0.09711002489598584,1.0343857504518308,0.8146889823076154,-2.021802265255224,-4.964464613992542,0.17394750402271492,-0.13834927624620258,0.38728373068610533,-0.3178141018265893,2,right
3.7289999999999996,0.14084274102028876,1.0805299348795687,0.7257128772347456,-1.8711176504478442,-5.088627205059828,0.1867636149942844,-0.09882806613302877,0.2940155198599001,-0.5207268150888942,2,right
3.73,0.33429654382624197,1.1315622426548937,0.6442539645811257,-2.0698373238612984,-4.924895552985877,0.169855711510303,-0.11491342752005568,0.33196309707380317,-0.4381701489105111,2,right
3.734,0.38018856695814085,1.152393838809386,0.6159465033818671,-2.9045692003718058,-4.23718513529248,0.09894524938510549,-0.11512052818724561,0.3324986087367957,-0.43699955332673046,2,right
3.735,0.5497453119064613,1.2445002953908053,0.5001595302111742,-3.1032679111083024,-4.073515521795876,0.08203425968945062,-0.10673010987242712,0.31260405193282104,-0.48029346574377,2,right
3.735,0.7978152176863493,1.3635743267325662,0.3532186517124922,-2.9526059941907614,-4.1976109876551,0.09485370702329834,-0.1167710404751815,0.3364328648389153,-0.42843491415626767,2,right
3.74,0.965113764586187,1.4361432845418824,0.25733713491835175,-3.043549155453112,-4.122675988367121,0.08713034072701768,-0.10896417376310928,0.3178771341172545,-0.46882159015544744,2,right
3.741,1.138117902601619,1.459388745329833,0.19032057234300734,-3.00636489958072,-4.153400951091871,0.0902521774000977,-0.11318065905351288,0.32788387591421764,-0.4470438089994708,2,right
3.7439999999999998,1.2613944960923469,1.4096769338440818,0.1677411778618126,-3.0062305202302295,-4.153319002293063,0.09034054101424414,-0.11215875734591034,0.32558892853966487,-0.4520210562357349,2,right
3.745,1.3249771335809493,1.2922971698456098,0.1766729240004351,-3.0250888307930484,-4.138057354765132,0.0886312673625899,-0.11120261045334547,0.3229598136049986,-0.45779065123525936,2,right
3.7489999999999997,1.3266537616533118,1.1430358688930538,0.18679591533267728,-3.0023806302197174,-4.15649263688326,0.09066535178293308,-0.11285902693476528,0.3275102819427154,-0.4478050214836254,2,right
3.75,1.2376681772903373,0.9934806703209677,0.19179268812153283,-3.0202512630804312,-4.141887304640952,0.08910214200518435,-0.11138885759934383,0.32325371990017787,-0.4571708320717335,2,right
3.7539999999999996,1.0804350216554617,0.8766522361139906,0.18749399912409848,-3.0100467097104566,-4.150528758724066,0.08988101066948545,-0.11232927686428648,0.3261004578798424,-0.4508934045767745,2,right
3.7539999999999996,0.8491652515879731,0.8199363111071482,0.17659714446903543,-3.0137106459332683,-4.14675610008619,0.08985323256419692,-0.11179119757002023,0.32483653078320185,-0.45364270579013755,2,right
3.759,0.5696196057776555,0.8344830420289778,0.14660442087147219,-3.0138296983110586,-4.1479568089919185,0.089355297220577,-0.11231970830651619,0.3249184907853647,-0.4536199593022657,2,right
3.76,0.2802883398671829,0.886869049960215,0.09275052475671212,-3.012379007844239,-4.147558497125503,0.09007670308178842,-0.11140643349585341,0.32542598064030254,-0.4521597878249296,2,right
3.762,0.003971396584915604,0.9388905832169407,0.03231548165931034,-3.0141665667491893,-4.147355686760012,0.08944821377788684,-0.11283736744467839,0.3248305765331855,-0.4539868548284829,2,right
3.763,-0.23915385676290224,0.9765083922145813,-0.010287416932385848,-3.011331545481038,-4.149703661058863,0.08968477597144701,-0.11122108647125578,0.3252508052822089,-0.45250517629648646,2,right
3.7689999999999997,-0.4413621660211188,0.986632790955864,-0.020864269222193234,-3.0170338911150996,-4.14264698202233,0.09008450935601575,-0.11215414605926255,0.32500613484716223,-0.4533663762892598,2,right
3.77,-0.6070431053519042,0.9718400268149004,-0.00398393926391291,-3.0068095351516577,-4.156459073420413,0.08893276866040022,-0.1131593703095145,0.32526898469649856,-0.4530748153180846,2,right
3.772,-0.7410390104895342,0.9383125336709898,0.035007434096309166,-3.0213912586016356,-4.136408273248215,0.09070774407229251,-0.10901974255153182,0.324730837346517,-0.4530121062232495,2,right
3.773,-0.8401886764353068,0.8835298507674937,0.08564143237951338,-3.0059698843913,-4.157679691097558,0.08880538744135065,-0.11668416334148482,0.32569944012657714,-0.4531951988742188,2,right
3.778,-0.9116679739407665,0.8206427173363084,0.13570081994579636,-3.0146866633552483,-4.145551748785124,0.0899206470162317,-0.10682555855536807,0.32441510519899774,-0.45304559991968696,2,right
3.779,-0.9561669909130159,0.7589881130591963,0.1784615859882926,-3.0231674554125822,-4.134290917165287,0.09080102055876868,-0.11506423750973489,0.3255070401154835,-0.4531317742180718,2,right
3.783,-0.9891437649711546,0.7095018856886739,0.20302603432625577,-2.9876277819028436,-4.182254390762422,0.08681657779270632,-0.11486098651857793,0.3255233853956237,-0.45301993770999466,2,right
3.784,-1.027424977507431,0.6859447265750986,0.21065204331819443,-3.053258512329384,-4.093543215780064,0.09422835834821555,-0.09906458967546727,0.323237878605368,-0.45332126411623824,2,right
3.7880000000000003,-1.0703567511621972,0.6827812239937885,0.20336456309457412,-2.969038797365843,-4.207400236747764,0.08470774586841343,-0.13787706437621727,0.3288257584967738,-0.45266459599925635,2,right
3.7889999999999997,-1.142180188790852,0.7066592631090416,0.17674606051581643,-3.039340500002927,-4.112366703332412,0.092655344508182,-0.0735204770418161,0.31955095017792595,-0.4537599933515572,2,right
3.793,-1.2016854858085957,0.7292393033452538,0.15370168725277672,-3.037498566435649,-4.114859856077361,0.09243840979990844,-0.1584138011285539,0.3318026613814906,-0.4522903008716327,2,right
3.7939999999999996,-1.2198426404192841,0.7326894650664376,0.14722572276778784,-2.9032123100681426,-4.296332626941922,0.07729589074648249,-0.5147829591581612,0.38328922795399173,-0.4458195656015008,2,right
3.795,-1.2789385030441052,0.7496933354539019,0.12659643776517415,-3.2332335926560747,-3.8503845051942016,0.11451077680059357,-0.5996875707699892,0.395569070185361,-0.4443136609307311,2,right
3.798,-1.3729998539068582,0.7423012985341535,0.08268808578120918,-2.6860124010464093,-4.589767865314125,0.05281457133514902,-0.5353148456025835,0.3862545668580514,-0.4454683824353785,2,right
3.8,-1.4194989621203051,0.7164538319539655,0.05650094813059971,-3.4078539142176494,-3.6145205703890166,0.13418131698714927,-0.5741365796498121,0.39186366684673235,-0.4447552616566507,2,right
3.802,-1.4336970196528653,0.7056998471910765,0.04816159603387386,-6.437209625140762,0.47911365423413543,0.4758244243201998,-0.558352027814981,0.3896115072979617,-0.44507372911222964,2,right
3.803,-1.4671399823773892,0.6539725649144774,0.014155716858282038,-7.159168267091641,1.4543831670645968,0.5571727252061407,-0.5581041408898482,0.38951093255395386,-0.4450232860435653,2,right
3.803,-1.493592252714079,0.5753472251444982,-0.030279101336921372,-6.611820344982762,0.7149757679174581,0.49549648089498066,-0.5664221508533323,0.39080667125100077,-0.4449427522656515,2,right
3.8089999999999997,-1.4828053172529865,0.5103832718251167,-0.0593093868323093,-6.941793446917718,1.1609147496458225,0.5327189387011811,-0.5564653966223758,0.38927421537329865,-0.44505744672328695,2,right
3.81,-1.4532109378672717,0.46129378203320337,-0.07908264634320589,-6.807927516085028,0.9795217109404529,0.517510261073644,-0.5642077342219538,0.39043377062005624,-0.4449439761409243,2,right
3.8110000000000004,-1.4080916347573216,0.4506476965767705,-0.08478694394498404,-6.805181175993732,0.9768570010254951,0.5174356998155772,-0.5600704295030507,0.38991536933683507,-0.44507491736586086,2,right
3.812,-1.346046495151789,0.4776775547320469,-0.076429374674003,-6.876779632540092,1.07213651530411,0.5251791438611324,-0.560927180934754,0.3897820567626391,-0.4448830945638932,2,right
3.8169999999999997,-1.268551073619924,0.5388141633104703,-0.05548446240266102,-6.791268598241642,0.9580345453688195,0.5158618516785342,-0.562196093017658,0.39040875330571384,-0.44516175075847264,2,right
3.818,-1.1783644416928545,0.6325257124752475,-0.027045083775895665,-6.857456551876479,1.0468514175377872,0.5231858570009732,-0.5600826722772385,0.3895591889836001,-0.4448310259325917,2,right
3.821,-1.085680989741967,0.7415942192602463,-0.005669993453731351,-6.8230256507451,0.9990982701078133,0.5190269273765401,-0.5620368396138832,0.3902754216537332,-0.44508931729306417,2,right
3.822,-0.9828307819627442,0.8577723164849045,0.00015556096279247173,-6.827934613098899,1.0096815587097183,0.5204695544421847,-0.5608361924900123,0.3901057725257495,-0.44511384946214905,2,right
3.827,-0.8684331085713104,0.9737746515340114,-0.022482302816702982,-6.842805897951286,1.022976949563037,0.5206159239074428,-0.5610635459265872,0.3893336086755783,-0.44456488472071676,2,right
3.8280000000000003,-0.7466709874906245,1.0833442381827796,-0.07259339351456642,-6.819831302809326,1.0002727653376633,0.5199027484540586,-0.5617436352300424,0.3912715792587773,-0.44579727141093917,2,right
3.832,-0.608287730149569,1.180886232128052,-0.12241788210128167,-6.840434965741139,1.0214658572275204,0.5207294869426606,-0.5604416826529421,0.3883390031864762,-0.4439641988023708,2,right
3.833,-0.45838960125438927,1.2574459268378426,-0.15196990342562933,-6.8302639370710185,1.0076638968434422,0.5195696739321585,-0.5618831797871563,0.3914728011593314,-0.4459172538496415,2,right
3.8369999999999997,-0.3037166876168562,1.3109150442842348,-0.16134714551947654,-6.824791928983327,1.0126008958114352,0.5217282174712875,-0.5609656611460316,0.3896501373812958,-0.4447902359925304,2,right
3.838,-0.15232160672657802,1.337089859582228,-0.15263599869678035,-6.847494635227555,1.0150971836634217,0.5179446277301512,-0.5605936623002924,0.38813861781649217,-0.4438114972378625,2,right
3.841,-0.022664113986340426,1.3344992816868368,-0.1268855922625346,-6.811183561562174,1.0080730710478019,0.5233141019486587,-0.5629076094892702,0.3948510131026488,-0.44808321198279616,2,right
3.842,0.07761960737622528,1.3118080269875216,-0.09567148534646011,-6.850347524829477,1.016175541971771,0.5176408617119644,-0.5584923804155292,0.3823856807328345,-0.4401632186189948,2,right
3.846,0.141114394620217,1.2721508190427704,-0.07179819781173546,-6.826998684228629,1.0105232755168256,0.5208388600462786,-0.5641898416408728,0.3983950256474978,-0.450332716401689,2,right
3.847,0.17324295088181305,1.2233354000805554,-0.05272536876813047,-6.810434733578181,1.0104588161901464,0.5239936405590481,-0.5594215525000394,0.3850291566637398,-0.4418423441116148,2,right
3.852,0.17320499132136677,1.1759070640100677,-0.03483438082817164,-6.888761374293344,1.0186109275555344,0.5108368949196919,-0.5595949774168782,0.3853944102379553,-0.4420727790349763,2,right
3.853,0.14158145253349674,1.1331948443800335,-0.021119657788275115,-6.742448179783025,1.0020722045864658,0.5351204314638733,-0.5685426509081732,0.4108667048703668,-0.45826129198117965,2,right
3.8560000000000003,0.08981014985244704,1.0989279171225834,-0.006645331050882163,-6.930561924756022,1.023627640801673,0.5039630292058674,-0.5464971472820286,0.348256894540643,-0.4184701120201493,2,right
3.8569999999999998,0.005214949097955966,1.071709144046768,0.008663509531416588,-6.77341272173936,1.0055026925305184,0.5299680819521126,-0.5830643027410253,0.45206512950747246,-0.4844472850613298,2,right
3.861,-0.06327595101319347,1.0573813655392206,0.015567998803477232,-6.778048955441529,1.0064891334726185,0.5292960481999962,-0.5348301866105489,0.31514517248995366,-0.39742238249821166,2,right
3.862,-0.08566183645505461,1.0556856037243292,0.017003029127024213,-7.076459525617169,1.0394236898283657,0.47959685554998677,-0.3324679962441587,-0.25964521825155346,-0.032177537053030614,2,right
3.863,-0.15406131580123295,1.046687854205496,0.01798678886718993,-6.342538102463255,0.9578896941709593,0.6017218962783202,-0.28424083558925395,-0.3965672489256995,0.054845890361349944,2,right
3.865,-0.2852984111935405,1.0326272131560774,0.018115897348930425,-7.559549646997201,1.0932282505862747,0.39923098590106054,-0.3207954792924358,-0.2927468660437585,-0.01112426002310521,2,right
3.866,-0.36457966411847376,1.0281428276961857,0.019104193647653703,-5.954283482067355,0.9147043867516896,0.6663291603071148,-0.2987647754451535,-0.35539090456186817,0.02864830564168984,2,right
3.8710000000000004,-0.38920426867706415,1.0269686695195213,0.02046971555983739,0.7829838478616542,0.1660771170765583,1.787361491670425,-0.30770099953511015,-0.32985372814244673,0.012494125165052015,2,right
3.8710000000000004,-0.4756660848572981,1.020349362180364,0.02101967072186465,2.388248838243844,-0.012387329119526773,2.0544896957196075,-0.3078747340765316,-0.3295797592290214,0.012216292542425549,2,right
3.872,-0.5943197108222188,1.0118921103559648,0.020390211239934564,1.1712385620613888,0.12288694237523819,1.8519662967377108,-0.30312547600876916,-0.34285342737662416,0.02075342900346307,2,right
3.877,-0.6802009551040555,1.0047073590470454,0.022526566028952533,1.9051604771490747,0.041328492929374044,1.9740789751329846,-0.30877966019175096,-0.32688757685160663,0.010563837746087053,2,right
3.878,-0.7649613281579213,0.9930780533324031,0.02789396797457016,1.6067456739060615,0.07447629972918175,1.9244875661568313,-0.3044282768721563,-0.33942386750358866,0.01844334015122438,2,right
3.88,-0.8364064175245065,0.9768104985158359,0.03332491456152693,1.6021185363128583,0.07500391090371869,1.9235836296798265,-0.3066752984677412,-0.33246737484905775,0.014302158247210912,2,right
3.8810000000000002,-0.8845454932015507,0.9594535483146538,0.04308196097089071,1.7592547068584312,0.057536827024353865,1.9499211779067163,-0.3063398143255759,-0.3344095136737427,0.01505529658598441,2,right
3.886,-0.922475927188319,0.9380377774891211,0.056568249658587075,1.5711539276355553,0.07843717308706066,1.9184326869999242,-0.3054610420518693,-0.33569213343243554,0.01646039448220575,2,right
3.886,-0.9416110681789164,0.9161805694738206,0.07352424478849004,1.717461549710419,0.062181099190493014,1.9428590683086806,-0.3067470149092685,-0.3330066403537689,0.014283571569532753,2,right
3.889,-0.9431092961138965,0.9019278377388854,0.09342064546649387,1.6391237243531214,0.07089576765580081,1.92998666430851,-0.30573038020168053,-0.3359022460960407,0.01611947230545356,2,right
3.89,-0.9294305085159568,0.8968142796034275,0.11036931846401923,1.6557236164132412,0.06901919804234055,1.932225557341528,-0.3060415731706045,-0.33322616305238184,0.01529134511099426,2,right
3.8960000000000004,-0.9017447451190375,0.8983026588371668,0.12236594994699868,1.6790105780922104,0.0664892492129687,1.9370016363096,-0.30659169143591064,-0.33575972256833475,0.014907576171551687,2,right
3.897,-0.8565199343471442,0.9040264647778102,0.11987217257177807,1.6399225030754039,0.07075987955735472,1.9293917293790097,-0.30532685875998733,-0.3332416388717052,0.016281750656618077,2,right
3.9,-0.7921290584335934,0.9140746724825647,0.10740678664639478,1.6761731536858184,0.06679065594758243,1.9363051569205154,-0.3068377141832026,-0.33546432679479193,0.014523480441865322,2,right
3.9010000000000002,-0.7179101453869545,0.9258312661175694,0.10304380158267872,1.6534697277772976,0.06931425858742377,1.9325354434969626,-0.30585573776709163,-0.3344896253131548,0.01573617633548119,2,right
3.906,-0.6362092500165498,0.9362183341749255,0.0991204907403832,1.6590542807197917,0.06858198231691465,1.9318285487931024,-0.3053482060005883,-0.3326869573923429,0.016169770052996392,2,right
3.907,-0.551344833702514,0.943599950096983,0.08941490506421343,1.668968435718929,0.06773603654503736,1.937217002312239,-0.30819472476406307,-0.3388006392397577,0.013143446774718386,2,right
3.911,-0.47088006101598967,0.9478162295274198,0.08000719293753678,1.6487477229736118,0.06960099127092004,1.9282749617978057,-0.30276807668510025,-0.3278823207248833,0.01902254887229824,2,right
3.912,-0.39670367029424414,0.9516949350374845,0.0715198577480067,1.6713144071462782,0.06750090071740644,1.9379753277386913,-0.3097894380208707,-0.34175071470499374,0.011377232460518999,2,right
3.9139999999999997,-0.33297154749539204,0.9537402815519616,0.06943093359492944,1.6566782581572497,0.06889166635073235,1.932105186035843,-0.3039050835294961,-0.3302366653388133,0.017800797972593325,2,right
3.915,-0.2782577088889996,0.9582897260821649,0.06815148062318437,1.6519737364284959,0.06921138784240854,1.9283599845918704,-0.30409921468681345,-0.3304496557377957,0.017563724835049276,2,right
3.92,-0.23174448043930376,0.9662744186383101,0.06484714125717644,1.685513582600567,0.06637341590422105,1.9469024464072853,-0.3152268104293566,-0.3526669781430502,0.00548322321847897,2,right
3.92,-0.1960523258705315,0.9731890962403686,0.06526093035937722,1.6209765719375313,0.07189590725107575,1.9121277284301692,-0.2878260003865202,-0.29820233350405334,0.03526745016234387,2,right
3.925,-0.1667737201882496,0.9889903608717396,0.056268197778434316,1.7043692318354102,0.06474676491758591,1.956866060504778,-0.33327704952127957,-0.3884531138047111,-0.014151411034341595,2,right
3.925,-0.14921661024394137,1.0028856571242395,0.04603591239078961,1.6345370742021237,0.07073849853767179,1.9194828728390183,-0.2733200860939394,-0.269432686318955,0.051045479800747036,2,right
3.93,-0.1457283937380927,1.0061220486183406,0.043124170490182134,1.6372407659400912,0.07048643293513521,1.9206258898252568,-0.02168032421681916,0.23023317837769264,0.32465340066918896,2,right
3.93,-0.1388917430708744,1.017906637397513,0.031999830312865275,1.7677263581877702,0.05935697672083828,1.9914736951317074,0.0382789842647713,0.349249369964181,0.38985588871279053,2,right
3.931,-0.13259529199620698,1.0314579148261085,0.02016879467983068,1.4460512636564054,0.08681710365855017,1.817187857548292,-0.0071791823734623054,0.25901501500738766,0.3404220480354338,2,right
3.9339999999999997,-0.1460851002331418,1.038788500572565,0.009107901497079154,1.9796486568437603,0.041260602792172967,2.1061955199454316,0.020236886263605997,0.31343945667875117,0.3702355796182326,2,right
3.935,-0.16137098339071237,1.0446197050274764,0.00041928045410243335,1.2758188627712277,0.10135031594774452,1.7250008766421407,0.009084260185024933,0.2912934079172942,0.3581100030788713,2,right
3.9389999999999996,-0.1662411373122262,1.045137084230503,-0.0013924626338586744,-1.6773510876697684,0.35345400618893924,0.1250882188475539,0.008921640681365098,0.2909848343047219,0.35792638166939983,2,right
3.94,-0.18546428906403878,1.0460275339321448,-0.015181702534538571,-2.381077443949345,0.4135295550787356,-0.2560692545437981,0.01477870298855655,0.30258967846206053,0.36430816117127574,2,right
3.9410000000000003,-0.21982909403815576,1.0487654369375843,-0.03745489190322363,-1.8475915942746113,0.36798962629268056,0.03288864873707558,0.007762173657080116,0.2886886450856716,0.3566609199642937,2,right
3.944,-0.25555050831455955,1.05158547252497,-0.061077061949139005,-2.169310561253296,0.39545116387401313,-0.1413786800386066,0.013228231458021768,0.29951376405199126,0.362621696077682,2,right
3.945,-0.29687399429063155,1.0579006986089028,-0.08370475513748499,-2.0384510460007497,0.38427998167054955,-0.0704671664471267,0.010281949395289052,0.293675315416199,0.35941074147972896,2,right
3.949,-0.3460724839652352,1.0666284737495992,-0.09252879290045803,-2.0365500942779615,0.3841237794154774,-0.0695077835856086,0.01094635537762817,0.2950166673761672,0.36011860864032985,2,right
3.95,-0.40080215896093585,1.077543067498813,-0.09406162295744276,-2.10523272879649,0.3899731928753194,-0.10659040131626595,0.011751413988234517,0.2965447925740956,0.361040654327778,2,right
3.9530000000000003,-0.4569298612585549,1.088088224300562,-0.09417774689079939,-2.0229829512514392,0.3829718570995915,-0.062197937744192106,0.010358506291671008,0.29389934050990396,0.3594458709675963,2,right
3.9539999999999997,-0.5097948682017737,1.0926693331896784,-0.09926957159857441,-2.087030177217101,0.3884192716946844,-0.09673694816634122,0.01167747771528798,0.29637134339808013,0.3609783688525677,2,right
3.9589999999999996,-0.5572600646929518,1.0922946934691051,-0.11274093557904985,-2.052501209890355,0.38548041786288345,-0.07809674583260358,0.010786705786276864,0.29471947808818494,0.3599314411221114,2,right
3.96,-0.5999748002099763,1.0899930650614063,-0.12304406720382062,-2.0603786910278608,0.386169905089207,-0.08249957380991796,0.011157724195606756,0.2954571765495536,0.360334216006997,2,right
3.965,-0.6385158342283945,1.0827201691889456,-0.13231316611178165,-2.069555233289184,0.3868981214640912,-0.08704203263332039,0.011233843008068494,0.29539206740842405,0.36056219044633486,2,right
3.966,-0.6688754031826469,1.0721990073512728,-0.14201903318686027,-2.0536808550258323,0.385638140978281,-0.07917763398875395,0.010855699195236771,0.29513525373864363,0.3598191173104518,2,right
3.968,-0.690328588819774,1.0631025975037283,-0.14900997622034334,-2.0685780873599797,0.38679300251856435,-0.08634745646988243,0.011372286284053082,0.295424140376678,0.36087601423922366,2,right
3.969,-0.7067958211573506,1.0543543527116876,-0.15172710144658208,-2.058588990605033,0.3860335175603564,-0.08165321067339149,0.010884631550652314,0.29524125662273937,0.3598178025044412,2,right
3.9730000000000003,-0.7195315915027842,1.0455169066629098,-0.14799434000741424,-2.0629464883523,0.38640616163510244,-0.08402038240154577,0.011166977067117667,0.2953481030478157,0.36043002466185126,2,right
3.9739999999999998,-0.7246061436813138,1.0366244139143714,-0.1424306743669348,-2.0629789251813087,0.38623628013884004,-0.08270744920737272,0.011270998758278267,0.2951635064131102,0.36080572351654727,2,right
3.978,-0.7245924716199591,1.0311633912910134,-0.136060869657469,-2.0605096789390887,0.3864203529262943,-0.08440992582290667,0.010635572922694889,0.2956136145335174,0.3589645021296477,2,right
3.9789999999999996,-0.723817592049878,1.0328781607991246,-0.13182115737557407,-2.063635057755908,0.386097854732786,-0.08156780808407166,0.011822709708263704,0.29479625515364893,0.36238901045932126,2,right
3.983,-0.7144963832200842,1.039606078861319,-0.1302472863796716,-2.061043125883966,0.3865050700195083,-0.08499851362356778,0.010310211131399996,0.29586928063151874,0.35800418978842363,2,right
3.983,-0.7023773548084262,1.0497161176594947,-0.12923306058056477,-2.0625479150731802,0.3862699397948478,-0.08301953969281595,0.01156725692349797,0.2949622210719661,0.3616594075629248,2,right
3.988,-0.6856277318678048,1.064329672680805,-0.1332889407193114,-2.0622081498516005,0.3859289312363172,-0.08042889740398101,0.011519455193316631,0.2949594438272731,0.3615437948398216,2,right
3.989,-0.6599516359244728,1.079769950371362,-0.14338862481219028,-2.061577747466787,0.3872435774868816,-0.09062398151274634,0.00918296295578776,0.2968089423954917,0.35464390906823123,2,right
3.992,-0.6353970919869618,1.0926041329603224,-0.15248248716618196,-2.0628506276387317,0.3848131741076578,-0.07177154370359053,0.014935123354056995,0.2922816186084721,0.3716164282892229,2,right
3.9930000000000003,-0.5941626341080775,1.1078798528537388,-0.14890539518242207,-2.0613537190162914,0.38794690203842097,-0.09605533827370699,0.0054000645260598445,0.2997926909418971,0.3434755021988911,2,right
3.9989999999999997,-0.5628933237081487,1.1194791974325193,-0.14090291397830065,-2.062539285606244,0.38532342858508084,-0.07574449409128631,0.017972231197718878,0.28987662098100936,0.38058997773227654,2,right
4.0,-0.5534856993604454,1.1213372716064185,-0.13920640520706656,-2.06233981182693,0.3853843402901373,-0.07621008727167938,0.07072928559721357,0.24822638626533478,0.536311801014778,2,right
4.0,-0.5164541195014567,1.1243867200741704,-0.13334458820628692,-2.0608025747349394,0.39043848027359873,-0.11531498617311717,0.0832965643622276,0.23830066309840922,0.5734191223502558,2,right
4.003,-0.4723591399566244,1.1262885607393733,-0.12207732176532027,-2.0647013932465548,0.37801782229175807,-0.01925199547767236,0.0737668621237872,0.24582214656284465,0.5452923594964953,2,right
4.003,-0.4291947716082936,1.1200970033682411,-0.10944010926264086,-2.0582570314038557,0.3986199903914638,-0.17854970850673477,0.07952079233591455,0.24129891195301545,0.5622450726946467,2,right
4.01,-0.3942649972816158,1.1160565080391656,-0.10038832566342837,-2.066708062864274,0.3714351659224179,0.031599850854869,0.07716725586607973,0.24311352511857448,0.5553664124972625,2,right
4.011,-0.38698742159417965,1.1145736068739591,-0.09961553833271027,-2.1018125803048813,0.25736998396179045,0.9137836130975854,0.0771564597579375,0.24318564746399374,0.5552364632447866,2,right
4.011,-0.3546934218116548,1.10671705954202,-0.10013389216011467,-2.110190130214549,0.23016800354311798,1.1239901741513214,0.07836018018454077,0.24217132506884456,0.5588871507942526,2,right
4.012,-0.3094577458674439,1.0974169530833051,-0.10152180980656608,-2.1038572340744777,0.25079146392092166,0.9646134812371663,0.076901116564392,0.24335100357425465,0.5545381766715555,2,right
4.013,-0.2833874226627535,1.0895059733479862,-0.10317772005018852,-2.10767307451827,0.2383681934389612,1.0607143206164888,0.07806457545424181,0.2424879166249008,0.5578890277737931,2,right
4.018,-0.2526079274356836,1.0816448552645128,-0.09882702581902614,-2.106105524584773,0.24338070265759,1.0216876090166018,0.07738469969909004,0.24284577493546033,0.5561511112343931,2,right
4.019,-0.22368645963365918,1.0754590026593838,-0.09437337878353733,-2.106127202520915,0.24354450936533378,1.0209693521913614,0.07763436844537874,0.24295718007422695,0.5564247085326068,2,right
4.022,-0.20115983579990326,1.0676056959521714,-0.09561844564929112,-2.1068708391168176,0.24076283993497102,1.041710065663394,0.07766437119252029,0.24255468304938665,0.5570819098523485,2,right
4.023,-0.1787621919788131,1.0593959569564313,-0.09351467336179967,-2.1059699500063322,0.24406742087916214,1.016913766556109,0.07748785619308057,0.2429961275599964,0.5561075483033999,2,right
4.0280000000000005,-0.1633373843172826,1.0506145500069533,-0.0825131241408259,-2.106696050106334,0.24153855618515524,1.0361441596000605,0.07775425951659135,0.2427884925897536,0.5568898790927073,2,right
4.0280000000000005,-0.1572654011419298,1.0384052419019336,-0.07518730308135367,-2.106221197752437,0.24276350173202038,1.0260278036864876,0.07737870541504405,0.24252427821949873,0.5566225197960948,2,right
4.032,-0.1582992530370126,1.0279607391112726,-0.08150026556342262,-2.106528384436804,0.24280951972201745,1.0277432035783989,0.07790819965055916,0.24338772330220423,0.5562630837542053,2,right
4.033,-0.16570484073943414,1.018203976914445,-0.09052511131313828,-2.106266815994519,0.2418518575355825,1.0315831061849043,0.07723405602992695,0.24200814508136434,0.5571410169436797,2,right
4.038,-0.1780705827587767,1.0038798357368122,-0.08974015225952137,-2.1065344795601093,0.24320490390450403,1.0254939578887532,0.07791034619202741,0.24351229264315752,0.5560801122988668,2,right
4.039,-0.19165194601069674,0.988597549506624,-0.0839737288006075,-2.1063468409903994,0.24204007644556094,1.0310149823306314,0.07754800375438611,0.2426207437357904,0.5567769050422189,2,right
4.042,-0.2060227787672099,0.9751538073094858,-0.07857009081044752,-2.1062259927170848,0.2424197884397876,1.028048769499326,0.07714728483062856,0.24192198088685668,0.5571169789683486,2,right
4.043,-0.22142918820353752,0.9609939143430564,-0.07331757549585102,-2.1069524013041505,0.24334710304871063,1.027343681022272,0.07873798580640846,0.24510885040756994,0.5551479809700194,2,right
4.046,-0.23785924917576634,0.9502157429911046,-0.07273463938588942,-2.1054089864266916,0.24084366275456345,1.03192484441445,0.07582654494965474,0.23916832773874278,0.5589130013037628,2,right
4.047,-0.25474432229395944,0.9469525357585371,-0.07482942852635077,-2.107684207553832,0.244670511213909,1.0243791614672237,0.0795510736950851,0.24680724758739941,0.5540377218387226,2,right
4.051,-0.26953630153318076,0.9469960407469362,-0.07463582801867077,-2.105263082456551,0.24057364160030292,1.032555619435754,0.07644755490331605,0.24042520801393957,0.5581249469409695,2,right
