time,gFx,gFy,gFz,ax,ay,az,wx,wy,wz,subject_number,foot
1.744,-0.11627523780318672,0.9836206104821409,-0.10681897301632254,0.0721816307222893,-0.002076989533905325,-0.0030282565565075328,-0.005905009978817977,-0.023251924948369904,0.010423447994441646,3,right
1.749,-0.11615274228547712,0.9842771085264506,-0.10858952720992104,0.07993732597980283,-0.0021341929934970702,-0.002212000577336417,-0.00602087985913222,-0.022821524780768848,0.009906456369427406,3,right
1.749,-0.11356375534474397,0.9846823322011613,-0.11077633856852248,0.06970676603618174,-0.002058774937345828,-0.0032884495208753556,-0.006022757992335744,-0.022817431309240948,0.009899278265428163,3,right
1.75,-0.11342925272473313,0.9852903202079057,-0.11072016508981225,0.02679298402186948,-0.001741227257278004,-0.0078115797313792305,-0.005961676748487181,-0.023040441976128798,0.010170193971232769,3,right
1.754,-0.11492972274772437,0.9860037503311233,-0.11019601782442143,0.016563853327911292,-0.0016657739370889283,-0.008888114770969464,-0.006034664726547984,-0.0227718086554685,0.009845566702869537,3,right
1.754,-0.11312257017448049,0.9857522808653049,-0.1141687619175572,0.024315208762949476,-0.0017231413867173358,-0.008070962525724461,-0.005978097530604371,-0.022983327567992,0.010098562156062665,3,right
1.76,-0.11320053591259471,0.9858098105138453,-0.11782885406729507,0.019648370227454137,-0.0016881849159934978,-0.008566034387666165,-0.006008070270313203,-0.02286483540434185,0.00996179600691429,3,right
1.76,-0.11355300288882453,0.9854469935555048,-0.11855438551683468,0.021532704174161078,-0.0017030459926895085,-0.008360574338195837,-0.0060021725513223914,-0.022899863715445196,0.00999366325449663,3,right
1.764,-0.11246524173344041,0.9833515420439413,-0.11971844566386271,0.02158474328017913,-0.0017021298996302582,-0.00836480394915206,-0.005992713793567446,-0.02291861222507939,0.010028933720796215,3,right
1.765,-0.11525716334321401,0.9825967740822682,-0.11925082193952515,0.02056255518650732,-0.0016958512013598272,-0.008462940507052189,-0.00600782816241971,-0.02287566153273228,0.009967076607506304,3,right
1.7690000000000001,-0.11611537594340003,0.9822260117221085,-0.11851317507142779,0.021768071586330658,-0.001704216418778293,-0.008340024788182316,-0.0059946657193867495,-0.022924440499342284,0.010025760395750868,3,right
1.7690000000000001,-0.11446527290323127,0.9811599303726735,-0.11991879416491302,0.02085815859925776,-0.0016964017555294443,-0.008444039950990334,-0.006001504619430977,-0.022875168336242792,0.009985139566867855,3,right
1.7730000000000001,-0.11772124881315019,0.9815492050761156,-0.1213375352306615,0.021293293514211623,-0.0017031130998137385,-0.008372007536480933,-0.006002189897384703,-0.022927450616944962,0.010005294255034592,3,right
1.774,-0.12035612669364829,0.9813650589750325,-0.12391777357494996,0.021293409766372055,-0.0016971004750630956,-0.008417073569220872,-0.005995422596776276,-0.022870698337848355,0.01000082059633842,3,right
1.778,-0.12054440077189393,0.9816678714795865,-0.12661780477072487,0.021019617775560308,-0.0017024513505449015,-0.008390621297603984,-0.006004738154675076,-0.022923423505999234,0.009996226044896795,3,right
1.7790000000000001,-0.12152022037905703,0.9837690926838735,-0.12416811531222673,0.021362035999917272,-0.0016991057703350187,-0.008398628955140548,-0.0059979476364198266,-0.022898171805300543,0.010005156905475966,3,right
1.784,-0.11984898830199565,0.9835391638814349,-0.12069822864764632,0.02114703631020881,-0.0016974623108831262,-0.008421650132933894,-0.005996471470692282,-0.02286019769845392,0.009993342852064605,3,right
1.784,-0.11910998337406078,0.9829604431592657,-0.12209717024127086,0.02108375036322048,-0.0017079014404374811,-0.00834658182191475,-0.006011006231240668,-0.022996490344323224,0.010009051470108513,3,right
1.7890000000000001,-0.12125057382802638,0.9836892285946207,-0.12366445282852566,0.02149590177655816,-0.0016860265066215292,-0.008489987956502767,-0.005982145855364697,-0.02275079943826399,0.009988419217813974,3,right
1.7890000000000001,-0.12114497407372139,0.9843704409615732,-0.1235751994040311,0.020786813978575926,-0.001717960470091346,-0.008285946834230805,-0.006019887604196602,-0.023063731439352107,0.010011855918924692,3,right
1.794,-0.12099468027141969,0.9860697278819762,-0.12432453548001339,0.021577232189998942,-0.00168417653987322,-0.008499865100211008,-0.005988095113867076,-0.022803557449130086,0.009993569525597533,3,right
1.795,-0.12155466136753144,0.9857156147620555,-0.12591097816245989,0.021097324639668825,-0.0017035203660407416,-0.008378632396452486,-0.005989387725742935,-0.022808938535658664,0.009992104367320807,3,right
1.798,-0.12059336212227328,0.9846290751874497,-0.12782442837062527,0.020755789808480477,-0.0017207439433267586,-0.008266763708242348,-0.0060488554437829675,-0.023309454756164256,0.010032197574396957,3,right
1.798,-0.12235120552742985,0.9863317250875574,-0.12698140068526972,0.022383697556045034,-0.0016463824481064986,-0.00874282323018483,-0.0059020764776004314,-0.022081651345416918,0.009936464536564885,3,right
1.8019999999999998,-0.12593369819984473,0.9868946565912742,-0.12285038607074243,0.01933315204670359,-0.0017840396015746125,-0.00786308443482564,-0.006145660022537457,-0.024116495240085196,0.010094166843695351,3,right
1.8019999999999998,-0.12684497124019956,0.9868770548463454,-0.12029833966965277,0.023261742041202772,-0.001607379744942961,-0.00899170426918824,-0.005824316605489448,-0.021432880712146506,0.009886483286705978,3,right
1.808,-0.12788853085588525,0.9876654206309148,-0.12045522836145588,0.019976815301377463,-0.0017548068277493968,-0.008049710805007226,-0.004475662652774619,-0.010167111892257033,0.009013561998562038,3,right
1.808,-0.12981353233206455,0.9857901995602656,-0.11861553491163622,0.02007395169634671,-0.0017509218907705388,-0.0080750555621254,-0.004154382708494146,-0.007483565496016675,0.008805765372003525,3,right
1.8090000000000002,-0.1325978661432389,0.9840168597265757,-0.11535850232246488,0.026315994394664588,-0.0014695412826759857,-0.009871814274503222,-0.004397911668888852,-0.00951813776569234,0.008963445475992527,3,right
1.8130000000000002,-0.13601038950143474,0.982758793486053,-0.11533807425652094,0.010961418834027572,-0.0021609584123102304,-0.005455461011372077,-0.004251056680779788,-0.008291007324974892,0.008868270920068767,3,right
1.8130000000000002,-0.13666340588754838,0.979761789790326,-0.11600262252092261,0.036425359174473475,-0.0010146653254732808,-0.01277850999029053,-0.004310855076233909,-0.008790322870457898,0.008906902888216401,3,right
1.817,-0.13654076099369478,0.9795991363148944,-0.11480212477012372,0.0028357423538882195,-0.0025265305060793446,-0.003118635573851113,-0.004311504922083967,-0.00879732188598739,0.00890787667508149,3,right
1.818,-0.13634097093929837,0.9804161816701821,-0.11505888318990679,-0.13813500538404183,-0.008873510128919125,0.03741813207080778,-0.0042805790084042075,-0.00853560108385057,0.008886657823922322,3,right
1.818,-0.13562607811892002,0.9804300546220394,-0.1163064403243064,-0.17172718039131915,-0.010385243355303254,0.047079603852175134,-0.0043175265415995746,-0.008849107875124029,0.008912309559598538,3,right
1.8230000000000002,-0.13560555645268443,0.9825955956487353,-0.11542202960146764,-0.14625962165994297,-0.009239099352659309,0.039754916318717914,-0.004288881276199277,-0.008604961876842801,0.008892030822748375,3,right
1.824,-0.13534609538311043,0.9832165051726067,-0.11511653018006417,-0.16161615739203475,-0.009930548400811607,0.04417029459284814,-0.00430439197243704,-0.008736629629842261,0.00890282060489843,3,right
1.829,-0.13510436402044865,0.9828928917256551,-0.11452188396682314,-0.15537708443036352,-0.009648740363391632,0.04237992356199244,-0.004300277832594696,-0.008706446162695291,0.008901661259185588,3,right
1.83,-0.1322848197437607,0.9827187573974364,-0.1115419644448383,-0.1552694087735824,-0.009645805917084901,0.042341272444292394,-0.00429774536008247,-0.008671805883932827,0.008895180560639319,3,right
1.8319999999999999,-0.1282356801125591,0.9803333602057211,-0.11216957793789374,-0.15857276880753363,-0.009791845512313263,0.04330199422835064,-0.004302140645831955,-0.008731767770718712,0.008906369328187908,3,right
1.8319999999999999,-0.12666563551939147,0.9811272693235754,-0.11489951189056344,-0.154621673454219,-0.00961659812733981,0.04215516245403639,-0.004298839115000223,-0.008675648955771834,0.008893991202085592,3,right
1.838,-0.12331671260015988,0.9839428186713994,-0.11609515603586926,-0.15768963533043862,-0.00975358858730434,0.04304194683648514,-0.004300608388213869,-0.008713194925480075,0.008903300486190924,3,right
1.839,-0.11938495714129044,0.9835313447912183,-0.11827095700085968,-0.15606329740307873,-0.009678146076226395,0.04258339837623573,-0.004298597259169608,-0.008696571196405524,0.008902075637251275,3,right
1.8419999999999999,-0.11725756581219368,0.9850325716642455,-0.11811550126133927,-0.15636922871391296,-0.009699078803134024,0.042642080120691435,-0.0043037550482914536,-0.008697466321396197,0.008890252233525112,3,right
1.8430000000000002,-0.11416010364611567,0.9871131883136062,-0.11631305595399961,-0.15692782465450344,-0.00971190279494342,0.04285312748737848,-0.004293055083825027,-0.008704553720038883,0.008917969988380726,3,right
1.8459999999999999,-0.1132170557043608,0.9860908361023234,-0.11726412995715907,-0.15602241764056057,-0.009686257145345403,0.04253092628825787,-0.004309278120261023,-0.008696114985993212,0.008876793087149708,3,right
1.8459999999999999,-0.11217824660144474,0.9868593750663811,-0.11686049659477532,-0.15685069973986615,-0.009711498467401922,0.04281839389431969,-0.004291639013606331,-0.008702279182199239,0.0089204590528667,3,right
1.8519999999999999,-0.10960321159399444,0.9873668595677361,-0.11478939788793543,-0.15637624907220193,-0.009690034528650294,0.04268241258441553,-0.0043018400586941515,-0.008698710460864924,0.008895246439390127,3,right
1.8530000000000002,-0.11233552848456986,0.9845921920104367,-0.11409877110228442,-0.15636372009844451,-0.009711813589321858,0.04258733349007097,-0.0043113419282984145,-0.008701811975613647,0.008873933530616319,3,right
1.8559999999999999,-0.11466638735603435,0.9826847551340775,-0.11309166077949734,-0.1568668599727795,-0.009683401325743399,0.04294104204610727,-0.0042706417530405305,-0.008696176767173582,0.008967703074789345,3,right
1.8559999999999999,-0.11371099052444483,0.9824005588522154,-0.11449555336719264,-0.15600262734132758,-0.009720673481587184,0.04238071141723776,-0.004346107533124201,-0.008706288912031433,0.00879383046920389,3,right
1.861,-0.1157823744972104,0.9820450392308694,-0.11768833137518482,-0.15694507754152262,-0.009681890067523352,0.042984101694166534,-0.004249108785766277,-0.008692722006314529,0.009016996435847966,3,right
1.861,-0.11705244902715764,0.9815865974485882,-0.1181335281924911,-0.15636709969157517,-0.009702800440937132,0.04262587977991249,-0.004330167791683196,-0.008704378633395998,0.008830785123548044,3,right
1.867,-0.11625538845733144,0.9811957519224334,-0.1183193929157724,-0.15603446537432872,-0.009728259980133764,0.042364609548745005,-0.004327933367000545,-0.008704502178464146,0.00883568952291308,3,right
1.867,-0.11702253308233158,0.9806176170750169,-0.11780747453754312,-0.15776129330236888,-0.009628996918179575,0.043585801319516934,-0.0041733200241091985,-0.00867999440143461,0.009190987160020467,3,right
1.87,-0.11730184887507092,0.979363336673943,-0.11722014516784851,-0.15450994184350514,-0.00981089627421855,0.0413071013806565,-0.004553522229614719,-0.008740175489668458,0.008318048153723466,3,right
1.871,-0.11597140020438755,0.9780723070544204,-0.11784553122567366,-0.15869583203460208,-0.009577805105031575,0.04423614183266855,-0.003922940971075293,-0.008640009803958478,0.009765130693261986,3,right
1.876,-0.11516025753033714,0.978060729205067,-0.11618880362165804,-0.15519675950122505,-0.009772228161059007,0.041789669003865396,-0.00475487757868993,-0.008772623196362697,0.00785673665259882,3,right
1.8769999999999998,-0.11539926132142969,0.977354783912645,-0.11634026734589689,-0.15530861516527206,-0.009767668605839941,0.04186052117752583,-0.008245018534507329,-0.009327137419333024,-0.00015689101719046903,3,right
1.8769999999999998,-0.11475893652842206,0.9747721831947743,-0.11932221092819918,-0.1619244617700319,-0.009394583503165861,0.04651002148532977,-0.009077292126565465,-0.009460547050759348,-0.00206478708821653,3,right
1.881,-0.11455540940161474,0.9733475429967753,-0.11998421996236841,-0.14564324761592135,-0.010310801846667546,0.035076863049427906,-0.008446331759309604,-0.009359398434848131,-0.0006182526066145073,3,right
1.882,-0.1166542696980446,0.9730155587020887,-0.11984955174017892,-0.17264353585738162,-0.00879181892526382,0.05403469688277417,-0.008826446705338876,-0.009419682060101301,-0.0014913636281532962,3,right
1.885,-0.1172384843517979,0.9731029396795599,-0.11908824738588235,-0.1370298117822129,-0.010795395125462903,0.029029565929216735,-0.008672936777024597,-0.009397145023431704,-0.0011343466575441264,3,right
1.886,-0.11782728577778491,0.9728235913261025,-0.11809056516486784,0.012430501123858004,-0.019204579161139407,-0.07592974227152616,-0.008668257414993413,-0.009392435786997303,-0.001133186926682947,3,right
1.886,-0.12157228066444001,0.9700000676736293,-0.12080710989408466,0.04804189574836422,-0.021208184058205827,-0.1009345140393065,-0.008752878651383293,-0.009411496007892352,-0.0013139928709640061,3,right
1.89,-0.12337463331969062,0.9682060175345686,-0.12334576069471385,0.021044640643662543,-0.01968941051390708,-0.08197614422871417,-0.008652261855396614,-0.009389964108328368,-0.0010962548339058346,3,right
1.89,-0.12409232786697418,0.9687882710263267,-0.12432784647683782,0.03732499691710586,-0.02060476545628638,-0.09341272539921956,-0.008729420256321865,-0.009404613423529197,-0.0012677012426166364,3,right
1.896,-0.12816694741178047,0.9690989979112296,-0.12925975742602452,0.030704534957166425,-0.020233538983812187,-0.08875518442785275,-0.008691523920540074,-0.009403282092057357,-0.0011694645727120703,3,right
1.8969999999999998,-0.1327242896290734,0.9700270357990033,-0.13254394645772058,0.03060511152558277,-0.02022615322468878,-0.08869712228750712,-0.00869147258314996,-0.00938815751497458,-0.0012055008760627848,3,right
1.901,-0.1346441680267706,0.9700572835464903,-0.13110059082472558,0.034084355862978706,-0.020423689468946515,-0.0911288679321549,-0.008718430077576046,-0.009418469101821663,-0.001205155143246215,3,right
1.901,-0.13622504715783004,0.9691220872204981,-0.13033373039361834,0.0299207122183442,-0.02018867112894719,-0.08820998205341371,-0.00867991248131783,-0.009380424934426852,-0.001193056674803986,3,right
1.905,-0.13905471471963593,0.9694433542060686,-0.12797459382465315,0.03315781896131409,-0.02036922396822618,-0.09049267653582044,-0.008713249982163333,-0.009411157091376281,-0.0012087662684183422,3,right
1.905,-0.13995672951746865,0.9681654404621205,-0.12542143118421867,0.031422592548244026,-0.02027663454234242,-0.08924346451424645,-0.008701622851793822,-0.009409558266958428,-0.0011815124044781483,3,right
1.91,-0.14087915888857022,0.9664141620202968,-0.12482883089517158,0.03180069714995654,-0.020289230625389655,-0.08956179165498834,-0.008677497127692089,-0.009358486345578645,-0.0012390118489288273,3,right
1.91,-0.14249563906730495,0.9673513427710875,-0.12405770576677906,0.03228987238319833,-0.020327403454527014,-0.0898405528392379,-0.00874436775010971,-0.009477019977717,-0.0011345981489329425,3,right
1.915,-0.14129312284493928,0.9696251662274336,-0.12708899348499325,0.03146750961420548,-0.020272640746442937,-0.0893146600500635,-0.008641805134506166,-0.009299782040283767,-0.0012838899685658548,3,right
1.916,-0.14063566615613898,0.9730461868926742,-0.13019254533560842,0.03221941130507812,-0.020314873771204424,-0.08984311974864037,-0.008751650999418114,-0.009488754946570636,-0.0011259624352676408,3,right
1.92,-0.14096935981362524,0.9760604503969814,-0.12794341994776162,0.03175347061186076,-0.020304415210120472,-0.08942025342247917,-0.008687374142061218,-0.009379519090926366,-0.0012152843479646966,3,right
1.92,-0.13903071715319798,0.9766246185805673,-0.12581917120855868,0.031886808527039415,-0.020275896190961366,-0.08973250227799577,-0.008636004484480948,-0.009285743356462855,-0.0013017816114703853,3,right
1.926,-0.1355221037371081,0.9759254295055979,-0.12383872443332908,0.0320159114294132,-0.02033690919493023,-0.08949705041329266,-0.008867403880339266,-0.009696661806780242,-0.0009388206735877708,3,right
1.9269999999999998,-0.13351915009139964,0.9766676016208442,-0.11955461220456026,0.03175827184441717,-0.02026510020207864,-0.08966374476674674,-0.008437114164254154,-0.00893464861319198,-0.0016090763932300241,3,right
1.93,-0.1317856911629448,0.97770723237903,-0.11651891215031343,0.03198760008522562,-0.02031114445100848,-0.08962396787450927,-0.008989845649855097,-0.009912923895549909,-0.0007491369606526498,3,right
1.93,-0.12875649708812567,0.9755639173310446,-0.11563208095819226,0.03193510139305779,-0.02033667925474287,-0.08941389196630592,-0.008528365456139577,-0.009096530502208381,-0.001466691227624885,3,right
1.935,-0.12921059535912832,0.9745765442364354,-0.11650405538214786,0.03170332909819093,-0.020198790172173648,-0.09000896546215878,-0.008541098829148192,-0.00911791371924004,-0.0014485005722899616,3,right
1.936,-0.12989979444611105,0.9767221771910145,-0.11974660523120502,0.03224216178749366,-0.02046071058081638,-0.08898203849698122,-0.009420093527909058,-0.01067626258216187,-7.646237902701194e-05,3,right
1.939,-0.12731603963691457,0.9779085190629614,-0.12266006613842528,0.0315110336292012,-0.02012211469761431,-0.0902730152977751,-0.00725949807388701,-0.006847533342576641,-0.003447092153031739,3,right
1.94,-0.12401248310617581,0.9779316667651372,-0.12612330012820205,0.03213792413715113,-0.020405820350423223,-0.08920696550728846,-0.01084171646766327,-0.013194562349277277,0.002140869364713794,3,right
1.944,-0.12088849794336513,0.976983943555281,-0.13024164571494568,0.032095586896000845,-0.02039648570635308,-0.08921771296262201,-0.0061170556511834645,-0.004824068230429631,-0.0052291960184679505,3,right
1.944,-0.12015655614806144,0.9769006915293487,-0.13174586965810917,0.030967785547422518,-0.01985985672199515,-0.0912985802132516,0.013717214613307799,0.03032469623990228,-0.036170974278042736,3,right
1.945,-0.12012394397841346,0.9766592055080753,-0.13416444496080518,0.033776326123250835,-0.021181356695553988,-0.0862103325502484,0.018441364740683107,0.03869317290342411,-0.04354049263506843,3,right
1.95,-0.12206898747915336,0.9737140974370635,-0.136009996918603,0.02910605358676041,-0.018989099425832927,-0.094636848206686,0.014859699024020769,0.03234832670173169,-0.03795312277866819,3,right
1.9509999999999998,-0.12526343695425857,0.972364102903046,-0.1350503245872177,0.03527075577040366,-0.021881372678265218,-0.08352612594116694,0.017020504110016103,0.03617788593284057,-0.04132397830626206,3,right
1.955,-0.12631896160045697,0.9721506136744026,-0.13440012256311773,0.06112948173129853,-0.0340183264586542,-0.036873652105787164,0.016139677669207063,0.03461229703901958,-0.039949975551434376,3,right
1.956,-0.12837951737739434,0.9699928138211565,-0.13003906424403838,0.06729396949997977,-0.03691171913536481,-0.025764179009899496,0.016130886225425054,0.03460649190020401,-0.03993601099288382,3,right
1.956,-0.12680704074077329,0.9662390759245593,-0.12120170382168205,0.06262148238416304,-0.03471756868999097,-0.0341869518332998,0.016586713928093855,0.035400549300096604,-0.04064750661953184,3,right
1.96,-0.12002594343020616,0.9618452892608755,-0.11141105752505369,0.06543877698206274,-0.03604102379900784,-0.029106660237629943,0.01603961184893525,0.03444451624341921,-0.03979359942273984,3,right
1.9609999999999999,-0.11350627399388774,0.9585314335966243,-0.1021043131034248,0.0642923407405179,-0.03550343195694905,-0.03117454869448462,0.016467471271197368,0.03519693188741216,-0.04046125402607381,3,right
1.963,-0.11044677265783773,0.9540848379785782,-0.09815115217423757,0.06427816371476998,-0.03549284182303726,-0.031201556037343037,0.01623124085475398,0.03476691479327705,-0.040093109261277744,3,right
1.963,-0.11481925381940976,0.9509356645767308,-0.09802912089415547,0.06487423349028683,-0.03578101145318567,-0.030121532529601383,0.016298177744341193,0.03492221424616376,-0.04019629838654731,3,right
1.9680000000000002,-0.12263263242197896,0.9513624305575057,-0.09536995981738097,0.06416186104701899,-0.03543464283482147,-0.03141475806125365,0.01633562867466326,0.03492544121135206,-0.0402568633188685,3,right
1.969,-0.12834095334753987,0.9508091509864491,-0.09280210726538908,0.06471476409106068,-0.03570609642311473,-0.030408524587312098,0.016258708062032334,0.034866568791617744,-0.04013422377777815,3,right
1.974,-0.13011320062145373,0.9521134891076936,-0.088719465536654,0.06441581757073243,-0.03556064259197791,-0.03095174831517635,0.016335016430193222,0.03494008286418249,-0.040255388334074126,3,right
1.974,-0.12857044357047404,0.9579321044931737,-0.08152492398600404,0.06449184691252435,-0.03558604999160099,-0.030822816415360187,0.01626792253250555,0.034820628271243464,-0.040150710097927964,3,right
1.979,-0.1272104660183263,0.9662904093054465,-0.08285161679528821,0.06454959740021197,-0.03564621842254184,-0.03069197892582534,0.016340744677593846,0.03506417651580396,-0.0402604381431256,3,right
1.979,-0.12527830063095902,0.9751693154914228,-0.09530489236256903,0.06444954526983689,-0.03554231179009244,-0.030918649855824064,0.016241064892345034,0.03462589678933075,-0.040113849733830635,3,right
1.984,-0.12380346561981477,0.9833618153238263,-0.1109477360019931,0.06453218136991623,-0.035650965860630435,-0.030712740052884803,0.016373794782068574,0.03525139689531698,-0.04030756689712579,3,right
1.984,-0.12150664545295646,0.9923106910158228,-0.12533339636187063,0.06448280950073872,-0.03557211565577595,-0.030847151179709695,0.016235261517969765,0.03458987579106549,-0.04010573285157883,3,right
1.989,-0.11415333399843042,0.9987492367127255,-0.13332103772204223,0.06452139282510934,-0.03558967328286542,-0.030778084136805897,0.01631063535018999,0.03496377841083657,-0.040214972723665546,3,right
1.989,-0.10431549952475382,1.001610404599123,-0.1305167171782198,0.06445074274542403,-0.03565996184968855,-0.030820937400370733,0.016398801770988666,0.03532733434999098,-0.04034561310295598,3,right
1.994,-0.09462240182586915,1.0055476823982938,-0.11992532446733521,0.06459109122679815,-0.03548952130665719,-0.03076091591334292,0.016050860048749987,0.03380373885012284,-0.039833634978712104,3,right
1.994,-0.08477206512730914,1.010456056358949,-0.10757130713357238,0.06437692820288497,-0.035741464903297784,-0.03085922172872819,0.01668932742756246,0.036617092953584104,-0.04077224822673966,3,right
1.9980000000000002,-0.07318370392860724,1.013190173909962,-0.10149824242206244,0.0646115806915504,-0.03547596374400995,-0.030742783351431813,0.01587096073816531,0.033007317765836125,-0.03956955031007661,3,right
1.999,-0.06261428518344608,1.012405958196342,-0.1090220138115496,0.06447628839004474,-0.0356293402303158,-0.03080989909863785,0.016553677935915053,0.03601987377637908,-0.04057247425958397,3,right
2.003,-0.05051711522320868,1.008357678927258,-0.12415536524063653,0.0643446085102918,-0.03575501180423729,-0.030893746724937842,0.01653729709592018,0.035942478496475624,-0.040549469457195134,3,right
2.004,-0.03369488486746268,1.0042255318289541,-0.14006393585319413,0.06490084715046307,-0.03519670293623414,-0.030560530766849163,0.015228344931173777,0.03018445337392305,-0.03862386394554666,3,right
2.008,-0.02128771483915793,1.0042220417140104,-0.14890397879375938,0.06387084133922308,-0.03623235269277193,-0.031176717634801742,0.018443371530123532,0.04433218087906861,-0.04335155008577386,3,right
2.008,-0.010275458532041488,1.0063384139381775,-0.1440215945208171,0.06519397557867568,-0.034903262432792584,-0.03038345560317028,0.013112976982198982,0.020875730070935378,-0.035514579229948426,3,right
2.013,-0.0007544871008950621,1.006951102695978,-0.13989210436925748,0.0640897805208511,-0.03601233324185811,-0.03104654070604527,0.020144148606646706,0.051814734883353725,-0.04585079897325141,3,right
2.013,0.0013681525564801166,1.0060420533714836,-0.141671346693027,0.0641158530641043,-0.035982236715047175,-0.031031665674393406,0.04965551327355819,0.1816850018457301,-0.0892493729169182,3,right
2.0140000000000002,0.005447674958397783,1.0065644761544195,-0.14299303803642255,0.06623341283560777,-0.03386894229443105,-0.029754826346501253,0.056687771113835723,0.21262485243367776,-0.09958504047259581,3,right
2.017,0.008577272707786791,1.0095212525617434,-0.14634432474708736,0.06103430773737931,-0.03906247703765946,-0.03289040424605026,0.051356201237355,0.1891674864047213,-0.09174866704950983,3,right
2.0180000000000002,0.004859257018486269,1.0088449756883615,-0.14645291233089308,0.06965178206286957,-0.030452232724286595,-0.027691724451673463,0.054570781269638824,0.20331486639950924,-0.09647658040480155,3,right
2.022,0.0015200138357764573,1.0057689381643011,-0.14314715301764774,0.058287267419292674,-0.04180830473937797,-0.03454908437895765,0.0532657265664675,0.19755987558738544,-0.09454899317338222,3,right
2.023,0.0006355898537934106,1.0050948175236372,-0.14210689829076073,0.010513069179723097,-0.0894917244745034,-0.0633505960068596,0.053240959293496676,0.1974759508915332,-0.09453025229816957,3,right
2.023,-0.0023924703644801325,1.0035404907946655,-0.1378777520561172,-0.0008545192300444286,-0.10084818577986902,-0.07020941291240507,0.05393570137661845,0.20049786933125008,-0.09552706263578939,3,right
2.029,-0.007964882288046368,1.0002154392055322,-0.13087427538900737,0.007775167263196754,-0.09223536544061012,-0.06500723787194893,0.05310535985862013,0.19687877040399276,-0.09433045260757567,3,right
2.029,-0.013682908651028877,0.996265729337685,-0.13016427598103208,0.0025458505932256853,-0.09743637249195025,-0.06814901299337033,0.05374899517973065,0.19969614885406442,-0.09526643903170401,3,right
2.032,-0.02370245571880658,0.9916800119115713,-0.13488071903171756,0.004717270656315453,-0.09530874004625767,-0.06686339041584241,0.053411334020368614,0.19818055670414075,-0.09474923319565884,3,right
2.033,-0.03506339499394186,0.9861848108909684,-0.1333320399629085,0.004670807522878575,-0.09529898158338733,-0.06685805265066941,0.05346637986321916,0.19851832640284423,-0.09489671351903309,3,right
2.04,-0.04385549580814119,0.980707687055547,-0.12665278963969823,0.0036359061792565405,-0.09638730773925656,-0.06751495783270528,0.05359882412185213,0.19893666275945626,-0.09497693744611205,3,right
2.04,-0.05734860998924286,0.9775609044263541,-0.12566922069042719,0.004933391534674794,-0.09506836250464035,-0.06671848815488206,0.053390248713719834,0.19822060717320927,-0.09481071325509309,3,right
2.042,-0.07236911593154527,0.9763079760396042,-0.12805812683206977,0.0038339474775140976,-0.09611915575139618,-0.06735344336053165,0.05357882319245442,0.19888958949607521,-0.09497604050575495,3,right
2.042,-0.08363291964399201,0.9766751616977218,-0.13427356340786803,0.004597714476293044,-0.09550715466033527,-0.06698292382103671,0.05347963276562119,0.19845168645961775,-0.09482919913247082,3,right
2.046,-0.09548228577234907,0.9805059915551315,-0.14301342493617075,0.004116664152900311,-0.09572839961191049,-0.06711802293429181,0.05344884116793947,0.19861456799529764,-0.09499161127501632,3,right
2.0469999999999997,-0.10797447282340802,0.98662426037214,-0.14466399519851,0.00440217217004024,-0.09576103241766884,-0.06713595210461826,0.0536185541885017,0.1986794832455999,-0.09476653228644086,3,right
2.052,-0.11909556297814615,0.9902739618453283,-0.14453842809537204,0.0043128201234416096,-0.09559705289576234,-0.06703833176251278,0.05334157305556691,0.19847793179624262,-0.09506731527007412,3,right
2.053,-0.1287087549925935,0.9933490021683453,-0.14477092314839773,0.004069466556254116,-0.0958377787912183,-0.06718370317986536,0.05364128219160134,0.19871230490714048,-0.09475319810773043,3,right
2.057,-0.13501483779956766,0.9962409026763045,-0.1409345793594508,0.004871494462031554,-0.09550671003649105,-0.06698120972450348,0.05346109404035678,0.19854606411986575,-0.09492439765926491,3,right
2.0580000000000003,-0.1381330404847395,0.9933696317429908,-0.13907009061800307,0.0033362590641933627,-0.09596614352645733,-0.06726454618517116,0.05334048785322562,0.1985553713150422,-0.09512296166170414,3,right
2.061,-0.14103841235835435,0.9905533418389574,-0.14133155794550428,0.005521741587768967,-0.09538540724942748,-0.0669050227392501,0.05392517776402603,0.1987644829485626,-0.09433742144991002,3,right
2.062,-0.14308926792678284,0.9900763466785033,-0.14372352229848623,0.0032303011566529316,-0.09596618215224517,-0.06726521173069545,0.05283057177429985,0.19833154453891022,-0.09577913571837751,3,right
2.0669999999999997,-0.14316804930225185,0.9880821450492846,-0.1432120575036464,0.004528646395205992,-0.0956562996149748,-0.06707249545907878,0.05423845187156576,0.19889764966902737,-0.09393130260774887,3,right
2.0669999999999997,-0.14239054114813204,0.9878749174661002,-0.14181034296399825,0.005727570446178224,-0.09530930776860137,-0.06685849812472987,0.05306206795211152,0.19842081943033296,-0.09547256995646908,3,right
2.072,-0.13965296147174344,0.9879027738450814,-0.14375000564465332,0.0006275353615660404,-0.09668055374693411,-0.06770681955279574,0.05309768208702594,0.19844972556549906,-0.09543616418895144,3,right
2.072,-0.1373725888372291,0.9885038888038251,-0.14838637904103413,0.010050948119856042,-0.09417239414360887,-0.06615431702889889,0.055328598913456664,0.19930669784809116,-0.09247990800125072,3,right
2.077,-0.13825390243752425,0.9896825576687046,-0.15158120269849604,-0.0020368206224181,-0.09738042193620813,-0.06814053048931829,0.04984067922743704,0.19718129371418347,-0.09973971834764933,3,right
2.077,-0.1384686227486103,0.9893984699528172,-0.15036983832604545,0.008049663467891871,-0.0947075409754824,-0.0664850985463584,0.05894124661920352,0.20071045403865054,-0.0877042964949451,3,right
2.081,-0.13764200742063865,0.9910305771623676,-0.14821183520022896,0.007784078937139215,-0.09477162750802459,-0.06652600290894281,0.0469373642354398,0.19605486016881202,-0.10357877060682383,3,right
2.082,-0.138230940556468,0.9899138173359132,-0.1469356408346151,-0.01146874815360296,-0.09989021597797543,-0.06969322737719688,-0.0034375225929101604,0.1765444904902314,-0.17022101572940823,3,right
2.083,-0.13620452520134707,0.9868563150234266,-0.14303065550702546,0.03584204644283663,-0.0873213508308498,-0.06191362686974816,-0.015440717183990645,0.1718912459678561,-0.18609622736382136,3,right
2.085,-0.1299647099181181,0.9860486570233045,-0.13473628486042447,-0.042598109054651445,-0.1081565029407412,-0.07481144855023852,-0.006341692644828613,0.17541668976611652,-0.17405977947078227,3,right
2.0869999999999997,-0.12742713628238267,0.9839443269649434,-0.12803058606169646,0.06086361571913745,-0.08067680279139886,-0.057798671635423515,-0.011827066315614016,0.17329447965962474,-0.18132009422941975,3,right
2.0909999999999997,-0.12716072947981363,0.9830179625185682,-0.12666486581946163,0.49513575296548656,0.034676888011719746,0.013597848366110641,-0.009599513421325107,0.17415130563219364,-0.17836481935906456,3,right
2.092,-0.12196525391790361,0.9821684920513086,-0.12194050081575816,0.5985992933915543,0.06215610258673128,0.030613142163816134,-0.009560557709625047,0.17417479607594533,-0.1783251894719924,3,right
2.092,-0.11954618608349617,0.9825696843611492,-0.11644840276417012,0.5201581208524704,0.04132242052335812,0.017713167478472115,-0.01073861331585848,0.17371031873385956,-0.17987197038611016,3,right
2.096,-0.1220812851096756,0.985772984519658,-0.11565977063339031,0.5674648126911079,0.05388813937535346,0.025489713003527585,-0.009332965052768243,0.17425839225903367,-0.1780175341844444,3,right
2.096,-0.12489843766524296,0.9879583973541884,-0.11150310033532679,0.5482254197066279,0.04877470656087334,0.022335684303441142,-0.010419372432800535,0.17384387582546873,-0.1794641638596256,3,right
2.101,-0.13021377479712273,0.9918024075234787,-0.10593655149375328,0.5479355516165402,0.04870413547650225,0.022269168714203744,-0.009849438578698624,0.17404395049198668,-0.178679532569275,3,right
2.101,-0.13343776124637702,0.9925453650861754,-0.10136584915955664,0.558053153289709,0.05138262436273936,0.023959095354424836,-0.009951194581639424,0.17404018296214518,-0.17886697756502773,3,right
2.106,-0.13416545542279412,0.9897726402627307,-0.09296939319024553,0.545939019708784,0.048173620900983725,0.021941313606934125,-0.010147578310885278,0.1739204200104478,-0.17906198591022243,3,right
2.1069999999999998,-0.13484038696876594,0.9893403832805591,-0.08674160398089087,0.5553652259492765,0.05067364340417879,0.023502272626598455,-0.009845287945011699,0.1740723171221225,-0.17871371047460854,3,right
2.112,-0.13133257443726326,0.9879809327444897,-0.08522783351665034,0.5503076066636643,0.04932295508234963,0.02269295979239544,-0.010098486102119667,0.1739745245149791,-0.17904910550860198,3,right
2.112,-0.1280710278743042,0.987937865386628,-0.08322265233801326,0.5514039200118896,0.049637650675894526,0.02280177318036932,-0.009988057292749208,0.17395286148502875,-0.17880734453056285,3,right
2.116,-0.1258231174756228,0.9918637245234682,-0.08576819920801931,0.5528597525227441,0.049983920646643976,0.023164102480045863,-0.009926474264966383,0.17412396307235603,-0.17894450916904758,3,right
2.117,-0.12302403401520483,0.9991457415816366,-0.09585242798506077,0.5503955498583681,0.049378945063887,0.022608100547583852,-0.01012890159051479,0.17382592216915216,-0.1788861713338841,3,right
2.121,-0.1260025505421877,1.008590926717714,-0.10577719559107117,0.5526881157779986,0.049948411425068576,0.023105290678873177,-0.009872660759328335,0.1741592605751283,-0.1788948076281593,3,right
2.121,-0.13192848763178047,1.0161940791513775,-0.10956278539710591,0.5512244057120184,0.049559247951235286,0.02286564861131749,-0.010047834937143927,0.17395622335497468,-0.17892575751720186,3,right
2.125,-0.13623342899727242,1.0209022089480655,-0.10581884045549206,0.551665795103095,0.049749770873818704,0.022715230351008434,-0.01011452179089306,0.1738136565601983,-0.17884070092711404,3,right
2.126,-0.13644663960105788,1.0210396991688209,-0.09677848244661376,0.5521186711578645,0.04970265342150918,0.023299383573209057,-0.009667124253329742,0.17449740346622644,-0.1790067633208958,3,right
2.13,-0.12973598794011038,1.0164517415044243,-0.08765046378277754,0.5510930770885107,0.04967992866408644,0.02237030436761401,-0.010533563104468045,0.17321535108174382,-0.17874757668106958,3,right
2.13,-0.12056114550864407,1.0096462168172105,-0.08288215406469304,0.552251460831183,0.04972150302885048,0.023371532201169595,-0.009407792333360136,0.17486649626352596,-0.17906271418219538,3,right
2.134,-0.10986387970756202,1.001958200558099,-0.0822437447639153,0.551479377630617,0.04967008195059285,0.022775931979108464,-0.010353198677385166,0.17348616834650832,-0.17880723631666195,3,right
2.135,-0.10517573764567709,0.9967281467472955,-0.08345057319758742,0.5513232383764559,0.049761380221093734,0.022346879930951483,-0.010319076545536113,0.17352618235871342,-0.17880225507671316,3,right
2.14,-0.10938627304597393,0.9942075141678627,-0.08815458055816763,0.5528401316503024,0.04958388897272148,0.02436295299390101,-0.00853910135229281,0.17615094697237588,-0.17932091510140757,3,right
2.14,-0.11789882242921787,0.9942344449881236,-0.09771341891848512,0.5498768941161833,0.0498728879799665,0.02059890387616088,-0.012926348187343008,0.16969615995461548,-0.17806359642180805,3,right
2.145,-0.14306926339728243,1.0011182308514712,-0.1059862559270439,0.5537151172982951,0.049510916574945316,0.025438134349619383,-0.005647529655782274,0.18039925486657876,-0.18014131662805705,3,right
2.146,-0.16480925346858555,1.008882924450052,-0.10930656059560245,0.5504978551612496,0.049809270743245884,0.0213951879714132,-0.015249817304675766,0.1662823318851836,-0.17740382233031166,3,right
2.149,-0.1695206153547617,1.0105285581038561,-0.10902378283806832,0.550635674309941,0.049815610104062026,0.02151479855845675,-0.055550232306084454,0.10701712652119894,-0.16589575918942015,3,right
2.15,-0.18707422455353573,1.0123361959692412,-0.10524407931765858,0.5566023118915919,0.04919983012029277,0.029191843874574745,-0.06515258442815339,0.09290185672148403,-0.16315990537886893,3,right
2.15,-0.20479747357039005,1.013467479682822,-0.1017317691791504,0.5418787730356909,0.05069596496842714,0.010309301727915093,-0.057872697772884625,0.10360354949439624,-0.16523452985867743,3,right
2.154,-0.20938680446516644,1.0095215134228035,-0.09772778054463577,0.5663042783096193,0.048220253235828237,0.04162241516682858,-0.0622634543233028,0.09714671322626,-0.16398121453201708,3,right
2.155,-0.21488216347552075,1.0067031418786685,-0.09310852796099602,0.5340886628095365,0.051484654312678894,0.0003179776350488491,-0.060476420202735824,0.09978023318371684,-0.16449611708162326,3,right
2.16,-0.21552077429373523,1.0057760877414323,-0.09148386805909078,0.3989078795441223,0.06521517770049128,-0.173017049343989,-0.06045261587669544,0.09980329442658531,-0.164492777102708,3,right
2.161,-0.21747156339779833,1.0029280476188345,-0.08462649809700809,0.3667033714063851,0.06848011836168164,-0.21432446899593516,-0.06138712784724496,0.09844576382356074,-0.16424010467112382,3,right
2.161,-0.22900569558660572,0.9998746563219691,-0.07040044626658379,0.3911168598036594,0.06600382311786548,-0.183008128924483,-0.060267335059124426,0.10007609316316132,-0.1645460048972655,3,right
2.164,-0.24081454388470114,0.9953439955242953,-0.058081282063944195,0.37638874834687136,0.06749973492553524,-0.2018894445629566,-0.061140238914738465,0.0987995210859583,-0.164302769562894,3,right
2.165,-0.2537604481511384,0.9894887604734096,-0.05151260299862771,0.38239525299174354,0.0668858935153388,-0.19422310044068042,-0.06066686760178427,0.09950921071884097,-0.1644491925721635,3,right
2.169,-0.26978162532647465,0.986832270057257,-0.05371225729768243,0.38244729590921744,0.06688806317665383,-0.19408046404870868,-0.06078136970273178,0.09929695516391876,-0.16437996632388807,3,right
2.169,-0.2841786853001307,0.986515901699649,-0.06585560291940631,0.37935301724988035,0.067192394738026,-0.19815642542774228,-0.06089451104208216,0.09920611462048043,-0.16441056896779865,3,right
2.173,-0.29809441098439066,0.9888285697204519,-0.0836790208698929,0.38306877734384226,0.06682447248347577,-0.19328431806819446,-0.0606927818290479,0.09941012865150131,-0.16439103087902374,3,right
2.174,-0.30769365052339415,0.9949666529127743,-0.10117808484012789,0.38015837518279716,0.06711603659715276,-0.19706255450450005,-0.060884050520029286,0.09920268679812405,-0.16439788822316748,3,right
2.178,-0.310266526633164,1.0024878266285198,-0.11138992905302686,0.38178044088871055,0.0669436613467509,-0.19507470963536402,-0.060747998804425586,0.09940338641283378,-0.16443724466193194,3,right
2.1790000000000003,-0.30757413836232034,1.0095913316569989,-0.11459727798429621,0.3812855329252931,0.06701848979173507,-0.19541282478081606,-0.06082891221984011,0.09914753748220059,-0.16430024540762794,3,right
2.184,-0.2967997736919966,1.0106350148481975,-0.11415995320528527,0.38109715049099996,0.06699544110700703,-0.19616511651715696,-0.06077966535882033,0.09953273847805466,-0.164574610150517,3,right
2.185,-0.28293406145595934,1.0047917505418649,-0.1049728529633315,0.38153919971946865,0.06700220159618098,-0.19497158528545308,-0.060820642245105735,0.09900587130488361,-0.16417459047430583,3,right
2.188,-0.2666331847999743,0.9984443865443546,-0.08885324577777959,0.38108468309974425,0.06700722293100811,-0.19605398343185598,-0.0607830123082066,0.09955861783160616,-0.1645992836802407,3,right
2.189,-0.24540529271045453,0.9904734084060588,-0.07689650395437433,0.38154269216910464,0.06696037393890851,-0.19547118414601933,-0.06079519214790886,0.09925330161420552,-0.16435662869628237,3,right
2.194,-0.2268955165478057,0.9796236811483552,-0.07567332199450715,0.3809242122704074,0.06709935882863284,-0.19533711135762344,-0.06085305161229496,0.09892048380366845,-0.16413393893990016,3,right
2.194,-0.21206468639647955,0.9702895161417474,-0.0865131997658935,0.3818825764706265,0.06682793842537013,-0.19622693255301052,-0.06067736188437843,0.1002630666682199,-0.16508640097413524,3,right
2.198,-0.19559163131439197,0.9657734621927578,-0.10289290492555449,0.3805618649689893,0.0672217821303843,-0.19475976275661974,-0.060989176543724,0.09779382081886227,-0.16332405478247564,3,right
2.199,-0.1783712570870417,0.9674906618444653,-0.12035298855950421,0.38194942357713124,0.06680398658908507,-0.196349808257484,-0.06059194780657187,0.10095981663391423,-0.16558608545784506,3,right
2.2030000000000003,-0.16508901032132317,0.9722214223854728,-0.13567976897347567,0.3811798704139847,0.06704217013577432,-0.195389977998197,-0.06092227608519459,0.09831858374076868,-0.16369800696914988,3,right
2.204,-0.15330577808264567,0.9762922092384995,-0.13892559983964525,0.38035730498077347,0.06726348278437255,-0.1947661918455473,-0.06091827241328134,0.09838284113896369,-0.16374768997225908,3,right
2.209,-0.1436717922556181,0.9811511018354333,-0.13377735731461243,0.3836964852229516,0.06632104236779535,-0.19782945754609146,-0.0602722626752174,0.10344280472496702,-0.1673525068040732,3,right
2.209,-0.13960664325432878,0.9825723224877381,-0.1287566998357917,0.37755120288560107,0.06806414707375119,-0.19208844184039872,-0.061854201996324916,0.09101461211573611,-0.1584940098448855,3,right
2.213,-0.13359762046065693,0.9774372655448648,-0.12047071948930381,0.3854311791422296,0.06582688413968182,-0.19947369973343704,-0.05923285989842082,0.1116188395359787,-0.17318132977535827,3,right
2.213,-0.12832777629129768,0.9753729135332238,-0.11320520265072022,0.3788573253545076,0.06769437452261734,-0.19330261931275772,-0.06269016054577753,0.08444225738723712,-0.15380891612386355,3,right
2.218,-0.12810065645776186,0.9748740895714109,-0.11174876877470666,0.37901783479978995,0.06764516078921105,-0.1934906969092885,-0.07720973692596766,-0.029642053279331112,-0.07249110896262898,3,right
2.218,-0.12438390707365636,0.9682667275902809,-0.10816759835503516,0.39160898118481263,0.06407954936437661,-0.20518873277632255,-0.08066733138705519,-0.05681925952477217,-0.053118626500536226,3,right
2.219,-0.11869917058877559,0.9627048667574558,-0.10322123782737531,0.3606830593479561,0.0728421360652185,-0.17641150564076025,-0.07804582996829791,-0.03621449775834246,-0.06780596834736516,3,right
2.224,-0.11588937466205321,0.960951153708766,-0.10379594614369486,0.4119526678973563,0.05831325141942289,-0.22413200288543017,-0.07962708674169926,-0.04864193453620083,-0.05894768577341828,3,right
2.224,-0.11452055492800986,0.9593196286812697,-0.10540274763749166,0.34433124442781693,0.07747752478505368,-0.16118815741568274,-0.07898328934692535,-0.043585239529978975,-0.06255187205223418,3,right
2.228,-0.11508326189434082,0.9591151034071962,-0.106945746431829,0.060467165590223165,0.1579217003857013,0.10298868952347663,-0.07897529908799178,-0.04351463666630335,-0.06260265549717237,3,right
2.228,-0.11820119550401242,0.9618253009817189,-0.11267738086009318,-0.007147837622830069,0.17708887797022188,0.16593100282751966,-0.07931072399093834,-0.046164417393686735,-0.06071320437966837,3,right
2.228,-0.12441510303523624,0.9671691964275206,-0.11934292070159648,0.044108970634191585,0.16255499965989423,0.11821137296096661,-0.0789091937260681,-0.04299059710294895,-0.06297634560209926,3,right
2.2319999999999998,-0.13328166282182524,0.973499789736025,-0.12425333086938377,0.013201141853178475,0.171322949301566,0.14699202991720997,-0.07922142770112418,-0.04546194255126795,-0.061213996205115175,3,right
2.2319999999999998,-0.14169702248600094,0.9797636504452383,-0.1250802182005616,0.025772582852487368,0.16775424085865903,0.13528272420542845,-0.079052742433221,-0.04412902019530786,-0.06216440778771803,3,right
2.237,-0.1455567290438896,0.9850447163417069,-0.12032316577513864,0.0259469327814782,0.16770265844265209,0.13511503957043114,-0.07909373380574378,-0.04443577902747158,-0.061946436312290805,3,right
2.237,-0.143556570718757,0.9868748437087301,-0.11494335187057608,0.01937609959809819,0.1695807767448672,0.14125996755065814,-0.07913174538989157,-0.044783123714404606,-0.061696722503157296,3,right
2.242,-0.13925038328141628,0.9844756606671622,-0.11203674315498477,0.02722450516559255,0.16732389684049948,0.1338968958693425,-0.07906584553650528,-0.04418184715076992,-0.06212894161617495,3,right
2.2430000000000003,-0.1345440646033016,0.9802042485004314,-0.1128095376254342,0.02114588929933761,0.1690922426450424,0.13963549995741237,-0.07912423490706606,-0.04474285065927519,-0.061724620032202526,3,right
2.247,-0.1301418959876509,0.9771858005972625,-0.11734339213041275,0.02438994475381754,0.16812798735443985,0.13653668019785262,-0.07908693987112866,-0.044368435212600116,-0.06199503825016383,3,right
2.25,-0.12899756742313698,0.9757522464501698,-0.12038637572620398,0.023663534962346723,0.16835306877414602,0.1372466082771865,-0.07910848297281264,-0.0445368956438912,-0.06187498621469441,3,right
2.251,-0.13114281526170138,0.9744912786721853,-0.11781824705621807,0.02284764305711385,0.1686225036106338,0.13807412430579555,-0.07908670605754488,-0.04451688845139541,-0.06188270436023448,3,right
2.252,-0.1331272637575564,0.9738631054271729,-0.11472205409746657,0.024165385603636506,0.16812628716652683,0.1366293581461462,-0.07912466561492967,-0.04447002241557585,-0.06193107251881217,3,right
2.2569999999999997,-0.1325055683801908,0.9732113247557733,-0.11479965205387407,0.023089495885002972,0.16864247920306163,0.13800624230361921,-0.07906531191377467,-0.0445183986224366,-0.061874258372546086,3,right
2.258,-0.13134121917446753,0.9723625472392994,-0.11254405268184739,0.023614760150458,0.16823447928568253,0.13705685043588345,-0.07913220586253815,-0.044495410384884984,-0.06191446740929757,3,right
2.261,-0.13214545323527882,0.9724233328033542,-0.10829139067567373,0.023540199606425977,0.16846214013514937,0.13749323943289582,-0.07909360773815455,-0.04450893011050644,-0.06189103351699699,3,right
2.261,-0.1345350559086248,0.9711424046859048,-0.10545018359638747,0.023545302890261587,0.16846253777068754,0.13749181887602752,-0.07905223670035197,-0.044457496551615516,-0.06191590441741989,3,right
2.267,-0.13820098480219983,0.9690174954077209,-0.10459794609711517,0.023132136015780756,0.16819645603890912,0.13719534516576365,-0.07922277692863103,-0.0446010999717714,-0.06186536165398428,3,right
2.2680000000000002,-0.1437777560772751,0.9686150523937768,-0.10646145246938475,0.024308994525333118,0.16873856422302913,0.13765621790214838,-0.07890706405529777,-0.04433866963442917,-0.06195623567870765,3,right
2.273,-0.15288191365598208,0.9679555777463642,-0.10741478939592479,0.02236169027472518,0.16798416852076237,0.13714710336947317,-0.0793130874893769,-0.044681087425459245,-0.06183575822164368,3,right
2.273,-0.16237590883488034,0.9667673670258653,-0.10740002132744997,0.024549577333166876,0.16875660961523986,0.13758553862202688,-0.07897386532589909,-0.044392541872722985,-0.06193811480483944,3,right
2.276,-0.17210601443427315,0.9676148608283287,-0.10537261870830873,0.023249634392071547,0.16832044335834478,0.13736553497415202,-0.07898208268384785,-0.04439435793849249,-0.06193992582496794,3,right
2.2769999999999997,-0.18517091290731985,0.9697069984231637,-0.10061543807363323,0.02211407093630046,0.16794868495564055,0.13718978250418806,-0.07963280522301566,-0.044971365803658146,-0.06172490150294016,3,right
2.281,-0.19815809862456343,0.9714565776362143,-0.09823408265484117,0.027126751894432928,0.16956346801844396,0.13791891147813734,-0.07803428741725864,-0.043556850286875434,-0.062250142729429025,3,right
2.282,-0.21298497711049577,0.974300801014104,-0.09513808821760805,0.017789559986607317,0.16658051058082635,0.13660504013252805,-0.08068458446924304,-0.04590368134992147,-0.06137867439443694,3,right
2.286,-0.2225419901625712,0.9776133862559109,-0.09207793062700928,0.029807470441266755,0.17040268792244095,0.1382655984117176,-0.07718883299035448,-0.0428055975387472,-0.06252953029018776,3,right
2.287,-0.2244688443224403,0.9772188447636888,-0.09139532439328982,0.01976176300031183,0.16721529708297067,0.13689089008297645,-0.06251115634049356,-0.029795582258979443,-0.06736987813530994,3,right
2.287,-0.23595577430241743,0.975978806251747,-0.08751229881717487,0.02003235587407711,0.16730198035260072,0.13692960786747227,-0.059015403962449184,-0.02669343185079455,-0.06852283162105477,3,right
2.291,-0.2484279868747756,0.9784996023591019,-0.08437819207715429,0.03921255631636835,0.17337245469382578,0.13952670496237923,-0.06166585886256539,-0.02904589620912849,-0.06764821434206725,3,right
2.292,-0.25530675144497206,0.9817764379234459,-0.08387413247245029,-0.007937346855457295,0.15845402800984487,0.13314988608040418,-0.06006678577137584,-0.02762868497735588,-0.06817570759076207,3,right
2.296,-0.26643893233697036,0.9865317723761022,-0.0793067982082348,0.07024644918013663,0.18318734348008026,0.14371598186264906,-0.0607186506170514,-0.02820010560467233,-0.06796178906484496,3,right
2.2969999999999997,-0.2714536300213686,0.9911417128580312,-0.07517994324575064,-0.03288141399818452,0.15056563852355848,0.1297843558232001,-0.060725175456328856,-0.0282199608055372,-0.06795693034872552,3,right
2.2969999999999997,-0.2721171011537573,0.9924667852840676,-0.07585711456684963,-0.4657208359568024,0.0136344437180475,0.0713150664429575,-0.060387767294643596,-0.027900732965187885,-0.06807228509804393,3,right
2.301,-0.27844668494963276,0.9968270952868896,-0.07232652824031724,-0.568838446494205,-0.018987802498675523,0.05738527208466682,-0.06079274975599297,-0.028279722157435398,-0.06793457316311335,3,right
2.302,-0.2820114481696743,1.0022327531264335,-0.06450210158301634,-0.4906792340109205,0.005747334314060863,0.06794949430083574,-0.06047606465385349,-0.02799033564859192,-0.0680408522541906,3,right
2.305,-0.2786023096678784,1.0034955049313443,-0.05900425282707051,-0.5377855709410546,-0.009175246672075916,0.06157153841667785,-0.06065077415203237,-0.0281282888281418,-0.06798674626852098,3,right
2.306,-0.27003894146662144,1.0033169715122745,-0.05455464394697673,-0.5186670892638519,-0.003097691088044833,0.06417599956774803,-0.06060160720015076,-0.028139359531366162,-0.06799150698465733,3,right
2.311,-0.2585374780952173,1.0007350384825366,-0.053476475729958235,-0.5183295124140366,-0.0030202158817542366,0.06419940001663586,-0.06057324356514841,-0.028020034677158974,-0.06802065372872158,3,right
2.312,-0.24808412633739854,0.9963241577871839,-0.056068470029753875,-0.5284185744490114,-0.006199229932211381,0.06284623252821551,-0.060630972725209197,-0.028186778492208242,-0.06797729709075823,3,right
2.316,-0.23739432115834463,0.9925281302937535,-0.0588507907985617,-0.5164232969614668,-0.0023793673466161493,0.06448586438141776,-0.06057385466073242,-0.02804401860581993,-0.06801553475451536,3,right
2.3169999999999997,-0.22522772671247104,0.9896025603946982,-0.06100104947402614,-0.5256285364735247,-0.005372515630698434,0.06318005413027175,-0.06062350494329126,-0.02808721549221331,-0.06799932040214055,3,right
2.32,-0.2148371465995247,0.9896661577099672,-0.061271988159865454,-0.5208779466950869,-0.0037299649085917068,0.0639293757026167,-0.060570810581826375,-0.028211427045552965,-0.0679807198336094,3,right
2.3209999999999997,-0.20533369615308095,0.9892989962297084,-0.06410678679299611,-0.5216536311509063,-0.00414680944272828,0.06369242428124564,-0.0606418325985158,-0.027883781462457798,-0.0680395427047354,3,right
2.325,-0.19574397068864197,0.9862771433681015,-0.07199311696483572,-0.5232985827509016,-0.004530489034561757,0.06357565293766027,-0.0605477101497651,-0.028383043275165453,-0.06794787459837465,3,right
2.326,-0.18812073390849576,0.9859973319577737,-0.0780110042366737,-0.5209795910662534,-0.0037956724466149377,0.06388981290676272,-0.06064584794075376,-0.02784889436788153,-0.06804632931649703,3,right
2.33,-0.17800935456693145,0.985416617289227,-0.07788752739856097,-0.5225943640342661,-0.00456015299180491,0.06347604215229721,-0.06059261341508027,-0.028160557455761542,-0.06798828767391271,3,right
2.33,-0.16522129637793717,0.9797397661051813,-0.07460388900107742,-0.5224214179031451,-0.003925747866847213,0.06394660511015957,-0.060529521079872924,-0.028414105561063368,-0.06794395667392852,3,right
2.335,-0.1553073978936513,0.9735534517073198,-0.0706196363116477,-0.5211402986507313,-0.004385293764400914,0.06345243992892333,-0.06077749955952356,-0.02727980139387156,-0.06814731359558468,3,right
2.336,-0.1448214732067546,0.9699026617596638,-0.06574939818025509,-0.5231839925848327,-0.004109866467008217,0.06388771620305111,-0.060322683553279445,-0.029387742477356794,-0.06776849106067549,3,right
2.34,-0.1329566042181291,0.9663847948087055,-0.06356926947514684,-0.5216569858245623,-0.004159532286969062,0.06368288132833216,-0.06090557801304634,-0.026680185625086325,-0.06825530934782209,3,right
2.3409999999999997,-0.12568519110341209,0.962401872802784,-0.06674314295614991,-0.5210696769736367,-0.0044328747923066195,0.06340810159381743,-0.06041936314455779,-0.02894076387390221,-0.0678487151858052,3,right
2.345,-0.12234156534952786,0.9620014256335124,-0.0711072692901481,-0.5251788891263228,-0.003723223192449508,0.06440336936188265,-0.06043086435968613,-0.028878563495258976,-0.06786035600440765,3,right
2.346,-0.11907272343026944,0.9637517989794114,-0.07317696433353879,-0.5171096130901585,-0.004897413314886561,0.06261800864802682,-0.06136351686378764,-0.024571891000896667,-0.06863360585621092,3,right
2.349,-0.1180578446806419,0.9659070119881144,-0.07450754645681784,-0.5276701784945417,-0.003452640936933637,0.06488381581469713,-0.05907303821947595,-0.035157936073372614,-0.0667322654760315,3,right
2.35,-0.12047268141538583,0.9719133101201248,-0.07643138690016149,-0.5187683220131307,-0.004631912897893208,0.06300342233361914,-0.06287036817874517,-0.017606041937614267,-0.069885017016243,3,right
2.354,-0.12215371836004497,0.9761382921544843,-0.07722488774485414,-0.5190835676329506,-0.004623251612608676,0.06304498435826839,-0.057861637368406854,-0.04075638352639378,-0.06572649177562581,3,right
2.354,-0.12322156581166975,0.9763744489734741,-0.07769762733912997,-0.5359196228297544,-0.002331538482401245,0.06664752724243045,-0.03683842448949282,-0.1379436377036243,-0.04827348097983654,3,right
2.355,-0.12575156073877794,0.9788865486439978,-0.07962250583506025,-0.4944052434167092,-0.007922621829764461,0.05780941788355772,-0.03182959191551918,-0.16109436560786522,-0.044115087281013,3,right
2.359,-0.1304816356242702,0.9822796865572374,-0.08170685995066741,-0.5633022407901664,0.0013277979808306545,0.07245606253526499,-0.035626599565069354,-0.14354002632390622,-0.0472675001671915,3,right
2.36,-0.13460702922452628,0.9836996944114826,-0.08350887097847068,-0.47239524261182897,-0.010863883822140388,0.05313986717286292,-0.03333769440813852,-0.15413309275571185,-0.04536680108011483,3,right
2.364,-0.13579091086762193,0.9838143300196979,-0.08424262031513322,-0.09080969561615983,-0.062037107453916086,-0.027939009703121288,-0.034266824127702114,-0.14981300376181392,-0.0461390893398714,3,right
2.365,-0.14046490744706186,0.9850337016912776,-0.08322771023074271,0.00011799490004995444,-0.07422441172910768,-0.04725820029754141,-0.0342837956132685,-0.1497697814246433,-0.046151841361719785,3,right
2.366,-0.1458198852059794,0.9849943389860747,-0.08318480142649066,-0.0688229260853568,-0.06498404950728176,-0.03260724164628848,-0.03379142633057153,-0.152011066449309,-0.045744420770981,3,right
2.369,-0.14637096271730538,0.9806942889476609,-0.08561708918925375,-0.027240780769516554,-0.07055808563081174,-0.04144792028642269,-0.034378339782794115,-0.14931283202161502,-0.04623110419156129,3,right
2.369,-0.1453960572404721,0.9786594411671288,-0.08927547681078693,-0.04415983408498656,-0.06828952037743669,-0.03784828933905833,-0.03392570694797806,-0.15143511523696412,-0.04585411847628286,3,right
2.373,-0.14340838198436173,0.9773183376030183,-0.09462158393386509,-0.04440155691769814,-0.06825701262914279,-0.03779522533819249,-0.03416120790827599,-0.15025048946665998,-0.046053492834041955,3,right
2.374,-0.1450326166284709,0.9732089954781918,-0.10060661562454634,-0.03552100846916752,-0.06944969332863365,-0.03969630378721303,-0.0341227803186017,-0.1505933371342368,-0.046014940004577856,3,right
2.379,-0.149589596445942,0.9731751174778778,-0.1044376696419667,-0.04616541108400958,-0.0680175257597637,-0.03740465861714573,-0.03403586345766639,-0.15079246369642474,-0.04595094521550466,3,right
2.379,-0.1555353141054498,0.9765606185136605,-0.10863215611272192,-0.037864884434569666,-0.06913807931580351,-0.03921090256101255,-0.03416597466570367,-0.15035252965498622,-0.04605245459895488,3,right
2.384,-0.16732164976839553,0.9803305941427333,-0.11450002709534585,-0.042351592168564,-0.06852865627349859,-0.03821538373480439,-0.03406035147751192,-0.15084226509193532,-0.04596470326386627,3,right
2.385,-0.17828465455586684,0.9848011253250412,-0.11786251976346354,-0.04132159513892203,-0.06867020580937826,-0.03845239053586494,-0.0340990603090964,-0.15036352838958977,-0.046008935919905666,3,right
2.3890000000000002,-0.1855506901708422,0.9882097621100193,-0.11606832381156185,-0.04011826645244514,-0.06883845535619057,-0.038744184002367496,-0.03414161334322001,-0.15085189099089882,-0.04601662313460374,3,right
2.3890000000000002,-0.1879731709308275,0.9887524721557768,-0.10902970704366043,-0.0422311814667492,-0.06853278240346572,-0.0381790137300176,-0.03403199144226637,-0.15033666439819976,-0.04596684857931932,3,right
2.394,-0.18207896114328578,0.9858175432899314,-0.10161709099996513,-0.04019771205342496,-0.06884408816839256,-0.038811248195487424,-0.03416573443468336,-0.15080782718674676,-0.04603392737383623,3,right
2.394,-0.17550040960528496,0.9835540995571606,-0.10040861463739834,-0.041623635738271866,-0.06860538466984453,-0.038262678793303764,-0.03407713703566323,-0.1505879724954639,-0.0459857674304187,3,right
2.398,-0.17222661735504746,0.9839667080705402,-0.10619280624539863,-0.0409498765181135,-0.06873363835335504,-0.03860159635692851,-0.03403596015916889,-0.15023559094235492,-0.045973484473507874,3,right
2.398,-0.17278613881383809,0.9850965973834622,-0.11446345889929604,-0.04095156663290105,-0.06873373984186995,-0.03860302058016899,-0.034281102285822485,-0.15147728018883833,-0.04608117191483581,3,right
2.404,-0.17670425821452387,0.9877601282023195,-0.11905562517627283,-0.04146013379082506,-0.06859516538988845,-0.03813163045372154,-0.03381114325040718,-0.1492456072405181,-0.04586871940248398,3,right
2.405,-0.17758826509121056,0.9905730996154499,-0.11599702140736712,-0.04061091600307046,-0.06886992146681059,-0.03914231667711002,-0.034420121372276076,-0.15208550044357466,-0.04614611684517142,3,right
2.408,-0.17552344993521873,0.9912922031371219,-0.10374919534820706,-0.04161999629680016,-0.06849456754064565,-0.0376893853308113,-0.0339093820201008,-0.14972558901605304,-0.04591258110761222,3,right
2.408,-0.17438020907842822,0.9913481697496009,-0.09223000041244112,-0.04069501285179063,-0.06887452120424162,-0.03920614480625268,-0.03392680166445168,-0.14977242857413464,-0.045921916551484365,3,right
2.4130000000000003,-0.17559021646310782,0.9934095260279796,-0.08980778175129019,-0.04118124557086679,-0.06866142083666993,-0.03834013455252744,-0.03489111300768294,-0.15431750067116035,-0.04635921113417646,3,right
2.4130000000000003,-0.17765765016237886,0.9983216389348429,-0.0907674204973894,-0.0415805552978107,-0.06848045979487732,-0.03759742614981592,-0.03251575633394037,-0.14317115450627022,-0.04528001896125873,3,right
2.417,-0.17481006035877847,1.0009808549803991,-0.09564173046622826,-0.039891357893711704,-0.06926477488112034,-0.04083462214446574,-0.03645616387936172,-0.1616425628672159,-0.04707104314327423,3,right
2.418,-0.17095646689265762,0.9996667366490141,-0.10060407016302024,-0.04296843190117544,-0.06781763030088632,-0.03484337185157499,-0.03125808021910507,-0.13728290665126291,-0.04470805015316409,3,right
2.4219999999999997,-0.17007159991318258,0.9996230973582659,-0.10227342344268778,-0.039055844018360666,-0.06967074368832205,-0.04252788290202281,-0.009441927316748679,-0.035016528823850895,-0.03479199455203516,3,right
2.423,-0.16523434610113158,0.9987923568396757,-0.10618010655760918,-0.04230518701376949,-0.06812585127690896,-0.0361166434229926,-0.004243726385303433,-0.010659322047953381,-0.03242876574349442,3,right
2.423,-0.16294507577221107,0.9944370586494565,-0.10706520149698165,-0.042215757955209016,-0.06816812772694567,-0.03628919672753206,-0.008184675878349262,-0.02912524394289548,-0.03422045631053418,3,right
2.428,-0.167870776301844,0.9900228374315442,-0.10390072305174614,-0.036053224162964345,-0.07110881820058264,-0.048510219493242565,-0.005807897279564552,-0.017987936206525116,-0.03313990453546929,3,right
2.4290000000000003,-0.17329613721679138,0.9878154136916519,-0.09822837641380637,-0.0511890758922994,-0.06388191363543072,-0.018477257431096326,-0.006774818672580377,-0.022521087525457152,-0.03357935579768853,3,right
2.432,-0.18329608464970687,0.987740479376082,-0.09136732581251975,-0.026104415851245275,-0.07586328098601328,-0.0682692011745695,-0.006788647302570205,-0.022579739539889603,-0.03358605706409165,3,right
2.4330000000000003,-0.1912607357285021,0.9884386344595716,-0.09083469302134872,-0.0591823151369148,-0.060060820205182566,-0.002596995397296787,-0.006281435630954977,-0.020213969295903425,-0.03335469201668198,3,right
2.434,-0.19274551581905164,0.9900975497749982,-0.0908017135205287,-0.1980195974400505,0.0062610967188709565,0.2730973063881058,-0.006888925827197386,-0.02304585916352423,-0.03363193419555714,3,right
2.438,-0.2023871685600274,0.9910129291612576,-0.08656764910801372,-0.2310908978243879,0.022062384404275295,0.33876946622968185,-0.00641584863325082,-0.020843335649755095,-0.03341582304221713,3,right
2.439,-0.21322289468344907,0.9905715356704617,-0.08448832496850153,-0.20601540606197954,0.010083556548055605,0.2889733212538753,-0.00667093277620256,-0.02203268656935025,-0.03353222861533954,3,right
2.4419999999999997,-0.21352878754776178,0.9902857535090536,-0.08403552364739086,-0.22114678753887806,0.017306444468944606,0.3190213591411198,-0.006612635852682964,-0.021747038494551972,-0.033506631100992564,3,right
2.443,-0.2086030653693532,0.9888112479717572,-0.08413638433514807,-0.2149753848429099,0.014370819753332025,0.3067691301696718,-0.006545074564071126,-0.02147002545956899,-0.03347302828058023,3,right
2.448,-0.1983985908508043,0.9887114477788519,-0.0878206380176128,-0.2149149353847854,0.014323840587468903,0.30664298359526165,-0.0066619886854895356,-0.021949927465353666,-0.03353114615571569,3,right
2.448,-0.1851100228113463,0.9931875564669149,-0.09597463346497243,-0.21811480286977925,0.01587051430455506,0.3130042875777076,-0.006552354650888949,-0.02151947252582005,-0.03347521236655128,3,right
2.452,-0.17153248418705064,0.9998460533511702,-0.10428824559544125,-0.21426138286979812,0.014021824660465601,0.3053487644506332,-0.0066258264614705645,-0.02179739711392091,-0.033513472385673,3,right
2.452,-0.15733888611741417,1.0042380993594295,-0.10729938378318109,-0.21729453818546673,0.015455551361185475,0.3113660147029542,-0.006593616616927997,-0.021645861659538263,-0.03349886576382556,3,right
2.457,-0.14596540407570796,1.005707232319846,-0.10572781459880465,-0.2155969122154487,0.014693958254100671,0.30801519717069437,-0.006594008708988212,-0.021770842901563846,-0.03349004456004307,3,right
2.457,-0.1362116615899319,1.0043603219862385,-0.09968110542434763,-0.21609626135760218,0.014847348507730687,0.30897125943012205,-0.006610834197391401,-0.021568273050462224,-0.03351827333708073,3,right
2.463,-0.1310455006451402,1.0000423671176493,-0.0924287854178561,-0.21636876987650908,0.015082057100493498,0.30955632243660064,-0.006589839518936405,-0.021889731038134717,-0.033478015699003216,3,right
2.463,-0.13133803892848098,0.9956660783022736,-0.09145634962783442,-0.21574994240759188,0.014703082030665388,0.3082922939119236,-0.006606773930567456,-0.021521482540256213,-0.03351847086592013,3,right
2.468,-0.13111094231087328,0.9916680082287378,-0.09579009043833109,-0.21644951302462292,0.0150365856788741,0.3096813124209232,-0.006596906832243329,-0.02173396386567291,-0.03349503104159482,3,right
2.468,-0.13257079785479028,0.9898781872972776,-0.10377972401372412,-0.21574796232425592,0.014855987866076184,0.3083532539878582,-0.006600585048477526,-0.021973920904294397,-0.03348045053675283,3,right
2.472,-0.1321983573590741,0.9875729645687753,-0.11338826184188704,-0.2164861790958607,0.014855386956729008,0.30967021920846505,-0.006600321302045302,-0.0209973210248177,-0.033551641418004007,3,right
2.472,-0.12579610018342674,0.9832373175570812,-0.12177286334290603,-0.21568948460661866,0.015001845864382437,0.30831057941554474,-0.006599964397479353,-0.022804736534490784,-0.03341915698371002,3,right
2.477,-0.12000182094304146,0.9856628448298824,-0.1306329584777618,-0.21642738062250022,0.01479244663989841,0.3095386104302402,-0.006599484702116512,-0.02047926155131015,-0.03358892253003212,3,right
2.477,-0.1177841490037015,0.9887165448549863,-0.13443115653779036,-0.21607564307827376,0.014949170817714182,0.3089774556990421,-0.006600245004371185,-0.02242277191610495,-0.033447246240395315,3,right
2.483,-0.11604894889903311,0.9870282546675221,-0.12999421196123387,-0.21554043211626,0.014973168831267869,0.3080323453025221,-0.0066017247820983425,-0.022376262053896593,-0.033452021049755865,3,right
2.483,-0.11221576274580952,0.9885459790338402,-0.12560536691803448,-0.21745486686339388,0.014663158865360303,0.3113174477616265,-0.006594298733725152,-0.018644620431718488,-0.03371883367473794,3,right
2.4859999999999998,-0.1080827468013735,0.989886088006428,-0.12698447369851162,-0.2140054571574042,0.015286527586296563,0.3054262151261088,-0.006611127115418281,-0.027811761722609678,-0.03306187127522155,3,right
2.487,-0.10500862208121953,0.9892102905314282,-0.133502495065911,-0.21839854734004116,0.014468595233046102,0.31291851493843764,-0.0065834816916575875,-0.0126119873754138,-0.03415165797853907,3,right
2.491,-0.10405670087182947,0.9892298049929337,-0.13738102103497524,-0.21474580629124373,0.015158897547399299,0.30669392408156826,-0.006619900693116715,-0.032661651389023,-0.03271381527146348,3,right
2.492,-0.10405879631829812,0.9889560518976371,-0.13782761636220003,-0.21482232451653485,0.015128659263652632,0.30681587017841827,-0.006780159017361613,-0.11683786511944703,-0.026686420295930664,3,right
2.492,-0.1002402001883336,0.9886308621205595,-0.14175978520867275,-0.22184711673697316,0.013843085227934655,0.3188088256042557,-0.006816439156145612,-0.13688933026978856,-0.025247844953284953,3,right
2.496,-0.09481534748496823,0.9856504865480412,-0.14573487302890353,-0.2046126635440938,0.017019673052024994,0.28939857428570576,-0.006788707794529016,-0.12168650134114263,-0.026338316783171785,3,right
2.496,-0.08962285973335507,0.9837337889503254,-0.15276794862003698,-0.23317704832142316,0.01174629423932468,0.3381372271392926,-0.0068064298651185915,-0.13085681848700625,-0.025682036757291027,3,right
2.501,-0.08510531915314679,0.9855733915292014,-0.1619386234084917,-0.19550408164333727,0.018704292236884617,0.27385987853252974,-0.006796780837448545,-0.12712356565311445,-0.025945434786433012,3,right
2.501,-0.08491237460422399,0.9863150119334746,-0.1630139746522217,-0.03739575457434476,0.04789569618248864,0.004039957643189443,-0.006801891467325743,-0.12707512766786364,-0.025957031919277465,3,right
2.502,-0.08674236790949952,0.9894611397547431,-0.16190468616233322,0.0002748731329790411,0.05485385698425647,-0.06023505812945533,-0.006798368334019703,-0.12902572188973876,-0.025805993825171104,3,right
2.505,-0.0900985122352552,0.9949668153859985,-0.15604261622559112,-0.02827889565051258,0.049579741831487494,-0.011506986659045466,-0.0068010017328553034,-0.12668779733479607,-0.02598455709828526,3,right
2.506,-0.09768614029011088,0.9988412180942152,-0.14140984476954732,-0.011072118617704501,0.05275824689374195,-0.040889658367125575,-0.006801441510124514,-0.12851060446480372,-0.025849250967888725,3,right
2.511,-0.10500383086616115,1.0026399865919724,-0.12961047294554345,-0.01804626379795124,0.05146916645741258,-0.028947167752789344,-0.006793573384558967,-0.1275216059407891,-0.025910641873996644,3,right
2.511,-0.10772050862112338,1.005804758628933,-0.12329539753484203,-0.01819231238394867,0.051443739814478334,-0.02875594693060691,-0.006813264640042266,-0.12776178325809018,-0.025923767371793735,3,right
2.516,-0.10815135348110717,1.0091763539484773,-0.12142740253812126,-0.014471457490879216,0.0521293311383745,-0.03504839434762912,-0.006780621345006683,-0.1279964301829094,-0.025854781320543502,3,right
2.517,-0.1097680070666083,1.0103808986515659,-0.1214835039234929,-0.018892930316513595,0.05131335702912963,-0.027527831637008685,-0.006820395882261491,-0.12757704296892847,-0.025948805499477687,3,right
2.52,-0.11063740533504804,1.00967250741577,-0.11791680732975425,-0.015504520912345958,0.05194095572413073,-0.03335826569633798,-0.006788826397410994,-0.12797501817319823,-0.02586931624275037,3,right
2.521,-0.10872559878927217,1.0132689297177353,-0.11230865660483749,-0.017225805087188194,0.05161757038050083,-0.030265627107678505,-0.006787987041840193,-0.12769085891950482,-0.025889194991687,3,right
2.525,-0.10632697197688237,1.0159425801787014,-0.1082139645908495,-0.017022422837877076,0.05166453636789947,-0.03088011635339874,-0.006848303944725681,-0.12786254570433975,-0.025971527427755853,3,right
2.526,-0.10084127992017682,1.0163225529240394,-0.10513682179171568,-0.01626377607924947,0.0517931071084847,-0.03184666990174853,-0.0067110294301064525,-0.12775356127800327,-0.025763121889165613,3,right
2.53,-0.0931359812987771,1.0204842466598256,-0.10282807786393841,-0.017325974443297205,0.051606128963952815,-0.03029558448047603,-0.006915666313022388,-0.12784825914730658,-0.026078853672619584,3,right
2.531,-0.09164403498080478,1.0254310732276224,-0.10138077258696,-0.01653232046941408,0.05175283698586649,-0.03165209386159908,-0.006697568498176502,-0.12775997234392636,-0.025741408057902676,3,right
2.535,-0.09394840369519072,1.0293054655303542,-0.09847619207756589,-0.016668277734496705,0.05171050884122838,-0.030935303556323325,-0.00682350827214907,-0.1277909929735851,-0.02593775591606954,3,right
2.536,-0.09335219764592154,1.0321423421092364,-0.09763788320618111,-0.01734298698726027,0.05162519387940425,-0.030892050079666163,-0.006932378806587725,-0.12791669078871576,-0.02610010936127769,3,right
2.54,-0.09127254072504627,1.0330967534771425,-0.10194119044849796,-0.015989324806391002,0.051816602387276756,-0.0315487342415852,-0.006456471063528666,-0.12752860626916646,-0.025378359433841674,3,right
2.54,-0.08827088669402419,1.0338882206154758,-0.11024685988993049,-0.01755949369006524,0.05158904843166917,-0.030631976583044753,-0.007338884760751192,-0.12821901858685208,-0.026718786596949394,3,right
2.545,-0.08242500818726067,1.0348111156380293,-0.11799308906574703,-0.01656682324136123,0.05173635911014114,-0.03130703491157648,-0.00620593993775529,-0.1273391344101146,-0.024997298297430314,3,right
2.545,-0.074125974242613,1.0357818560371503,-0.11590613596379609,-0.01597672683829785,0.051814115748783605,-0.03143704658987825,-0.007151621108701491,-0.12807092852507534,-0.026434447074969794,3,right
2.552,-0.06379326436247998,1.0343633397515082,-0.11313704397073089,-0.01904951794564004,0.05138291489153071,-0.03003427685804172,-0.007126396276529954,-0.12806158438182078,-0.026395340133818137,3,right
2.552,-0.05590732760873347,1.0300309802986587,-0.11648431863007183,-0.01323483107613948,0.052204178378074,-0.03283280371426289,-0.0053222661010916324,-0.12663212619615316,-0.023656131492262266,3,right
2.555,-0.052552257183566584,1.026131374432209,-0.11720595380003321,-0.020743529704043417,0.051141675404594564,-0.02916821333229952,-0.009755861392860034,-0.13013299220572988,-0.03038857561618659,3,right
2.555,-0.04589945995729229,1.0210848424382362,-0.12151258304585573,-0.01445620605007408,0.052032355445126306,-0.03225784402050265,-0.0024053048617595292,-0.12433192103663125,-0.019226454600376645,3,right
2.562,-0.040428001626958185,1.0171690619999352,-0.1263989387103434,-0.01465601448852878,0.05200232197953522,-0.03212740753168586,-0.01210010739252963,-0.13198282575388873,-0.03394844880293406,3,right
2.563,-0.039257244519686645,1.016744126404618,-0.1266420398959998,-0.02656660705343483,0.05031946589092,-0.026360436516001118,-0.05280017141220622,-0.16411700386895478,-0.09575199277728838,3,right
2.563,-0.03613287375951403,1.01287603356,-0.1317915137855815,0.0027526534039497424,0.054464877238301804,-0.04060303371841337,-0.06249407832323018,-0.1717684559049683,-0.11047256842612242,3,right
2.5639999999999996,-0.03980940714549962,1.0064399571830884,-0.13427523617887038,-0.045879116461623404,0.0475873065638415,-0.016961908739973375,-0.05514449068566616,-0.16596679260840394,-0.09931198220533055,3,right
2.565,-0.045574321913182225,1.0033374669452526,-0.1320337080495927,0.018276198124318327,0.05666154215541948,-0.04815475889633278,-0.05957845490324061,-0.16946743327368602,-0.10604501000996183,3,right
2.569,-0.04707677400795414,1.0028836687478764,-0.13107849672464017,0.2875201828270058,0.09473717356362077,-0.1790442556535482,-0.057771109667134876,-0.1680399396076645,-0.1033007104466799,3,right
2.57,-0.059385021733502213,1.0032826231806102,-0.12426680459167623,0.35168920743709287,0.10381615900788504,-0.21024181088687666,-0.05775280191141699,-0.16802636872828597,-0.10327255732275603,3,right
2.57,-0.08088426204822576,1.0004924270693059,-0.1151809691049078,0.3030333092284765,0.0969306654331605,-0.1865887295737793,-0.05868856582460994,-0.16876422298431965,-0.10469400050390934,3,right
2.574,-0.10253520437672642,0.9969665552207438,-0.1097556799708165,0.33237985117262514,0.10108398277479312,-0.2008537093224863,-0.057565495988100596,-0.16787830434782527,-0.10298815175707036,3,right
2.575,-0.12512686619682056,1.000630519100366,-0.10735971456760937,0.3204505882462164,0.09939784494472617,-0.19505348902055836,-0.05844364980054739,-0.16857132009612297,-0.10432183063825129,3,right
2.5789999999999997,-0.14788149502646553,1.0060702575629117,-0.10910063948124582,0.32024560712171946,0.09936129182103529,-0.1949610991177393,-0.057959260011692035,-0.1681884181917308,-0.10358665108433568,3,right
2.58,-0.16926747904728268,1.011465810383097,-0.11027432794767592,0.3265766513204168,0.10027219290447528,-0.1980229941276127,-0.05809544962137983,-0.16829742267820227,-0.10379226545420364,3,right
2.5839999999999996,-0.18721601512587016,1.0226902760639636,-0.10818041065705054,0.3189790675004597,0.09917597179734278,-0.19435252738883052,-0.058174319730442126,-0.1683572058647644,-0.10391407272428554,3,right
2.585,-0.2011654923710534,1.0319865780753363,-0.10337133326812104,0.3249163205412897,0.10003700678186087,-0.19721579000099287,-0.05801398580813505,-0.16823362098679717,-0.1036681073111465,3,right
2.588,-0.21289698851899552,1.0350518429058941,-0.09504883540869433,0.32172580140094564,0.09957663869931285,-0.19567474089019482,-0.05817257410135059,-0.16835645899713703,-0.10391090635818534,3,right
2.589,-0.22398337405756402,1.0373328348598596,-0.08916525415396725,0.3223613014785848,0.09964836631515102,-0.1960036184562578,-0.05803488098677502,-0.16824772807785593,-0.10370185156055642,3,right
2.593,-0.23390927363085467,1.0398504372818413,-0.09258010316293783,0.3234652387081096,0.0998628201980821,-0.1964760001342165,-0.05818067079331031,-0.16836718793557612,-0.1039195263078442,3,right
2.595,-0.23770745259314555,1.0414812220274052,-0.10032896506388336,0.32155730394551696,0.09949260406216631,-0.19565932343689169,-0.05798451236009763,-0.16820237960197035,-0.10363010161303605,3,right
2.5989999999999998,-0.2314941962307831,1.0384086929347798,-0.10570548128028348,0.3234807975433705,0.09988775420569004,-0.19645830533088254,-0.058244315245888745,-0.1684223066485937,-0.10401204385797885,3,right
2.5989999999999998,-0.22094298416867392,1.0307390382276371,-0.11339100117358628,0.3221193648435169,0.09959709338088205,-0.1959050300634682,-0.057973494531475045,-0.16819271801134594,-0.10361416980442192,3,right
2.603,-0.20962006635524277,1.0231985608348018,-0.12732083791692567,0.32251288136306755,0.09965186351592237,-0.19609720177701884,-0.05812028599834035,-0.16831770934439555,-0.1038294012540933,3,right
2.603,-0.19550974660048343,1.0173854761611296,-0.14472724819070126,0.3233514900141634,0.09995251695746284,-0.19630360088782972,-0.05829474229056905,-0.16846332751647802,-0.10408753727959394,3,right
2.608,-0.18213107838186735,1.0136711567456889,-0.16228204320370607,0.32121628245619516,0.09923453158737107,-0.19572578495753606,-0.057609732851854834,-0.16788809573500352,-0.10307666130594761,3,right
2.609,-0.1709265743504333,1.0083952097367468,-0.17204339208556557,0.3243509808127671,0.10029845006255672,-0.19656299179299025,-0.058865861457534724,-0.16894359574587176,-0.10492987863753295,3,right
2.614,-0.16203621635503485,1.00254404467575,-0.16601010674267308,0.32107650039499747,0.09917381486471907,-0.19570336163856242,-0.05725620512894826,-0.16759090618047007,-0.10255508629361984,3,right
2.614,-0.15585385829001291,0.998758172045738,-0.15173587660839574,0.3229696060603245,0.09982375231024543,-0.19620028072187093,-0.058598589736761075,-0.16871900904016943,-0.10453570886504415,3,right
2.6180000000000003,-0.15455736533587255,0.9936017590878284,-0.14362170354711032,0.3244508240943629,0.1003628032176323,-0.196556360581076,-0.05856753228892225,-0.1686927675482774,-0.10448962717393957,3,right
2.6189999999999998,-0.16032487503074339,0.9910203401402652,-0.14554891672537792,0.3177722473112169,0.09797614677298908,-0.1949047346752339,-0.05599087942052919,-0.16652798212808068,-0.10068833334174723,3,right
2.6239999999999997,-0.16757229911547267,0.9926578175480332,-0.15409363507435406,0.33016843899961845,0.10240364796610038,-0.19797203498059907,-0.06231746040806032,-0.17184335776145926,-0.11002253511680139,3,right
2.625,-0.176919593979144,0.9954893608026348,-0.15982593238245985,0.31426242941252813,0.09672020726995102,-0.19403982382505636,-0.0518297383507184,-0.16303202674841438,-0.09454835215722485,3,right
2.63,-0.18435141451591602,0.9985810450895802,-0.15962358605910218,0.32753753042426315,0.10146433162398699,-0.19731941444213427,-0.06566232687467141,-0.17465340711548005,-0.11495846311172062,3,right
2.6310000000000002,-0.18710012190392145,0.9991305250563394,-0.15818423769952528,0.32715872775115495,0.10133345451332446,-0.19722408724168977,-0.1237377617412761,-0.223446764923163,-0.20064128104527817,3,right
2.6310000000000002,-0.1930492113898238,0.9995358706694591,-0.15268257243088335,0.3019218855216236,0.09229744278774132,-0.19100057677844334,-0.13757006559470092,-0.23506759254078574,-0.2210522138281064,3,right
2.633,-0.1970831400548067,1.0009824770440425,-0.14660389694697348,0.36397049913287655,0.1145090370933052,-0.20630080287146588,-0.1270826515185619,-0.2262568599467924,-0.2055771419381236,3,right
2.633,-0.2009506712487264,1.003054006182462,-0.14552902017221334,0.2610863998345594,0.07768098031802739,-0.18093454019279126,-0.13340934969464374,-0.23157246168589818,-0.21491100470701222,3,right
2.639,-0.20690387674862826,1.0061912377312743,-0.14607691084713056,0.39679207837268565,0.12625685255164093,-0.21438900964459034,-0.13083167507889232,-0.22940569529324512,-0.21111266202470774,3,right
2.64,-0.20775934299424278,1.0067820137234835,-0.14628291734809426,0.9663063430614235,0.33014314284122753,-0.35481258485148237,-0.1308028159816224,-0.22938371796686413,-0.21106023170718416,3,right
2.64,-0.20966836258470262,1.0069936704112254,-0.14201387323446213,1.1020164392505472,0.3787189373648001,-0.3882616143319199,-0.13214204865513282,-0.23050570539476775,-0.213049956003827,3,right
2.6430000000000002,-0.21406599097987639,1.0083230322597474,-0.13170331679676756,0.9991304745624805,0.3418913772697102,-0.3629026545156591,-0.13053553092743056,-0.22915910737652528,-0.2106661013863872,3,right
2.6430000000000002,-0.21796802621639902,1.0052415075992065,-0.1219830277265987,1.0611669481154364,0.36410154210443846,-0.3782000994799921,-0.1317903054110432,-0.23021197555588324,-0.21252322679423272,3,right
2.647,-0.22378184436386536,0.9977226423629508,-0.11752178857209547,1.0359672404796085,0.3550682643931661,-0.3719674140714172,-0.13110260052835407,-0.2296315208222017,-0.21152013760240673,3,right
2.647,-0.23026116003175867,0.9905769869043601,-0.11658173101501551,1.0355227547399037,0.3549335175412106,-0.3718987413992303,-0.13128573908505456,-0.22979397719900915,-0.21175319869937825,3,right
2.6519999999999997,-0.23790245996701836,0.9840685122825976,-0.11431543042891468,1.0488806495130563,0.35968157876663476,-0.3751345796415936,-0.1314175709367876,-0.22988994786826433,-0.21201163049650745,3,right
2.653,-0.24513541824991655,0.9777423429373437,-0.110171325004848,1.0329064131104189,0.3539962308575258,-0.3712528510665765,-0.1311651091118506,-0.22969598306927802,-0.21156074388924823,3,right
2.657,-0.24893077453860296,0.9737662345870781,-0.10486538437406112,1.0453056387058928,0.3584208165349334,-0.3742855286659512,-0.1314102758684811,-0.22988749681795634,-0.21198494267146722,3,right
2.658,-0.2529672813648278,0.9699528951373136,-0.09448611258871399,1.0387464946871097,0.3560444125064536,-0.3726201415321869,-0.13121398593444938,-0.2297224634780599,-0.21169591211677458,3,right
2.6630000000000003,-0.25641781974934674,0.9667464348256009,-0.08055119755476342,1.039947656392128,0.3565652569165968,-0.37307145000458525,-0.13138693898288795,-0.22989458622071457,-0.2118351296008664,3,right
2.6639999999999997,-0.2579791134260297,0.9647689599495273,-0.06953686249834742,1.0422638988375694,0.357238153236481,-0.3733753947596546,-0.13118717076701253,-0.22966545192887258,-0.211805343871669,3,right
2.667,-0.26253891180291977,0.9610141343816226,-0.0631535753233366,1.0385332006880907,0.35609427234964763,-0.3727832662455417,-0.1314383634722286,-0.2299679532375531,-0.2117807281429338,3,right
2.668,-0.2692722949781944,0.9605371546658801,-0.06316345024370508,1.0419374156870167,0.3571601970740254,-0.3733613984253901,-0.13117931294339355,-0.22965279272105665,-0.21181980194600888,3,right
2.673,-0.27661838834112207,0.9608736403129617,-0.06922018529095642,1.0400214153923564,0.3564729253589376,-0.3728867036867183,-0.13131521756035225,-0.22982335290727113,-0.21177696907239835,3,right
2.673,-0.28165952147122464,0.9580776858776522,-0.07230420973659676,1.03986259725863,0.3566994504575305,-0.373332057807839,-0.13150058552545468,-0.23002758561875597,-0.21184048282063944,3,right
2.678,-0.28054619972341915,0.9584206373031587,-0.06965224687107559,1.0421421526188261,0.3568679282567706,-0.37278682565622145,-0.13080099538483303,-0.2292273634164191,-0.211726832140256,3,right
2.679,-0.27817609281526623,0.9589904015894859,-0.07019843400570669,1.0382826207928937,0.35645231232807195,-0.3734870924719046,-0.13207822904720617,-0.23069453535634116,-0.21190803354927482,3,right
2.682,-0.27678669931015293,0.9609911239701191,-0.07397379948834179,1.0424821771786716,0.3569258795603868,-0.3727615894080203,-0.13044273233266324,-0.22881433191213518,-0.21168186945924722,3,right
2.6830000000000003,-0.2746508581078333,0.9680225275216977,-0.0721122947260766,1.0399210676647517,0.3566040701999774,-0.37314763254587546,-0.13180627954544022,-0.2303826034116333,-0.21186822191740817,3,right
2.6860000000000004,-0.2757168706166471,0.9740284724393725,-0.06574363604947601,1.0383809155060229,0.35656562242057466,-0.373644884151351,-0.13177643051808202,-0.23034576976900117,-0.2118729799904896,3,right
2.687,-0.28000115844395046,0.9785433602669137,-0.06486000775562564,1.0462134608317022,0.35712479806268194,-0.37173769102646537,-0.12915329916131552,-0.22733672237658553,-0.2114849924620068,3,right
2.6910000000000003,-0.2838311721989656,0.9831101400919178,-0.07137106975809915,1.0314914716147994,0.35601749236781866,-0.375226260852082,-0.13559229028783895,-0.2347262199337236,-0.21242754285058676,3,right
2.6919999999999997,-0.2907115175860336,0.9885452449826395,-0.07509030827832658,1.050438434852352,0.357454771172831,-0.37075731875086615,-0.1249183337406552,-0.22247544687854326,-0.2108670366756567,3,right
2.696,-0.29696555436315086,0.9929567339737714,-0.07211619164849531,1.0346042394850576,0.35624905775318605,-0.37448434699229655,-0.13899700908965407,-0.23863445795363147,-0.21292595565347533,3,right
2.697,-0.30016782496557726,0.9947402106390751,-0.07083804173698073,1.035097942109366,0.35630489878204363,-0.3743991493331731,-0.19810274026791563,-0.3064650758339039,-0.22157319064214198,3,right
2.698,-0.3105915264975118,0.9996669066315123,-0.07582695824170554,1.0650735780260687,0.3585265347822667,-0.3672398666780449,-0.2121822208258043,-0.3226255844745026,-0.22363485207330225,3,right
2.702,-0.3231148968644212,1.0061521710378254,-0.07590766062395171,0.9913235808522057,0.3530399113411,-0.3848191336390078,-0.20150739294093561,-0.3103731916644026,-0.22207137884371428,3,right
2.7030000000000003,-0.3266417708327196,1.008467655808774,-0.06296920337480151,1.113619583904108,0.36214223867331796,-0.3556750617087862,-0.20794605327590787,-0.3177620711660152,-0.22301280037474294,3,right
2.7060000000000004,-0.3250867816586067,1.0082943730270397,-0.052174267001762545,0.9523159288215663,0.3501379714606836,-0.39411755596132597,-0.20532581058751775,-0.3147584020975286,-0.22263465590662512,3,right
2.707,-0.32356846969161157,1.0072515213471434,-0.05205535240452505,0.27527844520511063,0.2997599085473738,-0.5554807211351755,-0.20528974547563728,-0.3147099988203307,-0.22261823589330887,3,right
2.708,-0.3195173867485892,1.0053048626555898,-0.05628061060474325,0.11399286326814881,0.28776245164787007,-0.5939287502237609,-0.2066622058926171,-0.31629485681986574,-0.22283495302919046,3,right
2.7110000000000003,-0.310244899667367,1.0043218293535852,-0.061920920996386186,0.2362693122149611,0.29685741083694306,-0.5647786894796099,-0.20501783273696564,-0.31439813919185966,-0.22257855255794273,3,right
2.7119999999999997,-0.3001327139059509,1.0053846109810465,-0.05868722240627457,0.1625118785686394,0.2913679843934726,-0.5823556806036994,-0.20629889781177196,-0.31587243203736065,-0.2227727994752558,3,right
2.717,-0.2916739789964641,1.0066615835074,-0.043235042994591785,0.19255237572540415,0.29361406301010595,-0.5752162582626732,-0.2056069267666033,-0.31508640149413375,-0.2226851152739603,3,right
2.717,-0.28481879462145915,1.0057535716450272,-0.03134494615570381,0.19290652057107688,0.2936173135202935,-0.5750883262935783,-0.20576774601574443,-0.3152449374475845,-0.22266498755901093,3,right
2.72,-0.2803817637175518,1.0058589538471163,-0.029459575000769837,0.17727242324607226,0.2924870035473825,-0.5788766287350977,-0.20594595221346107,-0.3154942245445518,-0.22276627027409962,3,right
2.721,-0.27215713761635707,1.0103924423384059,-0.026376742189352168,0.19602012996175922,0.29384919711263974,-0.5743466679812439,-0.20563498373420686,-0.3150824575414747,-0.22262848041403294,3,right
2.725,-0.258927366115703,1.0131310945199732,-0.015813423381183418,0.1813841174149583,0.29277428771643443,-0.5778615705651147,-0.20592757286545965,-0.3154619615073633,-0.2227448654825665,3,right
2.7260000000000004,-0.24467107207005107,1.0103158686834406,-0.004788467397662751,0.18938776395668783,0.2933979436034745,-0.5760067648732482,-0.2057281622171514,-0.3152335518750359,-0.2227163442628245,3,right
2.73,-0.2247906707051473,1.0046126234648103,-0.003012307597208333,0.18729644321262068,0.2931517935804058,-0.5763352449867235,-0.20582432044981497,-0.3152626898510979,-0.2225938832469374,3,right
2.7310000000000003,-0.20361292929425634,1.001060981082286,-0.013578678863948968,0.1856850224800533,0.29318786014925324,-0.57701209811166,-0.20580355278566298,-0.3154243545104959,-0.22290286063935882,3,right
2.737,-0.19048064983176594,1.0044490399483532,-0.03046059244495483,0.18871907031724627,0.293222227875248,-0.5759296880675977,-0.20578685232981642,-0.3151285438345312,-0.22243494029303745,3,right
2.737,-0.18490846415453224,1.0086120321838683,-0.043034086387710425,0.1857887414700197,0.2931567569891932,-0.576914513563146,-0.20581356741979012,-0.315454009969942,-0.22293505976373712,3,right
2.74,-0.18439368021216554,1.0095849958366827,-0.044288513849152784,0.18807657004628092,0.29332836900709236,-0.5763717823334567,-0.20578405824140217,-0.31524997420577544,-0.2226440311583619,3,right
2.741,-0.1832783943144744,1.0090109514515961,-0.03950382575038139,0.1861934138237369,0.29290508562227213,-0.5762891508817332,-0.2058282170601522,-0.3151534339594323,-0.22240333901133502,3,right
2.745,-0.1842920746762755,1.0052901761446975,-0.03404977585575139,0.18821811308783437,0.29370281722771174,-0.5770211422196347,-0.20574896506005447,-0.31570566600235117,-0.2234734012489738,3,right
2.7460000000000004,-0.1940553699663431,1.0006778170933144,-0.029930442666049648,0.18574343360945855,0.2925533784433554,-0.5757990438475098,-0.20587526939400413,-0.31465828978837274,-0.22148593641783465,3,right
2.75,-0.20746905725717213,0.9942486258416109,-0.03441559492834148,0.18827979055663388,0.2937711030653611,-0.5771260666172819,-0.20571785054490607,-0.316008176335001,-0.2240386355707244,3,right
2.7510000000000003,-0.22070080360115013,0.9865649576087517,-0.044603396613946654,0.18697494959185254,0.2930795228308536,-0.5763210319671813,-0.2058471734270721,-0.31487949046626684,-0.22190720620307441,3,right
2.755,-0.230290419953595,0.9829195010624309,-0.05760889007453839,0.185054531251835,0.2924239496567267,-0.5758166525541066,-0.20585136423052186,-0.3149173039389658,-0.2219660278342775,3,right
2.7560000000000002,-0.2331038879796167,0.981599222792214,-0.07461747199641278,0.19215667617649312,0.29519568351600417,-0.5783344021890255,-0.20558002040781276,-0.3170448201736402,-0.22602659862104613,3,right
2.759,-0.23485422784421994,0.982150063174626,-0.08810772466195829,0.17922099447620382,0.2900731694254426,-0.5736091648381406,-0.20623742875857942,-0.3118078818539358,-0.21604480741381166,3,right
2.76,-0.24110553503883628,0.9851673500769791,-0.0948691613559663,0.1957779370182236,0.2966465972576033,-0.5796892213866403,-0.20515041975903714,-0.3204920120820069,-0.23259552187213228,3,right
2.765,-0.2461429232100033,0.9871237694651104,-0.09463346804871145,0.1819772877318005,0.2911606579788566,-0.5746081120099694,-0.2065831693747638,-0.30903894444937,-0.21076505471151566,3,right
2.765,-0.24630201617654848,0.9874900271881465,-0.09449527351044007,0.18226766143724002,0.29130237547982096,-0.5747653587813648,-0.21261699025420017,-0.2609599857612141,-0.11913498262328924,3,right
2.766,-0.2518044305570363,0.9869800644110448,-0.10230053758589364,0.20885437282616945,0.3017845419298649,-0.5843895070596445,-0.21404922709589957,-0.2495103546716068,-0.09730439558590587,3,right
2.77,-0.2608279917670972,0.9861844201373434,-0.11318901512359711,0.14360663087055525,0.2760292422731719,-0.5607111091886112,-0.2129627727738334,-0.25819076720187506,-0.11385523947931855,3,right
2.772,-0.26402981438344253,0.9898879522722257,-0.12596275726143913,0.25176334872341444,0.31872972049283965,-0.5999772485817785,-0.21362039251909457,-0.2529524132901991,-0.10387349853472368,3,right
2.775,-0.2652383346939622,0.9962264817476811,-0.13414862865614796,0.1091095749222069,0.2624094256521453,-0.5481845353879311,-0.213347207606914,-0.25509226589861633,-0.10793363717276921,3,right
2.775,-0.2657986939533142,0.9966812765305799,-0.13479426024590208,-0.4898081091018655,0.02598992308137875,-0.33081503678381463,-0.21335535920586696,-0.25510353815305564,-0.10799338733948352,3,right
2.7760000000000002,-0.26160297811996447,0.994941554953776,-0.13931855511345437,-0.6324658948615252,-0.03032793237324725,-0.2790235622751661,-0.213479003544069,-0.2540129053665793,-0.10586062767075727,3,right
2.779,-0.24802473194570246,0.9961611816567987,-0.1457808075362458,-0.5243079445831103,0.012368357914891404,-0.31828896667283485,-0.21332723879866347,-0.25532490103244876,-0.10841465023872227,3,right
2.78,-0.22915622191641294,1.0001793594868338,-0.15410718144474736,-0.5895430261572565,-0.013382460094512178,-0.2946079155283028,-0.21345110449629634,-0.25429387022894506,-0.10642661676882782,3,right
2.784,-0.21527804837865663,1.0091259544610924,-0.17289535337532544,-0.5629934102356917,-0.0029028477124035546,-0.3042409284414791,-0.21336699493579117,-0.2548786483790002,-0.10749553706628306,3,right
2.784,-0.20259770818603562,1.0170716551770993,-0.19657661090117406,-0.5626383842073275,-0.0027631898359383542,-0.30438205414102326,-0.21342679730609299,-0.2546772832702172,-0.10725851394630953,3,right
2.79,-0.18526902908598142,1.0214708741362934,-0.2097807098822908,-0.5765195915267107,-0.008240127192554531,-0.2993216953801331,-0.21337033590560034,-0.2546538564992943,-0.10696116883499746,3,right
2.7910000000000004,-0.16466130036862003,1.024369757974536,-0.2042631695765199,-0.5598975951680981,-0.0016832193734267627,-0.3053840413257365,-0.21343012571525372,-0.2547576792964298,-0.10746903452807385,3,right
2.7939999999999996,-0.13918693237631108,1.0219448500519042,-0.1979263831870303,-0.5728331836337929,-0.006784573423398229,-0.3006609624479528,-0.21338706010636693,-0.254638559652165,-0.10699494705474519,3,right
2.795,-0.10920592400530553,1.02389225775355,-0.20969955458948691,-0.5658517979480424,-0.004030988146799345,-0.3032065558641943,-0.2133660491735596,-0.2548018305540248,-0.10730384984164235,3,right
2.799,-0.0823352055729056,1.035415536516246,-0.22466639089639306,-0.5674948560061367,-0.004683723049290755,-0.3026342201297649,-0.21351115323258044,-0.25450300407692156,-0.10719287844933312,3,right
2.799,-0.06130933935828151,1.0464912073518733,-0.22524998598837168,-0.5692142326774475,-0.005348621191812769,-0.30193393926813666,-0.2131999001748182,-0.25502404488508706,-0.10713813526303326,3,right
2.804,-0.04096732165644852,1.056253704439297,-0.21865324768207506,-0.5662364133309704,-0.004197162448919107,-0.30314550183422817,-0.21365932792072723,-0.25428553656343417,-0.10729361066661872,3,right
2.804,-0.02059818582778371,1.0652383875861773,-0.21803367902124487,-0.5689625739231872,-0.0052437103588181076,-0.30199589131004945,-0.2131705203163559,-0.25506554092944766,-0.10711418460043387,3,right
2.8080000000000003,-0.0034486068776279155,1.0795225165638989,-0.2149696696487134,-0.5671713556816776,-0.0045602755752854164,-0.30277355189312577,-0.21345145538991983,-0.2546263272601226,-0.10723946456076727,3,right
2.8089999999999997,0.0014653984587190798,1.0993431453009777,-0.18760613632374878,-0.568057446985531,-0.004910237723051627,-0.302453134474474,-0.21370091439785596,-0.25419101982375303,-0.10724021242839331,3,right
2.8139999999999996,-0.009483243015755484,1.1008592137494508,-0.15613523279904568,-0.5676286369955675,-0.004697123110984053,-0.3023721248923179,-0.2126211917937475,-0.2560032209353862,-0.10706156490430191,3,right
2.815,-0.02412420682691839,1.0804315221095702,-0.1520270197789827,-0.5681221878438663,-0.004992205599791973,-0.30273366776964283,-0.21462127207427928,-0.2526593611388992,-0.10742433866886539,3,right
2.818,-0.03286240915792578,1.0628956080443395,-0.15434756895801455,-0.5672730650051474,-0.004507422607675655,-0.302235333982106,-0.21205372151396518,-0.2569490963926069,-0.10695170600158801,3,right
2.819,-0.028166511648075255,1.0596895742309467,-0.1508076590861318,-0.568328050748937,-0.00508336129287211,-0.3027121620972652,-0.21419678918511043,-0.25336961972261024,-0.10734870304092393,3,right
2.824,-0.01719124907318472,1.0675761633499392,-0.1502079454406594,-0.5677200843886967,-0.004751211160316036,-0.30243608242530406,-0.21414011478720651,-0.2534600151290122,-0.1073279636316663,3,right
2.824,-0.018190412524178412,1.0771274735553216,-0.1575192658301714,-0.5668637284204039,-0.004333732115848345,-0.3023186769965359,-0.21004988383901127,-0.26030604620898234,-0.10660471892242229,3,right
2.8280000000000003,-0.03316597212800071,1.0869254823723946,-0.17102711818474142,-0.5701814076382141,-0.00599103989227905,-0.302988580880052,-0.22010109275831805,-0.24348755525115995,-0.10839322089488237,3,right
2.8289999999999997,-0.058571438851364954,1.1077511714421224,-0.16314285585486665,-0.5640501506293119,-0.00292599279430359,-0.30173845467207205,-0.20343687565405538,-0.27137058091528365,-0.10542610974192299,3,right
2.8339999999999996,-0.07541908439527266,1.1238352364508946,-0.14874106020623112,-0.5719504429724713,-0.006872502955863363,-0.3033337867482644,-0.22541594701136322,-0.23459418926404754,-0.10933829686138938,3,right
2.835,-0.07997202951561624,1.127739343719115,-0.14079150051076156,-0.5653426849684716,-0.003572949145841547,-0.30200612369123203,-0.3176845002717954,-0.08020550859869642,-0.12576300703623966,3,right
2.835,-0.09300425523946004,1.137067341588255,-0.1084505575393065,-0.5654853396923001,-0.003647948388861963,-0.30205593654426327,-0.3396621347723173,-0.043430087536995426,-0.1296710055833055,3,right
2.839,-0.1064808738951466,1.1368656866606424,-0.07374120379555484,-0.5782378716924265,-0.009999937465347185,-0.30452988866635844,-0.3229994721886777,-0.0713120631264015,-0.1267084256422731,3,right
2.84,-0.1162306514231245,1.1224660117182113,-0.06559641073895012,-0.5469212669803758,0.005601570697935177,-0.29843837830092845,-0.3330512725934123,-0.05449317263679018,-0.1284986531310819,3,right
2.843,-0.1232145380208285,1.114085820598405,-0.0818399428114404,-0.5988500015109397,-0.02026817990590492,-0.30853619514057806,-0.3289558844729769,-0.06134268733255342,-0.12776037214018024,3,right
2.843,-0.12230573769438884,1.1102277306640778,-0.1011004349820645,-0.5303408395451688,0.013860048473421344,-0.2952258007625287,-0.3289103060623959,-0.0614255874970317,-0.12777198249282767,3,right
2.844,-0.12005791527264141,1.1101786876717175,-0.10627071546921907,-0.2424755295307667,0.1572333454177885,-0.23956243388710208,-0.3310374645953277,-0.057856857325131565,-0.12812259869663956,3,right
2.8480000000000003,-0.10837452255916877,1.1193236429363176,-0.11082975320470179,-0.17389913677687185,0.19138872710253366,-0.22630123546680625,-0.3284857558965759,-0.06213589150679926,-0.12769614896521558,3,right
2.8480000000000003,-0.08404049398822927,1.1325483661299873,-0.1013345980846514,-0.22596593350282898,0.16546314307210808,-0.236294978416601,-0.3304790013014599,-0.05879664865821961,-0.1280390006567329,3,right
2.852,-0.053059067849616684,1.146218134968243,-0.08160887541020012,-0.19444561816175282,0.1811471834109592,-0.23036332620206723,-0.32938567373554684,-0.06061803975057284,-0.1278206837622708,3,right
2.853,-0.018310413818474185,1.1619506643490203,-0.08369031364498988,-0.20743387168934954,0.17469946057220365,-0.23264253783486769,-0.32967895570118044,-0.060153130318683024,-0.12794919769761978,3,right
2.859,0.012305344678536318,1.1753845106060223,-0.09916832444454515,-0.2073880056550924,0.1747013878929024,-0.23286331295456658,-0.3298843833529772,-0.059764921280714256,-0.1278543427371217,3,right
2.86,0.04074504361353677,1.1820443519774186,-0.10980646044081449,-0.20079542849206444,0.17799396634560963,-0.23148910800186556,-0.3294882408276611,-0.06048233107811059,-0.12794506533148098,3,right
2.864,0.06612890726551468,1.185669976806186,-0.10894878058332078,-0.20899925953997928,0.1739253488547543,-0.2328827482120795,-0.3298737936895992,-0.05979372481321948,-0.1278851832576522,3,right
2.864,0.08040495160911444,1.188386138823207,-0.1026775396818524,-0.20214532382789915,0.17728272031860337,-0.23218022386225334,-0.32956187723680885,-0.0603152134542104,-0.12782847925733534,3,right
2.867,0.08249894114809182,1.19056810393695,-0.1010865898076229,-0.20656573933114564,0.17517810492336278,-0.23196208814727393,-0.3298440851493484,-0.059923774774786574,-0.12811724994422957,3,right
2.8680000000000003,0.07563682469876899,1.1958828403059618,-0.10103456181266701,-0.20450283501897565,0.17608650548552568,-0.23287946641386514,-0.3295097554785438,-0.06029868968890491,-0.127512684671178,3,right
2.873,0.06538753469441307,1.2063466006288062,-0.10124225112406307,-0.20464194004566855,0.17611217255223727,-0.2318571336564204,-0.3299341031832357,-0.05986383610438969,-0.12840128259616207,3,right
2.8739999999999997,0.053545942265433216,1.2175596261506447,-0.09971323094237558,-0.20619494861209972,0.17533935279787488,-0.2321484294512206,-0.3294956282519611,-0.060304233244087235,-0.12745656735728894,3,right
2.877,0.042344251081667394,1.2238897653763787,-0.09008148289180037,-0.20283410551486036,0.17683753059148563,-0.23344420667050822,-0.3297270453502068,-0.06008634569061823,-0.1279983865133725,3,right
2.878,0.04014544055027628,1.222296035527317,-0.07767530995539929,-0.20817540859479422,0.17457909483342343,-0.23003036669043692,-0.33003506941128635,-0.05971731055866865,-0.12848518593419392,3,right
2.8819999999999997,0.045686595612732556,1.2141182346770263,-0.07601052212864239,-0.2012309728783051,0.1774381457961629,-0.23532125509312807,-0.3288647556116918,-0.061035809122921496,-0.12638724100980891,3,right
2.884,0.042774929002909745,1.2112030177672206,-0.07776099555231862,-0.20818262471085303,0.17461533564991272,-0.229593757799412,-0.33100294352454596,-0.05864412082558658,-0.13027180680646477,3,right
2.887,0.016140620955258644,1.2152052605699923,-0.05816428097888139,-0.20439675475026658,0.17613098518170026,-0.23294783329304858,-0.32826474401662503,-0.06170323352602192,-0.12528550462012328,3,right
2.887,-0.029889310605645224,1.2157419084450218,-0.03151963312680887,-0.20064668487545684,0.17768117925820906,-0.23574465914292028,-0.3305475954951186,-0.05915406920345579,-0.1294472289321541,3,right
2.892,-0.06940749844183568,1.2140998555082114,-0.042029644769326316,-0.2160316037935764,0.17141117691198435,-0.22330507020179025,-0.33049748344102076,-0.05920470637304638,-0.12933789308190358,3,right
2.8930000000000002,-0.09426534190950314,1.213877410382222,-0.07819869016200712,-0.18780014990019825,0.18288836999472197,-0.24643268226922213,-0.32610669719023727,-0.06412595451628972,-0.12139264073077093,3,right
2.897,-0.10860201686596763,1.2179917770786006,-0.08244184653925397,-0.22391660017047152,0.16821903858046117,-0.2167095161160375,-0.3368845157639818,-0.05205149836731463,-0.14091608359504598,3,right
2.898,-0.10081024739447207,1.2216230824074814,-0.05324339532280075,-0.19382392158081244,0.18043458719448857,-0.2415357234877053,-0.3190185836419256,-0.07206630793677664,-0.10854795593569307,3,right
2.9010000000000002,-0.08747839782657052,1.2206002679119679,-0.02997330212564944,-0.19458358229620867,0.1801351906929743,-0.24085220556324444,-0.3425825924087379,-0.04566683746091637,-0.15123926566228024,3,right
2.9019999999999997,-0.0838346518069823,1.220214921161548,-0.027435322947586525,-0.25206903034714645,0.15678101665333116,-0.19353619752607332,-0.44151738257010753,0.06516585238120665,-0.3304617033726708,3,right
2.903,-0.07368077038254453,1.2211769356004107,-0.058274522046519665,-0.11087653754069361,0.21412512664706942,-0.3098543498471766,-0.46508147160354635,0.09156848687737613,-0.37314990039660983,3,right
2.907,-0.06349553033739323,1.2343687883596774,-0.09999110143057685,-0.3449291244643155,0.11907740019100811,-0.11698222877794881,-0.4472154531394887,0.0715502562356303,-0.3407851392915847,3,right
2.908,-0.0608937486362443,1.2487453900051362,-0.11398857888166106,-0.03624456627642801,0.24442405786178764,-0.37138678533512065,-0.45799323690864396,0.08362340265125637,-0.3603098672147318,3,right
2.9130000000000003,-0.05939615982997841,1.2542733787576152,-0.10814973002744621,1.2595517839722932,0.7706827055519374,-1.4392109288190633,-0.4536027423850191,0.07871352578369513,-0.35235343509497535,3,right
2.9139999999999997,-0.05684793380894125,1.2756719912327248,-0.0884172321861261,1.5682102242643536,0.8960061754338269,-1.6936233956978626,-0.45355200508864296,0.07863843257819121,-0.3522681481290433,3,right
2.9139999999999997,-0.05502065687539079,1.3034303387742356,-0.07170226517769326,1.334198969810545,0.8009900515714451,-1.5007401865268524,-0.45583575107971996,0.08122265332755113,-0.3563953958639362,3,right
2.917,-0.06107586350206497,1.3246174314274293,-0.07195192840973284,1.4753558992549443,0.8583206271233303,-1.6170640439079538,-0.45309666326974785,0.07812864244276148,-0.3514434193532556,3,right
2.918,-0.06835153994783319,1.342245226051513,-0.07092328770723004,1.4178721916068233,0.8349308086656728,-1.5697579528546757,-0.4552352299265141,0.0805353687885855,-0.35531318502776565,3,right
2.9219999999999997,-0.07239142481388414,1.3499422808966757,-0.07629336817298732,1.4171725677612215,0.834739887175679,-1.5690407569642202,-0.4540656893885005,0.07924688349592937,-0.35318573942235965,3,right
2.9219999999999997,-0.07765650201962704,1.3555164139605949,-0.09015936483053585,1.4471281029870302,0.8467744607496146,-1.5939251312043532,-0.45437124056662764,0.07951931642158001,-0.3537675259298486,3,right
2.926,-0.0756153113180676,1.356691010433246,-0.09138407619571422,1.4112119977446094,0.832317122906234,-1.5641317031897266,-0.4546069083238372,0.07990360883614495,-0.3541457026648466,3,right
2.928,-0.06423187992694931,1.3503882657602295,-0.07874610306187316,1.4392385776376106,0.8436438330956463,-1.5873125453109704,-0.4541632276218206,0.07925903877286683,-0.35340179188684107,3,right
2.931,-0.048069726309620954,1.3470599077798058,-0.06432420665367988,1.4239544966495656,0.837327760336782,-1.5748804954702105,-0.4545917094069867,0.07985659780486595,-0.35413033738895894,3,right
2.932,-0.02943905850925251,1.348408159653181,-0.06040009433327075,1.4278492222442472,0.8392602969758554,-1.5775622013512125,-0.4542574538910157,0.07948329644352212,-0.3535242569563112,3,right
2.9360000000000004,-0.016341814646018075,1.3551165007753472,-0.06490185568675177,1.431119264795257,0.8399843212944118,-1.5811662105546873,-0.4545319044526084,0.07957242156524544,-0.3541102464255328,3,right
2.9360000000000004,-0.009417430157345587,1.3662842200571044,-0.062366210459434,1.4250838743837142,0.8382741542986692,-1.5750771867885094,-0.45423764842909004,0.07974152315268518,-0.35337445983391225,3,right
2.9410000000000003,-0.004252622099016224,1.3783641686995076,-0.050279082926516894,1.4308744951285661,0.840035214584319,-1.5807382058214459,-0.45459690907886807,0.07940011894309461,-0.3543275294480427,3,right
2.9410000000000003,-0.002660961219750145,1.3903589283185522,-0.03726935419198662,1.426497912056982,0.8382528233955999,-1.5771390233338731,-0.4542287281602872,0.07978043326476654,-0.35333857973877214,3,right
2.946,-0.0028401469318832624,1.400533138408467,-0.02830552046184695,1.429762210762024,0.8406735589393619,-1.5781808842150542,-0.45441811348742517,0.07953488342441722,-0.35386728121400474,3,right
2.947,0.0006475819830354787,1.4081693401945556,-0.0205530646598372,1.426663382759156,0.8369121881608845,-1.5793942326947565,-0.4546972084569658,0.07945187777694164,-0.3545341991890627,3,right
2.9530000000000003,0.008461740308122856,1.4137220799973282,-0.006434834524322397,1.430241883476205,0.842099617022792,-1.576723254502706,-0.453665216839079,0.08002506288691089,-0.35196142454020696,3,right
2.9530000000000003,0.02148212992857771,1.4166087110599834,0.009780489023964592,1.4266214668005954,0.8366482679808772,-1.5797309613321366,-0.4555450272824818,0.07892493687011806,-0.3566698714822043,3,right
2.955,0.03854151999954415,1.4182210583059573,0.019006681153342427,1.4284064889104122,0.8396741048354832,-1.5777397719341089,-0.45313866333452807,0.08034488236206233,-0.35063854828032576,3,right
2.9560000000000004,0.05307095849853406,1.4211991242705433,0.02085534825411933,1.431465794472102,0.8428978408275771,-1.5772779430675032,-0.4551449378961292,0.07915785492036924,-0.35566727197598,3,right
2.96,0.0658563585772978,1.4254309267756744,0.02859427014168206,1.4205652830209559,0.8297953902236046,-1.58135298733276,-0.4551015711525076,0.07919895930658893,-0.3555548582848129,3,right
2.96,0.08039662598913935,1.4282788963742166,0.04689324847821301,1.4403317946370633,0.8539136578509737,-1.573424841691069,-0.45123922596355454,0.08142902471202151,-0.3458901451104842,3,right
2.965,0.09387321163943071,1.428594471236325,0.0619857843893923,1.4150505383950813,0.8229834045578197,-1.583688528461217,-0.46072038124031356,0.07594096589013159,-0.3696151963986619,3,right
2.966,0.10290594000585075,1.4304088854866222,0.088216711800356,1.4361171494460199,0.848792106196899,-1.5750855977702116,-0.445002246275022,0.08503768756642338,-0.3302876627837379,3,right
2.971,0.10441525779137296,1.4328557848331134,0.11477772465928798,1.4357004035151808,0.8481499148517857,-1.5754490312022034,-0.4657356922588255,0.07304568185407997,-0.3821568424990527,3,right
2.972,0.10520688400069514,1.433089745381639,0.12142876485614632,1.3950242298987376,0.7987463698949513,-1.5914260082203633,-0.5527630073644003,0.02265023782112639,-0.5999439234276078,3,right
2.9730000000000003,0.10584648764344223,1.437235120995601,0.14074151948064226,1.4948234094569468,0.9201144039048527,-1.552001393247429,-0.5735006305609801,0.010671339875845306,-0.6518106430752689,3,right
2.975,0.09449938797289845,1.4448171878513145,0.15761480729866267,1.3293939137489852,0.71888769624258,-1.6174108587120806,-0.5577779768930431,0.019753879983683276,-0.6124857691865355,3,right
2.9760000000000004,0.08508310073458625,1.4485086148213449,0.155133340268414,1.5475970237760608,0.9843170952870487,-1.5311302139530505,-0.5672574105524772,0.014260426770168045,-0.6362118395279515,3,right
2.9789999999999996,0.08159320641835235,1.4478146995663088,0.15362492347642093,2.463692418878377,2.0984703457351297,-1.169166896927996,-0.5634100624754229,0.01653753563510824,-0.6265382835556303,3,right
2.98,0.06788256486191024,1.4455975582381924,0.14245488980767024,2.6819311212143733,2.3639439847548864,-1.0828946580996632,-0.5633344313164641,0.01647742099819284,-0.6264448869526603,3,right
2.9810000000000003,0.05613693695458995,1.441760229669009,0.1309702127717089,2.516455635400839,2.1626520403732634,-1.1482989323455293,-0.5653869634889452,0.01543552036097236,-0.6314463514550258,3,right
2.984,0.053089656139337096,1.4354237801579162,0.12994466179717096,2.6162666687732106,2.2840634017470234,-1.1088570322954974,-0.5629345403791677,0.01671095076278302,-0.6254421634116081,3,right
2.985,0.05239139898150093,1.4300167658755794,0.1293880621682139,2.5756635998139115,2.234691775230731,-1.1248926808884205,-0.5648342175060892,0.015673178621962523,-0.6301389193230209,3,right
2.99,0.05351843990542107,1.42616356645203,0.12895310653892383,2.575053062218812,2.233896160407062,-1.1251489175731137,-0.5638417935425897,0.016370464474622863,-0.6275428035584163,3,right
2.991,0.05134808797944873,1.424299461172292,0.12340686419090456,2.5964267526853613,2.259992691777782,-1.116684439077172,-0.5639934579615205,0.01588770307388987,-0.6282848411390283,3,right
2.9960000000000004,0.04868487078443809,1.4285002091286971,0.11388521811693073,2.5708032070670663,2.228691062535055,-1.1268293013095547,-0.5644023956369334,0.016330944995664266,-0.628684147343614,3,right
2.9960000000000004,0.04893143578143418,1.4350631573690449,0.10554848019553215,2.590785197563484,2.2531269726019296,-1.1189170584882433,-0.5637647857585085,0.015865943570100967,-0.6278539567040009,3,right
2.9989999999999997,0.051865570235759,1.4400731621573883,0.0985160219554868,2.580022408419917,2.2399807212647165,-1.1231756383948333,-0.5643388230289108,0.016198459144391348,-0.628680517732422,3,right
3.0,0.06283005059979088,1.444015927546051,0.09207826185301402,2.5823693606913523,2.2427216087475976,-1.1222627902302533,-0.5640465389310783,0.0163735820330589,-0.6279434614666191,3,right
3.005,0.08100278200459464,1.4444663527362405,0.08504338403892608,2.585534321497919,2.246933572045965,-1.1209691465316594,-0.5639222879687225,0.015212054314541614,-0.6287645438085192,3,right
3.0069999999999997,0.10371117369129365,1.4413664646039335,0.08130609767641561,2.5800584407110203,2.2396505421106028,-1.1232052786687268,-0.564499092946662,0.017696882334808647,-0.6276214561124552,3,right
3.009,0.1321348103500502,1.436604078522006,0.07730968197135513,2.585358044758067,2.246859818705211,-1.1210232579384267,-0.5635685047250283,0.014030599288740671,-0.6291509222475896,3,right
3.01,0.16317600034314433,1.4314078922331235,0.06468207743216357,2.58171796738627,2.2418240794058155,-1.1225313639573078,-0.5645735218245053,0.017931358826385555,-0.6275534646049445,3,right
3.014,0.19432605670455716,1.427102111289325,0.04752123605594983,2.5830649673503627,2.243457077607631,-1.1219997736723295,-0.5639723185910688,0.015689439030771815,-0.6284243812271035,3,right
3.015,0.2218852790991172,1.4240742628093828,0.031184220718822857,2.5840800274019204,2.245820080612214,-1.1214694929235134,-0.5635558682464106,0.01369772649411863,-0.6294323096238267,3,right
3.0189999999999997,0.239485844996403,1.4249435336000817,0.013412135048262032,2.581017068910276,2.23951579220727,-1.1229748923938518,-0.5655448955226908,0.022317628932783454,-0.6254427813444499,3,right
3.02,0.2461357717033619,1.4291632319938246,-0.00553382327945792,2.585413244151659,2.248710229001431,-1.1207975294920565,-0.5618263868504816,0.006349392177271365,-0.6327645856778032,3,right
3.0239999999999996,0.2425967226096364,1.433706404478855,-0.021194139938395223,2.5809567089400236,2.239187919621817,-1.123028017925995,-0.566607554788696,0.02684949852756527,-0.6233812267878864,3,right
3.0239999999999996,0.23376172174376333,1.4417172923064445,-0.03465675901652211,2.58353293088312,2.2446922994252807,-1.1217382334505865,-0.5626137704073353,0.009736508687371217,-0.6312062469367302,3,right
3.029,0.2214266867342854,1.4500099569645153,-0.05366930845349613,2.585249212310272,2.248820752162139,-1.1208274869135963,-0.5627311986095362,0.010193785829433595,-0.631024969843635,3,right
3.03,0.20625349205369228,1.4537891046391205,-0.07347578937958829,2.5770880014191584,2.2299561752052894,-1.1250737795934904,-0.5703148745580071,0.04284435668821511,-0.6160078123132287,3,right
3.034,0.19489907617777236,1.4590602266425203,-0.08970526764922367,2.5922523691856054,2.264978882594431,-1.1171858923780316,-0.5516651451073582,-0.03739993409461962,-0.652878649780366,3,right
3.035,0.18229825793527515,1.4652067841348497,-0.11249679081783573,2.5728261552844076,2.22006092553349,-1.127297849307645,-0.5825886078393429,0.09564719022160817,-0.5917595358656009,3,right
3.0410000000000004,0.17413440256734203,1.467838142053057,-0.12918961004420004,2.5890199018334172,2.257534959035194,-1.1188631666448554,-0.5418023109740531,-0.07984143826830609,-0.6723682510219112,3,right
3.042,0.17036814707957448,1.4672578624600947,-0.13287316954078013,2.5885397578114198,2.2564610468105797,-1.11911333654623,-0.3705963356129269,-0.8164581065216566,-1.0108340619084801,3,right
3.042,0.15648522144483445,1.4661843808658706,-0.1428684621128676,2.557861739738457,2.185270064598577,-1.1351046520849088,-0.3298143865266894,-0.9919481979545911,-1.0914353469128457,3,right
3.043,0.14000985849145176,1.4642068687030103,-0.15225438151459514,2.633281514082908,2.360287093700463,-1.095782446944252,-0.3607331451652362,-0.858899488121774,-1.0303242719233874,3,right
3.0439999999999996,0.11430936887755193,1.453163849124543,-0.15114235623304878,2.5082537969521574,2.0701138597825652,-1.1609800808880948,-0.3420816269183727,-0.9391431865046475,-1.0671981668959782,3,right
3.0469999999999997,0.09184631813490853,1.4432588515160165,-0.15022923083742135,2.673133919170712,2.452826940516667,-1.0749886424519826,-0.3496809059187539,-0.9064978461940083,-1.0521543433713663,3,right
3.048,0.08530144232397177,1.4408438789363003,-0.1489809306772174,3.365280545298215,4.059183539477441,-0.7141099552347412,-0.3497647618069337,-0.9060293016625649,-1.0520304414390347,3,right
3.049,0.059647662268296535,1.4283122750265609,-0.1375688797713566,3.5301119829281937,4.44186025217525,-0.6281238999628409,-0.3458191136141944,-0.92315845722493,-1.0597731973234952,3,right
3.053,0.02214340937131479,1.4079831026846659,-0.11858131838327743,3.4051468332276134,4.151738415729553,-0.6933117923224211,-0.35055234757651366,-0.9026422399829968,-1.0504717563800883,3,right
3.053,-0.014314094587042473,1.3875982407687548,-0.1002798160770787,3.480551596609657,4.326727729993081,-0.6540012473855054,-0.3468545222285308,-0.9186174528140636,-1.0577582148091622,3,right
3.0580000000000003,-0.05991941624061038,1.3651425758245057,-0.07627605202422383,3.449771102629467,4.255494216130378,-0.669983277177963,-0.3488847093565155,-0.9100113284755011,-1.0536983422298087,3,right
3.0580000000000003,-0.10562655936377877,1.3444388410295063,-0.04081396347997204,3.4495597144688404,4.254570598734608,-0.6702343162038559,-0.3483356690608364,-0.9119585607574894,-1.054932868225377,3,right
3.0639999999999996,-0.1599992371210079,1.3266711075809936,-0.0036646765316075604,3.465329476050885,4.291782076364086,-0.6618136878472709,-0.3479629253455365,-0.9142771770446247,-1.0554133482513706,3,right
3.0639999999999996,-0.22484252732842297,1.3151703250262896,0.0256086247040851,3.446373734791652,4.2471843601786095,-0.6718925368805888,-0.34868756377923327,-0.9102822331308116,-1.0542950535886615,3,right
3.068,-0.29251820480206936,1.30991132461644,0.043386899075414924,3.4612454577742264,4.281959712524449,-0.6640544287594833,-0.3479805092559711,-0.9140236919479321,-1.055442508842492,3,right
3.069,-0.37087162615509384,1.3090269710262104,0.0531829939902669,3.4528868186897004,4.263071722765215,-0.6682473618832337,-0.3485593010342647,-0.9115393326169015,-1.0542960145162636,3,right
3.074,-0.45281417285481035,1.3177282827661942,0.06635547908370476,3.4555944252925563,4.2677083769976925,-0.667367802766591,-0.3480202426130327,-0.9125618155873586,-1.0558260134029402,3,right
3.075,-0.5300685477774973,1.3348525592236657,0.08563666413780863,3.4562608488678297,4.272091451344419,-0.6661041434258544,-0.34867594102629573,-0.9127048213117157,-1.0534688512383341,3,right
3.077,-0.6054143596158079,1.3570788443547879,0.10511675480089727,3.4543622616140746,4.264206072284875,-0.6682177806702561,-0.3478357347525408,-0.9118974167713523,-1.056712343751935,3,right
3.0780000000000003,-0.6771433198473238,1.3825293295247634,0.12007658701128482,3.4563993024694604,4.27170596879208,-0.6662602047041427,-0.3487057515872346,-0.9128690199303251,-1.0533056505755551,3,right
3.082,-0.7479218961985594,1.4064835000586953,0.1219212925401105,3.4540513703249456,4.266283010717709,-0.6674761308297911,-0.3482435770903455,-0.9121324538493829,-1.0551936349591702,3,right
3.0839999999999996,-0.817928248790365,1.4251065438777015,0.1119446706185174,3.4577561226737332,4.269734535781514,-0.6672064255459484,-0.3476443262800146,-0.9123642743247078,-1.0572190492151325,3,right
3.0869999999999997,-0.878995998289279,1.440296658506945,0.10253928975213385,3.4516206499960225,4.267253243134041,-0.6666081636437071,-0.349938278670226,-0.9127692471934901,-1.0490064692907033,3,right
3.088,-0.9273797630105558,1.4571776673201926,0.09545534715999344,3.4602145463655503,4.269660130620838,-0.667791547347386,-0.3457433307006854,-0.9117611964418479,-1.0641189322900488,3,right
3.092,-0.9611957176053217,1.4700323169846419,0.08902357466361545,3.4511586721139462,4.267335371590709,-0.6664758597107499,-0.3511167133723002,-0.9131143665228935,-1.044740545173339,3,right
3.092,-0.9791123255772933,1.4736092866999395,0.08656954994197652,3.4562245231808735,4.268297894248592,-0.6673216683371712,-0.34663585640684463,-0.911959336071511,-1.0609073480215163,3,right
3.096,-0.9783628609321371,1.4707291828093803,0.0928293561570066,3.4614121586165396,4.271013772890569,-0.6676267830523985,-0.34673710318930484,-0.9120845857461268,-1.0605119925135704,3,right
3.097,-0.9703436075702659,1.46046490058857,0.10809583377116343,3.4400558371908607,4.262214992276011,-0.6655973817604325,-0.35534751251269026,-0.9139829861816036,-1.0295477899010121,3,right
3.102,-0.9625990370426881,1.4453621071506597,0.12557243781864535,3.479414124855756,4.277975400395424,-0.6694862738571248,-0.3342072181405258,-0.9092020690992795,-1.1056031627852445,3,right
3.103,-0.9386529586564897,1.4333530781590968,0.1420163362162834,3.4289372638838347,4.257863000048374,-0.6644645046461646,-0.36925353679268064,-0.9171636136533998,-0.979514294966075,3,right
3.1060000000000003,-0.9231122940615006,1.4298145353892286,0.15309954143289983,3.471045103973944,4.274603672431343,-0.6686685441471888,-0.3230270725729675,-0.906652682331255,-1.1458219095177733,3,right
