time,gFx,gFy,gFz,ax,ay,az,wx,wy,wz,subject_number,foot
0.725,-0.13050322994261668,0.9823001452091477,-0.12888701571394903,0.16529984008848553,-0.01119929375486562,0.02459965634402591,0.022000363757359812,0.12460625103867656,-0.09269915477166292,1,right
0.726,-0.13898674867008579,0.9852044455352372,-0.1294254326121967,0.1653001562334493,-0.011200689501786616,0.024600335510495626,0.0219993777982356,0.12458930899121402,-0.09270144557882734,1,right
0.73,-0.1478771406893759,0.989070103614651,-0.131924202818198,0.16529993502206347,-0.011199714170670855,0.024599860912579583,0.022000759228493514,0.12461304408003275,-0.09269823624756353,1,right
0.73,-0.15385334235590678,0.9935953204735274,-0.12921612436773278,0.16529986260538249,-0.011199391493385537,0.024599703909223072,0.02199940033620389,0.1245896994508425,-0.09270139279309283,1,right
0.736,-0.15758260882652209,0.9981921020074419,-0.11991181555743327,0.16530043391226112,-0.011201918177139666,0.024600933370679735,0.02199998297519092,0.12459970269656571,-0.0927000401847294,1,right
0.736,-0.1618223409944699,1.0031552502201464,-0.1121911671600524,0.16529925744899077,-0.011196719511511771,0.024598403731456116,0.022001137680815054,0.12461955332559436,-0.0926973561238548,1,right
0.74,-0.16367225907726912,1.0069976754654397,-0.10572488890959617,0.1653009064573318,-0.011204002382842946,0.024601947546414794,0.021997424559413472,0.12455574449727369,-0.09270598397421852,1,right
0.741,-0.16585181244859548,1.0119979425539856,-0.10076630348484328,0.16529928348660106,-0.01119683963184306,0.024598462163387604,0.022003816192760737,0.12466556920402765,-0.09269113408796333,1,right
0.7440000000000001,-0.16719764080786992,1.0181049518652627,-0.10059950246238963,0.16529998096458576,-0.01119990831207051,0.024599955411972935,0.021995975880899177,0.12453086685357127,-0.09270934783604144,1,right
0.745,-0.16412057245093292,1.0203751119610904,-0.10164160254628707,0.1653013563735637,-0.011206000341648557,0.024602919706341875,0.02200222572487055,0.12463822230388807,-0.09269483172545388,1,right
0.748,-0.16218707643575725,1.0199433888283564,-0.10142065975340754,0.1652969271780294,-0.011186420117702107,0.02459339211646483,0.022002278755029057,0.12463918264585115,-0.09269470202766941,1,right
0.7490000000000001,-0.15844863611081028,1.0179834927428,-0.09941850548484349,0.16530455506695102,-0.011220119356463523,0.024609789988863977,0.021990689870452444,0.1244400035599449,-0.09272163375229454,1,right
0.754,-0.15287709013425363,1.0143919215677457,-0.09472802474584674,0.16529519443068075,-0.01117878791261413,0.02458967824465113,0.022017177809712456,0.12489516411434162,-0.09266008956563279,1,right
0.755,-0.14880720985600965,1.0093773884132977,-0.09056177953172348,0.16530266197639476,-0.011211726276792372,0.02460570606506171,0.021977659302598523,0.12421616239547804,-0.09275190049067132,1,right
0.759,-0.1410859793783117,1.002777861230466,-0.09247242871704218,0.1653027120139252,-0.011212025724264999,0.024605851497505674,0.02201979114973972,0.12493997763557381,-0.09265402984663945,1,right
0.76,-0.13269510419074554,0.9966495890518656,-0.09592256419846262,0.16528889576158656,-0.011150903390932703,0.024576109986795325,0.021995439600444217,0.12452177545875281,-0.09271057751101057,1,right
0.764,-0.12412818306140949,0.9889531342411858,-0.09461495780869497,0.16532049879883653,-0.011290570381839365,0.024644071040585955,0.021974472807320757,0.1241612241032848,-0.09275932835672925,1,right
0.764,-0.111275437070647,0.9773962370994321,-0.09451656859519533,0.16527332956020774,-0.011082224195345068,0.024542690730691576,0.022066285313055458,0.12573905624210535,-0.09254598347437142,1,right
0.768,-0.0964279452800571,0.9665134208326621,-0.09930617955937832,0.16532364158612367,-0.011304312588148232,0.024650758428976086,0.021895996795681553,0.12281299861359177,-0.09294162852177361,1,right
0.769,-0.08156661695124623,0.9601076179830632,-0.10449062283535515,0.16529452211315626,-0.01117600987988997,0.02458832578918134,0.022114676561583883,0.12657015488761703,-0.0924336057195504,1,right
0.774,-0.07010297225980117,0.9567594380778786,-0.1078191943140783,0.16526957495155215,-0.01106534928148644,0.02453448050223174,0.021932081365998408,0.12343355391065437,-0.09285772214702508,1,right
0.775,-0.06192036475509876,0.9546597045935441,-0.11273286464367083,0.16537908118915629,-0.011549523428061509,0.02477007572982546,0.021937093226580686,0.12351831764354296,-0.09284625661928361,1,right
0.779,-0.056009840274093746,0.9528617595144827,-0.1177788637662855,0.16517586359164216,-0.010651672555457934,0.024333186413173197,0.02228510069988972,0.12949949743027178,-0.0920375195000482,1,right
0.779,-0.05343406484356483,0.9530546935708282,-0.11955289059135586,0.16543694517688662,-0.011804501676952753,0.024894149135980842,0.02142959593574568,0.11479876657201747,-0.09402526759166766,1,right
0.7829999999999999,-0.05205879391896369,0.9560944858549028,-0.12541607750331063,0.16521876772901667,-0.010842145035032742,0.024425866042960855,0.022848179513789754,0.1391730269311638,-0.09072951355341109,1,right
0.784,-0.05366410346069639,0.9578168304446496,-0.1326947035242783,0.1652251825561758,-0.01086799746769964,0.02443845450478889,0.0209769417600186,0.1070237469249494,-0.09507657114403174,1,right
0.7879999999999999,-0.05476023431716389,0.958459814096245,-0.1342645118904675,0.16563995576588708,-0.012703494680112115,0.02533158692099987,0.013123154802314765,-0.027923906362950335,-0.11332344469485345,1,right
0.79,-0.05483129166157223,0.9597337411286757,-0.13878866216879066,0.16461950897139632,-0.008192445342238844,0.02313654403440811,0.01125156932183987,-0.06007261223810187,-0.11767044525648486,1,right
0.7909999999999999,-0.06463058870773315,0.9630578972352173,-0.14571567553172426,0.1663121175083609,-0.015671716308066568,0.02677591259205849,0.012670696485587276,-0.03569924933421075,-0.11437478033816616,1,right
0.7929999999999999,-0.07454704285649622,0.967375656210658,-0.14814866341313437,0.16407907596224064,-0.0058067896863908544,0.02197568980938706,0.011814741987401293,-0.05039923784380737,-0.1163624547806754,1,right
0.794,-0.07644907517144561,0.9671102672029449,-0.14856278434214082,0.1547208854279917,0.03560677538063982,0.0018243164093307345,0.012162723666739646,-0.044418015042820294,-0.11555371320511824,1,right
0.794,-0.08519285272286994,0.9696867999591706,-0.15003931574921325,0.1524883930676968,0.04547190618976846,-0.0029759960542466435,0.012168607511131583,-0.04433469167294385,-0.1155423910225033,1,right
0.7979999999999999,-0.09978808065415154,0.9776396773653325,-0.15452572153879635,0.15417851119618586,0.037991708581937775,0.0006637804166694318,0.01198410835903576,-0.0474681483519902,-0.1159661948314133,1,right
0.7979999999999999,-0.11223284599105433,0.9832533721125736,-0.1581841551672321,0.15316455489555347,0.04250517359295959,-0.0015323267275486438,0.012205500656043668,-0.04371547112477467,-0.1154586171056622,1,right
0.804,-0.12578679220590058,0.9907151378189636,-0.15788662577859483,0.15356745238961764,0.04066525582038584,-0.0006372460153124769,0.012032525273084144,-0.0466370928334384,-0.11585382168418645,1,right
0.805,-0.1399514842975554,0.99993067503965,-0.1565870598117215,0.15359016890852553,0.04064547202502844,-0.0006273329622545405,0.01212550294382865,-0.04506118294329425,-0.11564066707057774,1,right
0.8079999999999999,-0.15532827933197607,1.0086167187702062,-0.15539500134814097,0.15335602411591504,0.0416018837783151,-0.0010929942643532783,0.012106794141456444,-0.045425465373365156,-0.11568978978227476,1,right
0.809,-0.1717002157909568,1.0166139721891085,-0.1549465464883782,0.15362375510805204,0.040451531647950845,-0.0005331256488282552,0.012075139879600022,-0.0458316062279186,-0.11574513773467068,1,right
0.812,-0.1862579591417629,1.019051789334617,-0.15312016451465782,0.15343484665509227,0.04135470702751384,-0.0009723592341522103,0.012129856579044623,-0.045128573251202266,-0.11564933289288457,1,right
0.813,-0.20196949384048424,1.0195645754693112,-0.1500796031998158,0.15349906025972848,0.04085367423173428,-0.0007293349380527897,0.012074894691667561,-0.04578207557288067,-0.11573861056995471,1,right
0.8190000000000001,-0.21446416442954408,1.0207795495709546,-0.15025137143885808,0.15355191582686756,0.040993297177788865,-0.0007959468117329873,0.012113696362087638,-0.04534724186730307,-0.11567908359900785,1,right
0.8190000000000001,-0.21791137635248436,1.017681098155555,-0.15052295414137004,0.1534273994269188,0.04108608493143928,-0.0008427204310251809,0.012102207302262335,-0.0455465972775073,-0.115706037799581,1,right
0.8240000000000001,-0.21798877943944028,1.0100737390335814,-0.1502485519261228,0.15355372737554596,0.040892300841937554,-0.0007471385178846851,0.012079438076465256,-0.045507936717623924,-0.11570215535696557,1,right
0.825,-0.2135862234259726,1.0023418141985183,-0.15086313834733084,0.1535073039976652,0.04110091410287976,-0.0008486227573180963,0.012137858234984821,-0.045486740747990625,-0.11569620667163803,1,right
0.8270000000000001,-0.20161323749569918,0.9956797207556275,-0.14705552059751514,0.15339766237060082,0.040908679482403926,-0.0007575045449350593,0.0120521789394727,-0.04549290854090643,-0.1157016466088768,1,right
0.828,-0.18853442570743953,0.9885710428574599,-0.14004262466959344,0.15370655271119776,0.04108992422704465,-0.0008401877451901558,0.01214156024993545,-0.04552010299528356,-0.11570040482126093,1,right
0.8320000000000001,-0.17577555498243166,0.9840774364028467,-0.1332105523294972,0.15322520737241055,0.04091041743925719,-0.0007610397704675082,0.012089875684634502,-0.045504744542774256,-0.1157011854287838,1,right
0.8320000000000001,-0.16014579932474604,0.9827076107458453,-0.12922729478120512,0.1537458415753145,0.04106853294519494,-0.0008292619492986474,0.012049741314688731,-0.04541664308805876,-0.1156916880949467,1,right
0.8370000000000001,-0.14340944867447541,0.9825600556022527,-0.13106986800459927,0.1534399869054403,0.04099944563071815,-0.0008006388292789949,0.012231157147553316,-0.045705322639610656,-0.11572005110559631,1,right
0.838,-0.12754634471579845,0.9868997429142351,-0.13551582471444706,0.15319198260012692,0.04087064900630523,-0.0007424037864454404,0.011894387063682399,-0.04517476414933949,-0.11566814212784918,1,right
0.843,-0.11091215743574342,0.993459465472379,-0.1418594970105036,0.1543062298168521,0.04130660409137879,-0.0009353954880656711,0.012326505880559838,-0.04586226065264663,-0.1157355981019953,1,right
0.843,-0.09437991036364513,0.9994145714255,-0.14647627451210476,0.15223303859353873,0.04052826285185579,-0.0005920446999871996,0.011965842364008245,-0.04528544092879952,-0.11567895368501781,1,right
0.847,-0.07700687569095067,1.0058011412780408,-0.1440188660791426,0.15489755859148097,0.04151687713900545,-0.0010277700561678864,0.011976231568874542,-0.045293256440640944,-0.1156792994695435,1,right
0.848,-0.056725190859617115,1.0089058533507316,-0.13567718368994752,0.15267207119202164,0.04069602369814558,-0.0006660385642007296,0.012661589403665453,-0.04642654269548366,-0.11579214093348313,1,right
0.852,-0.03778557990385248,1.007023920254323,-0.12265374846859381,0.1527338531868645,0.04071139787240618,-0.0006728372574574494,0.010976364517250665,-0.04364687134856165,-0.11551585280113333,1,right
0.852,-0.02093288003942786,1.0028656253411268,-0.11244057096180884,0.15697327778518533,0.04229488719261616,-0.0013707001949012985,0.013770797398552897,-0.04825637891279796,-0.11597381924168815,1,right
0.857,-0.010440286249946786,1.000960477754644,-0.10928793715434533,0.14655109531338711,0.03841258395979093,0.0003405612840436852,0.010084739676207568,-0.04217445561255909,-0.11536974632329756,1,right
0.858,-0.009640921528109705,0.9992583005949782,-0.10744487830759289,0.1638323201220978,0.04484622001373171,-0.0024957722255275145,-0.005384547111418962,-0.01662636099295542,-0.11283018191832116,1,right
0.8590000000000001,-0.009442600391700185,0.9951524282143933,-0.1057371656703672,0.14103828011286745,0.036361095317562195,0.0012457499548228462,-0.00907129825403305,-0.010541497117529247,-0.11222636739965658,1,right
0.862,-0.009431325176147158,0.9941707508896985,-0.10361504526958112,0.04536162793495246,0.0007394190610281147,0.016953284729702166,-0.0062757814472162304,-0.015155601274470248,-0.11268392992115153,1,right
0.863,-0.011134699909082762,0.9917665681644808,-0.1035459115463633,0.022567897813827124,-0.007747485103300894,0.02069838856297441,-0.007961902932787111,-0.01237212770417276,-0.11240797590015483,1,right
0.863,-0.013884553030528112,0.9870253171727792,-0.10890887696602773,0.039848722686257415,-0.0013113570997931995,0.017856036279278512,-0.007276597028579035,-0.013505193801914648,-0.11252083671991628,1,right
0.867,-0.02253480812801653,0.9864261499591295,-0.1146339303060359,0.02942664171418242,-0.005194935280629346,0.019573416807751466,-0.007264468222463815,-0.013520386315269419,-0.11252053424426207,1,right
0.867,-0.03253581199933934,0.9866732180015709,-0.11877611507065597,0.03366670633187197,-0.0036136942914818024,0.018872754623363762,-0.007628929305405125,-0.01292746242033049,-0.11246530497873267,1,right
0.871,-0.0411516571754296,0.9887233511206749,-0.12112545047442205,0.03372679580497734,-0.003590717990434399,0.018861521201798206,-0.007191400833655304,-0.013637899492898516,-0.11253074506718203,1,right
0.872,-0.055144737392592055,0.9915648802949776,-0.12050174848585692,0.03150398772952194,-0.004424684935098934,0.019237984186852086,-0.007533528521768322,-0.013084621051573337,-0.11248083257147273,1,right
0.8759999999999999,-0.07324666978193728,0.9923928973227059,-0.11638242114020045,0.03416552407352197,-0.0034202468139734243,0.0187771297225362,-0.007349790971216347,-0.013383146501092253,-0.11250833042009979,1,right
0.877,-0.08850858666351866,0.9935298393241973,-0.11041591694312264,0.03209420649589689,-0.004210552235757332,0.01915074822549303,-0.007385419191921299,-0.013314153763134252,-0.11249715386353912,1,right
0.8809999999999999,-0.10354431841478617,0.9909925774510174,-0.11156510494058475,0.03320966458646271,-0.0037763475997125697,0.01893457185395238,-0.007451670912918569,-0.013237021192323532,-0.11250336288797438,1,right
0.882,-0.12002478003465952,0.9865801459572293,-0.11954160371558409,0.03295543608852722,-0.00387914572898543,0.01899049116844372,-0.0073371895077288226,-0.013370656683838477,-0.11249276763886373,1,right
0.8859999999999999,-0.13159871374458623,0.9846095190301642,-0.12810658260801847,0.03266162376197797,-0.004004580617654176,0.01906680499547978,-0.007453666250496361,-0.01324622237001375,-0.1125096841022892,1,right
0.887,-0.1400234032547194,0.9828124227867756,-0.1390118404725978,0.03316608211227764,-0.003765059520879424,0.018893668901183068,-0.007370695662800198,-0.013329137704641142,-0.11249458686491384,1,right
0.892,-0.14659123888992381,0.9823416493071736,-0.14871160683630202,0.03269971474924163,-0.004027744934563318,0.019125711573471628,-0.007393252469002387,-0.013291376067232876,-0.11249062514333091,1,right
0.893,-0.14928778939184797,0.9817670494313644,-0.15050865857332918,0.033003955836877194,-0.0038052155111567005,0.01888505003297602,-0.007450273995839328,-0.013297645812126956,-0.11253454699743382,1,right
0.895,-0.15097588443647225,0.9798185618337644,-0.14673547818372756,0.032877472235574946,-0.003939404733256939,0.019057824397616642,-0.007307412133347066,-0.01330409456774629,-0.11243624225216906,1,right
0.8959999999999999,-0.15291771100117474,0.9799284164857155,-0.14074264881543824,0.0328782499569155,-0.003939862862553994,0.01905903130670746,-0.007517614113704336,-0.013299276329741691,-0.11258336962268826,1,right
0.902,-0.15419890771590747,0.9815857721248642,-0.1326915112736703,0.032927109607703106,-0.0037601404014894623,0.018769038915609024,-0.0072974086953143105,-0.013298026910099896,-0.11242589610354074,1,right
0.902,-0.15393880086650857,0.983233404422788,-0.12930670259398191,0.0328939498267402,-0.004141672607451191,0.019418883174806514,-0.007424681698170241,-0.013298677809675329,-0.11251687584389752,1,right
0.9059999999999999,-0.15607614778384094,0.985322474483223,-0.13241344455269735,0.03287876533073043,-0.0035965371302335543,0.018460035029429833,-0.007525816773756954,-0.01331341951246407,-0.11259671449069582,1,right
0.907,-0.158355594340782,0.9887385299907604,-0.13603738372691088,0.032932771043666265,-0.0041636166673667905,0.019475997202652057,-0.007072106079330254,-0.013267264798389484,-0.11224913452999055,1,right
0.912,-0.15599971383011818,0.9934882785742525,-0.1405960485517872,0.03288941044755542,-0.0038404245586935305,0.018890929536646093,-0.007914060315475131,-0.013351941435163873,-0.11289362965241242,1,right
0.9129999999999999,-0.15286047678992357,0.997999494910553,-0.14257295743251347,0.03284727713026746,-0.0035637849111771706,0.01838750311550448,-0.006833674069454456,-0.013242045479834775,-0.11206595595126195,1,right
0.9159999999999999,-0.14672520356711755,1.002289488232973,-0.14166101312031684,0.033046757710223806,-0.00476927007233547,0.02058853772398532,-0.007735287002911751,-0.013334303710949034,-0.11275697915811597,1,right
0.9159999999999999,-0.1366436591747928,1.0065534850076359,-0.14076205696846444,0.03266270488803671,-0.002538778003148927,0.0165089010787851,-0.0077100448394816,-0.013333377717230244,-0.11273846314631625,1,right
0.92,-0.12483866092493053,1.0097690540837334,-0.13566268987257873,0.03316568983645375,-0.005399336969286024,0.0217458533335038,-0.00599452552197249,-0.013150860479355377,-0.11142007680065066,1,right
0.9209999999999999,-0.11214042586754595,1.0116369364903117,-0.13099563682690374,0.03274122091291351,-0.0030126533850249517,0.0173743569737546,-0.010211657346793853,-0.01359825912838809,-0.11466034958986526,1,right
0.925,-0.10157331205997877,1.0122426161719222,-0.1268611780863241,0.032752962196323024,-0.0030777212006361057,0.017493049056594663,-0.0032195148301706485,-0.012856243757563716,-0.10928779352725722,1,right
0.925,-0.09600695103606818,1.0128718323295174,-0.11989168577509607,0.03356920369979503,-0.007624740559967806,0.02582649413063364,-0.01244205955913178,-0.013835723569926505,-0.11637434670577543,1,right
0.9259999999999999,-0.0948819340945129,1.0132406051534595,-0.117861713199099,0.03155896829420528,0.0035509201955719774,0.005343731630825526,-0.051157670421594394,-0.017963368439725555,-0.1461253497259279,1,right
0.93,-0.08895354383974155,1.0127093918566688,-0.1177150775649626,0.03489586379942551,-0.01497827182413072,0.03930509014035666,-0.06038142796198067,-0.018946608995196443,-0.15321318476083717,1,right
0.93,-0.08206160873428828,1.0133702132394191,-0.11523317040926898,0.03049126567985672,0.009461299577097614,-0.005489876038473925,-0.05338643278961702,-0.018196760977331125,-0.14783787407733645,1,right
0.9309999999999999,-0.08136683966238523,1.0132439841116945,-0.11710538462530487,0.01200990755095892,0.11203867348296069,-0.19350996573480933,-0.05760852195774134,-0.01865594349233749,-0.1510824639559499,1,right
0.935,-0.07714764060167148,1.0106254893012125,-0.12169475855607438,0.0076012502636984315,0.13647822346827862,-0.2383053925980635,-0.055886106314808115,-0.01845943907770089,-0.14975869046449036,1,right
0.935,-0.07123490463165959,1.0092276371177906,-0.12663070939833437,0.010943831979106994,0.1179495361244982,-0.20434374800132046,-0.055868187624719165,-0.01847024751837096,-0.1497450933758384,1,right
0.94,-0.06796774113666418,1.0088049144075724,-0.13002943988241927,0.008930681908400708,0.12912350019252805,-0.22482556880925014,-0.05676531642388777,-0.01856038038678028,-0.15043440552738724,1,right
0.941,-0.06358954528143335,1.005467140119114,-0.12356308783488198,0.009741807905888739,0.12457992001011256,-0.21649532764196372,-0.055681881055131395,-0.018434240659816355,-0.14960176374007159,1,right
0.946,-0.06230263133887627,0.9989624438954309,-0.11351175701996938,0.009770870714406747,0.1245098013497073,-0.21637077784746633,-0.05653910397673671,-0.01856001887538447,-0.15026079142893628,1,right
0.9470000000000001,-0.06527813442673278,0.9920992201386807,-0.10872082406400227,0.009316510245396533,0.1269018461129845,-0.22074984358616156,-0.0560558621509713,-0.018449258039320023,-0.1498889317490688,1,right
0.95,-0.07134137049670289,0.9873568823664668,-0.10561286468296094,0.009855576832156659,0.12403829789306302,-0.21550638987688295,-0.05619681131268198,-0.0185369621140947,-0.14999786918045172,1,right
0.95,-0.08254835847243071,0.9855597280713433,-0.10415807238611102,0.009444226125583377,0.12626571674286075,-0.21958690768682881,-0.05628689228594484,-0.018488635143107023,-0.15006659739061085,1,right
0.955,-0.09456423705336844,0.9851602969226996,-0.10133130105877958,0.00963975195151286,0.1250728526172554,-0.21739588981862196,-0.05607895942516572,-0.01846597053440185,-0.14990680565802203,1,right
0.955,-0.10330357589515016,0.985278964357682,-0.09625156973355989,0.009656852978373872,0.12532613146773702,-0.21787467666633592,-0.05632926328243743,-0.018600073713927127,-0.15010006416943197,1,right
0.9590000000000001,-0.10905286136993003,0.9865135744247548,-0.09532995621727994,0.009485040019250423,0.12567975906373047,-0.21849787042429425,-0.056071852339429046,-0.018327136165639628,-0.1499001800024799,1,right
0.96,-0.11078117248889358,0.9867858741570299,-0.0979286655661466,0.009724701986839446,0.1250857477481278,-0.2174397132907297,-0.056318194297399746,-0.01871963349455908,-0.15009256938542354,1,right
0.965,-0.11066546875319355,0.9861927426073963,-0.1025405997357127,0.009519675569417798,0.12563679555346188,-0.21842533976738288,-0.05611623661887205,-0.01830769132919222,-0.14993409650488398,1,right
0.965,-0.11073568110455463,0.9851700997352192,-0.10910332044596684,0.00958107463959909,0.1252911190762842,-0.21779152332628549,-0.05620195484817585,-0.018542407676641413,-0.15000183914127313,1,right
0.9690000000000001,-0.10940168033192782,0.9803303423963957,-0.11630181069489581,0.009761496342674463,0.12537776170219028,-0.2179956124379665,-0.0563410868732319,-0.01875169492748912,-0.15011043648670194,1,right
0.9690000000000001,-0.10721786459619743,0.974980348429478,-0.12086839390128681,0.009286895274616874,0.12552503162262668,-0.21816206228848511,-0.05586989609530463,-0.0178504432111223,-0.14974113434685843,1,right
0.9740000000000001,-0.10592414626414479,0.972821030458395,-0.12018901210705775,0.010009860144998705,0.12522263004337836,-0.2177621800079741,-0.05670355954988508,-0.01951753557231812,-0.15039508412435731,1,right
0.9740000000000001,-0.10604264579498995,0.9695654678945185,-0.1182857069612178,0.009236339506451086,0.12556041198237355,-0.2182166909133188,-0.05565094417603879,-0.017378816751586337,-0.14956915721313807,1,right
0.98,-0.10682264211732885,0.9664420417209072,-0.11547580856942113,0.009687749508787159,0.12534088918603584,-0.2179094894472032,-0.05652204049231935,-0.019163499420237456,-0.15025269234696387,1,right
0.98,-0.1104328007112961,0.9668679385408306,-0.11185547564692298,0.010054888515497778,0.1252722287626254,-0.21786551537721982,-0.056505209844124424,-0.019115928765172575,-0.15023958119891634,1,right
0.9840000000000001,-0.11462602223120036,0.9671174290078008,-0.11146932995374789,0.008411998183383427,0.12577012762667025,-0.21841946061659673,-0.054831618093636764,-0.015711521547951995,-0.14892605387801439,1,right
0.9840000000000001,-0.11460741356760099,0.9680717700277639,-0.1175371202607203,0.011465409655887038,0.1248110879436126,-0.21732690793433915,-0.05893296832435208,-0.024077812547589197,-0.15214480393017493,1,right
0.99,-0.1155019905371861,0.9708857854311804,-0.12928932697428241,0.0075429939282027625,0.12605062143456405,-0.21874445766244485,-0.052138634180938774,-0.010206772613399083,-0.1468128122210356,1,right
0.99,-0.11595192835417958,0.9706209677658904,-0.13514363648276045,0.010818583986615789,0.12501241783633632,-0.2175550537556396,-0.06109731665841231,-0.028502259601009997,-0.1538430519719785,1,right
0.993,-0.11662983865762308,0.971065833793583,-0.1376446344779057,0.010726780657566794,0.12505327279735118,-0.21761007186205172,-0.09870315919481723,-0.10529779684891824,-0.1833574789812921,1,right
0.9940000000000001,-0.12329567401255409,0.9758978708828332,-0.14892816425903524,0.004490451799178343,0.12699136364364796,-0.21980321301631794,-0.10765991884904451,-0.12359306037975065,-0.19038571018917544,1,right
0.9940000000000001,-0.1314177542599595,0.9791702873535876,-0.1592250876503178,0.01982297343970259,0.12221248507002579,-0.21438578643234765,-0.10086942312030847,-0.10972245004650802,-0.1850572424943287,1,right
0.9990000000000001,-0.14430273810740402,0.9787195079105165,-0.15997094465886302,-0.005600900460942643,0.13014029687045037,-0.22337513198158956,-0.10496533752592474,-0.11808816767838733,-0.1882720341102987,1,right
1.0,-0.1558009534170164,0.9772576348631271,-0.1584040537395774,0.027933995888720805,0.11968292741227948,-0.2115176247398013,-0.10329768271641407,-0.11468433012576687,-0.18696116302178123,1,right
1.0,-0.1578612920409153,0.9772644954547969,-0.15593321606527696,0.16866616293639997,0.07581655072625618,-0.16178146096667428,-0.10327665422647306,-0.11463645007839278,-0.18694892672877422,1,right
1.003,-0.16451231601796018,0.9757508250885177,-0.14685501439348186,0.20219977648760906,0.0653611658248414,-0.1499269915999303,-0.10414690337524121,-0.11642084276472872,-0.1876259315720799,1,right
1.004,-0.1762742903629941,0.9704761852130351,-0.13526915098757122,0.17678073627496976,0.0732854562799791,-0.1589126009682507,-0.10310370747535011,-0.1142833289802638,-0.1868130972616589,1,right
1.008,-0.1876458774176434,0.96744024386748,-0.1292572416650698,0.19210158072075667,0.06851062847266379,-0.1534955161010389,-0.10391738235176579,-0.11594819999095796,-0.1874491614559899,1,right
1.0090000000000001,-0.19844075056758428,0.9665408173090658,-0.12981932078460542,0.18588580996835105,0.07044580703400662,-0.15569627819987203,-0.10347479465388251,-0.11504983375879309,-0.18709681084606272,1,right
1.014,-0.2067064103908247,0.9657425309211695,-0.13563248203041592,0.18576658294336634,0.07048622442576186,-0.1557327065779907,-0.10358491613572478,-0.1152565708588773,-0.18719931077704544,1,right
1.014,-0.2157998451883748,0.9681188343077055,-0.14336466536245934,0.1890680350264688,0.06945401527879966,-0.15457171175057818,-0.10368477572476728,-0.11549185142568985,-0.1872500158171051,1,right
1.0170000000000001,-0.22232101809351626,0.9712002700011017,-0.14630783885726764,0.18513667637704823,0.07068087559277711,-0.15595877958320536,-0.10350354451213753,-0.11508328556132921,-0.18714171453843245,1,right
1.018,-0.22781516055540035,0.9743565588273119,-0.14624650673096623,0.18816273059072994,0.06973975312149445,-0.1548834504369786,-0.10367644055285197,-0.11546700945479203,-0.1872503653998431,1,right
1.024,-0.23238904345593264,0.9782474668660056,-0.14812943767006814,0.18659944857835176,0.0702198492329552,-0.15545418992070337,-0.10354947673205817,-0.11520800097259298,-0.18715047488304937,1,right
1.025,-0.22764026997533415,0.9803783153544465,-0.14407224835832405,0.1868338923754042,0.07015918666855586,-0.15533997825085827,-0.10363518641794806,-0.11532623743718798,-0.18726792258854996,1,right
1.028,-0.2206352985167927,0.9831420341467328,-0.13750398952759046,0.18744368880137932,0.06995390017994876,-0.15516296138584817,-0.10356588335270808,-0.11531445590800099,-0.18709886886785035,1,right
1.028,-0.21249651771275535,0.9860362699540449,-0.1360575061931587,0.18655040178121612,0.0702444546841893,-0.15544797219347695,-0.10363894452376304,-0.11527017141635808,-0.18732725362996838,1,right
1.033,-0.20006553638676444,0.9864440115001712,-0.13340870493065332,0.18725736722373626,0.07002416458449011,-0.1551977629512046,-0.1035667261616371,-0.11532885159946549,-0.1870882516204191,1,right
1.034,-0.19011433948137196,0.9859416123598472,-0.13254728016956124,0.18703930268728225,0.07006980244892028,-0.1553320710966815,-0.10359950318060984,-0.11527683565014563,-0.1872193003668448,1,right
1.037,-0.1784991710067184,0.9860044074858042,-0.13577369807154166,0.18666048380514932,0.07023893404696047,-0.15533521371971507,-0.10367202692881008,-0.11532188171577631,-0.18736707791580778,1,right
1.038,-0.1648211070425252,0.9874990258461434,-0.13892070287961833,0.1875345600584455,0.06989033413208207,-0.1552213198665137,-0.10342714511103789,-0.1152717255812336,-0.18677738793099696,1,right
1.042,-0.15338543057544823,0.988185317029674,-0.1394614476442325,0.18648966786201324,0.07029718332636847,-0.15538272342645407,-0.10386813533488151,-0.11533836232118451,-0.1878605973070961,1,right
1.042,-0.13836397456141253,0.9889002519158372,-0.13471622046179327,0.18716934533402751,0.07003846582648147,-0.15526258720150923,-0.10330490929099906,-0.11525851096952584,-0.1864721379799461,1,right
1.047,-0.11930912879326305,0.992269625848672,-0.12657671698078374,0.18751912911110236,0.06988895926985836,-0.15524261584896965,-0.10377378681203936,-0.11532314284937795,-0.1876301625779932,1,right
1.047,-0.1010326285928665,0.9953114931679856,-0.12036051967640622,0.18555259063266852,0.07067889934199219,-0.15548429223137672,-0.10376598146019579,-0.11532977804871616,-0.18760284989888332,1,right
1.052,-0.08717310715302673,0.9986228099707705,-0.11933699464988036,0.1893026755090419,0.06918188952248747,-0.15499955050369163,-0.10285619817483557,-0.1151782333625117,-0.18538191521872177,1,right
1.052,-0.077200086976405,1.0020676356528835,-0.11920314277961597,0.1844499575100923,0.07111570214821594,-0.1556353100932667,-0.10508629143377489,-0.11554159657229063,-0.190835559953747,1,right
1.0590000000000002,-0.06794942118612396,1.0027936966303659,-0.12002685836697337,0.18851749380403449,0.06949632215495102,-0.15509865730023986,-0.10139059518532542,-0.11494055619642321,-0.1817949615766709,1,right
1.06,-0.0630411239665849,1.002687787918485,-0.12294956436535472,0.1883818860427259,0.06954781385763516,-0.15512254441609313,-0.10626456852872108,-0.11573450032246008,-0.19371866592545672,1,right
1.062,-0.06128396550258842,1.0018178864830738,-0.12303759625541957,0.18069341138611592,0.07261530343043163,-0.15612114807248367,-0.12673552578583414,-0.11906441195773151,-0.24378156314949556,1,right
1.063,-0.05492993769493451,0.9999485415478123,-0.1213868151558812,0.19962845286687786,0.06506462743499061,-0.1536526794483466,-0.13160919619343586,-0.11986185044186412,-0.2557045316953127,1,right
1.064,-0.04504360379890665,0.997349790463518,-0.11794245921257077,0.16821797000060118,0.07758831736395835,-0.15775145300039764,-0.12791382750433983,-0.1192570288584087,-0.2466647290206984,1,right
1.069,-0.03927582382176954,0.9949680193447495,-0.11509601485742649,0.20965519398197158,0.06106791931264194,-0.15234220501586337,-0.13014404611843686,-0.11961895607776336,-0.25211867790893533,1,right
1.07,-0.03662128283934222,0.9941849900410582,-0.11425426169688646,0.38354358995809323,-0.00826777520939848,-0.12965849641872923,-0.12923317419273217,-0.11947994826338097,-0.24989509968783882,1,right
1.07,-0.028688316847635335,0.9885412750040269,-0.10930400070040898,0.4249853455211715,-0.024788831117228002,-0.12424677412062698,-0.12922771022405652,-0.11945960617590054,-0.24987347302407636,1,right
1.072,-0.020439642142707493,0.9795895126795323,-0.10727840526429612,0.39356717195860264,-0.012263560011231427,-0.1283492103779749,-0.129693231448557,-0.11956292011210116,-0.25102334654849,1,right
1.072,-0.019445769516048407,0.9768577262625947,-0.11356080278706268,0.4125102232597293,-0.019817044809184708,-0.12587826868446494,-0.1291333466113791,-0.11944454688060832,-0.24964300209254375,1,right
1.077,-0.02004062604993769,0.9777290631734417,-0.12035045480412247,0.4048176545751325,-0.01674556750141526,-0.1268751898509318,-0.12957289695714044,-0.11952780997184968,-0.25072271357505715,1,right
1.077,-0.021088133678819704,0.9791097932021375,-0.12597182127056805,0.40467725573854263,-0.016698414602670943,-0.12690750542030932,-0.12932514187925037,-0.11951072179748003,-0.2501260471366102,1,right
1.081,-0.02507863210081259,0.9802650449810184,-0.12931258436271537,0.40876254967711934,-0.018314969269027023,-0.12635491830936973,-0.12940691408800173,-0.11944922757512534,-0.25029628379068936,1,right
1.082,-0.02686878252055794,0.9794299993335559,-0.13035877889866768,0.4038785483967039,-0.01637972861832837,-0.12701135368780989,-0.1294237596572167,-0.11958079589085585,-0.25038864250156584,1,right
1.087,-0.025548713028564443,0.9800880222223399,-0.13462667691747698,0.4076673867694418,-0.017885230824445337,-0.12650876148901052,-0.12937108889503254,-0.1194141606041055,-0.2501971144315202,1,right
1.087,-0.02668048118339187,0.9811229988955392,-0.14384954355216897,0.40566951736441825,-0.017078368348804857,-0.12675325842508012,-0.12942857217165593,-0.11954952570142265,-0.25038766327783946,1,right
1.09,-0.030745630021015363,0.9816955146894937,-0.1592716937688816,0.40602011048562947,-0.01725116402452368,-0.12675959826021083,-0.12935911556684843,-0.11953930552928874,-0.2502182433770923,1,right
1.091,-0.03566964138157057,0.9842692543013605,-0.17615379332558118,0.406755231659065,-0.01748747918948753,-0.1265740311099376,-0.12947376744843325,-0.11932425067379543,-0.2504059710576497,1,right
1.0959999999999999,-0.04417173293231696,0.9857123697445069,-0.183751991870089,0.4055819300622873,-0.017089297273754987,-0.12683707776472128,-0.12928068781316715,-0.1198269955674854,-0.2501455200643041,1,right
1.097,-0.05732788027706351,0.987395910474935,-0.18110387931318972,0.4066485758183181,-0.01745911589612463,-0.12661025980188312,-0.129552196420408,-0.11907424953564806,-0.2504936588241669,1,right
1.103,-0.07005010109339635,0.9897769125161309,-0.17460020256833392,0.4060638067711485,-0.01722540973775704,-0.12668581826766828,-0.1292658683074865,-0.11987725836467364,-0.2501301095971537,1,right
1.104,-0.08246635845264906,0.9897207946080444,-0.16930679748065106,0.4059648590117194,-0.01728899098243929,-0.1268612219595385,-0.12942640671963437,-0.11941237877326702,-0.2503282062958393,1,right
1.1059999999999999,-0.09943929831888984,0.9897207473305036,-0.16440910949739868,0.40677611361186705,-0.0173770992130914,-0.12638397721141298,-0.12958898120914553,-0.11901590368038117,-0.25055804859683506,1,right
1.1059999999999999,-0.11783415305728395,0.9910242806497725,-0.15892748054081174,0.4054258593014623,-0.017189747545269883,-0.1271142452325976,-0.1289171408849138,-0.12075820547639005,-0.2496489897568919,1,right
1.11,-0.1323097024281788,0.9936938528014521,-0.15458086303469415,0.4068911560719135,-0.017399896168847958,-0.12633233604485866,-0.13015584135180386,-0.11752562895564778,-0.25131722592504024,1,right
1.112,-0.14362261699894044,0.99528679750621,-0.148601542409664,0.4060036069661691,-0.017261995642971477,-0.12678955201725445,-0.12856701318330044,-0.12167697892028095,-0.24917927689271507,1,right
1.115,-0.15107932064005405,0.9942785010833368,-0.14286976250083355,0.40544174593308907,-0.017224677125883263,-0.1271568690168012,-0.1298926120511536,-0.1182106700496919,-0.2509622000903021,1,right
1.1159999999999999,-0.15208467903882578,0.9953426717325774,-0.14045254441836358,0.40823287419151644,-0.017521547322718503,-0.12550535513561567,-0.1298596430925698,-0.11830594135545326,-0.25092083989111746,1,right
1.12,-0.1498696470720262,1.0001392271677818,-0.13811577136728476,0.4029972761771444,-0.016946836810780623,-0.1285761166967026,-0.12732283076518658,-0.12491166051099532,-0.2474992831208293,1,right
1.121,-0.1473776098658764,1.0059744423716637,-0.13370365467412237,0.4097326472824301,-0.017690297335881268,-0.12463119733604455,-0.13355420743069327,-0.10867301692086644,-0.2559002106570665,1,right
1.126,-0.14296297235125133,1.010726722111984,-0.1261453826698248,0.40410554530193954,-0.017067270339795264,-0.12792555409399364,-0.12322372019326767,-0.1355991601336125,-0.24197422202910068,1,right
1.127,-0.13871120137977064,1.0133353875157256,-0.12115587293792596,0.40427554801359555,-0.017092910224854048,-0.12783309720567138,-0.13684884987622464,-0.10008208260623114,-0.2603410841875774,1,right
1.13,-0.13829159160778703,1.0140748042140504,-0.11786689057601785,0.4149444533925958,-0.01825242747672258,-0.12156176541567391,-0.19405139882206957,0.048981240025042755,-0.3374593523769548,1,right
1.131,-0.13514490046236916,1.0163930904267642,-0.10526245279538757,0.3887032667704915,-0.015391841894862536,-0.13698021677757255,-0.20767572956178432,0.08450102424621132,-0.355824812125193,1,right
1.131,-0.12578235187727937,1.0182125306975496,-0.09082392668444372,0.4322143900810146,-0.020137872210251595,-0.11141418508463972,-0.19734610679282785,0.05757195278844794,-0.3419003406883653,1,right
1.137,-0.12227613362647809,1.016482381099916,-0.0857166552177087,0.3748262414965088,-0.013877307167019006,-0.14513624159305674,-0.2035778119910848,0.07380948181030456,-0.35030184575005485,1,right
1.137,-0.12155502980481922,1.0166005630805293,-0.08289980652107715,0.1338731691547842,0.01237767143485415,-0.2866639110271615,-0.2010381328233404,0.06721347825579754,-0.3468752549896115,1,right
1.138,-0.11279134230331311,1.0162996746866848,-0.0762270234113192,0.07648418309328804,0.018636729730193785,-0.3203850052620826,-0.201011332543568,0.0670973036944373,-0.3468447254405721,1,right
1.14,-0.10603255217440045,1.0125516618992285,-0.06789343721426164,0.12000839177715293,0.01389383069854702,-0.2948221198028511,-0.20232808652965087,0.07059358272201091,-0.3486121201761002,1,right
1.14,-0.10168334032816691,1.0089802530547014,-0.0608643823101319,0.09372441044678465,0.01674971942849064,-0.31023351075496997,-0.20074806632734427,0.06641238982249682,-0.3464896336359334,1,right
1.146,-0.09386008551041264,1.0044126029393128,-0.0550551376286833,0.10447924612821652,0.01559575588545304,-0.303974097533101,-0.20198296574460856,0.06965784099845942,-0.34815119916787385,1,right
1.147,-0.08417416282245985,1.0006290586102053,-0.044715267197356676,0.10452377347283864,0.015565489256903306,-0.30386626578997206,-0.20130356324215234,0.0679411703322646,-0.34722885987100816,1,right
1.149,-0.06676173409380354,0.9992452157125972,-0.03415175977180063,0.0990290098251113,0.016189287385510797,-0.30717444514293635,-0.20149049986238074,0.06825508852789802,-0.3475014776359189,1,right
1.15,-0.04932105173193525,0.999628543232496,-0.030577383316789407,0.10569201619325455,0.01545238199365147,-0.30322603117431957,-0.20160906002653006,0.0688622125075232,-0.347625873022072,1,right
1.155,-0.041191764126081255,1.005056806305974,-0.027836429730277862,0.10037730797052413,0.016010665536749145,-0.30627922997079504,-0.20137425110155616,0.0678846390465281,-0.34735277101559103,1,right
1.157,-0.03773831278096432,1.013316640709041,-0.03000818347678911,0.10348481276442903,0.015739500629857003,-0.30467466015584677,-0.20160468411103227,0.06877654909542691,-0.3476288050311698,1,right
1.16,-0.04028338376379556,1.0209280394759852,-0.04259550770351217,0.10234119857899364,0.0157479221640332,-0.3049663564109169,-0.20141124305663075,0.06827506127639543,-0.3473677019161881,1,right
1.161,-0.04889744026778099,1.0298204097151744,-0.05688099188746,0.10220772206769718,0.015905009250641294,-0.3055109507762621,-0.20160210977440096,0.06823182571820233,-0.3476892588639748,1,right
1.165,-0.062041904452742935,1.0391380678850677,-0.06679351212386708,0.10301130751975172,0.015703817609524356,-0.30466738963535756,-0.20135846852103917,0.06883229472488062,-0.34721401191076484,1,right
1.166,-0.07637315501574957,1.0455957262924,-0.07288000806547543,0.10179455960914244,0.015835463257282273,-0.3053787018417152,-0.2016758137344916,0.06781639883056166,-0.3478607911446858,1,right
1.169,-0.08791290827816992,1.0483745297142821,-0.07746892131152659,0.10351424838482073,0.015858675163296053,-0.30505809981221843,-0.20134611569216632,0.06892167083095191,-0.347182927624251,1,right
1.169,-0.10119630381854268,1.0483578861161313,-0.07811798189828008,0.10108594264129397,0.015641914678817787,-0.30490888778803626,-0.2015230397997828,0.06824781626707765,-0.34755625845711413,1,right
1.1740000000000002,-0.1166432362952032,1.0469982614629054,-0.07438966907211281,0.10417964646329775,0.016022956728706166,-0.30544199275402606,-0.20174276763738502,0.06784165637320597,-0.34796880607722513,1,right
1.175,-0.13280917547664817,1.0438652821120304,-0.06976592573499857,0.10107528583364848,0.015595615323193557,-0.30476016967107966,-0.20089117667024017,0.06990502413850132,-0.34631189346480556,1,right
1.18,-0.1495969984196207,1.037550241101782,-0.06478205919616517,0.10273909148318094,0.015856776309067146,-0.30523010685918317,-0.20245057875807274,0.06602707941908563,-0.3493577502633896,1,right
1.18,-0.16521312855291106,1.0306476935362332,-0.06127519115026121,0.10457717767311109,0.016037604938898546,-0.3053989786844461,-0.20045271731836103,0.07101784723002798,-0.3454528697421111,1,right
1.1840000000000002,-0.18235432871013996,1.0257482347512974,-0.05886846568987867,0.09727800548251828,0.015164412052701538,-0.3042243024805681,-0.20211878092803162,0.06684705175273717,-0.34871021963176846,1,right
1.185,-0.20343087670779497,1.0208630111735786,-0.055680243760114045,0.11063817404984143,0.01680320033712072,-0.30650539217569006,-0.20208071077490602,0.06697694056978588,-0.3486318563128699,1,right
1.189,-0.22458255212559383,1.0150129308424354,-0.05557932019721917,0.09354679832385432,0.014691735949099177,-0.3035397702277929,-0.1988809139423282,0.07487312520112487,-0.3423890129041301,1,right
1.19,-0.23947838043352687,1.0092250162524072,-0.05694319557329883,0.1077882518031548,0.016457805965739078,-0.3060304375301764,-0.20673725594396564,0.05544611129719646,-0.35772120571092136,1,right
1.193,-0.25369564932650984,1.0046323847020282,-0.05149781956116521,0.10744518009686144,0.016404600092849164,-0.3059408563208828,-0.19371334612128255,0.08766087948504539,-0.3323032922642557,1,right
1.194,-0.2661583432627426,1.0038934671676576,-0.044213880092081305,0.08017716431946378,0.013051170809045238,-0.301251232699407,-0.21089148866494895,0.045170921869832216,-0.3658284356332337,1,right
1.199,-0.26698903430511267,1.004122848930502,-0.042009078163316615,0.14713658138455538,0.021301881194675326,-0.3128084962926002,-0.2830083218988314,-0.13317243159193048,-0.5065715721660352,1,right
1.2,-0.272419368627146,1.0014110011963016,-0.043077577853551194,0.03613922897461325,0.007617841748450309,-0.2936362893080864,-0.3001870729778331,-0.17565753924921446,-0.5400966903859756,1,right
1.202,-0.28340405766351967,0.9998784521821416,-0.04513723159089447,0.18253387973491478,0.02566964344092107,-0.3189251947482035,-0.28716250483797406,-0.14344801868029144,-0.5146788045696788,1,right
1.205,-0.28492489207577226,0.9992606960462704,-0.046684837795609224,0.797067678563353,0.1014290919127407,-0.4250775516777654,-0.29501859615411635,-0.16287702731256393,-0.5300110062348125,1,right
1.206,-0.2897735235886144,0.9973205424655913,-0.051567571784021736,0.9434556849390251,0.11948556005033331,-0.45035717409095777,-0.2918209838511925,-0.15496343883749497,-0.5237680756417142,1,right
1.206,-0.29611979924456655,0.9941038512379763,-0.056024726934939276,0.8324728289101682,0.10579377862998732,-0.431197063673016,-0.2917782137907974,-0.15487099794302328,-0.5236899019634726,1,right
1.208,-0.2930708676704378,0.9883799997992853,-0.05713347212353836,0.899409096430773,0.11405210812445979,-0.44275087564064264,-0.2934510158063114,-0.15898809961273574,-0.5269469783036084,1,right
1.209,-0.2885164613600831,0.9837706282858454,-0.06010193690148749,0.8721705963982722,0.11069575995842817,-0.4380429272192433,-0.2914464447047959,-0.15405080098401214,-0.5230423722332895,1,right
1.214,-0.28252189534696337,0.9784290876291329,-0.06080278904048998,0.8717996667925509,0.11063569608094034,-0.4380027892717079,-0.2930087411740253,-0.15790567222459628,-0.5260881067993641,1,right
1.215,-0.27327964266957394,0.9720447202258706,-0.06186308203727458,0.8860525215879509,0.11242211807347773,-0.44041454609144426,-0.29216291351617235,-0.15579639564464648,-0.524430967296778,1,right
1.218,-0.263910151744909,0.9708367860758368,-0.06729767166378489,0.8689854438624479,0.11027724759122004,-0.437537520161298,-0.29236407898190897,-0.15635045039875511,-0.5248442609033721,1,right
1.219,-0.252094415444396,0.972059344322728,-0.07235170809272448,0.8822689238824255,0.11195485115829185,-0.4397617773913678,-0.29257298521457875,-0.15676947037097966,-0.5252162977932805,1,right
1.2229999999999999,-0.23771149770213157,0.9749888159449835,-0.07610288742326685,0.8751014398245444,0.11105411623346326,-0.43855389779335335,-0.2922040388071942,-0.15597695018837324,-0.5245400313719522,1,right
1.224,-0.22586384666503762,0.9777085482221655,-0.07706872153381819,0.8767777645289793,0.11122693749117321,-0.43890347463636115,-0.29255267213662317,-0.156743496490556,-0.5251855237200194,1,right
1.227,-0.2167886872398016,0.9774846106251486,-0.07807473847071991,0.8785713073932252,0.11155680161680007,-0.4390202003406705,-0.29230931564226853,-0.15614082547452804,-0.5247102966042461,1,right
1.228,-0.20693657785204767,0.9786410168764338,-0.08142685546229668,0.8754659389782977,0.11098684693973013,-0.43881626554911235,-0.29244210627699296,-0.15664674190225478,-0.525034169863269,1,right
1.2329999999999999,-0.1979334573461377,0.9773615338439141,-0.08239013508467205,0.8783240932577256,0.11156865863320073,-0.43890209474611425,-0.2923813776251555,-0.15609081359948868,-0.5247677164092734,1,right
1.234,-0.19073832179333972,0.9729339821597293,-0.0814838731956565,0.8764377940172545,0.11115327776760231,-0.4389013567846661,-0.29241383391654363,-0.15677642587063123,-0.5250517778015129,1,right
1.238,-0.1852181400426279,0.9703333057518656,-0.08115294757212857,0.8773463372484955,0.11126361323435213,-0.4390612538656081,-0.292390062322858,-0.1560722870704176,-0.5247700626113747,1,right
1.239,-0.1831065296203238,0.967810648049913,-0.07819653845533404,0.8769965434320333,0.11155975434003054,-0.43839749264687844,-0.29238670466375705,-0.15643690593321125,-0.5248995300251983,1,right
1.242,-0.18390396571177586,0.9642263949017312,-0.07298094366941604,0.8772972277598772,0.11082162612833979,-0.43982810921826776,-0.2924684819822514,-0.15696051210371825,-0.5251762205097905,1,right
1.2429999999999999,-0.18691052774173594,0.9598881999481802,-0.07107262688964779,0.8767326273766545,0.11190837750838666,-0.43767394317019526,-0.2922491743527047,-0.15501147511514693,-0.524235427161233,1,right
1.247,-0.19381191774151357,0.956796205168274,-0.07111554066665074,0.8774884646053096,0.1107689659243205,-0.4399967989368303,-0.29263087803032156,-0.15856424287801002,-0.5259314778814383,1,right
1.248,-0.20934389575830772,0.9549737281831475,-0.07006927184042178,0.877053009664501,0.11142731059200564,-0.4386550852846532,-0.29214634866303324,-0.15401606143635957,-0.5237644502418599,1,right
1.253,-0.23171845395358198,0.9529623369633167,-0.06384697486850188,0.8763378494733622,0.11195342616751991,-0.4374391336745238,-0.29254861149420386,-0.15780769168440317,-0.5255694125690337,1,right
1.253,-0.2600242181921619,0.9511072186915573,-0.0523017727627466,0.8790288262120212,0.10959784083488636,-0.44268349206212443,-0.29254638011376494,-0.15772615719744448,-0.5255369789426176,1,right
1.2570000000000001,-0.29184255516538316,0.946939097836404,-0.04424953138008051,0.8740592866965512,0.11396843390184674,-0.43296197173960516,-0.29175089059942305,-0.15042666547627778,-0.5220408812079462,1,right
1.258,-0.3218730341697816,0.9426532740055964,-0.04080625779002874,0.8804697456808267,0.1083604219283428,-0.44544937775566007,-0.2936959618219154,-0.16834347581125325,-0.5306150216736911,1,right
1.262,-0.3605104785830876,0.9406618519051719,-0.04427829988895141,0.8751035727053036,0.11303988731841023,-0.4350225886224307,-0.29047349273930523,-0.13864239999986175,-0.5164029503978073,1,right
1.263,-0.3892983442873486,0.9387913741752573,-0.050248220505338115,0.8752164279514946,0.11291061234140776,-0.43529737887352216,-0.2947238061383213,-0.17781819590794098,-0.5351491242878914,1,right
1.2670000000000001,-0.39608376444117677,0.938681913416672,-0.05212510726691867,0.8855933905986146,0.10400241209625477,-0.4552085007437702,-0.3125758016380831,-0.34228056714426136,-0.6138497246068658,1,right
1.2690000000000001,-0.4175462920897801,0.9375403662927831,-0.05768132728609854,0.8601080449051505,0.12589727614430263,-0.4062766596274776,-0.31682737498669306,-0.3814603367178797,-0.6325995962342414,1,right
1.2690000000000001,-0.44710254746661987,0.9321294945282099,-0.0601559805248431,0.9023722930886804,0.0895979420012397,-0.48740625064056065,-0.313603542926124,-0.3517549614711708,-0.6183835247908704,1,right
1.272,-0.45803956168568905,0.928591136958625,-0.05739922597288123,0.8466108811430182,0.1374721126259167,-0.3803975927084199,-0.3155480949611456,-0.3696701373385557,-0.6269561417406584,1,right
1.273,-0.4608818471090955,0.9275355325335323,-0.05647705032113507,0.6124971194851896,0.3384307155767533,0.06879864692480007,-0.3147571287480416,-0.36238490523174327,-0.6234733186895715,1,right
1.273,-0.46435579590982823,0.924259312302679,-0.04927680193347819,0.5567068975507015,0.3862947019149172,0.17580350868162414,-0.3147451659192504,-0.3622726884768544,-0.6234123255656705,1,right
1.2770000000000001,-0.4657811813241869,0.917131480974523,-0.03890590228980641,0.5990161801292169,0.3500112874616365,0.09467985158108094,-0.31516138086781476,-0.36610831159772456,-0.6252582342872979,1,right
1.278,-0.46290926471845717,0.9059145480507926,-0.03482916633554581,0.5734935834511673,0.3718929829872777,0.1436067845942306,-0.3146629591088296,-0.3615163215285304,-0.6230504352447714,1,right
1.281,-0.45843452865743783,0.8973534986202972,-0.0361794216167149,0.5838683872438654,0.3629840203263015,0.12369537762568579,-0.3150506552288641,-0.3650879935875194,-0.62476407312916,1,right
1.281,-0.4519478704976993,0.8943177986058344,-0.03998369006829164,0.5840535207188648,0.36288029449969933,0.12343011212521829,-0.31484328146206847,-0.36317657169971823,-0.6238583020489039,1,right
1.286,-0.4428881518338059,0.8924449739857935,-0.040386218583749606,0.5785295657445422,0.367503985368928,0.13383610995420017,-0.3148866239378304,-0.36357900263622833,-0.6240221957890089,1,right
1.287,-0.4360836512234839,0.8945476875293094,-0.03669958219860957,0.5851647843778971,0.3619754249084869,0.12137832018680432,-0.31494948689213187,-0.3641524152027511,-0.6243460055155132,1,right
1.291,-0.4292424654950347,0.9012340550694768,-0.03355390419050277,0.5799726500195106,0.366267330421571,0.1310705106278618,-0.31484445049841014,-0.363192030262239,-0.623825795487493,1,right
1.2919999999999998,-0.4206166457860254,0.9077857214118534,-0.03128593864060484,0.5827600840845555,0.3639458452868783,0.12583885971295883,-0.3149416882867885,-0.36408194014448125,-0.624299978665944,1,right
1.296,-0.41424323804392416,0.9154031003296457,-0.03132696926406847,0.5822321524751091,0.36453814085399033,0.12707948601390912,-0.31488155242836763,-0.3635278190970921,-0.6240352605238353,1,right
1.297,-0.4087907341021876,0.9267930961966552,-0.030463192986415467,0.5811914549629817,0.36498253980754386,0.12834144360140778,-0.31489409019739656,-0.36365464378871554,-0.6240062238822194,1,right
1.301,-0.40116443383716804,0.9381343019043182,-0.02281433752225754,0.5829901525946142,0.36421177184988346,0.12615600644676261,-0.31492552339746455,-0.36391834771219683,-0.6243374388328656,1,right
1.301,-0.39160124616587816,0.9448141049564195,-0.014729807560798173,0.5811459877106027,0.3648462006023391,0.1281415681746333,-0.31486423766740135,-0.36339238389778067,-0.6237799102899815,1,right
1.305,-0.3792091790454818,0.9477447104749175,-0.014939039343328051,0.5824666723366233,0.36446864846925425,0.12684534649039436,-0.31493224715162954,-0.36397773416626444,-0.6243860197160278,1,right
1.306,-0.3639080030089447,0.9494212882002401,-0.022834053267267163,0.5821257375728044,0.36476790124218395,0.12751029208220482,-0.3148887305069592,-0.3636005894849022,-0.6240172337853184,1,right
1.311,-0.35103836262580046,0.9543484485721895,-0.030008347408437615,0.5811424599128796,0.3642095130130584,0.12710109016620824,-0.3148721398275386,-0.3634684172698886,-0.6237914885686542,1,right
1.3119999999999998,-0.34355555979167535,0.960775066853444,-0.03107291429345423,0.5835796785741165,0.36532245204484437,0.12767155168751945,-0.3149789782752459,-0.36436258184819836,-0.6249301830523998,1,right
1.315,-0.33912731555440667,0.9626195083071123,-0.025366750515047304,0.57998793089576,0.3636242597006835,0.12673582387471294,-0.31477468623379834,-0.3626474629821773,-0.6227913902310661,1,right
1.3159999999999998,-0.33847231845296244,0.9644015897935335,-0.014959628910392911,0.5837582086428953,0.36548484215402777,0.12784572579066578,-0.31503836223192483,-0.36486238372960655,-0.6255435999666155,1,right
1.32,-0.3394958113881332,0.9641596602193692,-0.006318423677577063,0.5815791456577092,0.3644103335212512,0.12720560587853166,-0.31481772166791155,-0.3630083363846941,-0.6232437767654888,1,right
1.321,-0.3398323606641106,0.9586162224882865,0.0006326714227814304,0.5798305887002684,0.3633725932650905,0.12640462368152305,-0.3148257303219239,-0.3630777950433607,-0.6233147546901988,1,right
1.324,-0.3421440837192877,0.9531901945246983,0.003796868131532848,0.5876511011314475,0.3677699162233588,0.1295875847545735,-0.3152396588985419,-0.36654931115919615,-0.627670719504833,1,right
1.325,-0.3455132676758383,0.9480781685486687,0.00037703185585229583,0.5731396436402691,0.35962220978073633,0.12370072160895448,-0.3142199762803931,-0.35799455637418265,-0.6169546718548151,1,right
1.33,-0.3492281104468422,0.9482578192884061,-0.002156589335361494,0.5917621085709461,0.37009351647032473,0.13128051812819314,-0.3159111248430088,-0.37218382615732126,-0.6347240473992042,1,right
1.331,-0.35101151233308053,0.9509472500952826,-0.0031061605540302437,0.5762204099716455,0.36134733456448387,0.12494292213517633,-0.3136806453017001,-0.35346872448934996,-0.6112873208029875,1,right
1.335,-0.352601334901894,0.9519982051009652,-0.003459424758500398,0.5766537382091494,0.36157231252853095,0.12508872954286698,-0.3043191737187157,-0.27493001816085494,-0.5129116853687693,1,right
1.3359999999999999,-0.3601551286240897,0.9572215179658953,-0.006595430440538021,0.6062330760900602,0.3782996612230488,0.1372838213436824,-0.3020892755133603,-0.25621895557030455,-0.489478151334667,1,right
1.3359999999999999,-0.36945572716041203,0.9626898149772738,-0.019323446187284897,0.5335217076893126,0.33719470624489245,0.10732881443705979,-0.3037797953336253,-0.27040385571921305,-0.5072440729744596,1,right
1.34,-0.3764872469866179,0.9727848160147975,-0.029256612327124905,0.6540796524922521,0.40534969925579134,0.15699779602877437,-0.3027598727021229,-0.26184743752236295,-0.4965267107601599,1,right
1.341,-0.3788100035410409,0.9824570131877409,-0.030471917653114883,0.49506511954910093,0.31545012816894635,0.09147861632907092,-0.30317588926566225,-0.26533345218798127,-0.5008941350299982,1,right
1.341,-0.37957338365555715,0.9844595173756608,-0.02963323109644298,-0.17246089170743512,-0.061947890720544053,-0.18357723256242123,-0.30317940645268115,-0.2653717172719227,-0.5009404576672025,1,right
1.347,-0.3861904097164598,0.9956392643819106,-0.020368547423791905,-0.33149438076918114,-0.1518561626685272,-0.24910046363283425,-0.3029652048598761,-0.263562393673915,-0.4986759842030315,1,right
1.348,-0.39133772243731657,1.0084107054268967,-0.007725529316533645,-0.21089195624910517,-0.08368500694083661,-0.19942885556525447,-0.30322247008708914,-0.26573278078897256,-0.5013929941552298,1,right
1.35,-0.3922656628276652,1.012585331208774,-0.0014754505856199467,-0.28368042841873536,-0.1248102865569499,-0.2293759725076253,-0.30302094213060105,-0.2640368738581138,-0.4992693872019985,1,right
1.35,-0.39116167501030674,1.016721923982566,-0.0004963266798207769,-0.253994083028686,-0.1080648816861102,-0.21720824986549056,-0.30313329029253244,-0.26496928806010567,-0.5004383131913225,1,right
1.357,-0.3828692291222777,1.0210142716465604,-0.011620732926328663,-0.25367406072260035,-0.1078458303719934,-0.21701212415248872,-0.30309895941489207,-0.2647139172009141,-0.5001151926715315,1,right
1.357,-0.3737011530329966,1.030570729180773,-0.03155077721861209,-0.2691469169702504,-0.11660987331785068,-0.2234150066530129,-0.30308600526241003,-0.26454904097023946,-0.4999141834734631,1,right
1.36,-0.36848207401975175,1.0461130353109298,-0.045624155323855,-0.25047607746718237,-0.1060878568778241,-0.21577876393455003,-0.30311651180492316,-0.2648738931078934,-0.5003143940952024,1,right
1.361,-0.36155351613779974,1.0636344072249226,-0.04808091755590282,-0.2652255233940696,-0.11431858102601092,-0.22167408227302787,-0.30308511790916703,-0.2645555982821245,-0.4999210100579357,1,right
1.365,-0.35107799782579174,1.082362265412491,-0.0396455233595855,-0.2569462906588006,-0.10982392996301127,-0.21857621957593057,-0.30311683434793546,-0.2648211821219213,-0.5002537061468773,1,right
1.3659999999999999,-0.3346714748900256,1.0964619698265965,-0.030654132446655644,-0.2593118041029695,-0.11093283063250012,-0.21916611887438067,-0.30307386211016885,-0.26456256093429126,-0.49992001857940416,1,right
1.37,-0.3139340732884762,1.106695359261582,-0.02896837635642066,-0.2609165676506554,-0.11202232714491811,-0.2201341115843547,-0.30314055449739175,-0.2648892588444612,-0.5003514958447031,1,right
1.371,-0.29526276624423897,1.1183718101227749,-0.02855860322149511,-0.2573318271397109,-0.10999719651324523,-0.21865996451147457,-0.3030486096692034,-0.2644651724574578,-0.49978709522667425,1,right
1.375,-0.28370147448891603,1.1305355819245606,-0.022576391229210964,-0.26155190200244827,-0.1120449758774838,-0.21982894511307438,-0.3031452163970607,-0.26490548679350523,-0.5003740076748622,1,right
1.375,-0.27957784620456827,1.143285960676012,-0.010622202331938394,-0.2573323012210543,-0.11043225215029295,-0.21939243568484212,-0.30309162276224977,-0.2646696740973714,-0.500058185462081,1,right
1.379,-0.2759384735607246,1.1586422356962593,0.007963556140856608,-0.2612534243972031,-0.11149586749855052,-0.2190655978854923,-0.30303440918408897,-0.26437421125771327,-0.499670492574476,1,right
1.38,-0.2689698474874952,1.1706215670400257,0.032212846200479324,-0.25811923467873776,-0.11095358950296738,-0.21984485558760591,-0.303266764613618,-0.2655164313115874,-0.5011782916740934,1,right
1.385,-0.2547980717226058,1.1749810382686405,0.0493697573427071,-0.2593959190014775,-0.11096438879742794,-0.2191746384716276,-0.3028391245846428,-0.2634253728829718,-0.4984161201071162,1,right
1.386,-0.23626682103367166,1.1765680248189314,0.0508984170850638,-0.2616220194065103,-0.1116115446689138,-0.21906008701411828,-0.30338748963065054,-0.26610432929003414,-0.5019552999522314,1,right
1.389,-0.22317770045772833,1.177938012723887,0.03865089796912593,-0.25425550084490733,-0.11012571612593013,-0.22053921110525376,-0.30293000635568046,-0.2638702084166892,-0.49900360768086044,1,right
1.39,-0.21599418944208154,1.1789808588951147,0.01545304650551709,-0.26722367334241603,-0.11248802481659059,-0.21751104412874195,-0.30294120211469333,-0.263921340802339,-0.4990718561817227,1,right
1.3940000000000001,-0.21052899211599851,1.1828043101813281,-0.007216971196870735,-0.25088023943804766,-0.10963032177504765,-0.22152595225005428,-0.3038173738988422,-0.26821214140050753,-0.5047385692842379,1,right
1.3940000000000001,-0.204200449464674,1.1931628837164927,-0.0062249770959911885,-0.26439132698177303,-0.11193888640551578,-0.2181198603271592,-0.3016652983094889,-0.25767673392863605,-0.4908239713753757,1,right
1.3980000000000001,-0.20952263953386635,1.203771940554599,0.022580184500247694,-0.2641437880960704,-0.11194746215469073,-0.21825925897860882,-0.30523310242387347,-0.2751423101652269,-0.5138918272352495,1,right
1.399,-0.21907461985392945,1.2086546615829543,0.04574761451930706,-0.23815958976500595,-0.10741032944687509,-0.22466632226533004,-0.30052731703292535,-0.25210522012738107,-0.4834652390509602,1,right
1.403,-0.21998424224461316,1.209343728051012,0.0542914194948039,-0.30181243319431467,-0.11843267861511064,-0.20883379393205725,-0.280772654826719,-0.1553953782747052,-0.355735582399656,1,right
1.4040000000000001,-0.2407856672349759,1.2034069454931928,0.06228232242840126,-0.19637810760232147,-0.10022367387623561,-0.23512563233655792,-0.2760669882675932,-0.1323562803589336,-0.32530622018881133,1,right
1.405,-0.26410080240329736,1.1971769341178695,0.06299660770047774,-0.33538929997196,-0.12420137876190555,-0.200426479020549,-0.27963453700217084,-0.14982441052980044,-0.34837768020668136,1,right
1.409,-0.2678209505681681,1.1942166500644473,0.05526938739369352,-0.918922605881582,-0.2249112173555209,-0.054776477060247616,-0.2774828616833075,-0.139288477858374,-0.334462088510851,1,right
1.41,-0.2850369844227323,1.188857315736811,0.03881443128061568,-1.0578866565392664,-0.24884115066674747,-0.0200649199236118,-0.2783585339380363,-0.14357485852081198,-0.34012324804707883,1,right
1.41,-0.3064974116603617,1.187378986344974,0.02232451799674491,-0.9525430070276466,-0.23071642274843132,-0.046383146540758924,-0.2783701858626688,-0.14363736225547263,-0.34020638663464464,1,right
1.4140000000000001,-0.32019282370732705,1.1911491688325482,0.022002945956590306,-1.016074730177849,-0.24164299106957615,-0.030509788913138415,-0.27791254384135905,-0.1413854469483944,-0.337230990414351,1,right
1.415,-0.34042508117967785,1.1947732399234863,0.03088878290606614,-0.9902110396095408,-0.23717239980455063,-0.036967032818762374,-0.27846044825260186,-0.14408398443169385,-0.34079671570396797,1,right
1.4180000000000001,-0.36213971110096743,1.199825063333053,0.034457803416078965,-0.9898977442327591,-0.23719679322894002,-0.037061723541936625,-0.27803415597081554,-0.1419810201373305,-0.3380176281542676,1,right
1.419,-0.3859081413832648,1.208999267511564,0.03464868553725289,-1.0033481724208317,-0.23935538939473533,-0.033669086874227455,-0.2782642592767056,-0.14311439180564128,-0.3395152189784535,1,right
1.4240000000000002,-0.40699779470821296,1.2178920897654582,0.043723954128701004,-0.9872586732226813,-0.23680601958581923,-0.03773385608234152,-0.27820974575382706,-0.14286113571444695,-0.3391820618032053,1,right
1.4240000000000002,-0.4157796578978158,1.2175973097167763,0.05306649385162134,-0.9997579078358922,-0.2387400388050248,-0.03456670965825669,-0.27815408509713113,-0.14254482065874935,-0.33875998230334403,1,right
1.429,-0.41577408147511363,1.209198885159712,0.050121971630048334,-0.9930013882447042,-0.23766976576559873,-0.03627367481461541,-0.2782504838052325,-0.1430921897837312,-0.3394903472230258,1,right
1.43,-0.40327406920711967,1.1982690883739,0.0379288381475293,-0.9946871306629518,-0.23814871790038394,-0.035890846588680844,-0.27816280397928617,-0.14257042101091852,-0.3387920927523893,1,right
1.433,-0.38253757778707564,1.1914564421544998,0.022820840476549878,-0.9960860219705246,-0.23778487106155946,-0.035418474540393666,-0.27822010020006105,-0.14292463300721947,-0.33926722541919385,1,right
1.435,-0.3707800858087277,1.1943373533745887,0.010723246241662213,-0.9936610380827186,-0.23840808245379858,-0.03623582382075567,-0.2781908519061649,-0.1427821802949739,-0.33907906918167063,1,right
1.4380000000000002,-0.36894720423498584,1.2000774404991534,-0.0026885612276689964,-0.995732755653348,-0.23748810382527727,-0.03545876359879361,-0.27820832373805093,-0.14273077410952076,-0.3389977965687577,1,right
1.439,-0.3733768605688025,1.2064526372296025,-0.011429259293591707,-0.9944534376741783,-0.23828535946684645,-0.03598521906779935,-0.2781844488441487,-0.142926691261401,-0.3392872640759922,1,right
1.442,-0.38043862975362225,1.2160957157066739,-0.003197450010858219,-0.9953204808025037,-0.23844413138920512,-0.03577044300811698,-0.27822377881177873,-0.142652718134804,-0.3388794901640333,1,right
1.443,-0.38306085976332793,1.2217015968059517,0.007758266206423245,-0.9940396511328898,-0.2363344465195662,-0.03570662405907734,-0.27817692339379807,-0.14292049887276526,-0.3392822528478633,1,right
1.4469999999999998,-0.38341103467321674,1.2230972633389385,0.005333168594789514,-0.9964932628887295,-0.2410735672384075,-0.035970788659636585,-0.2782039212294895,-0.14276566154803527,-0.3390491549911304,1,right
1.4480000000000002,-0.3820043443665507,1.2250639506314425,-0.0020750351445067796,-0.9927227924812373,-0.2339850314011782,-0.03560415793283498,-0.27823822486502864,-0.142685395389,-0.33891921888033916,1,right
1.452,-0.37941823761916404,1.2257853804383987,0.0017625929756928138,-0.9968883186169,-0.24156635052223638,-0.03595856847387645,-0.27810243240534827,-0.1431051842265511,-0.3395798915662998,1,right
1.452,-0.3786839763918216,1.2281592101158143,0.013513948468187216,-0.9944827228923678,-0.23718670649317813,-0.035753337194792796,-0.27835349373480517,-0.14232363557187977,-0.33834999892789397,1,right
1.4569999999999999,-0.376553291217233,1.2373045307207393,0.01406512000580924,-0.992086359561326,-0.23335379389811045,-0.03565748204978064,-0.2780302716744364,-0.14332231201805257,-0.339923468156627,1,right
1.4580000000000002,-0.3706823506278793,1.2491220908323548,0.0029525112813083175,-1.002157068989689,-0.25005248471196156,-0.036182083507686924,-0.278300433668209,-0.14249123142051295,-0.3386123738054483,1,right
1.463,-0.3646137439569628,1.2599784741863902,-0.006939443953244561,-0.9835007882670717,-0.219089740115992,-0.03520382696664965,-0.2782944985051139,-0.14251785504111442,-0.3386557054448979,1,right
1.464,-0.36243088433981413,1.2724381426075695,-0.014386342626757857,-1.0074841214974481,-0.25885053180853684,-0.03645341997649573,-0.2777738865338558,-0.14408218545421903,-0.3411229378858268,1,right
1.4669999999999999,-0.3626391479409677,1.2836231714212056,-0.01822051479816552,-0.9874480478725609,-0.2256563120992852,-0.03541300084119711,-0.2790521811982817,-0.1402359135704434,-0.3350523903864807,1,right
1.4680000000000002,-0.36680535075938736,1.2939255400324265,-0.017098610293474044,-0.9879594901064774,-0.22654388597779895,-0.035450252614746755,-0.2769329152493943,-0.14661081630873282,-0.3451175805793609,1,right
1.472,-0.37169001158127035,1.2999035376816201,-0.020575596088329016,-1.0263018445044534,-0.28987560440680316,-0.037396436713351966,-0.279728280713001,-0.13820523618797653,-0.331843109184357,1,right
1.473,-0.3711801628872745,1.3007831785990882,-0.02473597666376289,-0.9320803851440836,-0.13422858176267688,-0.03260532460268267,-0.2914715779827366,-0.10289426912781198,-0.27615605655257,1,right
1.474,-0.3759964792399966,1.3137925548726679,-0.012541854805195138,-1.0883112030325908,-0.3922911808224232,-0.04054949591513707,-0.2942676430935727,-0.0944893146621228,-0.2628849844491776,1,right
1.4769999999999999,-0.38371395148031573,1.3275931267874677,0.0034414217601281996,-0.8822304411848565,-0.05191422998763545,-0.030072307586753708,-0.2921465242596814,-0.10086783773177753,-0.2729432888257828,1,right
1.4780000000000002,-0.3859881974689512,1.3301474548037824,0.009228379191260634,-0.01717549801247409,1.3769175532043163,0.013872652161302922,-0.2934284127733252,-0.09700608741776087,-0.2668827053697554,1,right
1.4780000000000002,-0.39270400658136767,1.3365728101872383,0.016035494496619264,0.18892575880250922,1.7172840726853682,0.024348380389532725,-0.2929023091519984,-0.09860404277889956,-0.2693387119091404,1,right
1.4809999999999999,-0.39738667680980677,1.3413087909470391,0.02277673205194681,0.03266645282991091,1.4592316701265935,0.016407363996619826,-0.2929028437362756,-0.09857928142127156,-0.26939054772478843,1,right
1.482,-0.3894426833758377,1.3427558704632045,0.03066669919783923,0.12690184249764294,1.6148868443821531,0.021193497586602945,-0.29316800970155266,-0.09780509312813954,-0.26807978966181956,1,right
1.486,-0.3747703145388185,1.3488911880275514,0.0440904107499183,0.08858693692170624,1.5515097330715748,0.01925357568307277,-0.29284441612849343,-0.0987680803317296,-0.269637273085928,1,right
1.4869999999999999,-0.35755541844041944,1.3567382220654145,0.05325685760924152,0.08798563367635907,1.5507145124667918,0.01921053436632738,-0.29310556613139793,-0.09796300288821264,-0.2684433418983305,1,right
1.4909999999999999,-0.34156966275785683,1.3651084080362483,0.05492117652963722,0.1081752105288066,1.5837805719051916,0.020253102142331274,-0.2929472151699887,-0.0985031367954608,-0.2690507703812175,1,right
1.492,-0.32637414324790326,1.372170995212836,0.05349240713586319,0.08400821483113488,1.544142085183265,0.019009054863155045,-0.2930148285101314,-0.09818952415130755,-0.26897713610761553,1,right
1.496,-0.30650784739121606,1.378377933857539,0.05524955929427096,0.10280095000682357,1.5750619294595791,0.019970646350729072,-0.29300677562383026,-0.09834913847681634,-0.26871243115357224,1,right
1.4969999999999999,-0.2877717805870367,1.383616185885675,0.06072882680276832,0.09275612775172873,1.558235465391716,0.019474170750826032,-0.2929792077717299,-0.09832406844211988,-0.26908453150553735,1,right
1.5019999999999998,-0.2763890579508017,1.3883720524391698,0.06669758322134556,0.09484232842581658,1.562440837612122,0.01953600029933077,-0.29303861116227514,-0.09814450925130033,-0.26880495345575367,1,right
1.5030000000000001,-0.26444207128962205,1.3940115813676601,0.07442830187821188,0.09791106667488135,1.5662009308585203,0.019767746028918363,-0.29293330025596986,-0.09866147331070221,-0.26885672875572203,1,right
1.508,-0.24858301004316186,1.3973158601886055,0.08235251599249385,0.09279503841738765,1.5593563727871258,0.01941488976529411,-0.2931007680766039,-0.0977001112231714,-0.2690854668795485,1,right
1.508,-0.23177180378475157,1.3996258736245912,0.08229075426000279,0.0975273885582735,1.5658927472015507,0.019729363705428465,-0.29287672585933455,-0.09905677923551579,-0.2686220111973955,1,right
1.51,-0.21369488168551187,1.4001006988854312,0.073636554657905,0.09461262943392809,1.561067647170342,0.019581920800254216,-0.2931061085668685,-0.09763893000195352,-0.2691607927105022,1,right
1.511,-0.1978758956192101,1.3934735700373542,0.06952074738823402,0.09518583440441705,1.5643879176510527,0.019473744498838277,-0.29297992629359315,-0.09843909508449777,-0.26881947185386357,1,right
1.515,-0.18137820514639943,1.3794648969660925,0.07432326159438954,0.09678829740334084,1.5616096434129796,0.019868941471856243,-0.2928513983692608,-0.09918813962694076,-0.2686185747098935,1,right
1.516,-0.15829373487203616,1.3600839920211374,0.08724407784334137,0.09369982731808846,1.5646022769216148,0.01924389431553787,-0.2933774235553435,-0.09601938304171612,-0.2696699890838036,1,right
1.521,-0.1320198838273282,1.3382711846170123,0.10732801052249596,0.09712266783057644,1.5616268237517978,0.019916892903641736,-0.29241055860275145,-0.1018699565680781,-0.26767942245829224,1,right
1.521,-0.10710700405738233,1.3161810328496477,0.12306609598607476,0.09493885156944068,1.5630068867317921,0.01951744499950567,-0.2936488912146775,-0.0943669634988413,-0.27025011918043346,1,right
1.525,-0.08696858670495036,1.2944517801122886,0.12692107401369973,0.09407543241135907,1.565875759503819,0.01922527272314805,-0.2926164861667524,-0.10062671682429056,-0.26809769028016994,1,right
1.526,-0.06913169846091727,1.2748312515264772,0.11688516230584857,0.09952370916888964,1.556069443661043,0.02058958523830131,-0.29264217115739677,-0.10046376421992853,-0.26816570210223095,1,right
1.5319999999999998,-0.05401797678347417,1.259374479858294,0.09774276254662806,0.08911695780335568,1.5737585495209343,0.018043731678133137,-0.2946166831915401,-0.08851059203697367,-0.27224407805450007,1,right
1.5330000000000001,-0.041512459849848166,1.2467187142711724,0.07813599038025446,0.10254978474434223,1.551157146299805,0.021316628927393486,-0.28976701702657004,-0.117880355215402,-0.26220567042605003,1,right
1.535,-0.022725254721324167,1.2357200648166327,0.06129121783453022,0.09130414272652851,1.569979375830478,0.018582160649424518,-0.2978064207807797,-0.06918805019446783,-0.2788554243601504,1,right
1.536,-0.008050747435125747,1.232352652352168,0.05380886626129627,0.09172237160484478,1.569646173252381,0.018663130170916385,-0.28720347307435456,-0.13341075813639489,-0.25689206786503593,1,right
1.541,-0.004779708543444847,1.2318231776917419,0.05376089315821352,0.11280019844734321,1.5331808168694314,0.023855834435088173,-0.2426960075395709,-0.4029901028792443,-0.1647084409373764,1,right
1.5419999999999998,0.0074735851375773476,1.2276427273753945,0.059620209546465165,0.06085153965670816,1.6225976179853043,0.011083218645255997,-0.23209508194028278,-0.4672093920258148,-0.14274291748549234,1,right
1.5419999999999998,0.03185886109169202,1.230867150688775,0.07395488763977545,0.14703071194079667,1.4743982295261526,0.032264932652476166,-0.2401307207801047,-0.41852369760400543,-0.15939739073450276,1,right
1.547,0.04570517295806503,1.235700629901387,0.08170346672728748,0.03334406242762604,1.6698630408754553,0.004323693365433728,-0.23528580874321073,-0.4478845543457684,-0.14935146316878983,1,right
1.547,0.049106981966243836,1.2376125595022736,0.08335849043407687,-0.44354064196097265,2.4906329549941617,-0.11292256588793344,-0.2372560614020076,-0.4359403742092215,-0.15343940351652002,1,right
1.548,0.05846374183756684,1.2501380025556827,0.0857720702147696,-0.5572382805691878,2.6861106297902886,-0.14086742669505908,-0.2372832171369038,-0.4357722784034025,-0.1534984215265865,1,right
1.551,0.06111886831175326,1.266419170015708,0.07569510576039959,-0.4710472141463369,2.537897322094655,-0.11968179638487517,-0.23625486336165802,-0.44202803349145137,-0.15134961246292417,1,right
1.5519999999999998,0.049480201003824345,1.2811797813084302,0.05785290555713134,-0.5229913674901874,2.6273088364623085,-0.13245291505399737,-0.23748146680259544,-0.4345432280337118,-0.15392829097669802,1,right
1.555,0.03614395150804953,1.2957944965759127,0.04280244078474156,-0.5019529451498149,2.5908896320515193,-0.12727322218045345,-0.23653395297607635,-0.44035957196064646,-0.15191276395005354,1,right
1.557,0.021797153021279277,1.30388396034304,0.03135014705868041,-0.5014499098350887,2.5904571188081844,-0.1271642665111628,-0.23703712022350779,-0.4372359909105523,-0.15300690494231248,1,right
1.56,0.009135476601888945,1.3060893728598741,0.028121198390740103,-0.5128171652293037,2.6094217467834295,-0.1299388536386426,-0.23692557733115757,-0.43794409175674626,-0.15275366620738207,1,right
1.561,0.0006518693553235263,1.3012369024355515,0.029805702933575425,-0.4992632140668478,2.58667853555796,-0.12662601589149713,-0.236802281352545,-0.43875544474493444,-0.15245411652226276,1,right
1.564,-0.006549272517690042,1.291860374136161,0.032518204623460195,-0.5097222704071511,2.6044288454199305,-0.1291890853871936,-0.23699398857815127,-0.43738688532451425,-0.1529930412088639,1,right
1.565,-0.01317812850278743,1.2809803071137928,0.03645832862055481,-0.5043779073874852,2.5947442638116005,-0.1278591109183606,-0.23685095435782016,-0.4386101432202183,-0.15245268936862008,1,right
1.57,-0.020300449013231504,1.263529345581062,0.0378266047521026,-0.5049064249477979,2.5972209319231614,-0.12804074089278272,-0.23690184349804383,-0.4378641885017476,-0.15285747265050031,1,right
1.57,-0.027022266723480924,1.2462716311336124,0.03315307410479193,-0.507667385192336,2.5992768167318596,-0.1286306180226623,-0.23691523097321252,-0.43813194289127333,-0.15264655574828656,1,right
1.575,-0.03491262782757962,1.2340678875590974,0.0240879700455765,-0.5035361440273489,2.5954719217405353,-0.12772395727818545,-0.23691625766965332,-0.438128854037011,-0.1526466902945605,1,right
1.575,-0.042854295466857165,1.2212335348967076,0.015045703797804162,-0.5071895349531343,2.5991258844298053,-0.12853522807616058,-0.23680494584332337,-0.4381558425903326,-0.15285855518360905,1,right
1.579,-0.04932343807754702,1.211499109621895,0.0066725826993542115,-0.5055917620459789,2.596353370045578,-0.12814183589449674,-0.23709579261421787,-0.43787319749353293,-0.15244970546970005,1,right
1.58,-0.05667992537601198,1.2080785467240225,-0.001683930899132705,-0.5039710027237999,2.5984466947878317,-0.12790409724706686,-0.2366318632995227,-0.43847685801869996,-0.15299759632000048,1,right
1.585,-0.06344536596124173,1.2072981213603557,-0.011966726635849198,-0.5092803968831139,2.5964258164362413,-0.12884180718594057,-0.23714397418114683,-0.43772697072991407,-0.15244965178982833,1,right
1.5859999999999999,-0.06856179366990364,1.206285442701493,-0.023954727416084377,-0.5009751384562603,2.598778552826234,-0.12734859492079842,-0.23684248344793357,-0.4381942024935594,-0.15275509700851472,1,right
1.589,-0.06985344818034576,1.2016782809068252,-0.03454627268912629,-0.5099005885537702,2.5963940919639983,-0.1289577542969081,-0.23658019076106726,-0.4386113121276548,-0.15301206746002077,1,right
1.591,-0.06775748188181696,1.1950878010775574,-0.04599969611347557,-0.5046297367008444,2.5975767622109376,-0.12800057111962237,-0.23773472560627512,-0.4367453334065249,-0.15189829525931,1,right
1.594,-0.06212587992890977,1.1896374144400936,-0.0544580833307806,-0.5006484699938709,2.599561488605885,-0.1273119558777253,-0.2355872314665991,-0.44024474518198575,-0.15395174627423952,1,right
1.594,-0.049434982014781303,1.1820387122514016,-0.054344076449685016,-0.5189937527061149,2.592456065920553,-0.13054852159724,-0.23834913121498605,-0.4357244249327529,-0.15132292021644572,1,right
1.599,-0.034952020190371504,1.1723863465950086,-0.05059040770177728,-0.48480494124772905,2.6053471312535104,-0.12450665194039968,-0.23604148514037737,-0.4395098232355832,-0.15351560043097884,1,right
1.601,-0.014064553855312762,1.1663718831511571,-0.045276819831049836,-0.5287439871796256,2.588859472638643,-0.13227280581316453,-0.23610349796052177,-0.43940948246221645,-0.1534508111854671,1,right
1.605,0.012313707882112005,1.1618144992027322,-0.0406049616354999,-0.49204377518966746,2.6025966285857747,-0.12578701001516102,-0.24050826751416288,-0.4321653493328818,-0.14929029975837974,1,right
1.605,0.03678095174815913,1.1550382070213172,-0.038296226811945194,-0.49310096098278255,2.602327863067397,-0.1259733888522236,-0.2296811445259336,-0.44997616644200555,-0.15952352223531757,1,right
1.609,0.06714248337504011,1.149953902632583,-0.03512861730903479,-0.5628770483988388,2.5757993041632976,-0.13830189196555703,-0.2476339631631687,-0.4204384555761961,-0.14255249757097244,1,right
1.609,0.08629935064052019,1.1470548203641058,-0.03426542295330395,-0.3912951889879733,2.6408783928503787,-0.10799020477915473,-0.22395355460754907,-0.45940358316035035,-0.16494009113451813,1,right
1.61,0.09307657520741541,1.147380877864569,-0.033400636035324165,-0.6758136682349734,2.533010843015873,-0.15824702522376394,-0.12454668797880682,-0.6229949882695243,-0.25876075588542746,1,right
1.6130000000000002,0.10602508409525077,1.150275086295284,-0.030012632340310163,-0.3005220182802058,2.675277980754644,-0.09196455866931225,-0.10086523052927235,-0.6619658903461747,-0.2811412799086883,1,right
1.614,0.11281316210315076,1.1503867398629553,-0.029097542006549744,1.274615534084957,3.272623334720402,0.18626963252665257,-0.11882038643663023,-0.6324166453497315,-0.26419729888577137,1,right
1.615,0.11730209266212732,1.1536741370820405,-0.024131766610897415,1.649931425534881,3.414884199822609,0.2525340475997123,-0.10798943600867121,-0.6502438112078521,-0.27436473333300393,1,right
1.619,0.11721945129394765,1.1620194275699158,-0.017409259139075442,1.3653715034806542,3.307032565239786,0.2023045717794274,-0.11239922163973104,-0.6429817989250717,-0.2703204758890787,1,right
1.62,0.09927412015082035,1.172187076875302,-0.020434914140590184,1.5369972798420997,3.3720819011490137,0.2325960093281759,-0.11245630765494072,-0.6428941378239237,-0.2701001661133241,1,right
1.624,0.07104041037767941,1.1923916103624024,-0.023340285048536767,1.467197088627237,3.3455974898144527,0.22025978174385324,-0.11015102918991779,-0.646682004145726,-0.27244008155823024,1,right
1.625,0.02684360411983898,1.2221047963907572,-0.015635417158188405,1.4661175402145623,3.3452782683577524,0.22012814320449825,-0.1129164377942864,-0.6421334334986751,-0.26975925864493067,1,right
1.629,-0.036408901184133674,1.2553602015609382,-0.0028530764411031284,1.5029092429958848,3.3590521129719804,0.2265049321098056,-0.11075653534728472,-0.6456929336239767,-0.27165944132710873,1,right
1.63,-0.11084823325734894,1.291646711634022,0.01260857731127182,1.4588048569894831,3.342572458845635,0.21888545128038456,-0.11193316098868078,-0.6437408384812238,-0.2709951846143413,1,right
1.6340000000000001,-0.19354806658282986,1.3239778780917848,0.03215429006196042,1.4932028678074039,3.3553773589351152,0.22479323367193924,-0.1116428936349502,-0.6442454795714603,-0.2705006590739305,1,right
1.6340000000000001,-0.2778518032401455,1.3448403787013061,0.05000129206961113,1.474681891451795,3.348455658610013,0.2215938671674738,-0.11136509012364429,-0.6446696663010001,-0.2717055412027318,1,right
1.6369999999999998,-0.35758719832796126,1.3527326060022413,0.060677039586302356,1.4786826398523374,3.3501764366376907,0.22244330999495904,-0.11187416018228516,-0.6438581808252342,-0.27047371394321174,1,right
1.6380000000000001,-0.43010374269715607,1.3501643939060677,0.060951247308062596,1.484230111225918,3.351627796184517,0.22296407608799218,-0.11137377649329863,-0.644681840134647,-0.27093938876975443,1,right
1.643,-0.48920231111356716,1.3375034426791512,0.05219884967178811,1.4746358567128994,3.349111171895979,0.2220596418593782,-0.11175378780453424,-0.6440078498848525,-0.2719743771687273,1,right
1.6440000000000001,-0.5288850768738957,1.3157521627783886,0.043945092877810274,1.4839661428050654,3.351274192596752,0.22273842457919418,-0.1115048479531082,-0.6445286921143933,-0.26902445389195717,1,right
1.6469999999999998,-0.5501167004553394,1.2934431109290387,0.038982431238494264,1.477533953789206,3.3499307538055523,0.2223747870945683,-0.11165805442895618,-0.6441106545341632,-0.2736310381410967,1,right
1.6480000000000001,-0.5546310450286099,1.2722630864244238,0.037642325837112155,1.4798487791674577,3.3508184558436387,0.22279052535075278,-0.11157455614275144,-0.6444250295299242,-0.26864509368433676,1,right
1.652,-0.5438233482311052,1.251983669716735,0.04354218609480999,1.4819143686006573,3.3495688470566347,0.22172225274453078,-0.11156929298345342,-0.6443312506124244,-0.2715763238573729,1,right
1.653,-0.5184674343942506,1.2356222463017579,0.05822956828732731,1.47591552691763,3.3519393689856396,0.22393768580323836,-0.11173111313760262,-0.6439772522138747,-0.27394652590064605,1,right
1.659,-0.47886149469350464,1.2173663827460597,0.07844048254959426,1.4845674252742906,3.3482904902981607,0.22058020627704122,-0.11132980221400812,-0.6450227542938927,-0.2632846828122796,1,right
1.66,-0.42810528092165195,1.198670639723388,0.09519745542374985,1.4757386240610144,3.352329650305876,0.2242289520159453,-0.11200155931576757,-0.6432026032536831,-0.28312516674647403,1,right
1.662,-0.3674346661975233,1.1816320836378404,0.10726437904415886,1.4808439510946645,3.3499974359470612,0.22212145129315058,-0.1111650666974742,-0.6454973856349704,-0.257624814315658,1,right
1.662,-0.3001103101850743,1.160018686363737,0.1123771259878685,1.4843712316032165,3.347655596709,0.22015036915025338,-0.11185246969238376,-0.6435988082737572,-0.27892352969561496,1,right
1.6669999999999998,-0.23446115800910464,1.1363115538653221,0.11040966006285921,1.4678036268489825,3.3574755644340017,0.228576933183125,-0.11185064499914385,-0.6436244095919139,-0.2783325165844386,1,right
1.6680000000000001,-0.17795890520786883,1.111596622635524,0.11076824907901861,1.4985843036346573,3.339285644498997,0.21295970387313262,-0.11049520603200005,-0.6473137884137081,-0.23775922738176938,1,right
1.671,-0.14082103375220623,1.088517121543987,0.11318087889088546,1.459133165880632,3.362669965538518,0.23302585534245035,-0.11380258085532792,-0.638281752169929,-0.3375035246516102,1,right
1.672,-0.13078874403150112,1.0701686426629582,0.12029459727589631,1.4920358099180886,3.3431348501037976,0.21626763970467036,-0.10832771977407103,-0.6532454144205251,-0.1721165250024671,1,right
1.6780000000000002,-0.13614619177287146,1.05918157882147,0.12695477770344477,1.4910530778554274,3.3436292811870656,0.21670547327782702,-0.11554603883761994,-0.6335105202001503,-0.390261952534249,1,right
1.6780000000000002,-0.14004701597000985,1.0582027535521292,0.1264959913934552,1.428707898176965,3.3810260998164257,0.24872793553408062,-0.14585380670152073,-0.5506912104744459,-1.305939156204345,1,right
1.679,-0.1564454730001465,1.0586250019347627,0.12708993654912681,1.5820134534061068,3.2891347859693525,0.17003228228435152,-0.1530721803547199,-0.5309514836365188,-1.5240814391203141,1,right
1.682,-0.1984022458228027,1.0675931556936389,0.11669199149863337,1.3278357277885107,3.4414976588765813,0.30051434888823614,-0.14759922981699275,-0.5459171316473137,-1.3586959812464565,1,right
1.682,-0.2276957387737183,1.0814953365732745,0.10249671956545167,1.6630645614882122,3.240523683993975,0.12840648309067249,-0.1508996057806689,-0.5368985701337251,-1.4584481624217553,1,right
1.683,-0.23496487884986078,1.0864629680488527,0.09851690304195324,3.0697574459385444,2.3968784815124464,-0.594007536348589,-0.14955874524718976,-0.5405469254960023,-1.417850001828446,1,right
1.6869999999999998,-0.25624450103857604,1.1002045364358306,0.08038962090065874,3.4048990429536024,2.1958977346274544,-0.76610977875298,-0.1495351616003086,-0.5406449744236961,-1.4173034265427384,1,right
1.6869999999999998,-0.27685895155447177,1.121062260211166,0.054993950365693205,3.150889467626621,2.348267111218656,-0.6356437863017923,-0.15024606994607576,-0.5386551871801719,-1.4385456935265104,1,right
1.6909999999999998,-0.27975612789005844,1.13385186173439,0.03935450341655514,3.303969639191746,2.256381499814856,-0.7143063685708616,-0.14939577962939465,-0.5410249754674807,-1.4130924754855967,1,right
1.692,-0.27721951867925027,1.1426862531190882,0.02322624967215607,3.241850034762926,2.2937480030076722,-0.6823366745720858,-0.15005564717052755,-0.5392018380537056,-1.432929476369159,1,right
1.696,-0.26992391820913164,1.1482527996001726,0.007592817509115075,3.2407418013922675,2.2943036465067443,-0.6818340371912008,-0.14970729899086616,-0.5401152394997579,-1.4221883215398243,1,right
1.6969999999999998,-0.2643937151592199,1.1480551028516701,-0.006863469367618033,3.273536291603209,2.2746839776925745,-0.6986461534894128,-0.1497692441453755,-0.5400703172639123,-1.424747194287569,1,right
1.702,-0.262115079479678,1.1404007105216971,-0.018592371415178277,3.234552703532397,2.298148486655707,-0.6785750574283231,-0.1498959132432835,-0.5395101022544923,-1.4273912690034303,1,right
1.703,-0.2617523518445103,1.1280455707882164,-0.021862274053981473,3.26446342921577,2.2799314060738496,-0.6941039395337816,-0.1496931500104679,-0.5403266925319696,-1.422717449830853,1,right
1.706,-0.2702638521676458,1.1152447272534618,-0.02089619351762615,3.249034019977194,2.2896653872367803,-0.6858900959882199,-0.14987771665025879,-0.5396131813539364,-1.4271353863618406,1,right
1.7069999999999999,-0.2824240890376396,1.100999795578061,-0.01654009347227144,3.251543792008329,2.287571031811777,-0.6875346417368452,-0.14977577394543384,-0.5398898296144081,-1.4240451917320538,1,right
1.71,-0.293977818739368,1.0851399282641343,-0.005211935821158981,3.2568983456121723,2.284829191522056,-0.6900010836380399,-0.14976095614553037,-0.5403184037292804,-1.4257482454037969,1,right
1.7109999999999999,-0.30871808945145623,1.069820632175478,0.013338328426103458,3.2493612566967265,2.2893531257702895,-0.6861282736992875,-0.14989688103484156,-0.5390603001652967,-1.4249384407468424,1,right
1.716,-0.32222796914520513,1.0559303354510663,0.03526809063167801,3.2545958615931534,2.285344757538186,-0.6893407728010885,-0.14966961215792954,-0.5410038908491837,-1.4254082864795852,1,right
1.7169999999999999,-0.3302366312343092,1.0418017834316875,0.055900813006118696,3.254064444792019,2.2876495447052125,-0.6878695601151765,-0.14991651396454658,-0.5389195860488405,-1.4250449787005128,1,right
1.7209999999999999,-0.33391962320188895,1.0253832705502057,0.07512550459705505,3.2498553218295343,2.2872112624267933,-0.6874955348128087,-0.1497665407239494,-0.540143474986478,-1.4250376398590814,1,right
1.7209999999999999,-0.33670106666620764,1.006618313674783,0.09059539032523842,3.2565455939045744,2.286356737185426,-0.6890258861694551,-0.149673245835175,-0.5411014130945823,-1.4261072052728294,1,right
1.726,-0.3430630965284971,0.9891858855690677,0.10010022915599856,3.2515550612167345,2.2875256571871416,-0.687563784275622,-0.15014064200399332,-0.5367501942327426,-1.423187587046,1,right
1.726,-0.35137054185014804,0.9773093715964194,0.10459938843110651,3.2496222406822985,2.287110922422463,-0.6875205170452161,-0.1492629868955181,-0.5448481518687193,-1.428283916559287,1,right
1.73,-0.3614842645001659,0.968193975203997,0.1037280312507162,3.2630820275160612,2.285923463361543,-0.6902790741842189,-0.1503926425020821,-0.5344436771594728,-1.4218116782387507,1,right
1.7309999999999999,-0.3725924739830326,0.959018877797692,0.10086295603819698,3.2366627336047005,2.289001524610426,-0.6844140601365087,-0.14944809874553416,-0.5431322610230978,-1.4271855690832478,1,right
1.7380000000000002,-0.38520277629815647,0.9554099792516222,0.09850134394806437,3.271233569008518,2.2846594818129464,-0.6922778943054848,-0.1494784582649718,-0.5428875255497974,-1.427152187594471,1,right
1.739,-0.40016968057249136,0.9558749679027359,0.09880545763819837,3.2420950343815873,2.2884528412872545,-0.6855697362863846,-0.1512648211319935,-0.5263519408675577,-1.416538814767346,1,right
1.7409999999999999,-0.41693955649472836,0.9585975140516452,0.09946543660754423,3.243124430847182,2.2882006675567803,-0.6858766176823113,-0.14686748968497804,-0.5670052508225036,-1.4424919353310401,1,right
1.742,-0.4389070557607283,0.968334543622633,0.09559381768748512,3.2982389807092316,2.2812477034099055,-0.6984342532019987,-0.15416148641024685,-0.49959791652721675,-1.3994963490205206,1,right
1.745,-0.4514578143455052,0.9753408239301722,0.09363460250454482,3.162342293877389,2.2986066644653036,-0.6673438870032198,-0.14453849636214128,-0.588507257753442,-1.4562021058751569,1,right
1.745,-0.4579700059469917,0.9783351718389195,0.09138362725375793,3.3878724465389825,2.2696925048121006,-0.7190021888992602,-0.10416291633037782,-0.9616936752481295,-1.6943954568494497,1,right
1.746,-0.4708044629755903,0.9843360228923409,0.08682110881371666,3.0902967962057093,2.307899588050716,-0.6508098591857119,-0.09453478247084415,-1.050599811474886,-1.7511082771613005,1,right
1.751,-0.4774247261082771,0.9874368189343834,0.08381786696001801,1.8412171696648658,2.4681879391389767,-0.3645986567174085,-0.10183704557203743,-0.9831968715218696,-1.7081084657384717,1,right
1.7519999999999998,-0.4897333920060699,0.9905687536051228,0.07462892696773851,1.543582330980187,2.5064436808048316,-0.2963716138041217,-0.09743226339045671,-1.023848217772996,-1.734046576348049,1,right
1.7530000000000001,-0.5067334775721357,0.9938683765180356,0.06292811954345558,1.7692404070710395,2.4774385626055473,-0.34810028314574126,-0.0992198897630786,-1.0073078979939174,-1.7234835056155275,1,right
1.755,-0.5136017827085038,0.9906387949687837,0.05464915950411044,1.6331417913507742,2.4949132080120178,-0.3169079870078594,-0.09926070771546394,-1.0070778716728372,-1.7233585627067016,1,right
1.756,-0.5204983810975246,0.9811839478885893,0.052931255628340744,1.688510430435191,2.4878550989928128,-0.32958062871476523,-0.09829061866350394,-1.0157417459182998,-1.7288503875058656,1,right
1.761,-0.5251700519246816,0.9666350745322574,0.06546505886750843,1.689304773177017,2.4876422547610346,-0.32980011626384353,-0.09945889073857314,-1.0053663983953063,-1.7222773835675673,1,right
1.761,-0.5258001998386043,0.9502882848858983,0.08261000782660324,1.6602537539914535,2.491528855747272,-0.3230891241930289,-0.09854009963073085,-1.0134433913415646,-1.7273862305690524,1,right
1.765,-0.5271114626930157,0.9334978715653424,0.09745327226712383,1.6950490803604703,2.486907068834273,-0.33111583017308915,-0.09903073130566264,-1.0090865098767456,-1.7246244858773636,1,right
1.765,-0.5288866095389289,0.9200366048954115,0.11442369361506424,1.6679542524239674,2.490452873614762,-0.3248833490430353,-0.09895960330527974,-1.010095974247441,-1.7253082281014347,1,right
1.771,-0.5314815516162116,0.9113673046790214,0.1304136722942268,1.6825546034241412,2.4887060075381666,-0.3281868155801848,-0.09871636862919421,-1.011212188018852,-1.7258960147875573,1,right
1.7719999999999998,-0.5334513226682944,0.9015705942558203,0.14055439938798214,1.6792417109556583,2.4887175238162578,-0.32756638695936136,-0.09913618966316316,-1.0092800864297076,-1.7248763004021197,1,right
1.774,-0.5374030881495839,0.8946282142540758,0.14377019720658343,1.675326529786852,2.4899331701984773,-0.32642979024611385,-0.09868374858208251,-1.0110723767599077,-1.7257590077187148,1,right
1.775,-0.5415957080105456,0.8940685987358963,0.13899334483455447,1.6820809159205279,2.4881913862706795,-0.3282713713346449,-0.09901861606035532,-1.0098818696993819,-1.7252070991713677,1,right
1.78,-0.5412099613756653,0.8937275496413498,0.12590379108163513,1.6757522009903494,2.4897009723003194,-0.3265868997022437,-0.0989607518024996,-1.0104330822069147,-1.7255609071795144,1,right
1.78,-0.538507548530463,0.8925704017602256,0.11496235406599793,1.6799659898577324,2.489166005071266,-0.327550730550702,-0.09859254401398221,-1.010304354307232,-1.7250928880835494,1,right
1.784,-0.5347338364356078,0.8929588057846178,0.11207924000203429,1.6781999605595317,2.488100246180078,-0.32757961972941124,-0.09946682032917434,-1.0102959490611414,-1.725968982304365,1,right
1.784,-0.5266845421275028,0.8958676966048591,0.11094669040149582,1.6780303274622694,2.4910756974570707,-0.32654958287970715,-0.0981701410363518,-1.0102378216407808,-1.7246171059708564,1,right
1.7890000000000001,-0.5151214156558225,0.900255534156027,0.11182817453635477,1.6792907257387122,2.486507753416432,-0.3283171433807546,-0.09954237562438088,-1.0103935048394617,-1.7261179238974713,1,right
1.7890000000000001,-0.5025454184583386,0.9031861917554305,0.11226134605531017,1.6777593579038044,2.491401058813757,-0.326389799592497,-0.09874928717778311,-1.0103039752706633,-1.7252511218496345,1,right
1.7930000000000001,-0.4878489404153506,0.9066717663933296,0.10912235069347646,1.678940746784353,2.4885361391329974,-0.3275714994032871,-0.09808837074038271,-1.0100215112425963,-1.7243726588406973,1,right
1.794,-0.47513473807502205,0.9110112666948709,0.10695143168922484,1.6784907207656392,2.4862535279708635,-0.32825322868222917,-0.10101056437425865,-1.0109934214214413,-1.7280480191738834,1,right
1.798,-0.46366456791387056,0.912739495765429,0.10642386542228524,1.6780561758050987,2.4965487151861003,-0.32471790103919723,-0.09558959148000076,-1.009202734887635,-1.7212397374993365,1,right
1.7990000000000002,-0.4483307822455768,0.9130772759033438,0.10631827182177364,1.6792964744413281,2.4774018224249335,-0.3313740680524302,-0.10254883142707771,-1.0115208777088216,-1.7299937076720502,1,right
1.8030000000000002,-0.435642248986545,0.912853475330997,0.10587269896410507,1.6776056740093988,2.501998562067185,-0.3228044253036145,-0.09673928512386669,-1.0095752657994335,-1.722679154002463,1,right
1.8030000000000002,-0.4227898387232737,0.9108483293657179,0.10914785664893759,1.6790579993198298,2.481460800597042,-0.32996856969260946,-0.09690002467405034,-1.0096120658401166,-1.7228663771248907,1,right
1.8090000000000002,-0.40341712371099936,0.9073366913530749,0.1154516156972119,1.6788644077542738,2.4820317615993455,-0.3297382738617398,-0.10796481225177898,-1.0134003924267279,-1.7368653536069638,1,right
1.8090000000000002,-0.38543498967356493,0.9020714828641632,0.11555659182418235,1.6765984567622927,2.5211398345433365,-0.31619552521994787,-0.08076493892400355,-1.0040941790365199,-1.702462024959179,1,right
1.8130000000000002,-0.3691066868935625,0.8941510808340944,0.11673901306424796,1.6823523518989445,2.4250028891907354,-0.349526295468135,-0.1258648638074288,-1.01953362233561,-1.759509428362581,1,right
1.814,-0.3563974905603088,0.8879715364609457,0.12336010299239769,1.672761385219628,2.584401563193254,-0.2942491547206152,-0.06637777070176251,-0.9991578860066549,-1.684257687829711,1,right
1.814,-0.3554711120793024,0.8880680158521057,0.12509727661954892,1.6854203309554066,2.374161749363931,-0.3671629594135906,0.18327811356162882,-0.9137440152597629,-1.3684435691674377,1,right
1.818,-0.35622572822103993,0.8878493350063374,0.12337305218364347,1.738282962869064,1.491634092231391,-0.6731369424523197,0.24276300855503213,-0.8933659713422458,-1.2931897198338516,1,right
1.819,-0.3486521608420029,0.881648657439037,0.12198198789056434,1.7509313273431069,1.28140763765029,-0.7460510626436945,0.19767035324067092,-0.9087909624248114,-1.350230800282002,1,right
1.819,-0.3381378067497577,0.8729522012079554,0.12268038197090413,1.7413518090817868,1.4407918550810481,-0.6907735794400178,0.22485380577022124,-0.8995457319872311,-1.315858816916042,1,right
1.8230000000000002,-0.33218423420471077,0.8625460638260368,0.1296785412540635,1.7471100576836074,1.3446494221865681,-0.7241042237855113,0.21381684722918456,-0.9032020121474766,-1.32978739273134,1,right
1.8230000000000002,-0.33127907859024297,0.8498633259024877,0.14152888864524726,1.744806133199452,1.3838054198232108,-0.7105625993414043,0.2136200916515395,-0.9034402447546324,-1.330084116129878,1,right
1.828,-0.3298098023597611,0.8379954872852474,0.15739242045291882,1.7446942472574745,1.3842732514882874,-0.7103298792552606,0.21946217368171295,-0.9012720149295366,-1.322646167072711,1,right
1.829,-0.3306806525732183,0.8249153888815115,0.17606209069476164,1.7460294225948219,1.3638833672176482,-0.7174975038602072,0.21249439763424935,-0.9037291556152907,-1.3314810373116057,1,right
1.8330000000000002,-0.33861988833858725,0.8097737540443938,0.18901395021893513,1.744455279943899,1.3883328387207896,-0.7089243901374838,0.2178747414165514,-0.9020320311335804,-1.324715795098275,1,right
1.834,-0.35294480534714384,0.7976365895041768,0.19177312062618906,1.7456452413233365,1.3692495141480348,-0.7155820648522354,0.2150619842000444,-0.902530800790944,-1.3281420814867988,1,right
1.837,-0.3730289966250202,0.7868876485851567,0.1910670721735594,1.7451105245988061,1.3796711052987078,-0.7120496946327517,0.21554603636177205,-0.9031638027275222,-1.327756959635762,1,right
1.838,-0.3942973461515391,0.7754051934351669,0.1916830998565427,1.7449831855970284,1.3769812144220266,-0.7127218574438858,0.21654414448734277,-0.901842447638357,-1.3262155436978886,1,right
1.8430000000000002,-0.41800904790850596,0.7655267631657166,0.1894659127409038,1.7456085678640072,1.3748181100709664,-0.7139200632392368,0.21502621062526303,-0.9031428493941527,-1.328357939696573,1,right
1.844,-0.4457154922753661,0.7570877588325093,0.1800925456021504,1.7447595631642123,1.3788500533687764,-0.7119724385611842,0.21628080874786768,-0.9027205675888912,-1.326773026782881,1,right
1.847,-0.4693956487140836,0.7514730697306395,0.16533232228847491,1.745475943146773,1.374968916444723,-0.7137562035867877,0.21577047652298215,-0.901445995511829,-1.3270058389427057,1,right
1.848,-0.48716387846316844,0.7514646064234932,0.14996658549124023,1.745301474756514,1.3779502864635997,-0.7127262293307143,0.21538089786193987,-0.9048909566261509,-1.3284416217864905,1,right
1.8530000000000002,-0.5035051546400569,0.7518299875218495,0.13670802443453622,1.7445449698065179,1.3756104581615252,-0.7127252345282591,0.216509975457577,-0.8995643875678503,-1.325606856329474,1,right
1.8530000000000002,-0.5189014200228105,0.7503314569449814,0.12414342250069575,1.7464516376958943,1.3779875289548351,-0.7137575093002022,0.21510590274620034,-0.9053109761115378,-1.3288820140345057,1,right
1.857,-0.533716636561651,0.7524125156418604,0.11048820656918212,1.743564788086796,1.3751525349480942,-0.7119708096404995,0.2160515477692287,-0.9019450255206374,-1.3268202397885465,1,right
1.858,-0.5489245108376513,0.7521300766886022,0.09697323995267274,1.7466500487313756,1.3780425335499364,-0.7139215187978143,0.21644893277024496,-0.8991851822227261,-1.3255695626570687,1,right
1.8619999999999999,-0.5600107156048066,0.7483336194759846,0.08250654341133101,1.744854879955987,1.3765813622755947,-0.7127216064014616,0.21393909484479812,-0.9115245928091551,-1.3320141075359055,1,right
1.8630000000000002,-0.5677390492884107,0.7463633948894497,0.07104689699159049,1.743369562507687,1.3742871543736495,-0.7120474286042308,0.21877560903030688,-0.8885798887703387,-1.319834049802267,1,right
1.867,-0.577638258137471,0.7395836132763423,0.07115480515580068,1.749971686236964,1.3826349573814305,-0.7155878548066874,0.2124998268843527,-0.9180632923324945,-1.335555019615456,1,right
1.868,-0.587787729378785,0.7284614855920966,0.07444075374658389,1.7377096720719476,1.3674585184272217,-0.7089152491254378,0.21776661335176115,-0.8934413062048028,-1.3223980350963207,1,right
1.8719999999999999,-0.6010230644802499,0.7177859991897924,0.07181414197554872,1.7534587884460204,1.386878635229123,-0.7175076978195836,0.21758197581399114,-0.8941184011647125,-1.3228018444293066,1,right
1.8719999999999999,-0.6175829516761016,0.7087006362668204,0.0663878483081089,1.740308970688377,1.3706913568354961,-0.7103236593175153,0.20765139779089586,-0.9410381524831362,-1.3477610104439464,1,right
1.8769999999999998,-0.6326886558501899,0.7014208672514537,0.05349700702870486,1.7406713410565384,1.3710278459723542,-0.7105573784252612,0.2321200143261994,-0.8257020217650427,-1.2863491532276519,1,right
1.8769999999999998,-0.6483947539637663,0.6936528519862968,0.0365725489459327,1.7657242537333848,1.4022318349207776,-0.7241291222351915,0.19152763137041906,-1.0169364817006432,-1.3881925173139384,1,right
1.882,-0.6574991261756298,0.6897272474876626,0.029224951372144283,1.704139622720589,1.3256514173388236,-0.6907231183061007,0.2450762090049217,-0.7647024185894453,-1.2538607969224904,1,right
1.883,-0.6618809356101333,0.688914869341622,0.02804412922130564,1.8062517818525188,1.452601423170456,-0.7461268626149673,0.4698241987913498,0.29410547151202227,-0.6899342523553362,1,right
1.883,-0.6691562891143377,0.6867575209591108,0.026962544283083704,1.6715660834678387,1.2851478599210333,-0.6730443731402023,0.5233725759045046,0.5463301071110869,-0.5556170328833716,1,right
1.886,-0.6730103038635488,0.6856791847602146,0.02539832496849497,1.1062338351104568,0.5821632759619078,-0.3663573671146605,0.48277546142893996,0.3551041530748295,-0.6574509653770846,1,right
1.8869999999999998,-0.6831894896459809,0.684693401759643,0.018661860117722334,0.9715483307572081,0.41467126323122516,-0.29326803879311714,0.5072616880916981,0.4704501635301144,-0.5960109770602446,1,right
1.8880000000000001,-0.7033177821508548,0.6844801066618779,0.00623991963076235,1.0736605811539564,0.5416748045230755,-0.34868475015891753,0.4972942555445373,0.42348420767348227,-0.6210678784601997,1,right
1.891,-0.7213306559515233,0.6860478125521071,-0.008471872369487514,1.012074803462935,0.4650679323915606,-0.31526183885777076,0.4971647748968014,0.4228982634302687,-0.621291923749373,1,right
1.892,-0.7359286940242429,0.6857914819639768,-0.021602757624099744,1.0371306118716497,0.49622108719533287,-0.32884969655681123,0.5023718045259435,0.447396174314204,-0.6083682449807075,1,right
1.8969999999999998,-0.7470095108372434,0.6838137374112927,-0.0330851509921539,1.0374882210487928,0.49672517888488554,-0.32907590679029464,0.49613138659699063,0.4180280593279829,-0.6238874180112974,1,right
1.8969999999999998,-0.7561973132100195,0.6810347076611394,-0.04707402173346302,1.0243440534618076,0.4802509741212293,-0.3218808874109296,0.5009974708602147,0.4409383652722955,-0.6117377443517757,1,right
1.902,-0.7628382205484521,0.6749632484455644,-0.06023246705638907,1.0400890129739067,0.5000150435200219,-0.3305114363831481,0.4983539685099978,0.4284645924130633,-0.6184861958412472,1,right
1.902,-0.766296047181694,0.6648970294531933,-0.06707924924132994,1.0278260634012462,0.484582051268267,-0.3237719427549293,0.49900421370380604,0.43159641633469975,-0.6164812703892945,1,right
1.906,-0.7687592633177278,0.6550697623230144,-0.07049745399873111,1.0344380452828648,0.4928836997509421,-0.3273959023897224,0.49961506000941147,0.4343559676233901,-0.615591519355043,1,right
1.9069999999999998,-0.7669808217898941,0.6466533799126097,-0.07473260247278604,1.0329317899560557,0.49116685614932254,-0.326652620042079,0.49851471719032237,0.429316900370882,-0.6175638075800316,1,right
1.912,-0.7621598245715013,0.634928067431628,-0.07744018459557808,1.031166557612938,0.48846753318472524,-0.3254582664367827,0.4995617468729415,0.434134208440957,-0.6155653011943668,1,right
1.912,-0.7569609805126576,0.6198818122965762,-0.07648056552179855,1.0342215979318987,0.4931353941363551,-0.3275226673772482,0.49880282122347136,0.43055851603283907,-0.6174746618723022,1,right
1.916,-0.7500138937308731,0.6041137171496622,-0.07789340389562319,1.0313491054687853,0.48849718731529745,-0.3254653468001476,0.4992905100635403,0.43306768234828047,-0.6150861078131051,1,right
1.9169999999999998,-0.7400528282580929,0.5857069428337485,-0.08224894819251446,1.033278308390336,0.49174613819179624,-0.3269094329778401,0.49893261911473785,0.43089730070568777,-0.6186467769406219,1,right
1.921,-0.7283113982214835,0.5670240219906791,-0.08131023677986418,1.0324437666807793,0.49071595394888656,-0.32646055765918747,0.4992852876248945,0.43328158842587733,-0.6137892853913959,1,right
1.921,-0.7182036422317878,0.5508134831518539,-0.07738077906772227,1.032406978052426,0.48909308632164294,-0.3257024941106732,0.4989431452357185,0.43089882043308914,-0.6188830946708228,1,right
1.925,-0.7096101464145492,0.5339924815147297,-0.07352389932165365,1.032950577515518,0.493373153123113,-0.32768352208536977,0.4990874126894865,0.43202460382638597,-0.6160730936714952,1,right
1.9269999999999998,-0.7008287755835885,0.5197156830820113,-0.06626789566830985,1.0322457635304998,0.4871201761054309,-0.3247862743116083,0.49947617805815964,0.43423834842837866,-0.6129901055031468,1,right
1.93,-0.69370420946068,0.5093096199569483,-0.05890213888982787,1.0328562533581442,0.49361059447370165,-0.32779781032590416,0.4982077371362476,0.42658496628376164,-0.6254019910042893,1,right
1.931,-0.6911553849394736,0.4976080835915329,-0.05374394576873942,1.032500963306683,0.48985769557553777,-0.3260572918619222,0.5004817165793253,0.44041103557323724,-0.6025782811332278,1,right
1.9369999999999998,-0.6894373931195203,0.4871235577155346,-0.05370386886967113,1.032511672680438,0.4870153928926303,-0.324726001976113,0.4975796909824866,0.4227399415090334,-0.631842592646239,1,right
1.9380000000000002,-0.6878850937901667,0.4807160807044125,-0.05542229460795159,1.0328777684151096,0.4999652777125121,-0.33077031425093945,0.4999947861602544,0.43745955040525697,-0.6074268255187929,1,right
1.94,-0.6914664392208923,0.47475818256703434,-0.04977459764362624,1.0321758219545067,0.4759221801006993,-0.3195511048723225,0.49995797153813015,0.43718850342326104,-0.6080248511810153,1,right
1.9409999999999998,-0.6945702080064254,0.4678621948669478,-0.04272464546586608,1.0330538912597014,0.5067645709753261,-0.33394204659996973,0.4952603345527574,0.408702772193824,-0.6547913745002081,1,right
1.946,-0.6988229132058532,0.46000969740733555,-0.03361333874880176,1.0323287258171332,0.4810273222241712,-0.32193555632633813,0.5067718779179997,0.47856767982212156,-0.5399149501971612,1,right
1.9469999999999998,-0.7090988061198061,0.4503530382230757,-0.02209045838060799,1.0323903833772574,0.4817723366380977,-0.3222753620573841,0.48769523583229973,0.36276642660017133,-0.7303715751453819,1,right
1.95,-0.7136961297254304,0.44491127427459914,-0.01891220665782068,1.0336110229009696,0.5306556528842332,-0.3451002176808602,0.5128552551425514,0.5155053813630968,-0.47915660448170294,1,right
1.9509999999999998,-0.7147050758041664,0.4444213829678929,-0.019219398859510052,1.0305670135856393,0.4104599939560687,-0.28899233052921136,0.6185435566805435,1.1567895661377363,0.5752542990139179,1,right
1.9509999999999998,-0.7206757309197089,0.4394735817554386,-0.019019624689315562,1.0356270515319217,0.6097594548605029,-0.38201534609006843,0.6437085516700725,1.30954424946547,0.8264721635364466,1,right
1.955,-0.7236386920620992,0.4343300778520874,-0.0200719356987791,1.0289434326758875,0.34688003269043965,-0.2593284908266048,0.6246213581872249,1.193728219250066,0.6360325329819705,1,right
1.9569999999999999,-0.7222269180770502,0.43374757380726825,-0.02153126990197864,1.0010659763411995,-0.7563734475327124,0.2556341996939785,0.6361491594187411,1.2635787195282981,0.7508364819249564,1,right
1.9580000000000002,-0.7200626657404039,0.4322532127764397,-0.026603833105436722,0.9943484758060872,-1.0192765825258474,0.3783004971569437,0.6314316413267116,1.235165795255453,0.7042273043380888,1,right
1.96,-0.7138717572296637,0.4314552485143482,-0.033427706938746755,0.9994614764880241,-0.8199400552893003,0.28530961801427246,0.6314123920445446,1.2347490238223728,0.7033889076138515,1,right
1.9609999999999999,-0.7026760689202691,0.43217517289879026,-0.03814903148729855,0.9963736567184984,-0.9401663731467191,0.3413909190342116,0.6338224865723738,1.2496688222156886,0.7280707156343582,1,right
1.965,-0.6877914397517222,0.4331961085747256,-0.0413972570715732,0.9975917611222398,-0.8912848368509343,0.31856453350745073,0.6309002283192231,1.2318093104850518,0.6986396645233466,1,right
1.966,-0.6698314733743611,0.4343822157000598,-0.0437968943243477,0.9977384151153716,-0.8904803274077876,0.3182762872971824,0.6332297559187203,1.2456963832529866,0.721353000189669,1,right
1.969,-0.649543423221306,0.43486023076002345,-0.04321131367639708,0.996827697857114,-0.9163474476575706,0.33017020669978236,0.6318708090034917,1.2382515626150474,0.709504402408965,1,right
1.97,-0.6270023903688959,0.4350754700827216,-0.03843560303793777,0.99797008987513,-0.8853200596166042,0.3159396358918423,0.6323655244815861,1.2398739270077308,0.7114956287183829,1,right
1.975,-0.6044093154441789,0.4320434830707208,-0.031296163453005676,0.9970063599435124,-0.9095463672194382,0.3270000004355881,0.6324326017965022,1.241973007476696,0.715776462922315,1,right
1.975,-0.5838370348469655,0.4276327085314937,-0.02527261930025473,0.9974859070536091,-0.8965171017722772,0.32102455531967794,0.6320732848072503,1.2384442708144188,0.7093133585660056,1,right
1.982,-0.5643578958564208,0.4251354560946462,-0.022259254309042166,0.9977167788140738,-0.899205280186192,0.32248937272103484,0.6326068493282517,1.2416696979165383,0.7146113928394511,1,right
1.983,-0.5461911850710188,0.4210456825034701,-0.01873239462323338,0.9966497335895205,-0.9034563673769956,0.32379810620924765,0.6318655998217368,1.239673695690506,0.7125538051054048,1,right
1.984,-0.5291395376819896,0.4172986726078003,-0.014211513625985961,0.998486637877193,-0.8961075705776357,0.3215306337327853,0.6329008802220087,1.2402390276190602,0.7106851266230675,1,right
1.985,-0.5148277491647366,0.4168670242209309,-0.008945360818743062,0.9962770131698165,-0.903413733179766,0.32351485009609626,0.6315884988925086,1.2408030741420408,0.7157869057154247,1,right
1.99,-0.5070145084454927,0.41813109775295443,0.0009164144103720783,0.9980202118335519,-0.8982941590442323,0.32226176664892436,0.6329024896076711,1.2396867610245008,0.7095016440946571,1,right
1.9909999999999999,-0.5032435815202156,0.420116702557954,0.01180703056255703,0.9979937391460542,-0.8999096529442985,0.3230258653522139,0.6322004264215088,1.2406770549840112,0.7137008246125656,1,right
1.994,-0.5016857039043727,0.42159597268016596,0.019266370518530775,0.9949345063501074,-0.9024970816923856,0.32212526226365157,0.6314175442079035,1.2404573030423596,0.7155560700723007,1,right
1.995,-0.5043930149572502,0.42341238278894944,0.02555119726479929,1.0019481462622006,-0.8956893948372383,0.3237657596413409,0.6345157715256564,1.2394386984620913,0.7041814608134216,1,right
1.999,-0.507445638260235,0.42507803800949934,0.02927296209671513,0.9914904508958259,-0.905636467175473,0.32122102588490176,0.6288478882959601,1.2417955724933885,0.72604455409536,1,right
2.0,-0.5102709053061885,0.4244260222059395,0.0314275619789261,1.0026315562496926,-0.8953094638152479,0.3240629605893347,0.6360972480920108,1.2386006764064832,0.6976946637899994,1,right
2.004,-0.5155570717640314,0.4246634457518708,0.03525483542856538,0.9961940616224846,-0.9012782623812576,0.32242166701032116,0.6300578597263946,1.2413390275109843,0.7214786991905098,1,right
2.004,-0.5173142484464152,0.42607188672043605,0.03491194074864243,0.9906606716771345,-0.9058146239541394,0.32072299030492846,0.6302009331858585,1.2411555016150242,0.7206567641092618,1,right
2.009,-0.5167446817298955,0.4260655440282089,0.0306177467004827,1.0148982258143988,-0.8851758929864784,0.3277912889393252,0.6417704600218184,1.2362251265244644,0.675779995067934,1,right
2.01,-0.5168212700630095,0.42569616180112274,0.029098004275533076,0.9699481429213795,-0.9234870679354976,0.31469979721549807,0.6133648002044156,1.248501388270118,0.7863379084669422,1,right
2.013,-0.5137864144237856,0.4222999705068713,0.029328794328465992,1.0276653046889432,-0.8743473517852751,0.3315352722814501,0.6604492761403156,1.2280874654135574,0.6029329622344473,1,right
2.0140000000000002,-0.5118690856043506,0.41818074113454695,0.02909103794720302,0.9794801476822788,-0.9153442744144917,0.3174669311378252,0.5983522224147111,1.255034461955588,0.8448752422363484,1,right
2.0180000000000002,-0.5100181526224099,0.4163996620004011,0.029266433846919696,0.9807874041141246,-0.9141799718056809,0.3178233574890069,0.3376459061779028,1.3680655599475695,1.8603261078426752,1,right
2.019,-0.5086486706868218,0.4115780546718929,0.03256490375570106,1.0726564017413245,-0.8362584766402981,0.34476338642510407,0.2755553336386635,1.3950153360852477,2.102268736292273,1,right
2.02,-0.5137823898378723,0.4071109237805203,0.036248559399120125,0.8468495475603592,-1.027809043868057,0.2785593273943845,0.32263070379567627,1.3745856948215605,1.9188425153243471,1,right
2.024,-0.5189102936387873,0.40473076062690205,0.034881868446640873,1.22124968361821,-0.7102290444248487,0.3883395934068743,0.2942297924542673,1.3869058357150037,2.0294743056789963,1,right
2.025,-0.5213964032925913,0.40141978549099533,0.03252190140354981,0.7274159607767827,-1.1290849833929943,0.2435239482205962,0.30580729181526434,1.3818926171040955,1.9844461870601267,1,right
2.025,-0.5224920321038279,0.4002682788277345,0.03197919912330331,-1.3454147660769433,-2.8872288996725093,-0.36431639570923513,0.30592299833413905,1.3818253307422046,1.9838479536546185,1,right
2.029,-0.5233451484485018,0.39952081966421105,0.0312831452612784,-1.8392522583617474,-3.306037564276319,-0.5091575518251243,0.2999310252782418,1.3844466627926204,2.00739286530074,1,right
2.029,-0.5272304673747691,0.39836988921283845,0.029501833854821143,-1.4648483493527968,-2.9885206469829817,-0.39934411435012135,0.3071229559151919,1.38130628231618,1.979179142706209,1,right
2.033,-0.5295947884024022,0.3993064720060631,0.02437991678163492,-1.690652570911785,-3.180048395493916,-0.46555740593131656,0.3014988181821313,1.383754785672933,2.00117279848192,1,right
2.035,-0.5316297791808051,0.4018125927770994,0.018739133366826005,-1.5987993310035271,-3.102044385591489,-0.43866825713932894,0.3046026587474484,1.382424031045933,1.989245031009495,1,right
2.0380000000000003,-0.5371446781862605,0.40469799690984154,0.01637313412250138,-1.5974596594304442,-3.101115844165429,-0.43817518174292097,0.30372651098032977,1.3827533200464788,1.992131670851159,1,right
2.039,-0.5428618024903571,0.4078514629702934,0.01606807525943449,-1.6456901005580344,-3.1417281197150304,-0.45246120641564463,0.30322783171665063,1.3830567480084581,1.9949797810615024,1,right
2.043,-0.5505393335095604,0.41223010464403476,0.017232629655448643,-1.5879293350237482,-3.093029659428221,-0.43538178656804016,0.3042468866115813,1.3825081518148623,1.9899001108058219,1,right
2.043,-0.560475604454212,0.41368262104498366,0.019244682263430145,-1.632895465537651,-3.1310423079754885,-0.4486290062431636,0.3032373758089588,1.383030833919008,1.9947168485781266,1,right
2.048,-0.5685808823218295,0.4109881895272024,0.02086931145921437,-1.608701729663783,-3.110273840630575,-0.44165388477153134,0.30411940533050613,1.3826489395957857,1.9912889398424731,1,right
2.049,-0.5766846572909985,0.41155418068726135,0.020463162518266406,-1.6141049358765733,-3.115656761174024,-0.44285234587216227,0.30317392385736086,1.382902193883763,1.9933320241557135,1,right
2.0540000000000003,-0.587543233810252,0.41501530486117666,0.01902002038865504,-1.6207605174468205,-3.119923600318157,-0.44546909200868884,0.30445697214123624,1.3827040273456999,1.9920810248060792,1,right
2.0540000000000003,-0.5976185984949436,0.41768479952927684,0.016504225544331834,-1.6093583738782868,-3.1119436401118215,-0.4413094668096253,0.3027532184769125,1.382908568918519,1.9931288019316074,1,right
2.059,-0.6011538533713121,0.42193514278563127,0.01177492065258699,-1.6200143110652996,-3.119633762428246,-0.4450847846110988,0.3045301228091494,1.3827074356952789,1.9921641377136465,1,right
2.06,-0.5998090111272876,0.42376091209966915,0.010588201415121066,-1.613025154655361,-3.113693817307994,-0.44304085304719776,0.3035655429229944,1.3827968919051412,1.99248094978031,1,right
2.063,-0.5966103717420363,0.4220941440702709,0.012288802961481314,-1.6156643984148618,-3.1184331238376277,-0.4426083059808885,0.3024269526021761,1.3830067049074883,1.9939461562450906,1,right
2.064,-0.5905032075330137,0.42389562522428015,0.013919575000039815,-1.6166094642711129,-3.113519768278769,-0.44564286635795014,0.3069068287222847,1.3823055827988968,1.9894847048386248,1,right
2.0669999999999997,-0.5840978551175586,0.4273188004004012,0.015118220183983202,-1.613528937738704,-3.1194324672591613,-0.4406257991285813,0.29869014131097915,1.383566716297371,1.9974067040620136,1,right
2.068,-0.5769634300871004,0.4325932169525174,0.010529533791700284,-1.6171236414581391,-3.1133932523658308,-0.4460653669563174,0.3092196469239004,1.381956029679516,1.9873129797073834,1,right
2.073,-0.5676341977457711,0.4416201292458065,0.0047483322039434655,-1.61455579753983,-3.1164659939285464,-0.442778239474964,0.3004385125037431,1.383297333793224,1.9957085083455635,1,right
2.074,-0.5551663762984493,0.4498357088349799,0.000256174529714316,-1.614774694407567,-3.1211791702367613,-0.4406586401831877,0.300641885644638,1.3832742804415405,1.995602235371147,1,right
2.077,-0.539821703061814,0.4575925344870322,-0.005020941040167823,-1.617797310932445,-3.1039310412049135,-0.4511037247142565,0.3174958140662736,1.3806728252887863,1.9791951576983526,1,right
2.077,-0.5243490964559597,0.4652807606216329,-0.008742089625998789,-1.6114743963465008,-3.135308175443792,-0.4315222451160581,0.27611368494840594,1.3870516368601564,2.0193808006007714,1,right
2.082,-0.506450574283135,0.47474060429473214,-0.016602449375879715,-1.6197529146414928,-3.0951549548184856,-0.45671321401079146,0.34471331216109546,1.3764787669196623,1.9527855917685812,1,right
2.083,-0.4960910183000168,0.48213460114488726,-0.023660661092845606,-1.612778936713343,-3.128621936550072,-0.4356632442388313,0.2542357856269039,1.3904246692141222,2.0406242958162366,1,right
2.0869999999999997,-0.49220757196583553,0.4840612975722562,-0.02516347275858421,-1.6132119821462276,-3.127927498079752,-0.4363068451218464,-0.1256367603183528,1.4489744487784448,2.409469406742855,1,right
2.088,-0.4792681224386384,0.49200859947555425,-0.03146426059584435,-1.6257031798208166,-3.063418165627052,-0.47620287758434554,-0.21611115557721847,1.4629231847374466,2.497328341907968,1,right
2.088,-0.4632287836237582,0.5013973214877598,-0.03888706597999379,-1.5947183987761995,-3.221726071483285,-0.37805606882571835,-0.14751491680402917,1.4523472477674748,2.430711240077809,1,right
2.092,-0.4483666351451857,0.506872142060965,-0.04092499814434254,-1.6461602710446728,-2.959307259440415,-0.5408106581856091,-0.18889833228043015,1.458724897518648,2.4708885730686774,1,right
2.093,-0.43962574324959186,0.5137631550985864,-0.04114230686995106,-1.5783092216006813,-3.305432564781864,-0.32613620402016563,-0.17203317051153783,1.456133603350127,2.4545540713298895,1,right
2.094,-0.4373030406845788,0.514119442838511,-0.03999376961008391,-1.2936812547708523,-4.758559055518205,0.5748391718842712,-0.1718539702720247,1.4560886815647647,2.4542916214046118,1,right
2.096,-0.43251576292809224,0.5123788641829793,-0.03696581906651666,-1.225855765114661,-5.104710339527875,0.7895036423674471,-0.1806004433055307,1.4574613452129626,2.4629110926455833,1,right
2.097,-0.43063750576711524,0.515655777872924,-0.032190154695124734,-1.2772924368640322,-4.842267615568782,0.6267618599134448,-0.17010545613675454,1.4558194252504855,2.452594347527623,1,right
2.102,-0.43261340199176845,0.517508340499139,-0.028024697307973134,-1.2462176072450215,-5.000549971496379,0.7249056743687181,-0.1783072440253266,1.457094046115035,2.460612614456795,1,right
