time,gFx,gFy,gFz,ax,ay,az,wx,wy,wz,subject_number,foot
12.002,0.8823273097832018,0.5838527742225984,0.20457607620347662,-2.041633924287092,-2.2747083731509337,3.6543981202475027,-0.17184249876146743,0.07412009782157553,0.14986984681463544,4,left
12.003,0.8825954892049073,0.6162133017626452,0.1848638910945779,-1.373615992867387,-2.088106365539809,3.415064450014975,-0.11852864512876023,0.19353519659676466,0.049683248198933876,4,left
12.004000000000001,0.8743496565167761,0.6790269277192331,0.1521935347392914,-2.4812199013790637,-2.3977503807396916,3.8120845211033236,-0.15897229996691592,0.10297409358267541,0.12565587534534992,4,left
12.005,0.8617381843396603,0.7178245805308855,0.1330364103582738,-1.0203176784948205,-1.9893104125244188,3.2884218679140687,-0.13454109927835958,0.15763393040177862,0.07980885956051641,4,left
12.01,0.8587367993678611,0.7304562500426637,0.12642821941954396,5.111836248919597,-0.27605960185302325,1.0912360141602688,-0.14453631206532946,0.13533926803187357,0.09849980325154925,4,left
12.011,0.8428961912960977,0.772200938356499,0.10563947685597203,6.5726726485762565,0.13228503487100376,0.5677141623344055,-0.14460035448752634,0.13510132433893507,0.0987117377083738,4,left
12.012,0.8118830365071157,0.8272652910236633,0.08012011951567265,5.46516746098688,-0.17726027827709553,0.9645573652520503,-0.1394316436034888,0.1467179922837608,0.08895940903096114,4,left
12.015999999999998,0.7840909192495062,0.8649428870489755,0.06344087558496105,6.1331150567683945,0.00939668555656134,0.7252526430030537,-0.14572928102278576,0.13270094852583658,0.10071466238233254,4,left
12.017999999999999,0.7557031159324796,0.8965272705851206,0.046934835733913355,5.861315125939307,-0.06650537354627048,0.822625989633762,-0.140661960170806,0.1437707399119504,0.09144665449315739,4,left
12.019,0.7267361033701175,0.9172758364523763,0.038554318948256935,5.857609759289815,-0.06764957318668721,0.8239052560891756,-0.1436487271991509,0.1375628593167186,0.09662115572905015,4,left
12.019,0.701728927488931,0.9295324333620716,0.037791933700250115,5.999825947688834,-0.027739531968226806,0.7730893662274753,-0.1425964970211907,0.13932809241706937,0.09518149685888108,4,left
12.024000000000001,0.6812535660841856,0.9336485605420468,0.0379958051803978,5.829542616975129,-0.07553436995663713,0.8338820838136247,-0.1422651794271531,0.14054185585077345,0.09413027563002116,4,left
12.024000000000001,0.6643601995913687,0.9270833589513794,0.04108646813454262,5.962064946706485,-0.03830668900249946,0.7866270211735986,-0.1434688083432173,0.13785064123872776,0.09638823329062576,4,left
12.027999999999999,0.6487028665827903,0.9183962373534624,0.042305502394278646,5.890557008730568,-0.058366572397711106,0.8121461351931385,-0.14167038816122512,0.14100169208667873,0.09380419796275172,4,left
12.030999999999999,0.6365617749044261,0.9022863558793378,0.040744440061558765,5.90731304131771,-0.05385712339090312,0.8059489004755375,-0.14396181189744728,0.1378733512811175,0.09629226850481881,4,left
12.032,0.6280541254911274,0.8811269899651286,0.03676303522102714,5.92511539892383,-0.04834486779526824,0.8002049117666126,-0.1413391357982975,0.14075804253590046,0.09407577084963879,4,left
12.037,0.6192437382604821,0.8624154545259743,0.028580379773477545,5.8942935822357985,-0.057875688774041506,0.8101498773118432,-0.1437844476901026,0.13846797175590345,0.09577998737080534,4,left
12.037,0.6119461894139584,0.8404644885612654,0.021901580519328778,5.922609591602781,-0.048840612796365375,0.8013550282301052,-0.14255052843593607,0.13939043928105282,0.09513149135331178,4,left
12.040999999999999,0.6088629941982735,0.8190335030589083,0.018012696595195,5.903950145224615,-0.05494787771078433,0.8069625573017194,-0.141109877880792,0.14102937251371606,0.09386451304979894,4,left
12.042,0.6051648517180181,0.8059704061700572,0.013488510612118608,5.913018701607495,-0.052422949701922496,0.8037046388188385,-0.14661909529010747,0.13563777001634458,0.09791500056885484,4,left
12.046,0.5999229413704732,0.7959911743026655,0.011331980386522915,5.90922175825996,-0.05182510555001118,0.8070645710881499,-0.1366342277424918,0.14511726160036797,0.09083897001769206,4,left
12.047,0.5980090807331973,0.789482141918753,0.006026809182945436,5.912921076253285,-0.0545801895834518,0.8011677769527435,-0.14935224810939346,0.13317554009550298,0.0997316883342332,4,left
12.050999999999998,0.5983224838284558,0.7894007077408097,-0.007162553629471733,5.9062457228534955,-0.050794328234449126,0.810380332959213,-0.13877879768695695,0.14304665394549454,0.09239010539976261,4,left
12.052,0.5944878028855092,0.7961161153937006,-0.024173351984223775,5.914896335695211,-0.05440088030667292,0.8000088798721423,-0.13902645823370263,0.14286452136687783,0.09251762884838685,4,left
12.057,0.5863708143756075,0.8094347523687111,-0.04280320923490321,5.909914046251081,-0.052312656020109496,0.8059966846504873,-0.15925951602313476,0.12388486430111555,0.10664826753895323,4,left
12.057,0.5751503339946347,0.8260806715763613,-0.05879477401606283,5.9022176604637915,-0.05146305119744464,0.8123745047755702,-0.1095983225892336,0.17038214443486183,0.07204438746536534,4,left
12.061,0.5570634784528206,0.853797292923541,-0.07528643624761656,5.931498264071944,-0.056411376492500234,0.7860339943296302,-0.19190549220379743,0.09336018099354632,0.12935854564799404,4,left
12.062000000000001,0.5448193615976817,0.8762250815316737,-0.0868168533430228,5.877415041209696,-0.04717375451081804,0.8348068873156006,-0.0833594838003193,0.1949165884011759,0.053790633034543775,4,left
12.065,0.540756675227394,0.8834352555520644,-0.08988730175588794,5.947143998610232,-0.058956256959363615,0.7720764655517067,0.37226194176787125,0.6211873379751527,-0.2633936907757585,4,left
12.065999999999999,0.5259510242197329,0.9084387128762232,-0.10229076232189163,5.888800357012,-0.04915570969578739,0.8244965160455979,0.4807976680392256,0.7227264012327308,-0.33894790319213786,4,left
12.067,0.5022938294585143,0.948924035164568,-0.11946633515435895,5.890025974684217,-0.04952072731122943,0.8231981051299584,0.3985122650425359,0.6457443032633522,-0.2816658612145564,4,left
12.071,0.47955178676799415,0.981738460994271,-0.13089898126741953,6.002791796713187,-0.06778243113390713,0.7227148290913687,0.44813999512377867,0.6921739826672674,-0.31621412471791677,4,left
12.072000000000001,0.4598285198986015,1.0139008198626653,-0.1422054467825382,5.725889517562975,-0.022822013606393493,0.9696099742060633,0.4279477468752296,0.673286159235779,-0.3021605994836585,4,left
12.075,0.437869355853463,1.0535259165010098,-0.14949764461501752,6.185038609171913,-0.09736125190705028,0.5602230408598138,0.42766419425644986,0.6730093676768176,-0.3019515189837757,4,left
12.077,0.4209731397143342,1.0776312544196247,-0.15147029137865137,5.579330559036029,0.000932203190302832,1.1002506247907449,0.4382475442016732,0.6829337971797651,-0.30934249930508506,4,left
12.08,0.41642140195600397,1.0844469226280586,-0.15141930638026188,3.0360078717143106,0.4132761372776096,3.3673220383721265,0.42557157897598946,0.6710419113441497,-0.30048494872287057,4,left
12.081,0.3994321107157775,1.1079197337979592,-0.14812186804101957,2.4301614026341953,0.5115400216698488,3.9074507487403727,0.4354419045213971,0.6803087798177704,-0.30738916670719896,4,left
12.082,0.37086587751343447,1.1359072160489931,-0.14539902056388734,2.8895269879517174,0.4370451645301547,3.497895046528108,0.4301186845852755,0.6753147467195209,-0.30366939344978866,4,left
12.085,0.34807461477620333,1.153143925383013,-0.14813010145086472,2.6124452960432354,0.4819738730966633,3.744958821195309,0.43134232382095206,0.6764306517436244,-0.30449200859257847,4,left
12.087,0.32235341371720483,1.1671962315437847,-0.15578481250038423,2.7252016500741885,0.46369650032912924,3.6444050422485,0.43273318213352463,0.677824099276924,-0.305553557447365,4,left
12.09,0.2938506767277026,1.1711361507900127,-0.16495563215091746,2.7267731902960612,0.46342562761028405,3.64296876216934,0.43032577810596373,0.6754131035231923,-0.30371705036432584,4,left
12.09,0.2676545265259609,1.1681604376803074,-0.17225659858577058,2.667672917513409,0.473042807038741,3.695818327773777,0.43257369176035987,0.6777109323057957,-0.30547899427562236,4,left
12.095,0.24288959363767898,1.157903496460984,-0.17686173900756047,2.7384809137324866,0.46150333837838386,3.6323705906044554,0.4310724436868175,0.6761511528887081,-0.30427680892403963,4,left
12.095999999999998,0.22324144715675598,1.1380532052680974,-0.1779100870215583,2.6833274590713065,0.4705238602278332,3.681990821158383,0.4317451848699927,0.6767790895553208,-0.30474366013358256,4,left
12.100999999999999,0.20914005263049934,1.115066699061269,-0.17340972619032058,2.7130747950929237,0.4656254661146507,3.6550269178374677,0.43167635742866717,0.67700307624677,-0.30498751927373247,4,left
12.100999999999999,0.19687889315521337,1.0873797298047867,-0.16729756983547095,2.7062717807090575,0.4667591380547982,3.661280894419391,0.43146377507517275,0.6761452074099161,-0.3041728029988321,4,left
12.105,0.18608499432056605,1.0532347743489512,-0.1673348555441803,2.6983896937487315,0.46810535656897445,3.668692162015887,0.43169502624879585,0.6773446548314423,-0.3053284233909963,4,left
12.106,0.17748036459406888,1.017881191247628,-0.171240617373749,2.7120434936298023,0.46567757677252886,3.655289149636115,0.43156245728709236,0.6761726058670778,-0.3041758294578024,4,left
12.11,0.17002524107345007,0.9875578745007653,-0.17363840230119248,2.6992222215171737,0.4681231671569535,3.668836886660223,0.43164034424527187,0.6768510409308808,-0.3048426892197202,4,left
12.11,0.16448559723233774,0.9590848837903808,-0.17533396581047175,2.7078313933454234,0.46627795278360423,3.658564262741854,0.43145446703063867,0.6771991141725084,-0.3052414396689209,4,left
12.116,0.1632077192079854,0.9292553601544595,-0.17566993187907012,2.704052567945343,0.46724852567430397,3.6640036212005507,0.4319402390207168,0.6753690796783338,-0.30326824524049323,4,left
12.117,0.16736760549823199,0.9038303803775527,-0.17449822882658783,2.7040709395273312,0.4672492161941644,3.664005624417931,0.431055829292754,0.6787783504528,-0.3069389965306638,4,left
12.119000000000002,0.17412071900451886,0.8828717577359347,-0.1705234681226344,2.706139059136503,0.4662486337314371,3.658319975153696,0.432212246057098,0.6744200697528091,-0.30224005442846225,4,left
12.12,0.18340280598129874,0.8647267969973442,-0.16371138620075695,2.7034976128625785,0.46819660256756046,3.6694551424340394,0.43123751725941506,0.6780499787874259,-0.3061564870076475,4,left
12.124,0.19635580194842778,0.8525606625765969,-0.15902547191589222,2.7057204570664024,0.46556933343917983,3.654374155039031,0.4312367123086531,0.677926073774105,-0.3060315740084528,4,left
12.125,0.20575330964868016,0.8426046500563513,-0.15646390348451095,2.704355442297106,0.46820705427486187,3.669556202976672,0.43321018088811797,0.6711125494610404,-0.29864363799911947,4,left
12.129000000000001,0.21209305766431036,0.8367408486105657,-0.15751476863156239,2.7048221035581115,0.4667353189026685,3.6610693731363235,0.42838099038940647,0.6878797851066705,-0.3168171127326531,4,left
12.13,0.21786628241933134,0.8422939712104571,-0.1656265249389196,2.705094499038802,0.4654873266276616,3.65387476917046,0.43638900373456224,0.6600795308248888,-0.2866853775343029,4,left
12.134,0.2179611144095422,0.8482602381713749,-0.17225041002287203,2.7042962110149036,0.4708845093648671,3.685022216891766,0.42582101762378044,0.6967431690271052,-0.3264251654318565,4,left
12.134,0.21757302841701842,0.8493077187435739,-0.17582027980581505,2.7054042555537334,0.46093603212941314,3.6275860176811126,0.38138107372588353,0.8505585879810131,-0.49317628258855384,4,left
12.135,0.21961204778043658,0.8551521904346198,-0.18754573328167357,2.7042405213466143,0.47366813324295,3.701111086241238,0.3708052644716814,0.8872155483508484,-0.5329106497028753,4,left
12.139000000000001,0.2206141135781959,0.8641649155543747,-0.20262212034614902,2.7050946055662473,0.4630580928924546,3.6398255285484398,0.37882666946178745,0.8594271287449983,-0.5027882096934069,4,left
12.14,0.2204828390179286,0.8717058874032728,-0.2142960409244935,2.705070370323112,0.4633447409888938,3.641504185984668,0.37398324477830747,0.876180784633318,-0.5209517650093225,4,left
12.144,0.21830552542179577,0.8783758566107338,-0.22574152534906636,2.7036423329621977,0.48354517166670596,3.7581384088939824,0.37596461872150616,0.8693769553006153,-0.5135694228629598,4,left
12.144,0.21627152283805978,0.8838518675351291,-0.23237495506076478,2.707062712418531,0.4339108788243837,3.471509140254863,0.375970842666135,0.8692546781656929,-0.5134492080471702,4,left
12.151,0.21266132232548696,0.8865454542691884,-0.23431555774114193,2.701478038816866,0.5161918581693921,3.9467009059874174,0.3749667898989758,0.8728642485267872,-0.5173455064420073,4,left
12.152000000000001,0.20722397754921126,0.8862055993596153,-0.2365182457988546,2.7087780609465852,0.4076750952929691,3.3199659345797317,0.3761764485309351,0.8685487115889392,-0.5126833499811758,4,left
12.152000000000001,0.20511011444627622,0.8853077215185245,-0.23602165052851387,2.7396340071236347,-0.0478770043286455,0.6896218548228027,0.37522441957985664,0.8718977724948449,-0.5163071487023541,4,left
12.152999999999999,0.20034028922720404,0.8853155220413694,-0.23114155868172953,2.7468996392372294,-0.15638887536415347,0.06293820261447672,0.3757673528301005,0.8701272784719991,-0.5143739856910594,4,left
12.154000000000002,0.1870051309013271,0.8860137954466485,-0.22282713032097212,2.741332647220805,-0.07410765446726086,0.5380205069261159,0.3755743235309874,0.8704491206138367,-0.514766987388429,4,left
12.158,0.1709640538838552,0.8864232442880831,-0.21393639045064847,2.7448363404508633,-0.12376356261847382,0.2515611681944463,0.37556407749618836,0.8710787758867744,-0.5153738205047352,4,left
12.16,0.154243901030452,0.88694974108171,-0.20789301036453256,2.7431422950745334,-0.10350516337758824,0.3679857077092708,0.3756463233363273,0.8700663665057811,-0.5143691404256288,4,left
12.163,0.13510259751209364,0.8872872245753072,-0.2039779858076558,2.743595157122038,-0.1033162447048499,0.3698523988509741,0.3755470330118862,0.8709895341274303,-0.5152959545628326,4,left
12.165,0.11902887665788597,0.8855593226720744,-0.19873836100969444,2.7438414342955584,-0.11380777412025667,0.3085079066373674,0.3756980881487354,0.8704721422998234,-0.514734393520742,4,left
12.168,0.10444811119604211,0.884301964276412,-0.18779010595900528,2.7431877145941135,-0.10116669043201555,0.3818285066995565,0.37540184621240363,0.8704222502461787,-0.514817531209273,4,left
12.169,0.08880223672102486,0.8858420279435613,-0.17349051096414475,2.7442525182859843,-0.11112601930815759,0.3249692227328213,0.3759291067083287,0.8710537966430983,-0.5151886111083325,4,left
12.173,0.07792483315492668,0.8876017680072904,-0.1611604117645007,2.742608886742496,-0.10553518936371292,0.3551661474346325,0.37517846139510413,0.8699877872146407,-0.5145007416723194,4,left
12.174000000000001,0.0666287168669214,0.8879691913414451,-0.1493343782737192,2.74490336857488,-0.10720826481546424,0.3490962360105569,0.37597190855780666,0.871147140319084,-0.515258921374943,4,left
12.177,0.051550898063517675,0.889942529051748,-0.13413421188919183,2.7422840531956174,-0.10806040594649852,0.33977114025421096,0.3755240859524782,0.8704409641078279,-0.5147815077804256,4,left
12.177999999999999,0.036807640700161764,0.8959596955401292,-0.11533615098587426,2.7442830563971548,-0.10606317629352757,0.35481440459083013,0.3750856003067957,0.8700123828419566,-0.5145652067929358,4,left
12.182,0.021961505628763818,0.9033401326847363,-0.0956349970531477,2.7444570682102674,-0.10835909044692785,0.341587887057049,0.37691862453322467,0.8721827058349854,-0.5158311317144483,4,left
12.183,0.009239057559680902,0.9120371691112061,-0.07659095608885529,2.7403382190549257,-0.10599517108353587,0.3487258645188761,0.3735349210995875,0.8681048900493252,-0.5134261351363427,4,left
12.187999999999999,-0.0008840368927923747,0.923315554314326,-0.061734851278282245,2.7495591367163565,-0.10855870884697334,0.34880548229830477,0.37787607287832103,0.8733525524440484,-0.5165267288920159,4,left
12.189,-0.009455007178854374,0.934121616618954,-0.052235944150817684,2.7358709693445773,-0.10573403667230805,0.34291395151797216,0.3742535868839566,0.8689673055488144,-0.5139336966598522,4,left
12.195,-0.016206811286829527,0.9471093326909003,-0.0475722568561065,2.7504376473523724,-0.10837947451216995,0.3513068587357937,0.3743455250430084,0.8691031939179816,-0.5140223049956143,4,left
12.196,-0.023223475941394865,0.9624291807051758,-0.04952370626480802,2.7420385029137737,-0.1070960553825255,0.34504078012029404,0.38127226399889036,0.8774073145253971,-0.5189047073482366,4,left
12.197000000000001,-0.029381275234127823,0.9753630098160557,-0.053736899687561124,2.734743848004683,-0.10522764842796094,0.3440439425928303,0.36425501083269174,0.8569777363676345,-0.5068841285907868,4,left
12.198,-0.03484554446435044,0.9879593063321475,-0.05845884698052875,2.766567589542392,-0.11199890941091785,0.35653275262013967,0.39246763119504374,0.8908543928411501,-0.5268182405910995,4,left
12.202,-0.03931447884413675,0.99449936377096,-0.06257234003048395,2.70757517953324,-0.0997734440813819,0.3314519951544438,0.355256590564657,0.8461729854948068,-0.5005274608348302,4,left
12.202,-0.04005619800781789,0.9968738975774804,-0.0642208757990622,2.783313656713576,-0.11535226654644844,0.36434929173172526,0.19904304145811344,0.6586251785321835,-0.3901703648384659,4,left
12.203,-0.04198210735687033,1.0069351415503354,-0.06615262150295376,2.720090556085544,-0.10239610493951759,0.33659181999880233,0.16183318306973804,0.6139496692852766,-0.3638865700563324,4,left
12.208,-0.04385242988814665,1.0151569325118754,-0.06457712416022124,2.7217879081275242,-0.10267065461331244,0.33779566205675593,0.19004452371485037,0.6478199437653843,-0.383813124434462,4,left
12.208,-0.04318012739178473,1.0190142961470547,-0.061583058150693336,2.842376259027679,-0.12757843593833673,0.38952032416687893,0.17302678621984435,0.6273879408295041,-0.3717896725995472,4,left
12.212,-0.04511994173123204,1.0235607375691642,-0.06066646103135438,2.5460099067418165,-0.06646716826175009,0.2617317829804259,0.17995776365152139,0.6357132243467609,-0.3766971407013273,4,left
12.213,-0.04361391864756537,1.0217888211689008,-0.057620503014216826,3.037382744670706,-0.16775275781316173,0.47386003474180655,0.18004057922975145,0.6358035749654081,-0.3767318152956966,4,left
12.217,-0.039322808831910874,1.018983116632704,-0.05475288522935935,2.3892787799589126,-0.034170107587952046,0.1939715127224125,0.1764311755391943,0.6314836224287632,-0.37421611439990443,4,left
12.218,-0.03883490474957775,1.0178168606025746,-0.054160040738947694,-0.3312854640069472,0.5265687397146934,-0.9804685451620081,0.1807592971079109,0.6366662621903718,-0.3772397006655791,4,left
12.219000000000001,-0.03391425872012913,1.0117316369986782,-0.055369167822435214,-0.9793678211449257,0.6601537599230658,-1.2603782873683875,0.17738122147622032,0.6326165081837525,-0.3748679343971307,4,left
12.222000000000001,-0.02527853918108463,1.0027126028286628,-0.05654149825525258,-0.4880189653466833,0.5588746344520004,-1.0481749513798388,0.17922542220482923,0.6348426537005575,-0.3761999796319397,4,left
12.222000000000001,-0.018338210637683504,0.9926411111281315,-0.05683128069610813,-0.7843920690960597,0.6199529486061166,-1.1761393900458939,0.17875091214848546,0.6342342301136938,-0.3757706750741583,4,left
12.229000000000001,-0.008320640689907538,0.9803978873518463,-0.05686584920061362,-0.6637305829163536,0.5951195992061347,-1.1241102530439329,0.17836517347435232,0.6338379424808291,-0.3756602821504978,4,left
12.23,0.002275863664026825,0.9658932680608607,-0.056451818304771084,-0.6621935378168378,0.5947289426212228,-1.1233072424964397,0.17908241497056343,0.6346169711141358,-0.3759680284897874,4,left
12.231,0.010545800009414786,0.9512507841839343,-0.05858563491165922,-0.7251844312961968,0.6078163168816848,-1.1506935860949103,0.17839254406431904,0.6338541948040282,-0.37563927663687935,4,left
12.232000000000001,0.021260147616977722,0.9383102753410891,-0.06199106408976906,-0.6496801312299878,0.5921508783229512,-1.1179115620599505,0.17892030114170737,0.6344883973140587,-0.3760135330633957,4,left
12.237,0.03402763537309324,0.927785591011742,-0.06552977602177182,-0.7085660252253596,0.60433192837359,-1.1434147944668935,0.17851138117781978,0.6338758905960302,-0.37543029792824834,4,left
12.238,0.045357607460822305,0.9196906764580237,-0.0707368274300007,-0.6765538039513987,0.5978235056430978,-1.1297389088808751,0.17892002483725244,0.634644344250793,-0.37639166362036613,4,left
12.241,0.054519798589144366,0.9139475247751069,-0.07894346163138569,-0.6844772993367171,0.5991694611373607,-1.1326877156363238,0.17843638856480887,0.6336491718912072,-0.375046483691731,4,left
12.242,0.064405629533663,0.9132934865581548,-0.08815942623559189,-0.6917806086707075,0.6011690170052739,-1.1366532066458368,0.17892843721065255,0.6346818415973638,-0.376463846326452,4,left
12.247,0.07428634365857263,0.9187075757532203,-0.09247927965131111,-0.6785718761850998,0.5978401937494927,-1.1299549976456416,0.17868127114462823,0.6341297221730389,-0.3756711664270145,4,left
12.247,0.07951962759489864,0.9294231800281969,-0.09836141795487066,-0.6911578788838288,0.6009175984247481,-1.1361818684415341,0.178284436133536,0.6334332322198994,-0.37485791293806003,4,left
12.251,0.08271771633657837,0.9453378515656209,-0.1113162889707363,-0.6819721396900464,0.5990288352248953,-1.1322223794118518,0.17972021291105886,0.6361202601414581,-0.3782042362081184,4,left
12.252,0.08478788924663401,0.9648902179150525,-0.1283131419273819,-0.6880330644130399,0.5993806968735282,-1.1333710350924295,0.17711202993426797,0.6312024652108025,-0.3720370346489369,4,left
12.257,0.08587729106753976,0.9857084993169273,-0.14828053141652248,-0.6833391765523703,0.6004636835247308,-1.1346996802483718,0.18044862677464943,0.6375023037566117,-0.37994713697847826,4,left
12.258,0.08734669348290591,1.0065535858349328,-0.16772001278532647,-0.6881484004827139,0.5983961682816181,-1.1317709444851078,0.1776683960478188,0.6322491609774608,-0.37334729620603113,4,left
12.261,0.08952787256974813,1.0259282846972269,-0.18763030028070127,-0.6834301676058574,0.600684213101845,-1.135069135526496,0.1777238289949651,0.6323678250955258,-0.3735115991722795,4,left
12.262,0.09695106652398101,1.0410533914384952,-0.20583392100886616,-0.6855112687052423,0.5992295121159134,-1.132885090400023,0.18308936507987217,0.6424609306347425,-0.3861423117397405,4,left
12.267000000000001,0.10701774534798712,1.0530843585522116,-0.214544769078923,-0.6905004615935839,0.5986331609793369,-1.1323817345302158,0.1699256686236676,0.6176817335232937,-0.35511528599695413,4,left
12.267999999999999,0.11824106555205444,1.0634718610761635,-0.21694240732253564,-0.6738956486810737,0.6023191356425038,-1.1368421500342087,0.19174452084903876,0.658758601950695,-0.40655394701548286,4,left
12.273,0.1267767771543718,1.0682789372596315,-0.21811032208960435,-0.7037453327579475,0.5952896762441976,-1.128163065937231,0.1629674451818342,0.6045802519683954,-0.33870844976083014,4,left
12.274000000000001,0.1281946864989273,1.0686561363699327,-0.21759785698447173,-0.6656288418285343,0.6043587261076631,-1.139398509315832,0.04213255323484938,0.37711997527357494,-0.05389130246721095,4,left
12.274000000000001,0.1342761414491933,1.0697142374723891,-0.21491974111432477,-0.6973643987412608,0.5967709187976094,-1.1299820755043721,0.013355482688381758,0.3229408950492573,0.013953398907599026,4,left
12.276,0.14055583094626867,1.0693444970463566,-0.20705920225913196,-0.6968349180254929,0.5970413328332314,-1.13037787016422,0.035174329219913404,0.3640185546227549,-0.03748440134756753,4,left
12.276,0.13916667360611923,1.06772148099716,-0.19735087599500417,-0.6352410545756919,0.611294069217166,-1.1478697739652926,0.022010631200390648,0.33923965420409985,-0.006457046948698957,4,left
12.28,0.13512168342548497,1.0651176254037256,-0.18842093377012403,-0.7862426827676101,0.5761880626872931,-1.1047116865918918,0.027376184541832466,0.34933014682273256,-0.019090618215398564,4,left
12.280999999999999,0.12442123948186573,1.058751637272516,-0.17102880907646628,-0.5359755117867884,0.6344123799898007,-1.176311322446602,0.027431579610372923,0.349454438196146,-0.019248771925497288,4,left
12.286,0.11587627961592295,1.0553055954214052,-0.15684297759969165,-0.8660685168906497,0.5576159721346132,-1.0818696539175976,0.02465140379344727,0.3441932228898433,-0.01265774666066527,4,left
12.287,0.11303188150342208,1.0537009299911868,-0.15318494374383984,-2.252118327453269,0.2352815284685568,-0.6856247563748128,0.02798794520594088,0.3505011052155621,-0.02055907218071027,4,left
12.287,0.10306681157944425,1.0465619683735534,-0.13899246187327935,-2.582254199263241,0.1584909480256719,-0.591200277610251,0.025379787536346878,0.34557982983482716,-0.014395654687816433,4,left
12.29,0.09003212188028066,1.039121062013751,-0.1185944648746371,-2.3319379512995124,0.21671878047258225,-0.662784735471313,0.02681560870490489,0.34825997283902105,-0.017749521538224795,4,left
12.29,0.08071840977247163,1.033773703360188,-0.10032051026793969,-2.4829314965469145,0.18157559321834746,-0.6196074601580177,0.026418625183763027,0.3475856995757179,-0.016911979859503247,4,left
12.295,0.07451904379356983,1.0271180125285495,-0.07525006151547467,-2.421471774917791,0.1959209515470218,-0.6371860310457051,0.026171718136728632,0.3469952780384331,-0.01616114283927209,4,left
12.296,0.07121850273606542,1.0202400191645191,-0.0479242541486642,-2.4206405095182824,0.1960399831063101,-0.6374120354900337,0.026663445578218845,0.34807497720864855,-0.017527160875653265,4,left
12.3,0.07081117449394425,1.0141094393457752,-0.021382914617301046,-2.452819301760597,0.18863087404796686,-0.6282256882410733,0.026180070348387846,0.34704227609890353,-0.01622290471914794,4,left
12.300999999999998,0.07303851527766556,1.0072916604498545,0.005414863971559679,-2.414248278860603,0.19756988476768084,-0.6392486989752626,0.026588704911553365,0.34781047491154193,-0.017184659560406164,4,left
12.307,0.07710320705412126,1.0028854493914172,0.026291737252186836,-2.4443185265148424,0.1905075734628033,-0.6306302912330036,0.026179326721525842,0.34726742907966185,-0.016525424621092064,4,left
12.308,0.0824706044419823,0.9998231437259443,0.03569212121332106,-2.4280477066896102,0.1945102022425045,-0.6353445204895405,0.026708151724099724,0.34774274589725884,-0.017073321522575596,4,left
12.309000000000001,0.08925980148014223,0.995059282219502,0.03561216935899157,-2.431864126466511,0.19324647837683978,-0.6341463879627055,0.026016671024577095,0.3472171171624949,-0.016485561827652116,4,left
12.31,0.1014580266798233,0.9921240903390709,0.031796573429769326,-2.4360209704291838,0.19274147658895824,-0.6330897398820978,0.026735648977797545,0.34774319855490177,-0.01706937319514583,4,left
12.315,0.11883906522770593,0.9861345054323443,0.02290499432046318,-2.4286968609588344,0.19407664122041096,-0.6350783925189778,0.026348872141721994,0.347493305622434,-0.016799546113421767,4,left
12.315,0.14039590308929023,0.9787296665878629,0.009253973729488846,-2.435670902342467,0.1924510957945995,-0.6330830272367745,0.025873576654155017,0.3470103193939033,-0.016232563812947125,4,left
12.32,0.16845501561755927,0.97468751179822,-0.004664553609787556,-2.4307953369543576,0.19426952397813124,-0.634674767073095,0.027721445013664373,0.34868589704598607,-0.01816664464910364,4,left
12.321,0.20063593973976224,0.9681874464160549,-0.02095154373678548,-2.433300042240611,0.19212282698247451,-0.6335067672297037,0.0243364721127262,0.34565783696305363,-0.014678608861978476,4,left
12.325,0.23606389673446804,0.9633882849308182,-0.0366420433958211,-2.4326058160089197,0.19461784580394798,-0.6343796815142884,0.02867354490664288,0.34952792087922996,-0.01913532856453337,4,left
12.325999999999999,0.27203501257804097,0.9611924486985544,-0.0458358824124158,-2.432232195396142,0.1922169845476831,-0.633767148413448,0.025056529576158677,0.3463047003047498,-0.015423488553252419,4,left
12.329,0.30918296410106993,0.9607642843856796,-0.05429838555326604,-2.433195212717994,0.19343057259793756,-0.6339079772448339,0.025139872009749323,0.34636319532151183,-0.015489810372992139,4,left
12.33,0.3459213802001829,0.9659011410891811,-0.061585865844919,-2.431702738495691,0.19501658387734008,-0.634692012316435,0.03208459598904856,0.35260239526340653,-0.022679829122724753,4,left
12.334000000000001,0.3766022732056945,0.9717202876087709,-0.060006716429808614,-2.4339487596771874,0.1890714526825995,-0.63248286843182,0.015032418635523705,0.3373021968927885,-0.005047604856236884,4,left
12.335,0.40888447083658586,0.9788038930114595,-0.05718974041197697,-2.4307970437806348,0.19986139865394342,-0.6362913934015446,0.043301363126252324,0.36266018081100926,-0.034272683792136126,4,left
12.339,0.4288515573681826,0.984515401277108,-0.059364143440492526,-2.434477361666717,0.1860914622570587,-0.631504425786201,0.006015009876888532,0.32921614907256413,0.0042747924397599,4,left
12.34,0.4329031994600193,0.985461288123358,-0.0606275671486063,-2.4315619196892797,0.1975513333106328,-0.6354580500447853,-0.15051435268020458,0.18878322724905397,0.166123459741232,4,left
12.341,0.4503617575138695,0.9914614887778992,-0.06480165510027913,-2.431396461447947,0.19729667134279558,-0.6354159964543965,-0.18780284640875655,0.15534186690071627,0.20467669699365382,4,left
12.345,0.4696347503305097,1.0015778126384434,-0.07428258658614287,-2.437603730602426,0.17529740903972132,-0.6277036581521788,-0.15953145549994807,0.18069398184172258,0.17544473270900351,4,left
12.345999999999998,0.47645056105213246,1.0110467295763412,-0.07822021047878358,-2.4227045219045302,0.229288438835352,-0.6465673977544981,-0.17658321450494852,0.16540323485362063,0.1930768968174547,4,left
12.350999999999999,0.48018440762773107,1.020209384970367,-0.07616045676945295,-2.4472677350061294,0.13979944633246183,-0.6153230055413972,-0.16964521907017233,0.17163027099067574,0.1859027904302904,4,left
12.352,0.4800722827296178,1.023557635112243,-0.07609788671266404,-2.414926881274936,0.25782357466443917,-0.6565252828351252,-0.1695467624118206,0.17170040669826397,0.1857990489989283,4,left
12.353,0.47925024351808615,1.0237107481477388,-0.07700705868702074,-2.2788668351434405,0.7532767680394423,-0.8294725234736464,-0.17318595840944528,0.1684721300207465,0.1895670888938431,4,left
12.354000000000001,0.4717656669228205,1.0270323733463163,-0.07530804269517641,-2.246552327365337,0.8712983636307472,-0.8706800877728864,-0.16882616130787914,0.1723327156577043,0.18505122328001633,4,left
12.355,0.454131338959772,1.0305826751210723,-0.07047642160933677,-2.2710595603352495,0.7818184974508989,-0.8394378255696913,-0.17222212226435177,0.16933574285932332,0.18857068965355864,4,left
12.359000000000002,0.4324756623405672,1.0314621677784093,-0.06552236696285163,-2.256246829515974,0.8357879498478233,-0.8582715839735264,-0.17039104163505378,0.17095728487701592,0.1866737789037443,4,left
12.359000000000002,0.4050618636641602,1.0343208228508174,-0.06319993869324528,-2.2623480183456546,0.8138262303617603,-0.8506355440867878,-0.17080757002464786,0.17054137688387588,0.18709759779369525,4,left
12.364,0.3739426389492624,1.0427623694932735,-0.05857126282750189,-2.2622767707116704,0.8135219435941679,-0.850467620724598,-0.17129826664994155,0.17023663178180332,0.1876273995882638,4,left
12.365,0.33876763478121036,1.0515258842845836,-0.04984586828939201,-2.2593335593250137,0.8250280248795815,-0.8545710566017001,-0.17044892725594368,0.17076555785306802,0.18671041555670925,4,left
12.368,0.2975368711109777,1.0605575116801382,-0.04194643855224759,-2.262907490415259,0.8112432271449057,-0.8496732051323688,-0.17124855853889798,0.17033394739385718,0.18758488170187976,4,left
12.368,0.2529047358798172,1.0739334260779994,-0.033578974076222144,-2.2600505840324763,0.8219817330393671,-0.8534584579912718,-0.17071098472576443,0.17058850030144337,0.18699101266637835,4,left
12.373,0.20766666541318882,1.0882840817921917,-0.025446148586967435,-2.261814423762292,0.816182669152944,-0.8515084003900266,-0.17094194126239975,0.17037925754923,0.1872295002793623,4,left
12.375,0.16366334933910345,1.1001828953531312,-0.023288099866416077,-2.260888487119103,0.8175274939163715,-0.8517397643109611,-0.17095868397926428,0.170786721801844,0.18731734999341704,4,left
12.378,0.1203232653020153,1.1092875312335364,-0.025338301252537873,-2.261435509697815,0.8190264567576948,-0.8526728176351308,-0.1707933283523425,0.16996963234010154,0.18698513422875193,4,left
12.378,0.083328872441327,1.1160710349355476,-0.029539863591674147,-2.260977476687319,0.8164136500577849,-0.8512580116413098,-0.17101049971118779,0.17121501598682676,0.187450249782486,4,left
12.383,0.05622546051499825,1.1180818888113717,-0.03640666590177981,-2.2612394749497433,0.8188710308687979,-0.8525165548759202,-0.17081815565500147,0.16985230038714433,0.18699491298382212,4,left
12.384,0.03379595375767286,1.115622253435666,-0.04531092713201765,-2.261706030870715,0.817199701351124,-0.8519367608483221,-0.17092970209082003,0.1706392939075071,0.18725843375649648,4,left
12.388,0.018396196931432934,1.1140190169354793,-0.057395705655725236,-2.2597519008278324,0.8179965104475813,-0.8514711653210075,-0.17093903148030648,0.17139562180203727,0.18739581600205274,4,left
12.389000000000001,0.01271052833525754,1.1110232147743315,-0.06870116458375489,-2.263760219250258,0.8178432286848374,-0.8531172763282926,-0.17078582980837195,0.16818645486060338,0.18667836935755908,4,left
12.392999999999999,0.01259649808349074,1.1051129121562682,-0.07567598697831418,-2.2578901678377834,0.8176723988763928,-0.8505221092657745,-0.17107549793857796,0.17413286568862513,0.18801462390967116,4,left
12.392999999999999,0.01703833737101029,1.1001935583972788,-0.08076882444988603,-2.264127368287183,0.8179290149264119,-0.8533146495471489,-0.17071080742061184,0.16649091566218516,0.18630631792633695,4,left
12.398,0.024151387307903324,1.095262315824875,-0.08179705459896702,-2.2605555343788124,0.8176630832778178,-0.851659997779751,-0.1710118844740692,0.17287375862065024,0.18772897926367105,4,left
12.399000000000001,0.035164981583256705,1.089598178098544,-0.0799849040297362,-2.2573177373717797,0.81801627501299,-0.8504371113896876,-0.1709948816324812,0.17270914420366906,0.18768137391959996,4,left
12.402999999999999,0.046451649680158774,1.0852498585202073,-0.07970600883198117,-2.271228205145205,0.8174241884967192,-0.8561222617808953,-0.170459003161061,0.1605034995557048,0.18500799976454882,4,left
12.402999999999999,0.0564405685218943,1.0800666694135466,-0.08025045679421791,-2.24547766337863,0.818349800881544,-0.8455187667245434,-0.17178261933417927,0.1904973869847842,0.1915854704438224,4,left
12.408,0.07819154066856839,1.0718926793727195,-0.08428393466747752,-2.2785326224102738,0.81720034176473,-0.8591479575594055,-0.16958872052121682,0.14076543926594204,0.1806804361011285,4,left
12.409,0.09452025116146243,1.0680127671028743,-0.08787296024009819,-2.2509401076873896,0.8181436483692228,-0.8477637179625392,-0.17248072123994657,0.20636378945496658,0.19506250873487824,4,left
12.41,0.09887889668913866,1.0668679262448655,-0.08861877940468713,-2.2516725125955275,0.8181795814478552,-0.8480937941595141,-0.1846190020058721,0.4817351704039508,0.25543681921011163,4,left
12.413,0.11588468375176927,1.0596733972534251,-0.09393658868668397,-2.3043351084400623,0.8161807353134607,-0.8697302481223186,-0.1875128217506882,0.5473373736413001,0.2698224154763028,4,left
12.413,0.1381367518324435,1.051768532978675,-0.10033768228756612,-2.1749119292097907,0.8210197039341052,-0.8165236137204324,-0.18531280711498205,0.49759897514924173,0.2589074821220994,4,left
12.418,0.1626549414454409,1.0408643488537832,-0.10774223913035717,-2.389500295493046,0.8130176150684861,-0.9047509721875273,-0.18665036627483192,0.5275993600680948,0.2655050620578212,4,left
12.419,0.18137484003837828,1.0302709513860542,-0.11572491078523638,-2.106454827427089,0.8235671434710548,-0.7883764899516885,-0.18609072792622777,0.5153908796812825,0.2627998871625603,4,left
12.422,0.18444297546982671,1.0278002604177385,-0.11702561765453745,-0.9183503254581724,0.8679339064965326,-0.2999250485570706,-0.1861046137156204,0.5152212342026372,0.2627910128126812,4,left
12.423,0.19722210681195465,1.0173787737925284,-0.11945771830514346,-0.6352856690581874,0.8784780496717578,-0.1835442351772369,-0.18637760118459676,0.5216202036024633,0.26418191259827206,4,left
12.424000000000001,0.21597739028503157,1.000937288406904,-0.12352282142804624,-0.8499065481221062,0.8704907621415787,-0.27178463756901416,-0.18602065053712374,0.5139510617187559,0.26247554487822067,4,left
12.429,0.22575225614560432,0.989510794344722,-0.12244654706812079,-0.7204496380665498,0.8753001575994104,-0.21855866899265172,-0.18634454458059135,0.5199298798469009,0.26386609104118325,4,left
12.43,0.2313502803746466,0.977786992964177,-0.12247189801511307,-0.773129186393745,0.8733475206316473,-0.24021763123175002,-0.18609814356657997,0.516696423042899,0.2630199608229387,4,left
12.432,0.2297334410020062,0.9687752135054624,-0.12572554655208024,-0.7738824481149658,0.873327811905739,-0.2405294950558386,-0.18625877090623189,0.5174490390925917,0.26335332343300066,4,left
12.433,0.22221037470590432,0.962553439972794,-0.12844113038881685,-0.7462141259647341,0.8743158427079436,-0.22914717507309038,-0.18619419775502477,0.5182889532785415,0.263403267906911,4,left
12.437000000000001,0.21034107809591085,0.9574615239989168,-0.13075282062899363,-0.7794019149428988,0.8731656378135996,-0.24280467632392289,-0.18612812258849232,0.5168118846855775,0.26307816846706233,4,left
12.437999999999999,0.19308542157966813,0.9574252513847968,-0.13476081516594557,-0.7534875698164776,0.8740102487174682,-0.23213284031182332,-0.1863790117968233,0.5182222425547875,0.26363661903366786,4,left
12.442,0.175321630288563,0.9586716277190601,-0.13735288793930542,-0.7675293690507262,0.8736062033639183,-0.23792301549272699,-0.1859043484092978,0.5172367163277913,0.2628510270929133,4,left
12.443,0.15823945809912832,0.9592479419636947,-0.13518620781079393,-0.7642906420833813,0.8736760280322055,-0.2365842968321183,-0.18656928124697114,0.5177278208548772,0.26380830899707064,4,left
12.446,0.14043109255127678,0.9629075628898983,-0.13341289756928115,-0.7604808253999937,0.8737153848584611,-0.2350029551489232,-0.18587948030756862,0.5176355817271648,0.2628823930737273,4,left
12.447000000000001,0.1236563005162606,0.9671829776214942,-0.1312742389168412,-0.7672644186945246,0.873791559299923,-0.237839569812774,-0.18626830005275063,0.5174687277086059,0.26336909678246806,4,left
12.452,0.10941777134482403,0.9689630002604026,-0.11953985370756866,-0.7605790046027145,0.8734745794699501,-0.2350091154226129,-0.18662405301766152,0.5177884418732459,0.26389036595440574,4,left
12.453,0.09692156818468906,0.9708528503453654,-0.09724078528713226,-0.765453910208413,0.8739873348416796,-0.23711369618767947,-0.1851105424807963,0.5173677402368833,0.26182375432740135,4,left
12.457,0.08796139031159692,0.9737894456074602,-0.06898625930013139,-0.763008845370922,0.8735249308842973,-0.23602850128611366,-0.1879046707608651,0.5178626712349502,0.2655936993359207,4,left
12.458,0.08627568365597496,0.9764806118684579,-0.038091484720860824,-0.7630111161967881,0.8735199557605267,-0.23602866976692832,-0.18432256422076768,0.517353708568856,0.26078070953699267,4,left
12.460999999999999,0.08614555380507159,0.9778707664184019,-0.012099944021955569,-0.765239172761598,0.874463883606906,-0.23709316090450988,-0.18731054088140392,0.5177245814029827,0.26478690508248953,4,left
12.462,0.08600659797556909,0.9802243037835964,0.004136902286005556,-0.7611216047035618,0.8722703230952649,-0.23506108704092132,-0.18723209847628336,0.5177611730219014,0.26468888184931405,4,left
12.467,0.08938047628848453,0.9853505871130194,0.014785196177125856,-0.7664618878030562,0.8755727734245905,-0.23776265391635554,-0.18152992236879345,0.5169677284088356,0.2570305100601928,4,left
12.468,0.09416823721662797,0.9902171703298345,0.025348300532852107,-0.7612380795003589,0.8720345883106213,-0.23507558769847103,-0.1955407304289136,0.5188343643412127,0.2758351549493826,4,left
12.470999999999998,0.10828366716489515,0.994531565638078,0.03733129553793231,-0.7641064805868227,0.8740849458430098,-0.23656651626208106,-0.17231250154694308,0.5157792207124494,0.24466521063228314,4,left
12.472000000000001,0.12266678719029642,0.9962573444722725,0.045324255916629294,-0.7665167530151482,0.875853437666283,-0.23782616366519746,-0.20294898992700994,0.5197896229624741,0.2857736914212349,4,left
12.475999999999999,0.12663705911016748,0.9956736990529184,0.04733519896902512,-0.7561486675281193,0.868104243212739,-0.2323876646941651,-0.3315514008396634,0.5366126951421982,0.45832694864258683,4,left
12.477,0.14211167829153543,0.9959768753369043,0.0487189337983768,-0.7752039769674629,0.8824827617798939,-0.24240247718066604,-0.3621865104597355,0.5406128465605419,0.4994327587370961,4,left
12.477,0.1703905121584372,0.9919452338550437,0.05321369195756462,-0.7508553945065581,0.8640144456664525,-0.22959209278208068,-0.33896032388088215,0.5375813000096281,0.4682684447828264,4,left
12.481,0.19893912060760216,0.9867678938773096,0.062039435356216685,-0.7711305014273213,0.8794363724048906,-0.24026527032689385,-0.3529697491374548,0.5394078562043965,0.48706448048031525,4,left
12.481,0.2349652784104595,0.9822641935665976,0.07247390242669337,-0.7705750255018384,0.8790152239191349,-0.2399737796709122,-0.3472666452752005,0.5386689472976101,0.47941653828445174,4,left
12.485999999999999,0.27417068334364103,0.9725431322347424,0.08458135230828648,-0.7320233127712532,0.8496142059756019,-0.21966656707736432,-0.34719288490661876,0.5386492079219466,0.4793094450762555,4,left
12.487,0.30899597114851135,0.965940239965632,0.09614658295291562,-0.8267487586551344,0.9218874814016107,-0.2695665965304004,-0.3501719982171805,0.5390520046068987,0.4833179407917597,4,left
12.491,0.3444256899982431,0.9613073069139788,0.09953181582483889,-0.6697221513573317,0.8020477643860878,-0.1868436622095133,-0.346601403464548,0.5385722593194018,0.4785160305465337,4,left
12.492,0.36523107205783595,0.9548103119299814,0.09904861360629422,-0.876814309467422,0.9601228494770663,-0.2959442296720204,-0.34938557756027283,0.5389413019394869,0.48225636854796416,4,left
12.492,0.37009645374798894,0.954632988959767,0.09956243757996125,-1.745992231090717,1.6235736292450342,-0.7538585685033442,-0.3478736726004854,0.5387565276583219,0.4802374462315353,4,left
12.497,0.3842872013226144,0.9534249416526235,0.09780227634654504,-1.9530597765187323,1.7816601608069387,-0.8629486661944663,-0.3482440235559435,0.5387653325906179,0.4807035132328166,4,left
12.498,0.39959110905094125,0.9490118901557124,0.0932624723307284,-1.7960758615887809,1.6618074592671235,-0.7802436639451238,-0.3485964646366681,0.53887919451249,0.48122944911280296,4,left
12.5,0.41211520282077146,0.947835673230468,0.08616035612490583,-1.890754539813273,1.7340781504333995,-0.8301246085175847,-0.3479632355522133,0.5387133497617849,0.4803147556459086,4,left
12.501,0.4309048596657964,0.9441161949772572,0.07970025739891794,-1.8522317904460093,1.7047138297586133,-0.8098280481556008,-0.34856524016479273,0.5388582071144508,0.48117434764298006,4,left
12.505,0.44965938083882795,0.9374928358801671,0.07728033217659294,-1.8516923582088531,1.7042107945322225,-0.809545857097165,-0.34813107360837725,0.5388022237498662,0.4805922767065597,4,left
12.505999999999998,0.47364541600418986,0.9295006997370316,0.076289830898038,-1.8718817212548937,1.7197524744880197,-0.8201799046179894,-0.34840450989120636,0.5387146564745984,0.4808629162973668,4,left
12.512,0.49912182156641965,0.9193471594659857,0.07518405529388167,-1.847696896600461,1.701161980752254,-0.8074407100303469,-0.348212521348259,0.5389711605901291,0.48082525556001054,4,left
12.512,0.5199770130392238,0.909292275977552,0.07440585054717962,-1.8665359968190807,1.7155986550825721,-0.8173649609859922,-0.3483952285805382,0.5385750150549206,0.480742281573639,4,left
12.515,0.5382718002675093,0.9015896454816306,0.07153377285852698,-1.8563626967099727,1.7079418438224123,-0.8120032356007549,-0.3482198091961659,0.5389998019154587,0.48085671824049203,4,left
12.515999999999998,0.547803441480824,0.9009575992365273,0.06480864346564663,-1.8587224745838342,1.7093911863183457,-0.8132527973473054,-0.34829060287321534,0.53875043266653,0.48074954802327946,4,left
12.52,0.5505415654367747,0.9037441193521754,0.05864672602002774,-1.8613504134716257,1.7120036867899575,-0.8146264632893785,-0.34850288804422713,0.5385550117529276,0.48086024251626025,4,left
12.520999999999999,0.5455991215017009,0.9076347619369378,0.057418806645995135,-1.8567693300575636,1.707762623164381,-0.812226233616282,-0.3478215252978434,0.5394421838684662,0.4807084051181164,4,left
12.525,0.5334700199277699,0.9161259964096906,0.0593878356311977,-1.861078154634468,1.7116448355196865,-0.8144857098392846,-0.34904029997148966,0.537791225419317,0.48092974069274336,4,left
12.525,0.5221044746929266,0.9219212669399538,0.05902808875721132,-1.858145782603677,1.7094118152632105,-0.8129407790985885,-0.3474855406067485,0.5399123185148371,0.48065934268929894,4,left
12.529000000000002,0.5088961482265464,0.9254314887755917,0.05906271148641703,-1.859548830288339,1.7093822009945288,-0.8136994596051904,-0.3487791972481079,0.5381411709672093,0.4808791048181499,4,left
12.530999999999999,0.49525427697070606,0.9310021821587859,0.07406466069118389,-1.85926844594385,1.7116830996298353,-0.8135070845407237,-0.3487603701990589,0.538190739788025,0.48089525339439443,4,left
12.536,0.4835352704030503,0.9332349437576962,0.09448592502486686,-1.8589855759850922,1.7077156758172802,-0.8134247627020333,-0.3462411037779399,0.5415622496453243,0.4804048463521867,4,left
12.537,0.4748659461931968,0.9312509637500416,0.10786043276633647,-1.85941829481775,1.7120447179843294,-0.8135815143242019,-0.35241350485657963,0.5332739290778576,0.48158305945366353,4,left
12.540999999999999,0.47315792087038244,0.9268815756293871,0.1318722352982976,-1.8589609597276815,1.7093859178911675,-0.813381923566857,-0.34218517642316965,0.5470162898917921,0.4796379409742397,4,left
12.542,0.47264296474975376,0.9245062213149231,0.15295617068091832,-1.8595913982807173,1.7078737485025695,-0.8137490797263154,-0.35567470543401375,0.5288908888164846,0.4822006928117572,4,left
12.545,0.47353670638846135,0.9245435563888099,0.15854142729132376,-1.8585113850472892,1.715768357562759,-0.8130255117995844,-0.4123255617239012,0.45280850393246397,0.4930001931637831,4,left
12.546,0.4792000095168752,0.9213427059436705,0.17298180577969158,-1.8602092269996138,1.7008970291747039,-0.8142072217194913,-0.4258138881189,0.4346852580694804,0.4955594318277023,4,left
12.546,0.4887849783374823,0.9166199233832091,0.18620605771831011,-1.8581003591012846,1.7200447140527078,-0.81272680863014,-0.41558839682929494,0.448424375205269,0.4936210893741367,4,left
12.55,0.5055163145058905,0.9109091350259433,0.18429154694261596,-1.859828085824998,1.7040375367471534,-0.8139462934528656,-0.4217558522620354,0.440138397676785,0.4947902106083543,4,left
12.550999999999998,0.5264391344311103,0.9028291685619427,0.17829101269211411,-1.8598994640367268,1.704553014793933,-0.8139734402272683,-0.41924348590922605,0.4435109836076312,0.4943089192517468,4,left
12.555,0.5457735739973941,0.8946888043247636,0.17095466726003572,-1.8562282971854,1.7348073731311002,-0.8114547573845097,-0.41921730564710746,0.44355378863060446,0.4943199674678437,4,left
12.556,0.5640406017112837,0.8894381197108526,0.16199809531198442,-1.8651025523315021,1.6603475178196536,-0.8175708964654325,-0.4205155060004021,0.4417959006260678,0.494535422670383,4,left
12.56,0.5860023323303549,0.8907602692621279,0.15097699318683372,-1.8504374206412333,1.78383223475501,-0.8074530522047136,-0.4189637161463904,0.4438993409328396,0.49428382848425045,4,left
12.561,0.6020161019622983,0.894167655399728,0.14405731987321724,-1.869765441781245,1.6209527654815707,-0.8207924710252178,-0.420167292482211,0.4422642615239206,0.49447009519245305,4,left
12.561,0.6051437101743022,0.8961326439672008,0.144262202245697,-1.9514293784486034,0.9374438737601565,-0.8770049575357949,-0.41951544949488917,0.4431475533433734,0.4943642252610254,4,left
12.564,0.6119643168228445,0.9045516987847542,0.1410358751312949,-1.970784992620282,0.7745770064174649,-0.8903566682445441,-0.41968781120252696,0.4429318802596124,0.49443369816546506,4,left
12.565,0.6215114301966442,0.9226942784709515,0.13604982639559182,-1.9560411542960898,0.8980400353528134,-0.8802075450564409,-0.4197960806471226,0.4427359966329458,0.49433690361936916,4,left
12.568,0.626858287868927,0.9457061742662483,0.14346896497977008,-1.9650770929220378,0.8236035202637308,-0.8863823114158932,-0.4196079149117943,0.44307540610997587,0.494502999171648,4,left
12.569,0.6347473519631023,0.9681719534388626,0.16704009285300636,-1.9611482197731598,0.8538442965986597,-0.883776449195782,-0.41975113347080484,0.44277680374384165,0.49428267388958663,4,left
12.574000000000002,0.6457233764760526,0.9887476476126111,0.19908555521485088,-1.961535765777355,0.8543497102890735,-0.8839034615380938,-0.41967306359404777,0.44296633798298823,0.4944651150582399,4,left
12.575,0.6590117573934178,1.0111500265645517,0.22358593883049524,-1.9630009733631748,0.838388417402987,-0.8850499824262853,-0.4197576840949105,0.4428533553058,0.4944829988643188,4,left
12.579,0.6683138654478602,1.0373268736284016,0.2235349004379774,-1.960915191488517,0.8574511218469136,-0.883554511226183,-0.4195476700790509,0.4429785550154777,0.49407694302617544,4,left
12.58,0.6690149088633777,1.063828548730279,0.19783663012074904,-1.9630456381102315,0.8426894192455078,-0.8849056015547819,-0.41998159857734685,0.4427543750254123,0.49499609323803706,4,left
12.585,0.6614697554811388,1.089886237768472,0.1638281709145742,-1.9609260247275415,0.8504888889149209,-0.8838196431782983,-0.4193235838493349,0.4431030184439268,0.49362287020392276,4,left
12.585999999999999,0.643503863180791,1.1195015856337847,0.139216785559292,-1.9631508993679065,0.8489939713209609,-0.8847084639253615,-0.42003922044194775,0.4427124928971755,0.4950894612599678,4,left
12.588,0.6213521042702972,1.149057997359118,0.11971436256034165,-1.9609422989644691,0.846469641568177,-0.883976599143744,-0.4196258481766678,0.44293764273994063,0.4942420515743057,4,left
12.589,0.5977888956102468,1.17789099200496,0.09950422947601054,-1.9624664235729867,0.8504592675469141,-0.8843972557583493,-0.41923818344308067,0.44317486106913845,0.4935057320585283,4,left
12.595,0.5726727555587863,1.2092493354480753,0.09204662716550213,-1.962893986915617,0.8470230019790381,-0.8846862476499001,-0.42089431137466315,0.4421932615282601,0.496720779455222,4,left
12.595999999999998,0.5526072846862138,1.2345897893030044,0.09945158525037415,-1.9589808545018226,0.8487287203560334,-0.8831578451705386,-0.4178249401232969,0.44401012798247785,0.49075869830462243,4,left
12.597999999999999,0.5360836974492315,1.252676634283834,0.10328739152993588,-1.9674151242688007,0.8490898753768912,-0.8863004742347151,-0.42176886427872173,0.4416744759174066,0.49841493521644203,4,left
12.599,0.524714211318237,1.2669666449784414,0.09334759051512613,-1.9550119252821407,0.8470514927243495,-0.8817357196255307,-0.418474946298783,0.4436248247949308,0.4920226875489871,4,left
12.603,0.5126110498219973,1.2787058028147125,0.07791095531300268,-1.9681683143183821,0.8497726914250561,-0.8865565136155749,-0.41856114027697805,0.44357917654490064,0.4921955809769517,4,left
12.605,0.4933325538166876,1.2909117875346685,0.06968619743017439,-1.9606105753420044,0.8478334205717959,-0.8838015928463663,-0.4248552509540464,0.4398348397733343,0.504385774813598,4,left
12.607999999999999,0.46898531492630013,1.3065649327279454,0.065392174859638,-1.9539589672756954,0.847302703406493,-0.8813319412427412,-0.4093869041816386,0.4490291313609779,0.47442322259049297,4,left
12.609000000000002,0.4210110830589577,1.3335762390243295,0.04717078092479196,-1.9828172563746245,0.8517293540659283,-0.8919650486780872,-0.4350348970357118,0.4337884035394728,0.5241033255947909,4,left
12.612,0.38178661271352027,1.3528258238017272,0.026982054708669233,-1.929359028751513,0.8430244058778655,-0.8722876141332271,-0.40120399490430936,0.4538877392581866,0.45857458197937645,4,left
12.613,0.370379117216569,1.358509625636868,0.022815947255542878,-1.9979803445859055,0.8543785309621965,-0.8975388443391901,-0.25919661699157215,0.5383139976475497,0.18352591458675177,4,left
12.614,0.32871883901170007,1.3813594372118398,0.014022543778164951,-1.9407011364910869,0.8448284843115463,-0.8764652554059709,-0.22536361175828418,0.5584079385774084,0.11799555016958095,4,left
12.618,0.2739115904789863,1.411119004085975,-0.0025979647378530243,-1.9422371040730049,0.8451923728358961,-0.8770233182357636,-0.2510144929436058,0.5431722228053513,0.1676775210062626,4,left
12.619000000000002,0.23726355345391853,1.4306235014849453,-0.01638722055910531,-2.0514951137218445,0.8631195194562178,-0.9172385908393155,-0.2355448406354587,0.5523716556269089,0.1377152311244081,4,left
12.623,0.20585352177957342,1.4484078881437803,-0.026584125005500087,-1.7829733516194635,0.8189100566740867,-0.8184135388357454,-0.24183587914415125,0.5486019350741881,0.1499004422393882,4,left
12.624,0.19039846283573492,1.4624639157424832,-0.026196611672756276,-2.2281864409797794,0.8922600805752725,-0.9822611881123031,-0.24193167329537346,0.5486068797210342,0.1500846138780964,4,left
12.629000000000001,0.18444144056868295,1.467528065210516,-0.02544234228598653,-1.6409559465383468,0.7955000802761432,-0.766151582998389,-0.23862159669624855,0.5504879100271736,0.1436757493846582,4,left
12.63,0.1831324161676656,1.4688968062550114,-0.02357999058364394,0.8239559645343052,0.3891010748434407,0.14105140655067083,-0.24258460185578523,0.5482172607725004,0.15134909051358902,4,left
12.630999999999998,0.18650065152207024,1.475016559049814,-0.017012205527492174,1.411186150023831,0.2923246815966003,0.35716349919180523,-0.23950144414557326,0.5500135525953961,0.14537859421751687,4,left
12.632,0.18529890298685214,1.4812472954300742,-0.03477113703206283,0.9659745150400807,0.36574900529946497,0.19330459208509407,-0.24115398386180661,0.5489589142740098,0.14858133900457937,4,left
12.632,0.18322538335160604,1.4908631716700602,-0.07767800962790852,1.2344924368120922,0.32134593797225636,0.29215896321577145,-0.2407998915063696,0.549401787740617,0.1478887523230217,4,left
12.637,0.17556649733189506,1.5118674980555884,-0.11163394690465211,1.1252414976809324,0.33962729357436194,0.25189006356140753,-0.24031617733748073,0.5492893996422765,0.14696366038488629,4,left
12.638,0.16514038649187618,1.5376251979837243,-0.11325966237250087,1.123695781256163,0.3395049930775359,0.25140559595886947,-0.24113140721027948,0.5492952659879045,0.14852805944419958,4,left
12.642000000000001,0.1607120587010774,1.5672140519270403,-0.08932150548792855,1.1809845924631603,0.33043112536662533,0.27240712188852084,-0.2403741797325094,0.5493545473136402,0.14707316677435534,4,left
12.642999999999999,0.15108846728447314,1.597206233650954,-0.07185933021483894,1.1123591783963755,0.3415870216589455,0.24718585977834867,-0.24085282162680388,0.5490664293344734,0.14800008712616414,4,left
12.647,0.13409650217115054,1.6244219738491883,-0.06502296733265663,1.1658090270429402,0.33245518493360543,0.2669279689745304,-0.24072233559779685,0.5498693452356274,0.14772609727757247,4,left
12.648,0.11578760540035792,1.6515508581116431,-0.057042147230335745,1.1369776388881403,0.33823279462298594,0.25609030664061955,-0.240542467356755,0.5483188976597684,0.14742674605593653,4,left
12.652000000000001,0.09274791325086812,1.6722870002153305,-0.060334608349869666,1.143582817086545,0.3353815842305504,0.2589112458625489,-0.2409253397560468,0.5505635864543473,0.14809481934914837,4,left
12.652999999999999,0.06786801917352543,1.6851063381862348,-0.07823580379766071,1.1511977197423344,0.3362873938818678,0.26123553778394076,-0.24049579710707006,0.5481836587608757,0.14734163068135891,4,left
12.657,0.04530620069935487,1.690238969885752,-0.10313806929526831,1.1379954308868943,0.33674177096757374,0.25675773838826244,-0.24077778010301762,0.5495383108146377,0.14784155616623024,4,left
12.658,0.023400268062979214,1.6861295527829596,-0.12832913726743223,1.1503989840973265,0.3346805770310065,0.26132619662807144,-0.24085368822822847,0.5508065981098458,0.1479509792565226,4,left
12.663,0.005124809540621877,1.6776931249100508,-0.14722825613763715,1.1420481550283252,0.3392550039286341,0.25754547593717936,-0.24024766774598966,0.545421221801342,0.14694650660896397,4,left
12.664000000000001,-0.01169608589149964,1.6670299889152131,-0.163758267357024,1.1457691890522177,0.33133554578942076,0.26053113547158013,-0.24142114928530367,0.5553779239170236,0.14890342581024069,4,left
12.665999999999999,-0.03614057259753686,1.6577385599529761,-0.1755914191055874,1.1456293570262965,0.3422567445461592,0.2580687819067633,-0.23990294950060212,0.5426008309706476,0.14637054186302248,4,left
12.667,-0.0646957126319091,1.652364783086211,-0.1796372453420765,1.1437970776531445,0.3309423515940225,0.25996432267718306,-0.2411753907645601,0.5532633368704428,0.14849187243438705,4,left
12.672,-0.09671649713883863,1.6495195730200027,-0.18300960644691638,1.1461861721304132,0.33725854479807293,0.2593589798946404,-0.24112262612231605,0.5529890759605668,0.14840563956507308,4,left
12.673,-0.132140833724761,1.6493112646144967,-0.18695079390194166,1.1441092158513513,0.34339121839337905,0.25731400583979924,-0.23875543669434643,0.532614446890208,0.14445915654479863,4,left
12.677,-0.16422713638408337,1.6496809933051146,-0.1873766436916277,1.1455653287000778,0.31782289919991014,0.26345262278341136,-0.24459626024711564,0.582672407104317,0.15418931662195007,4,left
12.677999999999999,-0.20365642790459532,1.6531327467670476,-0.18222864788022045,1.1446720671743331,0.36493643425847877,0.25273429278428394,-0.23490493005956886,0.49968346161682836,0.138053002350715,4,left
12.682,-0.23289334429369296,1.6573234823165337,-0.1779025047126752,1.145162561703621,0.3045537317862449,0.2662548398623422,-0.2476899314868742,0.6091388446413748,0.1593306345652532,4,left
12.683,-0.2401372382670572,1.6577110361616936,-0.17754425118749406,1.1450389936228695,0.3549095987339026,0.25507345010853927,-0.30130980373023875,1.0686640372382743,0.2486742297250275,4,left
12.684000000000001,-0.26629462452864044,1.662939540554103,-0.1718629004538192,1.144592365997258,0.35363811955238855,0.25520816646698585,-0.31409565564749575,1.1781101626014787,0.26993623505180564,4,left
12.687000000000001,-0.3032817863867283,1.67329568838736,-0.16841362825869605,1.146017580347471,0.25738206120913365,0.2769721902157837,-0.3044034057748688,1.095131232361108,0.25381683089228346,4,left
12.687999999999999,-0.32924038218640367,1.6841116835965875,-0.16924283698118123,1.1431814113676444,0.4938227301902193,0.22372899846729113,-0.310243877623037,1.1451930053610728,0.26355341126786125,4,left
12.690999999999999,-0.35868091807040947,1.6955721137664117,-0.15137644673934858,1.1476107843935832,0.10186488280553602,0.3119045593278984,-0.30787974407242646,1.1247851448447723,0.2595508660233886,4,left
12.690999999999999,-0.37670048239581716,1.7013706011872545,-0.13191423478154846,1.1418950927481317,0.6188077389328455,0.19565162270618225,-0.3078204067150101,1.1245823809803075,0.2595852719081673,4,left
12.697000000000001,-0.3800696598075688,1.702206637955543,-0.12796133040007657,1.1170813876822934,2.789109841008551,-0.29266209936554977,-0.30910227000482243,1.1351423783122108,0.26153361993646906,4,left
12.698,-0.3859272531072162,1.7023500303953687,-0.11379908801314159,1.1114522031265652,3.305994416758293,-0.40887734842517215,-0.30757469023936873,1.1224673579002764,0.2591730043017237,4,left
12.698,-0.3853792560190193,1.6966294603919327,-0.10062769605223087,1.1157391349847785,2.914107679111227,-0.32076054567671025,-0.30875221462749985,1.1323800261612114,0.2610555672917262,4,left
12.702,-0.37187733569997594,1.6809643413905744,-0.10397367452016874,1.1130403832736322,3.150543801965077,-0.3739555506425679,-0.3081542590732257,1.1269069792606663,0.25990322486618167,4,left
12.702,-0.3499502556235126,1.6562683482667677,-0.10437102568408665,1.114419374977565,3.0541373960304172,-0.35218758424241614,-0.3082042054516452,1.1284576436689153,0.26048907864807935,4,left
12.707,-0.32190014433206093,1.6232640021239133,-0.09815229968127115,1.1138339139065678,3.0532286993993583,-0.35214907607000956,-0.3085309116125372,1.1293257675948036,0.2601680367771395,4,left
12.708,-0.29159668560227653,1.5814601075578731,-0.08650338350138262,1.1141001800858876,3.1030329532223213,-0.3631222892086156,-0.3080464930671192,1.1275429111892086,0.2604224417281517,4,left
12.71,-0.2628433973310396,1.5342276197181324,-0.06740770786533906,1.1139641853422668,3.0432388344157504,-0.3498967707624655,-0.3084730992681255,1.1293116169587993,0.2602871219531217,4,left
12.710999999999999,-0.23588715597177504,1.4863029827088408,-0.046544180588214065,1.1137837477540913,3.090025442670456,-0.36032489373385723,-0.3082936574218378,1.1277568560803064,0.25998082018629454,4,left
12.717,-0.21142017391233411,1.4409307695430709,-0.02624148410907564,1.1147581976683663,3.0641198256676905,-0.3543083097801838,-0.30808192887708,1.1294432348934555,0.26119723606496736,4,left
12.718,-0.19390146393656066,1.401269289491728,-0.007714281402024423,1.1124786482826696,3.0716282682676006,-0.35660597375905534,-0.30874617053564424,1.127136239929858,0.2587177049133217,4,left
12.72,-0.18199911574063374,1.3669183828874492,0.011185057253121428,1.1162126966811532,3.075409746589473,-0.35640929071338756,-0.30771211140133475,1.1302072542393509,0.26234498744573564,4,left
12.72,-0.1728316961688345,1.3399756147597708,0.03564287297491155,1.1116721317672011,3.067380483444812,-0.3558874232832978,-0.3088223858129905,1.1270026675047906,0.25849129678306026,4,left
12.725999999999999,-0.16692570886821767,1.3231683951251774,0.0685416787462845,1.1152718119327911,3.0754220419337024,-0.35667282040944753,-0.3081683066391707,1.1287450426087005,0.26069736816732086,4,left
12.728,-0.16124379409902534,1.3147570081720183,0.11302229533689688,1.1153875949680065,3.068076873380101,-0.35501175111322925,-0.30766700347962417,1.1307875343040341,0.2627021138472675,4,left
12.731,-0.1507119859863073,1.3115069740651515,0.16842711275169278,1.1084456639314042,3.076618606952564,-0.3588309966557629,-0.30996306518997674,1.1227338156689193,0.2540962224272483,4,left
12.732000000000001,-0.13118708887053132,1.3113209216675639,0.22602991061973474,1.1242263573435558,3.0644030511661695,-0.35174584508860995,-0.305686803977653,1.1375092942918503,0.2700265797706639,4,left
12.735,-0.11115714522832967,1.3173334186774825,0.2739112232979183,1.1007052857380009,3.0808767941009396,-0.3619221999433331,-0.31118148835868586,1.118573426057286,0.2495764911194263,4,left
12.735999999999999,-0.09593584931796739,1.3256858702851777,0.3093231830521698,1.125774417100544,3.0636413691660134,-0.3511470222415626,-0.3065931877969585,1.1343663598613207,0.26664900947719916,4,left
12.74,-0.08122871249805069,1.3440862333390338,0.3269838746575524,1.1112967653400239,3.0730854553096676,-0.3572578097457054,-0.3067223802595479,1.1339972716006803,0.26619154111530796,4,left
12.741,-0.07375687563600461,1.3741709015106094,0.3343226216366315,1.0987837120388395,3.083775014545304,-0.36309661013336214,-0.3154536894191426,1.1036941743245738,0.233617375435469,4,left
12.744000000000002,-0.07227276882803318,1.404442345132186,0.33873462746479255,1.1534905138907612,3.0411640702520257,-0.33847726204713313,-0.2939884306255456,1.178104584704097,0.31367989554445247,4,left
12.745,-0.07539986574078614,1.4629185130467637,0.31120261297508434,1.0520486611319,3.1194335630728025,-0.383966504182371,-0.32957884384666325,1.0547492345043192,0.18092785900412317,4,left
12.751,-0.08165963868847217,1.5152116948843495,0.28105834489728315,1.1822991812066412,3.0191005606837127,-0.32559228215277525,-0.28263658656980406,1.217450250271533,0.3560328970234096,4,left
12.752,-0.08422133683248867,1.5292345052055947,0.270163479998828,1.073565827990389,3.1027953903321666,-0.3743133478312518,-0.08556326423627725,1.9005473259082506,1.0908671452128407,4,left
12.752,-0.09795659739123551,1.5909605398960895,0.21824225920702103,1.0764933573649218,3.1007917809993906,-0.3730472121756572,-0.03862027918690097,2.0632584491163595,1.2659668406414344,4,left
12.755,-0.1254843261036801,1.6856890240240259,0.14473607496418361,1.283865631606319,2.9403433913780592,-0.2799678079423138,-0.07421686335728972,1.9398818111983938,1.1332438077111693,4,left
12.755999999999998,-0.1513849484315682,1.7578665775985571,0.08959446355310995,0.7741988925122701,3.3343981372174065,-0.5086890950342342,-0.05273283537155026,2.0143247299437625,1.2132262688026985,4,left
12.76,-0.16805294762762774,1.8375265028085228,0.044330572195602484,1.6192294069066109,2.681115921423393,-0.12946676776452018,-0.06150084455042566,1.983982313391936,1.1808025109577227,4,left
12.76,-0.1733517657030858,1.884102455860745,0.025072083641890067,0.5046578679256561,3.542786801318724,-0.6296677042027254,-0.06157733500117847,1.9836473244636401,1.1801347119225514,4,left
12.764000000000001,-0.17117382838504985,1.8917307527232272,0.022616758956188282,-4.173967411109597,7.16000207018012,-2.7292245978544742,-0.05704357223197433,1.9994317984082297,1.1974181000272024,4,left
12.765,-0.15536523673646846,1.9234716022961889,0.02111183335110687,-5.288508288156795,8.021708699650702,-3.229450262665754,-0.06251021199249232,1.9804538515926893,1.1768713238846151,4,left
12.765999999999998,-0.12241145095369117,1.9480415664721842,0.029189159852971054,-4.443510970306377,7.368387805555914,-2.8502011845808575,-0.05819728100660924,1.9953412680537577,1.1926330163164436,4,left
12.769,-0.07849042811458866,1.939508501065545,0.043013093615279496,-4.953190247467397,7.762427839256823,-3.0789122831198643,-0.060629803689474834,1.9871075876570594,1.1845949253094925,4,left
12.769,-0.02668662045226463,1.9186222460708118,0.05338475510623358,-4.745708094439709,7.6021077533804995,-2.985921652743819,-0.05988225632532514,1.989358020004086,1.1856046247103313,4,left
12.774000000000001,0.02785734375830852,1.8747061304973458,0.05376280886859049,-4.743017091997299,7.599828084436501,-2.984464526910203,-0.05954270589612624,1.9909531646114194,1.1890517239530731,4,left
12.775,0.08851932913191242,1.812722930609596,0.05166877352256199,-4.851411226438629,7.6839187258743715,-3.0334594193514848,-0.06038354767492006,1.9877051065290998,1.1841778475879101,4,left
12.779000000000002,0.15942504853942138,1.7457127408926294,0.05978302958106282,-4.721498606328934,7.58319157964268,-2.974812540997867,-0.059390116841947276,1.9911457047580734,1.187867118243357,4,left
12.78,0.23706550537479967,1.6693096341993345,0.07706325381196796,-4.822794459361093,7.6616311343387675,-3.020419395887523,-0.06045574548394726,1.988070866601903,1.187118059963139,4,left
12.784,0.31851418397056047,1.5917237990680313,0.10127276491174655,-4.7677979646533055,7.619358654960686,-2.9960342579491903,-0.05924849936733933,1.9908407116965547,1.1842502672933857,4,left
12.785,0.39766987576446566,1.520003442077876,0.1316491989529601,-4.781244999436072,7.628957941311979,-3.001118735618226,-0.06061706585157299,1.9882079841775073,1.1901412981832196,4,left
12.789000000000001,0.4755253355500997,1.454604625714603,0.17002554157488564,-4.7941129077840134,7.640280603720225,-3.008529177030749,-0.05931629931400588,1.9904656952965396,1.183271185813586,4,left
12.79,0.5560470387846159,1.3992186974421639,0.21953486664263627,-4.771019817403619,7.620739704998562,-2.9961590786350425,-0.05996195798720496,1.9895294033033144,1.1876364807168496,4,left
12.796,0.6356017851453428,1.348395929335167,0.2758609001975627,-4.792964773653344,7.639051467257027,-3.0076068607835977,-0.0608478429003959,1.9875775578698405,1.1901690267688325,4,left
12.797,0.7153052223237322,1.300076696346926,0.3340812876321163,-4.777171691949073,7.626852327526018,-3.000533317218565,-0.05757817312518692,1.9940075157243722,1.176815400832318,4,left
12.799000000000001,0.795066103218035,1.2597031888252024,0.3886422740494469,-4.787034674454,7.631983099380092,-3.0019924928272514,-0.06349854026677533,1.9825825831385444,1.2021161538922625,4,left
12.799000000000001,0.8701648541530529,1.225477993149735,0.4332835305665197,-4.78024031113093,7.632433046930605,-3.005724464986967,-0.05594778736549345,1.9970721303665822,1.1694354347378093,4,left
12.802999999999999,0.9398947286317644,1.1982234785238606,0.4694006371955143,-4.786606396637029,7.628845610936913,-2.9984647232057933,-0.06223042410882805,1.9850528072519733,1.196800667137082,4,left
12.804,0.997778988026501,1.178665939484207,0.4926525564723075,-4.780520268828052,7.633213069584404,-3.0065186732497606,-0.062092311392939845,1.98525806299869,1.1959339274237923,4,left
12.808,1.0397044737007715,1.1640876386719423,0.5027490303888007,-4.782931283129102,7.629831916615126,-3.001367782340431,-0.050027105778509176,2.008494935113899,1.144089200300888,4,left
12.809000000000001,1.0695161231932193,1.1563631743250553,0.5091119812926255,-4.790492541414277,7.631165284710926,-2.9993919056109206,-0.07963687065100358,1.9515571551571336,1.2716996346421965,4,left
12.812999999999999,1.0811526337596034,1.1549465505851444,0.49924463071863184,-4.766370199870953,7.632283265029172,-3.012072299879173,-0.03055788509126213,2.045893541006426,1.0600466531988624,4,left
12.812999999999999,1.0783790685399084,1.153316420761358,0.4820844192026584,-4.809492258738851,7.628954947878532,-2.987829223417574,-0.09528960266787234,1.9214933670125502,1.339241263619164,4,left
12.818,1.0761562486795733,1.1549289888034715,0.4783706198478388,-4.754475458291122,7.633510241157553,-3.01912067721928,-0.3670079669465227,1.3992021672307104,2.5110579052213913,4,left
12.82,1.069838270687443,1.1680845458826798,0.46133246373396225,-4.80027375307507,7.629593289677573,-2.9929326895704293,-0.4317475913784876,1.2748210020732853,2.79025865867788,4,left
12.82,1.0475053118099715,1.182643176411216,0.43633065977574065,-4.79956502796833,7.630136543757309,-2.993891112058316,-0.3826596078705653,1.369116024884105,2.578583541053392,4,left
12.822000000000001,1.015266402813623,1.193559278457779,0.4279617486393206,-4.710464428257826,7.6361707923153705,-3.0430036367803215,-0.41226768909040673,1.3122440854014894,2.706246312913259,4,left
12.823,0.9781334388492752,1.2065047824595254,0.42255740758611127,-4.928866862182776,7.6208243659795,-2.922000630280166,-0.40022762367970544,1.3353973157118455,2.6543105221951606,4,left
12.83,0.9277144916675448,1.2165283304398593,0.42775879425741054,-4.566863737599656,7.646401895538183,-3.122699581419459,-0.4000332561248012,1.335681083782048,2.653564152842425,4,left
12.831,0.8930922092915954,1.2215297673241206,0.43931668397451,-5.044384614916905,7.612655188468861,-2.8579792981588166,-0.4063982828098514,1.3236304156827234,2.68081729637992,4,left
12.833,0.8850689358708764,1.2240542650635002,0.4411663321018468,-7.048965103346528,7.471627684665346,-1.7471074873554049,-0.39876332220291333,1.3380497156031743,2.648172626803136,4,left
12.833,0.8572278876384469,1.2235795203542212,0.45497180666908327,-7.526647507020787,7.4379359978057416,-1.4824296565018127,-0.4047240451275854,1.3268435050380982,2.673598151464145,4,left
12.834000000000001,0.8157450705117909,1.2204142883864895,0.4790221941542887,-7.164469625091144,7.463453993986809,-1.6830826696119696,-0.4015174141081004,1.332899633038489,2.6598902235132016,4,left
12.839,0.7837578773038378,1.2127067806921095,0.5017905139358776,-7.382805579199597,7.448084945291523,-1.562062220085176,-0.40218429572660025,1.3314051102504592,2.663007798725153,4,left
12.84,0.752902041587235,1.1930331785613193,0.535257247568913,-7.2942847039895975,7.454316617283133,-1.6113270479414852,-0.40321633754735403,1.3301048283413346,2.6666808706427574,4,left
12.842,0.725000120567953,1.1628863502101487,0.5706718806512365,-7.2923286466422725,7.454435065204965,-1.6119577355505572,-0.40143182366681707,1.3323589893337788,2.660324888165575,4,left
12.843,0.697732873446927,1.1289814979416022,0.5975440400442078,-7.339915348176333,7.451127219345784,-1.5862396816048756,-0.40320027262939434,1.3304017294253936,2.6663071523567545,4,left
12.847999999999999,0.6701169543670653,1.08957347390511,0.6219491113215354,-7.283117686059857,7.455075945824142,-1.6170631440493197,-0.40196398844174697,1.3316291244095233,2.662286412440625,4,left
12.847999999999999,0.6403708460304842,1.0480891732302307,0.6441352380657233,-7.327008119904644,7.4520093969207934,-1.5930220630459213,-0.4023620908292457,1.330853225447083,2.664015213568077,4,left
12.852,0.6045921587387972,1.0086104319549158,0.6644922645476234,-7.304415103193565,7.453648137481281,-1.6061041752305383,-0.40295378459022785,1.3318482731961754,2.6641336886293434,4,left
12.853,0.5667627322030554,0.9692541084386632,0.6848810237963783,-7.307050120950455,7.453303812045897,-1.6028339938715803,-0.40138119625575186,1.3299990150495997,2.662912124653578,4,left
12.857000000000001,0.5246442593337586,0.9287735162264062,0.7036449030521914,-7.317949174178079,7.45281349730828,-1.599913391239079,-0.4036758266436886,1.3328556745687739,2.6645130901182847,4,left
12.857000000000001,0.48018183391082186,0.8883730646426109,0.7220160626241242,-7.30144617969895,7.453633064565496,-1.6052300622787936,-0.4012978708760978,1.329680384902744,2.6631000389892345,4,left
12.863,0.4390532789558419,0.8496070997443341,0.7386511268706968,-7.316116965642123,7.452874339735861,-1.6001528441886896,-0.4026722726035513,1.3315126739741237,2.6639190499153758,4,left
12.864,0.3946845710742512,0.8091240037240429,0.7499568690093509,-7.309396907364039,7.453349125953722,-1.6039037309309063,-0.4037072283798878,1.3333849968395022,2.6639765558000166,4,left
12.867,0.3486671021397666,0.7700699656609864,0.7601301077546323,-7.303847879283091,7.453231404785615,-1.6013139465087454,-0.3989846189724824,1.325572426500051,2.6628868483553436,4,left
12.867,0.3123853358192353,0.7333632940363178,0.7732312589119322,-7.323275828433625,7.45302748870494,-1.6034945948753632,-0.40775160528494725,1.3400395886100989,2.664948003066973,4,left
12.874,0.28132343641835145,0.6927767569473012,0.790120990452919,-7.292677160906864,7.453443785627467,-1.6011358455244271,-0.3965077017178855,1.3214415976715013,2.662356874313814,4,left
12.875,0.2518171719054412,0.6523412805487784,0.808831200601573,-7.325596295105282,7.45298054523216,-1.603484798064643,-0.40588778853376406,1.336975389998115,2.6644932739435236,4,left
12.876,0.22866070759531004,0.6084929891678248,0.8251290312515425,-7.306101643723848,7.453279126221904,-1.6023890305565354,-0.40562074345678933,1.3365937936580083,2.664372137438606,4,left
12.877,0.2124183456114182,0.5635313525525736,0.8431434355405113,-7.2916467978122,7.453378416081243,-1.6001456804127863,-0.38779606627319485,1.3068241940316985,2.6605781728085462,4,left
12.882,0.20212331650986542,0.5240726965344542,0.8630203580935097,-7.35875277359528,7.452688841878013,-1.6078405756586724,-0.43161334798217754,1.3799536886436836,2.6699445499860324,4,left
12.884,0.19428288568827526,0.4760631232583748,0.8781317243680691,-7.233612219533905,7.4540098532757,-1.5939505657239805,-0.35896795280246696,1.2587136256761,2.6544280382548933,4,left
12.886,0.1904590348712994,0.44278213664583876,0.8875098240716169,-7.394451314531402,7.452309226503845,-1.6117046110796092,-0.4547780068418943,1.4186199148082008,2.6748684538694523,4,left
12.887,0.1890609960963586,0.4354104797959285,0.8882775686216612,-7.260116659390086,7.453724021538587,-1.596910392171988,-0.8569270349523689,2.0899886919866124,2.760544597597943,4,left
12.888,0.1893846682658029,0.40757573439920863,0.8836760769109582,-7.263983658041095,7.453690064407242,-1.597193049905891,-0.9527189336772786,2.249863988131165,2.780938015080472,4,left
12.890999999999998,0.19689628561820877,0.3688182806021722,0.8876380136305484,-7.5193644433339735,7.45099776751109,-1.6258042177162084,-0.8801019179587053,2.128672372767078,2.765494969549123,4,left
12.892000000000001,0.20489839634119694,0.3380729693243695,0.8999867629212142,-6.891407781432168,7.457590629484065,-1.5556052374034877,-0.9238957252570623,2.2017617907934524,2.774800575245068,4,left
12.895999999999999,0.2149655553245617,0.29695992237029434,0.9068631662966538,-7.93264310176432,7.446690317387445,-1.6719855489555857,-0.9060696872014221,2.171989874934297,2.7710030959311656,4,left
12.897,0.2249718412698476,0.273352576331367,0.9068731614454137,-6.559274493933671,7.461027373506347,-1.5184521082371363,-0.9058481906261137,2.1716860243069966,2.7709998573863395,4,left
12.9,0.22701605206690298,0.2683029071820887,0.9064378051477493,-0.7948016553355162,7.521402542012348,-0.8739757942741927,-0.9151288466162313,2.1870500890096283,2.772878876346962,4,left
12.901,0.2369137788984088,0.2417847163487402,0.9049948776044331,0.5784848177152142,7.535632137739503,-0.7203439549114911,-0.9040265811878958,2.168693882579219,2.7706543946088313,4,left
12.901,0.253086650146472,0.2105735837690434,0.9022202527317527,-0.4626370377323289,7.524898750693295,-0.8368698130354602,-0.9126532943008642,2.1829215780914146,2.77235242129695,4,left
12.907,0.26504137801214755,0.19022501436262695,0.8978273009679959,0.1652662869034639,7.531356393423289,-0.766572880889322,-0.9079914683052555,2.1752127964794594,2.7714200918588023,4,left
12.907,0.2808613894320916,0.16856992786876063,0.8884622217971161,-0.09022963297228587,7.528648362976201,-0.7951163191788634,-0.9091444135609479,2.1772864923270934,2.7717829779223595,4,left
12.911,0.29763600923831823,0.15057675255370004,0.8766030680983844,-0.0937288950227711,7.528895396780648,-0.7957353800883167,-0.9101374032507008,2.1784677338406784,2.7716147118901837,4,left
12.911,0.31308553933933775,0.1359962247277816,0.8638730440201596,0.039982415895581755,7.529709439622465,-0.7803061660173058,-0.9084166346252975,2.1764142746438084,2.7719028362711673,4,left
12.915999999999999,0.328454211920558,0.12360266694047203,0.842042650472689,-0.12011593320859239,7.528854206021832,-0.7988832326284643,-0.9099049156003876,2.177894426319769,2.771416444639516,4,left
12.917,0.341303810295674,0.11553310351289894,0.8112016594339084,0.004482107937851393,7.529351435736704,-0.7842839641035866,-0.9089751008204983,2.1771425198634855,2.7718588935167414,4,left
12.921,0.35592404863702665,0.1099272443126969,0.781223092809386,-0.06274632807356173,7.528993631322591,-0.7920881832233793,-0.9095723889371615,2.1781469294067746,2.7719916287326907,4,left
12.921,0.3696254018808487,0.10762937479552057,0.7538844914237957,-0.04701343975073043,7.529843735696916,-0.7908964976263315,-0.9087782957061263,2.175336132226017,2.770634583564438,4,left
12.925999999999998,0.3805735766565397,0.10534297052137967,0.727258585158377,-0.03022243154429966,7.527815838262925,-0.7871918371427549,-0.9102666034048943,2.1812143361171463,2.7736665047902473,4,left
12.925999999999998,0.3940266943222509,0.10536740133797673,0.7004658489619366,-0.059291056146461074,7.531304277211266,-0.7935885431119902,-0.9079704729441027,2.17231867235017,2.769127202635566,4,left
12.931,0.4070650361041401,0.10623110690340443,0.6720297736394114,-0.03255740045891312,7.526932535795201,-0.7867392967054156,-0.9105188146935446,2.181969520710469,2.773987634004232,4,left
12.931,0.41663613965252455,0.102316316879075,0.6433603671763485,-0.05018964890812715,7.530454799614703,-0.791787705404837,-0.9090474501212118,2.1763950905232305,2.7711795124731164,4,left
12.935,0.4240894937081847,0.10065962789596752,0.6140557669663809,-0.04166588396001421,7.530578004013938,-0.7908616819674594,-0.9075560016849551,2.1712172615734016,2.7687113163282415,4,left
12.935,0.4284396812825416,0.09943203257642402,0.5820463790417439,-0.045065051607604774,7.52366327778944,-0.7855338949324441,-0.9137944902293198,2.193395578917136,2.779451734430588,4,left
12.94,0.4326026946759417,0.0968088254041756,0.5533889490313892,-0.041975784482835996,7.539414136642755,-0.7982329112552544,-0.9022395280000903,2.1522896735527834,2.7595366817853613,4,left
12.940999999999999,0.43922748979409504,0.09907430466899123,0.5307802423274437,-0.04767201311058682,7.5159071720214135,-0.7794096694444717,-0.9170950952519412,2.2051026142836574,2.7851123163301206,4,left
12.946,0.4423718459048439,0.10162582414158736,0.5099375051745616,-0.04015696922804204,7.540979050768026,-0.7993145511574888,-0.9046847450806726,2.160997476789332,2.7637592041730024,4,left
12.947000000000001,0.4503710668126535,0.10273795210398012,0.49332210608524224,-0.044484282083151,7.526496079220726,-0.7878113918132932,-0.9049963325736534,2.162152651101679,2.7643306393823375,4,left
12.95,0.4664283653224542,0.10399894511193372,0.4808045301183875,-0.05141160938824094,7.513967488203089,-0.7782543902862213,-0.9287630389182848,2.24641782587957,2.8050723985568133,4,left
12.950999999999999,0.4815732446318715,0.10401308601681483,0.4677161081585761,-0.025231705488647466,7.568733075203742,-0.8205460877014874,-0.870365939549751,2.0393331262072882,2.7049397269213244,4,left
12.955,0.5084163983166081,0.10455089669158249,0.4523714408755022,-0.07357817444733947,7.467181175152561,-0.742091611406937,-0.9671938539171903,2.3826920025041627,2.870965657565875,4,left
12.956,0.5304116460690959,0.10490702055067594,0.4419002761246312,-0.011232059914558057,7.597572410636372,-0.8428024286827676,-0.8394681202449146,1.9297947674727913,2.6519714250754776,4,left
12.956,0.5359954027849728,0.10420434267421513,0.43984501757503985,-0.06340490404204432,7.488727324310427,-0.7587358273474742,-0.30314268646052955,0.028706994954586007,1.7325404284939494,4,left
12.959000000000001,0.5589923709994629,0.10492423158082567,0.4259968934276129,-0.06232377463862263,7.491639220794881,-0.7610529049405721,-0.17537259531084495,-0.4241949938087305,1.513496086521731,4,left
12.96,0.5878136143637961,0.10709715810844218,0.40044061358553085,0.03858147723293523,7.699273276167991,-0.9211807163744232,-0.2722915038323074,-0.08083502390946491,1.6796298898523137,4,left
12.964,0.6049316611780309,0.11005184365269746,0.3808987192436911,-0.20918739923149055,7.188998893412367,-0.5275694396774898,-0.21376034192670948,-0.28790342346191233,1.5793277813493618,4,left
12.965,0.6238381187152421,0.1153902171092801,0.35926422887504494,0.2016572622011628,8.035010299581051,-1.1801984360307858,-0.23768186838834848,-0.2036848812144423,1.620281525047886,4,left
12.97,0.6344467250997361,0.1189283466238922,0.3438987013483016,-0.3403339316553013,6.9191719960275755,-0.3193867871586696,-0.2378701183247724,-0.2024491256196127,1.6206586051612963,4,left
12.970999999999998,0.6350626611583693,0.1205537685400395,0.3413631241549352,-2.6161289726370134,2.2349041306326844,3.2936867914986565,-0.22546866304226168,-0.2466539869476329,1.5993745998716675,4,left
12.972999999999999,0.6366792457422686,0.1290570985613812,0.32962476373331967,-3.1582533133436996,1.1191423723034477,4.154496863081787,-0.24052514497718183,-0.1937614897774102,1.6251431644128849,4,left
12.975,0.6334349257072904,0.1392899084200421,0.31503273462691717,-2.7472022480705833,1.9650716149329317,3.5018765459079306,-0.2284939686557858,-0.23486506056965167,1.6046588377188233,4,left
12.975999999999999,0.626750450577704,0.14455180788850336,0.3099116337467508,-2.995137172110663,1.4547634200083086,3.895463774363788,-0.23545745322483413,-0.2128395192934737,1.616353463400673,4,left
12.979000000000001,0.6218976703921067,0.14993285429672637,0.30753752403854134,-2.8942544933388255,1.6626769579011085,3.735381217901372,-0.23317475518718891,-0.2176705651594607,1.6127382424684016,4,left
12.98,0.6140349322704874,0.15368252889251094,0.3073558731636781,-2.8928206397463043,1.6649907002240918,3.733000783811849,-0.23218997796587446,-0.22375993176845732,1.6108124646872375,4,left
12.984000000000002,0.6049904981232501,0.15426108800284521,0.30612640662548907,-2.945742737046618,1.5570006933472098,3.817130991580278,-0.2350725649405948,-0.2135649691438435,1.6157523122481414,4,left
12.985999999999999,0.5963061266572942,0.15305968881038745,0.30337413803452895,-2.882346329066145,1.68654363631991,3.716390855146412,-0.23111786695777042,-0.22276292295926764,1.609412428607261,4,left
12.989,0.5879110628978806,0.14696945455173216,0.30607531119186215,-2.9317108883476712,1.5853518381268246,3.794794805467528,-0.23579740482590272,-0.21719069053884868,1.6164295080363393,4,left
12.989,0.5831788137603142,0.13980149485292642,0.3145108947329113,-2.905131139240571,1.6408595070996579,3.7526738656854373,-0.23072355191487892,-0.21874368648515963,1.609230832798648,4,left
12.994000000000002,0.5768537483249185,0.13268635433981488,0.3241722287842105,-2.911107157575364,1.625963936237464,3.761931244974999,-0.23529212186911908,-0.22006584687497638,1.6154642803251966,4,left
12.994000000000002,0.5677333541605467,0.12233522179798527,0.3291723707465968,-2.9183446843074083,1.6155460465968807,3.773808515379833,-0.23308161747846412,-0.2177817050725664,1.6125984666475865,4,left
12.999,0.5582087098234618,0.11421997252129648,0.32846685214997035,-2.9059085970276444,1.635643196312705,3.753595425578328,-0.23027193360462087,-0.2190140375740644,1.6085777607932719,4,left
13.0,0.5451075176504574,0.10899442581971372,0.33017709148188323,-2.917543489863929,1.6160811994686441,3.7724389955100026,-0.240659752398162,-0.22037851189622779,1.6229016921698634,4,left
13.003,0.5302902361635397,0.10307234040427174,0.3365403463233573,-2.909868789316478,1.6319158369512508,3.760258893969792,-0.22195225807610122,-0.21587775618983657,1.5972925406550236,4,left
13.004000000000001,0.5143501244838142,0.09741182827206543,0.34425279088860256,-2.9128861160477255,1.6175687696386398,3.7643591655792377,-0.24572589580090037,-0.2225315587592375,1.6297511657904875,4,left
13.008,0.4959174312469981,0.09354312454815517,0.35353726075780834,-2.913651703317862,1.6345891150520422,3.767149181046622,-0.22598549171356147,-0.21660222537992796,1.602836758843532,4,left
13.009,0.47564595375608426,0.09314975751750985,0.36062827732316693,-2.910674527155538,1.6129743604335505,3.7600750253481907,-0.22642488924837592,-0.21708781989355697,1.6034020182032012,4,left
13.013,0.4571493717814624,0.09404214278619691,0.36499835671932623,-2.9141899034442837,1.6353124951761462,3.768157892981104,-0.26424366417974005,-0.22779066210999555,1.6550284406387124,4,left
13.013,0.4423584713462761,0.09624429707770092,0.37012184770635526,-2.9116196751240926,1.623516601601949,3.7626321276793995,-0.1714607591982245,-0.20090110739117156,1.5284312281268018,4,left
13.019,0.42433407450220556,0.10150901457307072,0.3728986698838307,-2.912074826294159,1.6078457347648896,3.762108561955105,-0.3252152032451541,-0.24576503803573285,1.738190659287615,4,left
13.02,0.41142391046344184,0.10371092859150732,0.3723352749096873,-2.914453700118254,1.6674212545784302,3.7713381298057764,-0.1224578072088745,-0.1864514591596689,1.4615951459267411,4,left
13.024000000000001,0.4072903366228773,0.10346796577908846,0.3727826681039892,-2.90925415480206,1.5585643810088625,3.7529713357713517,0.7286655374555502,0.0625328571849107,0.3004911619842842,4,left
13.025,0.39400218410428467,0.10736279380091031,0.37474070637782636,-2.9161059999804606,1.6979760524365686,3.7768333788485835,0.9313926394215967,0.12192555202825467,0.023948995977826362,4,left
13.025,0.37571361053836827,0.11122327747610856,0.37571257655251433,-2.9103167319322307,1.58173754886688,3.7568027494851064,0.777695328600982,0.07688968367976493,0.23360895199691778,4,left
13.027999999999999,0.363488014349156,0.1134321337427093,0.37722484715432575,-2.91074220488585,1.5843136329649559,3.7577714587856055,0.8704044260340318,0.10405249963009094,0.10713769130095396,4,left
13.029000000000002,0.3548853253178002,0.11629403408200832,0.3786823091638323,-2.920893750172306,1.8078240700109078,3.7945572436756656,0.8326547908761519,0.09300312162405952,0.1586506516175696,4,left
13.034,0.3490386897785668,0.11731574049226534,0.37864876537295444,-2.8956312647463553,1.2591375210713456,3.703648539735844,0.8321854507187958,0.09284195491313679,0.159256337815751,4,left
13.035,0.3460015866761802,0.11978118409711397,0.3805654942567227,-2.9375912507418227,2.1687073905801837,3.8544959523028957,0.8518736604746392,0.09864332192875949,0.13244704748776365,4,left
13.038,0.3454988629438238,0.12308782721937532,0.3815205539417297,-2.88224967841576,0.9690082963488333,3.6555346758904763,0.828270812693635,0.0916957773412965,0.1645973058234851,4,left
13.038,0.345887897475609,0.12412686922528014,0.38084598908554423,-2.6502344624443435,-4.067588723289101,2.820840073879338,0.8466839901936873,0.09710533342549021,0.13949943882192758,4,left
13.039000000000001,0.34848393641291825,0.12707514662027783,0.380946547512657,-2.5949438337144457,-5.267350695516775,2.6219599131840083,0.8366578608398032,0.09419113235112671,0.1532166738006448,4,left
13.043,0.3532492343932626,0.13065678826143362,0.37424614967180664,-2.6368487153261526,-4.357712793114081,2.772719560213652,0.8391770546159638,0.09485062303313985,0.14965090261791175,4,left
13.043,0.3568592409491663,0.1359986654431631,0.3648959706218115,-2.611565219992835,-4.906373478846162,2.681777490568456,0.8413914672477105,0.09563546008423608,0.14685260180477366,4,left
13.048,0.3558200273387358,0.14292846595519693,0.36088750305335704,-2.621899692351386,-4.683088681157436,2.7188543631990294,0.8373457041775784,0.0942831029755584,0.1520986903941738,4,left
13.048,0.34831975024743445,0.14603693802225984,0.35680671538974057,-2.62193163947385,-4.680027091029638,2.7191967430428403,0.8412141220086732,0.09554966811951088,0.14703918058116633,4,left
13.052,0.3424737608364971,0.1496707760045291,0.3542545511984271,-2.616706555686216,-4.796961723311766,2.700064156987052,0.8383402018200556,0.09470849175360625,0.15096142256811695,4,left
13.054,0.34286714062687274,0.15191961286403716,0.35292436880409667,-2.6229966559557534,-4.656856838500479,2.7230319189148857,0.8403631549077375,0.09505521095354996,0.14779850267110606,4,left
13.058,0.34660183238504494,0.14953077721493419,0.3509776332147775,-2.618039372685679,-4.766012847664543,2.705051023002521,0.8386044674083202,0.09510240189647273,0.1511195241906821,4,left
13.058,0.3528469096584743,0.14969017133840895,0.3523640962934351,-2.6209009010893984,-4.707032536433266,2.7150484459877493,0.840542080166382,0.09483091303678676,0.1471008338663875,4,left
13.062000000000001,0.36209118537328033,0.14945525938071622,0.35169106716129006,-2.619801767061648,-4.720785966719902,2.712051279976014,0.8386043085758601,0.09515780441992402,0.15121077188579107,4,left
13.062999999999999,0.37574357971217176,0.14638124655397244,0.3497760380061161,-2.6199093650236884,-4.735885742782434,2.710787702554506,0.8395221988874395,0.09490972176425316,0.1491108813143192,4,left
13.065999999999999,0.38892044084807176,0.14512535931966908,0.3495074054747007,-2.6201386661849746,-4.709492853415783,2.7136397219253,0.8413128109808163,0.09498901998058144,0.1459386848385314,4,left
13.067,0.39903676799324994,0.14364309832916208,0.3455347807761959,-2.619780875668957,-4.734340346939382,2.7107359624916922,0.8351120572645039,0.0951219188386546,0.15759283341453156,4,left
13.073,0.4073418119719594,0.14296313757909096,0.3416638539393581,-2.620570800439783,-4.717348597293667,2.7135628867902915,0.846316190380326,0.0947887264895841,0.13638176220500947,4,left
13.074000000000002,0.4111301017416129,0.14200949276979552,0.33866116797838763,-2.6187249586430448,-4.725697044155219,2.7099245921124764,0.8319957437043557,0.09523616613377262,0.1635285466913615,4,left
13.077,0.4145194209896796,0.1351140502899727,0.33443575372952083,-2.6221624100456804,-4.723571636044856,2.7154301529271496,0.8439244124139416,0.09485448687908951,0.14090003626354247,4,left
13.078,0.4223581125144516,0.12584988196953645,0.33165744721510637,-2.617221226939831,-4.7226813795934675,2.7078892146226963,0.8437042693375433,0.09489560071827077,0.1413758509188751,4,left
13.081,0.4330885185609865,0.11764175978660163,0.32790119075244556,-2.622453851498533,-4.724387199787553,2.715803097588626,0.8206215286310516,0.09552296308441678,0.1849756028239708,4,left
13.081,0.4455860599481146,0.10735940028835023,0.32380184107909654,-2.6194855713873952,-4.722206836369935,2.711428016714408,0.8772352169045954,0.09394415401497266,0.07797039896577214,4,left
13.085999999999999,0.4590717239994967,0.09290518046619864,0.3166378346963341,-2.6166537971615336,-4.726243787660879,2.7066770852221964,0.7833980614443414,0.0965720959347103,0.25535358609604664,4,left
13.087,0.46788402143485647,0.0828030478464474,0.3088016789482976,-2.6285998967769935,-4.718261570541122,2.7258666430564586,0.9071666970307235,0.09310394380402616,0.021382291436292195,4,left
13.091,0.4711204344916352,0.08044644316901783,0.30737682108085296,-2.606526639499874,-4.731315687863207,2.6905682014936936,1.4268290350651704,0.07859575579744404,-0.9608716780213942,4,left
13.092,0.47779719496976536,0.07128402578747789,0.30033748029118223,-2.634851322299893,-4.7149471133886545,2.7358289701582166,1.5506114472081087,0.07512821881615017,-1.1948790196433823,4,left
13.092,0.4874202128028365,0.0551154521368551,0.28947621546515323,-2.611212376286053,-4.728451596329853,2.6980681515542524,1.456759091327371,0.07775705560428232,-1.017448126059056,4,left
13.095999999999998,0.4952644571344493,0.041638595122725,0.282942523083948,-2.6118227416370914,-4.728699761856943,2.698991991526078,1.5133681558431427,0.07617246636717563,-1.124469333647006,4,left
13.097999999999999,0.5029900753741813,0.0287156821785588,0.27653856990700987,-2.6569928846605393,-4.700940266593673,2.77131893106632,1.4903327027138284,0.07681343091182152,-1.080935376974581,4,left
13.100999999999999,0.5111025180603468,0.015016294043044706,0.2741276381141628,-2.5460060785040994,-4.768442748768868,2.593661547211503,1.4900093749479146,0.07683289027697461,-1.0802755245009914,4,left
13.102,0.5194472761045393,0.002200412707860335,0.26871394925177505,-2.7300166235479493,-4.656712499395907,2.8881991873673285,1.5020871420810944,0.07647616442255917,-1.1032019117622256,4,left
13.107000000000001,0.5246881868236302,-0.004618219426926604,0.2617426880184718,-2.48731044277229,-4.804062547289565,2.4997036534756365,1.4876167848115873,0.07690636898337924,-1.075716027691534,4,left
13.107999999999999,0.5262632653463348,-0.006216551066602537,0.26014578226078433,-1.4684896266167635,-5.423517468465123,0.8689026357584062,1.4988882751559072,0.07656647484254682,-1.0971522956802269,4,left
13.109000000000002,0.5294059501405208,-0.010703455680891677,0.2518921936966194,-1.2257832223557368,-5.5709317114561925,0.4803868961589325,1.4928100905572603,0.07674675349008131,-1.0856075653241155,4,left
13.11,0.5312173136928708,-0.012459771858173641,0.23986133348676406,-1.4097940117698413,-5.459132021159572,0.7749464060778444,1.4941952757109103,0.07672947366215457,-1.0881146057237534,4,left
13.110999999999999,0.5273568431054989,-0.007046313774311696,0.23042850532374548,-1.2988072884600865,-5.526608037978955,0.5972973066012814,1.4958177489872642,0.07661598693077384,-1.0915380747625343,4,left
13.116,0.5239610073238394,-0.0007929974170894985,0.2216077597665405,-1.3439766482156381,-5.499079033031835,0.6695517924829848,1.493008891057302,0.0768114698711021,-1.085615338311001,4,left
13.117,0.5231469228745261,0.006949656796999399,0.21282435577758402,-1.3445887114213542,-5.498831337954588,0.6706315670807992,1.495650513426489,0.07659430609815919,-1.091360696601118,4,left
13.12,0.5201214750427514,0.01622735186313517,0.20363541123862344,-1.3209473209758904,-5.513046729614196,0.6326471366920237,1.493876149450501,0.07675806813683575,-1.0874073830063393,4,left
13.120999999999999,0.5190067042149289,0.026216389021353027,0.19768538579244566,-1.3492744504781158,-5.495970306838819,0.6781306174646555,1.4946429927843237,0.07673771257601662,-1.088851610845933,4,left
13.125,0.5239966825963418,0.03713342746451061,0.19140268445743863,-1.3272001141700875,-5.50932972053227,0.6427360028010913,1.4946795324364126,0.07652477230416264,-1.0900324256156368,4,left
13.125,0.5299624607345402,0.04295519525848712,0.18608199840303993,-1.3391441665252346,-5.501955633847347,0.661734492455461,1.4941740666192107,0.0770230821842177,-1.0865362915459968,4,left
13.13,0.5351021821173023,0.047652082921497696,0.1831551822445259,-1.336319079539874,-5.504034133903244,0.6575993490080239,1.4948301496517709,0.07628249203333688,-1.0915667560905835,4,left
13.130999999999998,0.5410252219367175,0.057002687742127196,0.1747621008378349,-1.3333392245776856,-5.505227976614929,0.652163066861785,1.4942608441452474,0.07706830384829974,-1.0864499199272797,4,left
13.135,0.5451457333301033,0.06546581082826133,0.16851193141612575,-1.3385861100374243,-5.502793105236459,0.6613794931189223,1.4945909834642395,0.07661426041499195,-1.089409040078776,4,left
13.135,0.5434921740269085,0.07471553491307624,0.16600737947603988,-1.333633474401638,-5.505203551411389,0.6527998309035733,1.4945878756515112,0.07623082316114935,-1.0914148925524,4,left
13.14,0.5379575636827658,0.08789145506414234,0.15783169795751026,-1.3370710147523948,-5.5031086092497175,0.6582967643642401,1.4942295692523617,0.0779191418655647,-1.0819309055652861,4,left
13.140999999999998,0.5335917410867629,0.10089053939674567,0.1505535619386398,-1.33524598797709,-5.5053294122983845,0.6565846233912576,1.4949120221294945,0.07478770875941093,-1.0995540439361635,4,left
13.145,0.5295956934012571,0.11143978980632932,0.1464932263918095,-1.3359879963916068,-5.502339459329978,0.6550085037936342,1.4940602642446117,0.07880787055986115,-1.0769704004421228,4,left
13.145,0.5264351844780857,0.1206346271324748,0.14137992410486702,-1.3357019687098532,-5.506300075562985,0.6586742868985314,1.4947594914045785,0.07545205896409873,-1.0958035885974802,4,left
13.151,0.5237456019090005,0.1319507830469899,0.1377376502726482,-1.3358544243940367,-5.5021712229116755,0.6545218931931522,1.4947125430441974,0.07554347146948807,-1.0952368738379847,4,left
13.152000000000001,0.5188718281410587,0.14174773066837226,0.13448172048502757,-1.3360070163710251,-5.504410193638512,0.6573073400250651,1.4935030024194167,0.0819393566783292,-1.059569483672909,4,left
13.155,0.51575007085137,0.1489503556366233,0.12951026624400525,-1.3349447980304285,-5.50706657238384,0.6577946952729432,1.4964943878055403,0.06621892797387013,-1.1472782134195199,4,left
13.155999999999999,0.512191031341988,0.16121342138771244,0.12294857613172326,-1.3376408488894678,-5.4966297404603095,0.6525299097842456,1.4915398040959562,0.09228370407443512,-1.0018579324204917,4,left
13.16,0.5080999933857001,0.16976336887846688,0.11818001025617701,-1.3329920413808511,-5.51577072839388,0.6628580315818167,1.4980651116683377,0.057904874112582265,-1.1936519719442196,4,left
13.16,0.5064383935691571,0.17131145537129502,0.11604630118412096,-1.3388845222629726,-5.491240246103559,0.6494705848933682,1.5254379855262932,-0.086404947931251,-1.9985541925309531,4,left
13.161,0.5000047914875557,0.1798078513519414,0.11307328619644338,-1.3339934980211576,-5.511701244118486,0.6606964987942614,1.5319536809168495,-0.12078370041203536,-2.190325660031718,4,left
13.164000000000001,0.4898950325328234,0.19340979998864682,0.11140737973692907,-1.3340117579852966,-5.511219193783747,0.6602002104647318,1.527007992221895,-0.09471829605573759,-2.0449421504708347,4,left
13.165999999999999,0.48016590067840603,0.2046637539955025,0.10890517477118705,-1.343719930602064,-5.47196625798464,0.6394299879615002,1.5300086628150384,-0.1104412788687587,-2.1326164245524906,4,left
13.169,0.46771074905034504,0.21515323863525077,0.10719051782219424,-1.3199860152624414,-5.568362951594381,0.690703749857233,1.5287536370909212,-0.10403991577280014,-2.0969582082086253,4,left
13.169,0.4517672183226348,0.22735156463266196,0.11086415591251694,-1.359312363602966,-5.4085515317317405,0.6056359303377568,1.528797215329978,-0.10395681585560984,-2.0964320026079957,4,left
13.174000000000001,0.4415225717686533,0.23490954796554148,0.112540410379706,-1.307435041181797,-5.619343263679054,0.7178397830619309,1.5293725217082474,-0.10730349000689356,-2.1151588724185206,4,left
13.175,0.4386483166190855,0.23640912050379595,0.11303101316359662,-1.0897691895430697,-6.504153994328892,1.1886677314506031,1.5286368249528257,-0.10328895336600277,-2.0927413544275515,4,left
13.175,0.4262830724304536,0.24337310272454407,0.1186014732132398,-1.0378857326062658,-6.714951916382122,1.3008511675974477,1.5292828232044804,-0.10642440999182254,-2.1101809167389147,4,left
13.18,0.4064436952170576,0.25333584951881566,0.12819533075285466,-1.0771854616954082,-6.555145477457537,1.2157888309688936,1.5287934674535872,-0.10471639719520034,-2.100812121267847,4,left
13.18,0.3884150922332117,0.261745798526536,0.13902565728364566,-1.0535718657025734,-6.651498259287804,1.2671298148514025,1.5291584935506353,-0.10513770286729078,-2.1028904725419553,4,left
13.185,0.3698566012843506,0.27127670245011093,0.15291569659070162,-1.0630151764066067,-6.612352816133781,1.2461650551934058,1.5288850088017636,-0.10554101570634242,-2.1054728953491795,4,left
13.186,0.35304288839589293,0.27894889480734586,0.17045141717475248,-1.0634410845352495,-6.611696452068984,1.2460063260061356,1.529023867382843,-0.10480204239578242,-2.1010856858360842,4,left
13.187999999999999,0.33455838970785967,0.28457974174319584,0.18146877583136345,-1.0580954631000044,-6.6323617696176775,1.2568131077200235,1.5291642124808864,-0.10552833370089726,-2.1051351970616343,4,left
13.189,0.31612755284640914,0.29056870435269444,0.19118578090760396,-1.0642783865095236,-6.607684799995528,1.243762014252084,1.5285415240814157,-0.1049768370713356,-2.1025492649196496,4,left
13.195,0.30029998065855434,0.2993498294825548,0.20489184570614824,-1.0598055341157384,-6.6267831992811495,1.2540954473625416,1.5297938759369316,-0.10533806234277879,-2.1034426368099037,4,left
13.196,0.2836180410003909,0.30893393981137574,0.21179460968673486,-1.061557968474357,-6.6167159348472975,1.2481951787917294,1.527985741140129,-0.10511571834160885,-2.1038764585617695,4,left
13.199000000000002,0.2711763812158992,0.3176194228512167,0.22174542198331504,-1.0623410931763162,-6.618601224327419,1.2501332254275415,1.5298911375493471,-0.10523707104746677,-2.102767501748533,4,left
13.2,0.25812606978407515,0.32942071000140194,0.23924682424584054,-1.0599921171714541,-6.62193071691184,1.2507576464276244,1.5288052068291464,-0.10524427960683605,-2.1038419351845516,4,left
13.203,0.24335148322391326,0.3442482483730923,0.2534031440181659,-1.062494503984302,-6.616716396006892,1.2488977820995715,1.5278224063719452,-0.10501009892383734,-2.103419679914393,4,left
13.203,0.23376333603141727,0.35984846197350157,0.26535844249431695,-1.0614109579165854,-6.621164568695265,1.2512731297691793,1.532037243496547,-0.10559179110555232,-2.102779817460299,4,left
13.209000000000001,0.22334268499487486,0.37652976969667334,0.2767790284145324,-1.0596685614743306,-6.619048881385908,1.2484484740583883,1.5242415015885586,-0.10461730552952542,-2.104554485155605,4,left
13.21,0.21424630255209604,0.3947599697366714,0.28882915351651706,-1.0650074948379902,-6.618368940270402,1.251969328643296,1.5342437045805661,-0.10583164495946049,-2.1020634255025366,4,left
13.213,0.21027762414078455,0.4106545064596314,0.29949533193413136,-1.0565644828828473,-6.621325946801423,1.2477499429477765,1.5258974073323788,-0.1048324751403785,-2.104233380642186,4,left
13.214,0.2087991735048615,0.42635841642419725,0.30547318018748754,-1.065740416059291,-6.6174622203835956,1.251870147772057,1.5261163977729377,-0.10483796259026555,-2.1040348923096337,4,left
13.219000000000001,0.20936244247898117,0.4449287062207231,0.3091145987040351,-1.060320181995353,-6.620172675962319,1.2497424895222267,1.5420487525741606,-0.10680158440729798,-2.1002683391196078,4,left
13.22,0.20775411524418474,0.4632324260368206,0.309419376035418,-1.0560158633567718,-6.621023026670917,1.247121685535044,1.5029005541975975,-0.10200416811271826,-2.109729536742024,4,left
13.222999999999999,0.2056887496160414,0.4858240227500745,0.3048311207994969,-1.0755335800043568,-6.614558512221168,1.2571407225819078,1.5678033058611556,-0.1099509802990174,-2.0939635969652945,4,left
13.224,0.20558972784308277,0.5016883987092989,0.2993356986298681,-1.0391757361682306,-6.627196886372284,1.2389023846510403,1.4822031053184295,-0.09946653548427559,-2.1147906806708967,4,left
13.228,0.20583933347105587,0.5053773840253544,0.297865498345546,-1.085921439179212,-6.610731746975787,1.262199049550633,1.1228922585301628,-0.055440086963043346,-2.2021048445332814,4,left
13.229000000000001,0.20616946439004777,0.5195138251448499,0.29519003708891245,-1.0468668677526267,-6.62458206211579,1.2427998110125125,1.0373097819867465,-0.04493109615564235,-2.222952310737403,4,left
13.23,0.20717335889519917,0.5428170738252176,0.2840883511567392,-1.0479722461775294,-6.624041566129401,1.2432496796566848,1.10218073260027,-0.05291905782276423,-2.2071375245769977,4,left
13.232000000000001,0.20999889442217856,0.5603131272667787,0.2721779755191109,-1.1223158496327397,-6.598068631648921,1.2804416073738707,1.0630699583248377,-0.04808005581616201,-2.2166852393698173,4,left
13.232999999999999,0.2131964953995677,0.5770010511408024,0.26363704063096866,-0.939512133788417,-6.6621545827185615,1.189133996517211,1.0789737335368468,-0.05006214062333258,-2.21279618214934,4,left
13.239,0.22171703543065902,0.5970311126499572,0.253676858427575,-1.2426463322692638,-6.555792815534391,1.340490552744923,1.079192627570174,-0.05009909002435002,-2.212730566703043,4,left
13.24,0.2308865205635267,0.6077242660744955,0.24812228503077693,-0.8427893879372634,-6.696135246904676,1.1408595427958006,1.0708957796251597,-0.04899781348068726,-2.2148146589106275,4,left
13.243,0.23352964175082108,0.6115098980697606,0.2472407563020413,0.8353802324869409,-7.284852953156458,0.30294472389964433,1.0807871427256006,-0.05038503069152615,-2.212278379447004,4,left
13.243,0.24278794345711094,0.6242031555822312,0.2430881092919005,1.2352675586308925,-7.425237219628897,0.1033020980595078,1.0731536214472706,-0.049203721612443116,-2.2143153109787432,4,left
13.244000000000002,0.25829725575166984,0.6364177726019178,0.23758559724449105,0.932096160687129,-7.318812668221906,0.2546618975669933,1.0772000272293711,-0.04994167541103675,-2.213154905347028,4,left
13.248,0.275959258270729,0.6436771866069251,0.23068198434077364,1.1149027056718903,-7.382943465606308,0.163392093683839,1.0763063271724986,-0.049728287911253166,-2.2134471697560016,4,left
13.249,0.2985469411092275,0.652053203439343,0.22295702911659893,1.0406365323277265,-7.356992726986842,0.20047424480877796,1.0753242476893912,-0.04940219039231859,-2.2138367122644333,4,left
13.252,0.3183679625733202,0.657205241142705,0.21642553573206563,1.0393434383413775,-7.356318998906698,0.2011148243328658,1.0768289738109198,-0.050248346573002416,-2.2129882442576125,4,left
13.253,0.33923305297216966,0.658772948226793,0.2070885804363129,1.0786840606021886,-7.370428773915606,0.1814785627058476,1.075748242699485,-0.048976745852088624,-2.214080828054824,4,left
13.257,0.3660449692921678,0.6575317519987152,0.19703644719044727,1.0316323950083666,-7.353619788732995,0.20496576421385138,1.0760682676773863,-0.05041326715278081,-2.212985633923749,4,left
13.258,0.39441825242816275,0.655234658761372,0.18588463739469324,1.068161466936418,-7.366565254952683,0.18672968434284226,1.0762487524134678,-0.04932169650361133,-2.2137524160984574,4,left
13.264000000000001,0.4219199839515573,0.6524794550719979,0.17317957178128027,1.0488161327914525,-7.360030256001953,0.19639046412401814,1.0762576352747621,-0.04931290729212688,-2.213757627883191,4,left
13.265,0.4517475136718232,0.6473904329049287,0.15497825918642594,1.0524097218917583,-7.360478429807567,0.19458884832294387,1.0752247791096186,-0.05125241755297891,-2.2125045448242355,4,left
13.267000000000001,0.48609715997723124,0.6429633846249071,0.13075254272558418,1.0591428179908517,-7.364239079250796,0.1912398009589627,1.0778796386627332,-0.046856231170576926,-2.215296236407937,4,left
13.267999999999999,0.5144219869890474,0.6413754174363859,0.11705054674893071,1.0482619515688185,-7.358707102981147,0.19665705035675662,1.0736765030925386,-0.05338476657561067,-2.2111907169546283,4,left
13.273,0.5420536572025243,0.6445639140051483,0.0959287929456076,1.0582042525880189,-7.363560993464736,0.1917052742180691,1.0782989079911736,-0.046442630148055164,-2.2155326925205783,4,left
13.274000000000001,0.5659920248332081,0.6553503202419568,0.0800194722806658,1.0525562655958363,-7.361592780624951,0.1945250208769937,1.0755828070275186,-0.05044821953594541,-2.2130349860093705,4,left
13.277000000000001,0.5817773616727278,0.6801600760083379,0.10081271844298573,1.052256133926978,-7.3589516087304805,0.19465315361888896,1.0732224714433556,-0.05389886030692484,-2.2108863793411917,4,left
13.277999999999999,0.575304316370328,0.7315041775356836,0.14233978409702427,1.0585920927851133,-7.366967043810785,0.1915397119126975,1.0836066513401894,-0.03880397752876846,-2.2202761355635685,4,left
13.282,0.5189443096990438,0.8167766888314674,0.19994053925116984,1.0477860385562143,-7.354536758432689,0.1968601893309515,1.0642971148999218,-0.06679124228700409,-2.202875616287092,4,left
13.282,0.4738227697553387,0.918351741044511,0.24037415862114458,1.059558833194948,-7.367873772160053,0.1910622529740282,1.0891274200557566,-0.030858410617327903,-2.2252096382740043,4,left
13.286,0.4401497181613301,1.036863040192797,0.3454307951668758,1.0523561471929637,-7.360031809560588,0.19461166376470426,1.0683823223744362,-0.06085572733767981,-2.2065686460482787,4,left
13.287,0.42420794569234743,1.2322357825350294,0.5507408671598821,1.0481260949831275,-7.353951747072853,0.1966850763225576,1.0689410230999536,-0.06004114246150759,-2.2070715096532707,4,left
13.292,0.4478155640213551,1.5114891061564322,0.764344036492911,1.069881464304756,-7.381668296392825,0.1859954378484463,1.1085327232035052,-0.0028533684287157766,-2.2426143478394325,4,left
13.293,0.5267448179980738,1.8361681600723974,0.9454175942480667,1.0289468190073503,-7.330073695572606,0.20611213260322736,1.0112132624861783,-0.14341547416659547,-2.1552591744121643,4,left
13.297,0.855554899223164,2.1570381369773264,0.8830985660366292,1.0816463549243682,-7.396359296664522,0.18021414433788224,1.1725831133612998,0.08963960782910411,-2.3000971307956335,4,left
13.298,1.1490544180320148,2.3423747313536087,0.7418940477733962,1.0375871949706454,-7.341017142813095,0.20186436261156843,0.9597280568713389,-0.21774788101689357,-2.1090503313322606,4,left
13.299000000000001,1.2344944933127935,2.3706130918408963,0.6761734049752185,1.039006071995877,-7.342551734867836,0.2011703511357597,0.06617749261348899,-1.5076718296119815,-1.3068654058136935,4,left
13.300999999999998,1.601094980392512,2.3520437625468205,0.3145554417443118,1.1222960691688717,-7.447927194357737,0.16023621145297023,-0.1467003349211969,-1.8149755119790687,-1.115751404463205,4,left
13.302,2.1022426937522627,2.2273961006122693,-0.20692035883411897,0.9172930016370641,-7.188913243635907,0.2609802300406684,0.014716201846868848,-1.5821024780678403,-1.260736317056619,4,left
13.306,2.42351658454554,1.9457511837099295,-0.6750192207883452,1.2572949500172212,-7.618338750503934,0.09390102977450332,-0.08267198732380868,-1.7223754166050236,-1.1731458073690364,4,left
13.308,2.6012211031636703,1.7618337050822532,-0.9795579116395772,0.8087931100725034,-7.0519803619243735,0.3142904020055975,-0.043001001661349444,-1.665554115590301,-1.208989646182081,4,left
13.311,2.6224439073869927,1.7117315580693928,-1.0444298927162106,-1.0730819692375648,-4.67418928859063,1.2391080551218883,-0.04250533151193053,-1.664396770357789,-1.2092070720565804,4,left
13.311,2.5930518136384135,1.5178693168304462,-1.197284379009706,-1.521619595893904,-4.107928396485514,1.4595023834995666,-0.06324617057443144,-1.6945286720804367,-1.190685364972677,4,left
13.312000000000001,2.434954634668739,1.2536423775622012,-1.2933661323986891,-1.181578940117997,-4.537248416260847,1.2924178220862248,-0.03831254349647968,-1.6589075561145186,-1.2132627904031765,4,left
13.315,2.113181507879703,1.056846784099181,-1.1641942118004125,-1.386567240969749,-4.278194354467495,1.3931597974292216,-0.05786639667155938,-1.6859326515252633,-1.1950847163682465,4,left
13.315999999999999,1.7715457841074738,0.863694732756294,-1.0178831805811726,-1.303405761757967,-4.383919700092616,1.3522434526258005,-0.047110711508717755,-1.6724771628917443,-1.2058150610180225,4,left
13.321,1.4245260426883046,0.6917654028105225,-0.8415879630933891,-1.3017104182815473,-4.384701457183194,1.3515111585045536,-0.049875977094041624,-1.67392796006572,-1.2020141387860432,4,left
13.322000000000001,1.111897021301385,0.5363128345368755,-0.670832163363646,-1.3461659300567042,-4.330438724533052,1.3732162620926842,-0.052343915337393555,-1.6795163089933824,-1.2008495819291325,4,left
13.325,0.8429617390235434,0.3905678523975914,-0.533446733779603,-1.2930717666207716,-4.395649436611526,1.347263624794651,-0.04754855625989121,-1.6726110134895538,-1.2051637809894062,4,left
13.325999999999999,0.603797095344256,0.27575967475354085,-0.39349876145288143,-1.3341765820519553,-4.344518650480906,1.3674038897763685,-0.05260316807530885,-1.676151688981948,-1.1986763315751905,4,left
13.33,0.40745460790801613,0.1828673867899792,-0.2724589678486617,-1.3127603244366122,-4.373158173562691,1.356761201696405,-0.048312691793017545,-1.6785427952950647,-1.2069839150009543,4,left
13.331,0.2325925022093994,0.12108941465135652,-0.15137900580501834,-1.3158984184080504,-4.364104880221046,1.3586834130765408,-0.05153610219402506,-1.6703884890553091,-1.197442711139458,4,left
13.335,0.08379288909185953,0.08880782083148994,-0.03857902006999528,-1.3249823586455298,-4.36138596168106,1.3624933276364861,-0.04949939628261907,-1.6811021928162984,-1.2063574973562705,4,left
13.335999999999999,-0.04457440562493016,0.08129227984951198,0.08027093641871309,-1.310901043534006,-4.368435670752481,1.3563757113966597,-0.049961801001316836,-1.6738792161688223,-1.2018477852478229,4,left
13.342,-0.170119936498431,0.1258362914410654,0.24020258842430717,-1.3235471879373293,-4.36101799483969,1.3619510178719514,-0.051864698330371675,-1.6698285985731718,-1.1966101563350426,4,left
13.343,-0.312020019320158,0.24395059180421777,0.4263577092579893,-1.317228487597766,-4.369077947407691,1.35883992801569,-0.04671217871603475,-1.692148763316065,-1.216682408520029,4,left
13.345,-0.4858017999850231,0.4156878011688029,0.6073367974357832,-1.3141119249818773,-4.3571350475943325,1.3584949799239392,-0.05534182629812772,-1.6494158517199207,-1.1802890517594626,4,left
13.345999999999998,-0.6488659669616537,0.6250633736462687,0.7727558395200591,-1.3275666329318558,-4.376424653618747,1.3623957264833537,-0.04467167100591775,-1.7048834570657339,-1.2266514227057108,4,left
13.35,-0.7698699633717137,0.8521222523393517,0.9515507376499668,-1.3059792262407062,-4.34956511003327,1.3558313927240322,-0.053404202309212064,-1.6583178230160236,-1.188102912333275,4,left
13.350999999999999,-0.8180662143581915,1.1093431232432363,1.1165360851752713,-1.3292725133636443,-4.377840681238927,1.362967520349603,-0.053319397784791174,-1.659809216170153,-1.1890111838811686,4,left
13.355,-0.7948164994290108,1.4026944824592067,1.235777580108576,-1.3153702454637015,-4.362067106872153,1.3586255703842238,-0.03638770995503749,-1.7481661791565966,-1.262764955659593,4,left
13.356,-0.7251411709982994,1.6877073425059168,1.3104464958320938,-1.305587977902538,-4.345676719388717,1.3559671956470432,-0.07773210792596835,-1.5305787200787762,-1.081729128433472,4,left
13.360999999999999,-0.565535616906832,1.9923707111274078,1.2780443051005244,-1.3519997223544817,-4.412836254450664,1.3693757815232588,-0.009310805526076563,-1.8915545226294896,-1.3817799124550205,4,left
13.362,-0.4413475681835224,2.1904208374975678,1.2156365998932865,-1.2652832260303821,-4.289114010112818,1.3441900761075047,-0.09949510805450308,-1.415319311858219,-0.9860695576655685,4,left
13.365,-0.407080816188635,2.223197046029031,1.1903398887219763,-1.3767706514002236,-4.447793589729548,1.3766002636411456,-0.4780125756561935,0.583498121486948,0.6748755583439079,4,left
13.366,-0.2850987170790171,2.3327840637527157,1.0707806410002496,-1.2836464206723,-4.315395820714613,1.3495155574695534,-0.5681630961641517,1.059814539650174,1.0705584688155985,4,left
13.367,-0.13248544902603276,2.40207310703639,0.8812032146348472,-1.2863711090921242,-4.318689968893283,1.3503557810834244,-0.4998189240694793,0.6986922946729412,0.7705738055095932,4,left
13.369000000000002,-0.04534220747928541,2.298696541310158,0.7041808507881513,-1.4632489927723498,-4.572093515443706,1.401645044188776,-0.541033486151994,0.916453834427102,0.9514918976015649,4,left
13.37,0.026630487281086367,2.1459054806327593,0.5309299666060406,-1.028285483899603,-3.94960126431794,1.2754603463693048,-0.5242768874437257,0.8279605382539692,0.8779056367180585,4,left
13.375,0.09974195306505626,1.8516198965914301,0.40760587232149315,-1.7495044170066163,-4.981631474944481,1.484706358287738,-0.5240133189457834,0.8264767071435192,0.8768146491274355,4,left
13.376,0.1509959828258245,1.6215274554160537,0.3593648003240748,-0.798259295473362,-3.620399015405589,1.2087181490362449,-0.5328436754656881,0.8732602872396665,0.9154828691319856,4,left
13.38,0.16769420631833432,1.566390558515737,0.3505536009741179,3.1944993882650734,2.0937896415947708,0.05037133320774456,-0.5222740606418971,0.8172898892379932,0.8691789896218682,4,left
13.380999999999998,0.21946372915562648,1.340248675140614,0.3571832458692884,4.145603658440587,3.4550514071468004,-0.22558073194638056,-0.5304927527693134,0.8607703719369741,0.9052171483372844,4,left
13.380999999999998,0.30304747732983006,1.043160540556062,0.3962009344753765,3.424590886196861,2.422993087774292,-0.016384335383633007,-0.5261008399037661,0.8376593262284581,0.8858549429190634,4,left
13.385,0.3717704276114792,0.8348419118787305,0.4585232383257807,3.85942190395191,3.045460533909284,-0.14254668032098106,-0.5270107726014437,0.8421540527890896,0.89011336307858,4,left
13.386,0.4460551150694688,0.6240129963689035,0.5137673119164871,3.682431152970041,2.792188439545345,-0.09120444512649437,-0.5283566981709513,0.8498062329441374,0.8955675621086414,4,left
13.389000000000001,0.5123972772446315,0.4611092283705044,0.5594460895238108,3.6802116176442277,2.7886290100934428,-0.09052946838514511,-0.5261147124111629,0.8372968448528306,0.8862827248062579,4,left
13.389000000000001,0.562457187577657,0.3391242934537444,0.5836801615818012,3.772401550152003,2.9213930836650572,-0.11733619478142758,-0.5281878752366804,0.8487794950853653,0.8949394970848294,4,left
13.394,0.5979501639401321,0.2439088177292871,0.5790041432848119,3.662106828726536,2.762366298075661,-0.08525409428736686,-0.5269133241577233,0.8420495033126502,0.889340538476181,4,left
13.395,0.6124717483836908,0.20098706988142778,0.5553999732590837,3.7478215162029613,2.886205750968336,-0.1102030110074854,-0.5271571388760887,0.8423585182213904,0.8912346257938828,4,left
13.399000000000001,0.6080538894196033,0.19284872139019477,0.5211784947589786,3.7015082128508507,2.819419497600115,-0.09673212489367566,-0.5278733943606079,0.8483806791464845,0.892496171918243,4,left
13.4,0.5903754498178176,0.22046220228416763,0.4776164797520254,3.712904573744368,2.83473668756678,-0.09996866260088064,-0.5264998376183476,0.8377855619388214,0.8892752576992347,4,left
13.404000000000002,0.5779275506084054,0.26855407673959997,0.43045486678994754,3.72292951674409,2.852286064055805,-0.10310015285653798,-0.5280209471507166,0.8493798080813548,0.8929582883554654,4,left
13.404000000000002,0.5863615617770728,0.32574938292634126,0.38162582339132917,3.7055584772745216,2.821909026344912,-0.09767704126041359,-0.5270522170550627,0.8422074042160757,0.8904362026688961,4,left
13.408,0.629338795446382,0.38606450580044305,0.32291333366758346,3.720686318679882,2.850327639269242,-0.10253595033125204,-0.5266618932306256,0.8383702612251309,0.8902134392610224,4,left
13.409,0.7040479152261184,0.4392651518778925,0.25905181219827367,3.7111741822893416,2.831319639179101,-0.09940188085265945,-0.5290983145111678,0.8590017940709467,0.894382802816361,4,left
13.413,0.8040116045204737,0.48524902625728267,0.1897239165971675,3.717103090519392,2.8397552816725073,-0.10111830117396196,-0.5244483115699724,0.8200487683004285,0.8860737044831306,4,left
