time,gFx,gFy,gFz,ax,ay,az,wx,wy,wz,subject_number,foot
0.718,0.17201414615906227,0.9810986337433569,0.0801905330300304,0.07719999013658052,-0.03730000301537433,0.06959998800056377,-0.0016999895782891501,0.004800024109055078,-0.004300007701117619,3,left
0.718,0.16885256518154132,0.9823973075043421,0.08129253812794524,0.08202835818972654,-0.03951791882026144,0.07393928954055887,-0.0016999778591785608,0.004800051284634449,-0.004300016304634868,3,left
0.723,0.16644731227619058,0.9813781813453444,0.07802172317451461,0.06896700069254082,-0.033518168844282534,0.06220092069902239,-0.0017000698335486548,0.0047998383012502616,-0.0042999485255800825,3,left
0.723,0.1668971647586675,0.9819748740735771,0.0764286269924039,0.0016551251409265312,-0.002597251300144262,0.0017075571709504987,-0.001699880546787889,0.0048002765598244915,-0.0043000880773714795,3,left
0.725,0.16663116645753356,0.981777013208365,0.0771490291428446,-0.015957221096008174,0.0054929174836546996,-0.01412086451040822,-0.0017001457644497384,0.004799662559002921,-0.004299892492130614,3,left
0.728,0.16483099166223608,0.9805186375190256,0.079009548056456,-0.0019160491049908862,-0.0009568755079256431,-0.0015019115472552566,-0.0016998848641029919,0.004800266484139902,-0.004300084963312651,3,left
0.728,0.163954742559629,0.9811715948279736,0.07945939066945655,-0.010713727525787474,0.003084532331118654,-0.009408393819967428,-0.0016999967458549467,0.0048000076536345105,-0.004300002296091643,3,left
0.733,0.16348145331973576,0.9808491072863679,0.07947283080961356,-0.006941710359546405,0.001351245230970582,-0.006018699374514341,-0.0017002184020541333,0.004799494225260921,-0.004299839073711573,3,left
0.7340000000000001,0.16268313322351466,0.9791966364238718,0.0819446149953106,-0.00707778492614356,0.00141490154201242,-0.006140508734726587,-0.0016995055634381512,0.0048011447988494625,-0.004300364504503289,3,left
0.738,0.16423649927383843,0.9788257967531526,0.0827774127157744,-0.008854198424404776,0.0022293130980325796,-0.007737654069878268,-0.001700732658853796,0.004798303805305187,-0.004299459724340841,3,left
0.738,0.1666535281773754,0.9805446436814342,0.08373811990792163,-0.006615581733628853,0.001202555190664562,-0.0057251354230132695,-0.001699227395945946,0.004801788456600589,-0.004300569918653772,3,left
0.742,0.1640961192346309,0.9807301630276564,0.08603675246128052,-0.008415811219858429,0.0020288386178949386,-0.007343294788739453,-0.001700427369848693,0.0047990110821653055,-0.004299684421787785,3,left
0.743,0.16332007124592499,0.9787294471420374,0.08459464292650345,-0.007402886500835013,0.0015621906621639792,-0.0064335379484197226,-0.0017004374011359818,0.00479898662280264,-0.004299678092046653,3,left
0.747,0.16579850624251843,0.9809582348505836,0.08324137214767618,-0.007676578445411878,0.0016922413239748395,-0.006677693435641658,-0.0016982126743083628,0.004804138666490083,-0.0043013173238645,3,left
0.748,0.16429746313169782,0.9834592051965351,0.08478662004758578,-0.007894589705601977,0.001784943034259126,-0.006876742593205435,-0.0017032978552211863,0.004792364607670284,-0.004297568495893736,3,left
0.753,0.16546735799507253,0.9815680960428258,0.08511415263067901,-0.007467777911700428,0.0015980105140519399,-0.0064893346650530676,-0.0016957108388891463,0.004809929532488417,-0.004303163248458282,3,left
0.754,0.16878110216814665,0.9806726056549538,0.08503095399651571,-0.007883438786026351,0.001781676795636069,-0.0068659461927252675,-0.0017037998362865532,0.00479120465361037,-0.004297196431260813,3,left
0.757,0.16698492753067215,0.980547360497395,0.08482404595569912,-0.007601535041370109,0.0016521091890427614,-0.006612619416931365,-0.0016991240996659007,0.0048020245826304,-0.00430064869800199,3,left
0.757,0.16507548610481942,0.9810230004467909,0.08547401795742551,-0.007715112911914176,0.0017177912227004633,-0.006709037522625269,-0.0016950995695456663,0.004811349281782008,-0.004303610047251671,3,left
0.762,0.16521739509014566,0.9829590441663486,0.08830089647055087,-0.007745127245989992,0.0017007205412948756,-0.006748944677261128,-0.0017127255707334076,0.0047705351535428184,-0.004290619045334402,3,left
0.763,0.16306005688183425,0.9821883819697448,0.08896093980164091,-0.007626287866745016,0.0016921549196545474,-0.006622841068607131,-0.001680032617581382,0.004846227354780139,-0.004314723933407228,3,left
0.7659999999999999,0.16136149101080013,0.9799292762082575,0.08940111938449002,-0.007769406290583014,0.0017088466811029561,-0.0067720488705890185,-0.001722017467270592,0.004749032767357098,-0.00428375883939283,3,left
0.767,0.1619338316434602,0.9793997192062278,0.09175450849702457,-0.0076656409121113106,0.0016895030247362935,-0.006666882017212453,-0.0016869580083739336,0.004830178970691073,-0.004309630207396192,3,left
0.772,0.15967719415879267,0.9787195084231447,0.0918553139028115,-0.007673927202661924,0.0017177851596477784,-0.006664115088227493,-0.0016879270695063153,0.004827974575325443,-0.004308881833911191,3,left
0.772,0.15764357580466434,0.9779152367478984,0.09105614340142007,-0.007799962942093768,0.001668693296736959,-0.00682220044622551,-0.0017547291118326532,0.00467326488247692,-0.0042596681560218876,3,left
0.7759999999999999,0.15777527521169654,0.9787846877782794,0.09114004311276482,-0.007535795242842786,0.00174570017518892,-0.006501630367103543,-0.0015904989868019918,0.005053537878931587,-0.00438072238395263,3,left
0.7759999999999999,0.1564199714575214,0.9787062015391885,0.09052755249588773,-0.007882469819407417,0.0016503067339609465,-0.00692002153469325,-0.001862826101214539,0.004423017548426668,-0.004179946510250656,3,left
0.7809999999999999,0.1559761138531554,0.9772826234629202,0.08886315121018573,-0.007590029499902292,0.0017284749497829884,-0.0065679384792068935,-0.0015036083692346852,0.005254678384782064,-0.0044448160237963285,3,left
0.7809999999999999,0.15616363275905046,0.9769650758178912,0.08857483847317998,-0.007607883524610035,0.0017311248853446302,-0.0065865813911266564,3.6099289301833298e-06,0.008745322242838506,-0.0055551876397276,3,left
0.782,0.1551208515731176,0.975855713993616,0.09045279249340576,-0.008133517125760163,0.0015668884311169405,-0.007228738406490405,0.00036280572001969204,0.009576974017455844,-0.0058200051906942656,3,left
0.787,0.15480839110158223,0.9745372279152377,0.09078979190688301,-0.006829647568786647,0.0019646956825728136,-0.005639326166251525,9.05778555624896e-05,0.008946494914906417,-0.005619464804659835,3,left
0.7879999999999999,0.15771718062527681,0.9757697645677358,0.09143516046278168,-0.008994695708830425,0.0013068307954524501,-0.008277730948215224,0.0002545495459392906,0.009326660336462723,-0.005739905444432527,3,left
0.7929999999999999,0.16142033523310712,0.9782236164472661,0.0938384330153692,-0.006138693503662405,0.002174209774502843,-0.0047972279485469305,0.00018822016178111114,0.009172147585624697,-0.0056918143324004855,3,left
0.794,0.16149161793078848,0.9796696148583921,0.09594544374969846,0.00583903718156261,0.005825617241966509,0.009797550628388788,0.00018660248606955455,0.00916967274001863,-0.005689525142745639,3,left
0.794,0.16449889767941628,0.978773351438482,0.09811978089467227,0.00869405449681338,0.006693662984702973,0.013276972715849883,0.0002222970065312814,0.009251083984273932,-0.005716905573962045,3,left
0.7959999999999999,0.17236303918006918,0.9782193544703112,0.09789890924434863,0.0065295405005434265,0.006034581346600118,0.010639935090793775,0.0001800481501877683,0.009153778772177948,-0.005685312324765727,3,left
0.797,0.17670118614093946,0.9795715186650766,0.09633734038583844,0.007835697712612654,0.006433868796388605,0.012229091925171801,0.0002121709467133384,0.009229234032614924,-0.005708064233717064,3,left
0.802,0.17928661156987413,0.9804605942486633,0.09623974342804564,0.007302648774220365,0.006268408055497839,0.011584499184406063,0.0001963479108038128,0.009189170853370728,-0.005699354752143595,3,left
0.8029999999999999,0.18361424765483386,0.9829481390064149,0.09691134180390927,0.007298157188331256,0.0062712757077427565,0.011572061355003299,0.00019727635946176832,0.009197205029851815,-0.0056949620083665406,3,left
0.8059999999999999,0.18706172671828947,0.9858529674702284,0.09564915403330676,0.0075735142367028205,0.0063510663852032355,0.011914475629619947,0.00020574724113369514,0.009209607912959657,-0.005707430760383419,3,left
0.8059999999999999,0.18940801615516972,0.9863969326908578,0.09287101851888499,0.007241258029404184,0.006251640880301971,0.011506676611245475,0.0001946357387452046,0.009189620788387774,-0.005694280235662499,3,left
0.8109999999999999,0.19246125805467615,0.987610508891505,0.09498798400543651,0.007504019949109272,0.006334874559166345,0.01182088649089564,0.00020218938904616272,0.009207175370144857,-0.005699802262938952,3,left
0.812,0.1951377520735394,0.9892470326942744,0.09625307154397267,0.007354506263416249,0.006278906214036704,0.011657829191292424,0.0002027288123116042,0.00919774199786804,-0.005709406569349379,3,left
0.816,0.19580484261079323,0.9908919258241284,0.09183307486957146,0.007402760301388268,0.006311551705243683,0.011683708160793994,0.00019210953479106212,0.009197542491989808,-0.005680541490207856,3,left
0.816,0.1966770678667959,0.991408532008803,0.08977295066631767,0.007419938592722081,0.006294789562985441,0.011745020913360353,0.00021125406708221583,0.009205504139635553,-0.00572603650495908,3,left
0.8220000000000001,0.1969679867933622,0.9894383103458718,0.08866936770284063,0.007371583004664235,0.006297583996416348,0.011653919323202672,0.0001896419693194374,0.009194209949585381,-0.005676650639256442,3,left
0.8220000000000001,0.19670991609022814,0.9892444523249129,0.08586895831539332,0.007432046527899177,0.006316133824073821,0.011727283920111856,0.00020292951995278587,0.009202621610711257,-0.005705776243209082,3,left
0.825,0.19761545371097494,0.9890958539536208,0.0825805536901881,0.007361992402600924,0.006262374073556303,0.011701693271171244,0.00021189640495221962,0.009204009053449935,-0.005729047282311429,3,left
0.826,0.197067889712256,0.9865852426991397,0.08023887412777976,0.007447377968834397,0.006362490830960274,0.011669181059527106,0.0001680738218755392,0.00918711438997585,-0.005623821512330478,3,left
0.83,0.1956914615979372,0.984644735586824,0.0811730545511147,0.007346316916801127,0.006221148378089054,0.011749726230427596,0.0002504113082179403,0.00922100988377202,-0.005819753371227872,3,left
0.831,0.19277578885466023,0.9832138055207403,0.08123449410269513,0.007444398011479725,0.006368886775943793,0.011652134319632537,0.00014432123172543305,0.009176551706036838,-0.005567895837741409,3,left
0.8370000000000001,0.1882639829661011,0.9820115115916954,0.0827522304874165,0.0073942373515894,0.006285492377857228,0.011716400745411045,0.00023301152578962856,0.00921407991424042,-0.005778252402724749,3,left
0.838,0.18332739031220863,0.9798268222982784,0.0872489069510865,0.00733074535070555,0.006207488478637889,0.011747297674212705,0.0002304605735439276,0.009212409712281303,-0.005772438036682249,3,left
0.84,0.17555908861459046,0.9781170071622142,0.08742273852501678,0.007571210547761461,0.006537581493725596,0.011566865887326996,6.177451482402274e-05,0.009142576909975803,-0.005371670004476157,3,left
0.841,0.1679176417618068,0.9783973460912252,0.08582215043905464,0.007134169875723304,0.005928093275980933,0.011912177689573075,0.0004765394670435521,0.009315196571857323,-0.006356843210662788,3,left
0.845,0.16013343892410847,0.9765204675736692,0.08645255393457801,0.007692044026806544,0.006709736739824707,0.011464897124703213,-0.00021113520362614626,0.009028572044223852,-0.004723383949929504,3,left
0.846,0.1533980561919488,0.9743120732122553,0.08711703158526832,0.007227859430831573,0.0060575996650107985,0.011839995589168893,0.0006957888791247124,0.009406834382252432,-0.006877838868768393,3,left
0.85,0.15143833568265325,0.9751271521376417,0.08689755809691732,0.007237856921587966,0.006074599437364268,0.011827194663778216,0.0045042967878649726,0.010993118155040196,-0.015922215664426493,3,left
0.85,0.1483682578862598,0.9750524579464384,0.08598149714470718,0.008129639694379126,0.007319817039983667,0.011118959923748506,0.0054109524003549524,0.011371548603074415,-0.018076500348643,3,left
0.851,0.14391998692300037,0.9717491654415014,0.08606374113879839,0.0059417841203251165,0.00426018381201595,0.012863637397810303,0.0047235381806387255,0.011084672440941957,-0.016443203192721453,3,left
0.855,0.14037884982054116,0.9684681654522882,0.08964969288172028,0.009567362355581682,0.009332809494229582,0.00996926904925296,0.005138519925176272,0.0112574699846534,-0.017428524649902088,3,left
0.855,0.1378631806361176,0.9679923251433294,0.09439182397150017,0.004786627452257559,0.0026422152756668607,0.013787703445918564,0.004968651173795727,0.011187731174384069,-0.017026984448604246,3,left
0.8590000000000001,0.13759589549699242,0.9672792275268004,0.09581387235043146,-0.01528733240247937,-0.025442248946746987,0.029812085211271988,0.004968498503648955,0.011185518471545856,-0.01702272379785244,3,left
0.86,0.1363418392115684,0.9652124917334801,0.0978120416407257,-0.020065477361683383,-0.03213270630931854,0.033631343288980015,0.005053867381590628,0.011224096935773191,-0.017230938879315705,3,left
0.861,0.13509275763461298,0.9649138011760645,0.1040513681025093,-0.016444152285972166,-0.027060356654398723,0.030735438153993676,0.004950938306689138,0.01117825264487353,-0.01698110610867105,3,left
0.8640000000000001,0.13494208727939014,0.9636876788728892,0.10989508893273418,-0.01862793409952721,-0.030119592967240632,0.03248206348025819,0.005032183804603911,0.011213378102244861,-0.017176364328989044,3,left
0.865,0.13452480304446984,0.9613281511982078,0.11443304009374762,-0.017737451894503747,-0.028874818582508403,0.03177207039648544,0.0049850202525318415,0.011196217706454428,-0.01706893900331673,3,left
0.87,0.1375104073305779,0.9593741695267269,0.11887633826962005,-0.01773173462647932,-0.02885748939499696,0.03175990321880871,0.0050036713604766185,0.011195956268406464,-0.017098502546922325,3,left
0.87,0.14246472330280274,0.9561129385115302,0.12198445468102045,-0.018184114921499184,-0.029509599016653572,0.032136614628491884,0.005000884575576419,0.01120863109343649,-0.01711723603565281,3,left
0.875,0.14544477782312631,0.9557529933606276,0.12645370976896592,-0.017645074736658106,-0.0287286071609735,0.031684578086728435,0.004998349746510595,0.011190594597298088,-0.01708012582805688,3,left
0.875,0.1507446009028203,0.9554163294934229,0.13205105619609941,-0.018060842202463116,-0.029336654947720954,0.03203779128111542,0.005003256107685938,0.011206188180817202,-0.01711654840387064,3,left
0.88,0.15949318488301112,0.952202842005498,0.13566866265674318,-0.01783449837605821,-0.02900867368546555,0.03184796503652527,0.004990273968283144,0.011200860990488002,-0.01708595784703428,3,left
0.8809999999999999,0.16692843293992551,0.9533144926239957,0.13699670661345315,-0.017904615891609587,-0.029084470538027415,0.031885937007374715,0.0050223659529139725,0.011189185879242898,-0.017116171677080145,3,left
0.884,0.1748871008312645,0.9559615666646962,0.13566995107757232,-0.017913778773703367,-0.02916905902026176,0.03195117528563016,0.0049618654709751905,0.01122128372120896,-0.01707757589649423,3,left
0.884,0.18666405389756927,0.9560143534634701,0.13489150649820658,-0.01789742070037448,-0.029022625426930515,0.031838414002042806,0.005049034585476039,0.011172059792389038,-0.01712785512133952,3,left
0.888,0.19822605933760062,0.9563065165174577,0.13636735137537376,-0.017886417936646165,-0.02915878932761279,0.03195193062357107,0.004956702290496603,0.011224846393061219,-0.017075623557248447,3,left
0.889,0.20793239107470451,0.9573427903881959,0.13771355094488347,-0.01790800426269671,-0.02906815283276858,0.031871653876379726,0.005009115417445956,0.011193841660665225,-0.017103643055293546,3,left
0.894,0.21905491788257042,0.9582572044501193,0.13748909810787202,-0.017938359170553225,-0.02910966816019536,0.03189512258907533,0.005058874006370334,0.011169382753304976,-0.017138466809767793,3,left
0.895,0.23073799085107996,0.9589868228295093,0.13572080473203224,-0.01777272622373005,-0.029101822691872163,0.03194354349988923,0.004848648433636764,0.011280326740052044,-0.0170035501764304,3,left
0.899,0.24215367750415454,0.9599167778361489,0.13483890366734114,-0.018135056336738203,-0.02909690206602968,0.03181979478513758,0.00523710049892759,0.01107367629718519,-0.01725057374062865,3,left
0.9,0.2543006658809627,0.9591548038412614,0.13486690506360358,-0.017590654454234946,-0.029098987256730862,0.03200145066566348,0.00473869676224203,0.01133950030469525,-0.016934129754719866,3,left
0.903,0.26658070596886174,0.9572705107881289,0.13542180487057012,-0.018176130104356574,-0.029103741546436815,0.031811726179499816,0.0051545355403992705,0.011117011047684143,-0.017197966107928633,3,left
0.904,0.27840638499371523,0.9567247133232208,0.13672614817818796,-0.01783770091287471,-0.02910115479060066,0.031921541642922754,0.005144049724903283,0.011124422616091393,-0.017192061545694397,3,left
0.909,0.2877461534761556,0.9558617748840789,0.13687604957128052,-0.01753544935749836,-0.02908307325441233,0.03200683808002959,0.004348877671573392,0.011545164111194734,-0.016685048277260847,3,left
0.91,0.29494935361216945,0.9562545993351907,0.1350645873327233,-0.018845125724851194,-0.029141470519442533,0.03162103426450316,0.006302145252843406,0.01050838299748743,-0.017929647090535364,3,left
0.914,0.3015096581457014,0.9594357625022604,0.1291747365448646,-0.016416500237534583,-0.029034407095212163,0.03233749326988912,0.003064152664832119,0.012229310695385052,-0.015866596703140706,3,left
0.915,0.3042926636077412,0.9606788979689495,0.1230832489750504,-0.01953642353799368,-0.02917294815925034,0.03141786113837389,0.007334560280250249,0.009957559952583751,-0.018587503180773582,3,left
0.9179999999999999,0.3046182350539941,0.9608740646815258,0.12395649761637073,-0.016930575196536846,-0.029057023357177775,0.03218585846933161,0.02526566883332209,0.00044339788063115166,-0.030012568239359636,3,left
0.919,0.3044687139480085,0.9620232659305656,0.12444852799823136,-0.01700167220577873,-0.029057781189063832,0.032162815437204825,0.029535340465378788,-0.001831429772301323,-0.0327332452883524,3,left
0.919,0.3020730366626442,0.9606432038836719,0.12205548747479786,-0.021971386988023985,-0.029287569608596888,0.03070551271413838,0.02629814402622898,-0.00010717338706892228,-0.030670443108114908,3,left
0.925,0.29808157495093296,0.9586784542856283,0.12553223802779429,-0.009753708223773042,-0.028725562701581282,0.03429084288540389,0.028251714945094094,-0.0011426872099415987,-0.031915136399289695,3,left
0.9259999999999999,0.28738466308900534,0.9560741961525412,0.129744864438336,-0.0300141918989388,-0.029656260993230182,0.028344038769639833,0.02745390053791262,-0.0007329907620312962,-0.03140729959647,3,left
0.9279999999999999,0.27680532630236226,0.952752721295417,0.1303341833880499,-0.0032871235905614204,-0.02842970031404394,0.03619014197493271,0.02744909940920146,-0.0007018159928411465,-0.03140316687582497,3,left
0.929,0.2736061859451514,0.9524421050971799,0.12978708463072103,0.10888462492233494,-0.023269434240482396,0.06910813040139101,0.027856788037309538,-0.0009583755667833757,-0.03166446284507423,3,left
0.929,0.2612441646409016,0.9502942487894948,0.12618204250751716,0.1356206906937859,-0.022045989990984352,0.0769604546405768,0.027366499478031388,-0.0006586262467053774,-0.03135054845480234,3,left
0.934,0.24258263966571958,0.9487548763575563,0.12332109041567406,0.11534614323524896,-0.022971816868338074,0.07100392642058917,0.027751451240857115,-0.0008799118386912598,-0.03159648072475974,3,left
0.934,0.22658201798573246,0.9533768572654664,0.12136400925844806,0.12757545341960036,-0.022413839329676694,0.07459729919061045,0.02753425419832864,-0.000798106817041466,-0.03145939148451702,3,left
0.938,0.20636544554432185,0.9570950578496986,0.11641303568212046,0.12260641738319786,-0.022643861563924124,0.0731404649585321,0.027606464862864364,-0.0007287129989116887,-0.03150121309039336,3,left
0.938,0.18737829610489648,0.9589006600134511,0.11196647576677586,0.12251274090599001,-0.02263680049991474,0.07310181120946485,0.02762019494509349,-0.0009214230969952102,-0.03151717540646791,3,left
0.943,0.17164575347392627,0.9614775288527475,0.1086041150039458,0.12516787234216925,-0.022537943725612644,0.07390388261480701,0.027575333444768098,-0.0006701907144301517,-0.03147974059237724,3,left
0.943,0.1565889849940938,0.9633409348333881,0.1042611952475718,0.12197775164180348,-0.02265217185986024,0.0729357152761898,0.02762466103944273,-0.0008776143479555471,-0.03151822378620635,3,left
0.9470000000000001,0.14477029493235094,0.9648526982717242,0.10134896310567063,0.12447589047238172,-0.022569186687566942,0.07370023794164894,0.027563812985533374,-0.0008469513323720889,-0.03147952138009462,3,left
0.948,0.13295491561211065,0.966052476514719,0.10225295710574037,0.12313610664922356,-0.02261715103452102,0.07329361425558778,0.02766615256942573,-0.0005649921861630784,-0.03153162897861275,3,left
0.953,0.11953646623159211,0.9677178186539049,0.10384913480470236,0.12337985512135821,-0.02257881467250151,0.07333846595712681,0.027492650047847067,-0.0012413259812967385,-0.0314510066049308,3,left
0.9540000000000001,0.10725844288318326,0.9680669922527929,0.1021343792975311,0.1239073443861479,-0.022641700705672868,0.07357899425218889,0.027737011756085162,-0.0002247357834443953,-0.031562066345353926,3,left
0.956,0.09645879832526577,0.9665759955298359,0.09929469532149025,0.12299614322386031,-0.022533644540944447,0.07316406284767046,0.027479230100158788,-0.001309814343983729,-0.031445393797257,3,left
0.96,0.08591569750635525,0.9674380771143625,0.09666751400791697,0.123940166729506,-0.022674143168117236,0.07362202385890065,0.027623892052565976,-0.0006806852343916234,-0.03151009333216738,3,left
0.96,0.07671175210670474,0.9678390552848198,0.09178797788306826,0.1232593330467319,-0.022558890142455795,0.07327804686992467,0.027769752679759424,-0.00014928039654855697,-0.031579297282377225,3,left
0.965,0.06966012642983471,0.9666343349002079,0.0867153337680518,0.12342207677624663,-0.022550078629405616,0.0733244919985872,0.027166080731239987,-0.0024927038560761845,-0.03129842136805443,3,left
0.966,0.06468220763905291,0.9667795639899492,0.08334689718619248,0.1239827405993574,-0.022796248111763645,0.07375656833905345,0.028279283726650284,0.0018562641508261984,-0.03181533090135453,3,left
0.9690000000000001,0.063827405754084,0.9662187829428801,0.07991518355730849,0.12261067847542577,-0.022237914505243324,0.07274258476287429,0.026851365218209668,-0.003728526019359813,-0.031152496839305006,3,left
0.97,0.06375826142849748,0.9671384676746257,0.07458767537572628,0.12463616683851989,-0.023071785994475742,0.07424893044276058,0.028042758366881852,0.0009338800148716225,-0.031705483798808165,3,left
0.9740000000000001,0.06332484091753066,0.9704914050753403,0.06627958343706333,0.12250528585816362,-0.022181604720182543,0.07265151462233452,0.02801300950260461,0.0008073726274500179,-0.03169194401765667,3,left
0.975,0.0667180905899239,0.9721623028221401,0.059725270369351886,0.12373638062790882,-0.022695890868346766,0.0735743639815436,0.025733343225033553,-0.008081168805275755,-0.030632864505116212,3,left
0.981,0.07157144454989972,0.9729084992663061,0.05475806689172065,0.12473668914096729,-0.02314221763491261,0.07435230514716373,0.031333291130895384,0.013765508753048125,-0.03323423517917645,3,left
0.981,0.07880817956993807,0.9739001390595099,0.04754180848324998,0.12028108723554916,-0.02119288101915376,0.07092548505112908,0.0220494089772081,-0.022456533348613656,-0.02892152336114831,3,left
0.9840000000000001,0.08514744936074578,0.9743073637545201,0.04405216498534087,0.12854686391462183,-0.024807634655205482,0.07728111008909103,0.03429442611486867,0.025319348749329604,-0.034609890011980754,3,left
0.9840000000000001,0.08689833582427695,0.9740684020262611,0.04442002760109639,0.1179395738478321,-0.020166002153106533,0.06912232288305631,0.08570546303267733,0.22588063565277283,-0.05849005159384888,3,left
0.985,0.09454229496447726,0.9716777796350465,0.04327781113681997,0.1267908942540903,-0.024040992436596173,0.07593204715409607,0.09795110765001859,0.2736572446974767,-0.064178643197464,3,left
0.99,0.10600414406800857,0.968151901146756,0.03969990968021431,0.12654909883888749,-0.023936842841704817,0.075748056803811,0.08866533625853962,0.23743139732318386,-0.059865521344503035,3,left
0.991,0.11288051245562784,0.9672296379564361,0.03472682029564636,0.10968876625066397,-0.016545679093674485,0.06276598959777163,0.09426931303748688,0.2592884682887585,-0.06246738973327104,3,left
0.993,0.1198564700465744,0.967508220859498,0.029830104934821616,0.15112598098665253,-0.03471118933342013,0.09467142615689625,0.0919830604820365,0.2503804920671359,-0.06140790062630699,3,left
0.9940000000000001,0.1275556959423425,0.9677991677978883,0.022175607297073237,0.08242730715172063,-0.004592487581169905,0.04177382625586881,0.09196157836290361,0.25028107456020554,-0.06139442916293981,3,left
0.998,0.1303118152572183,0.9685707192481118,0.015591315909109884,0.1730346249058618,-0.04431854379933494,0.11154279620897208,0.09314584585054164,0.25491642940754167,-0.06194796904582754,3,left
0.9990000000000001,0.13110962554923405,0.9690849285024151,0.014316061391845497,0.5534657578784481,-0.21108139306758136,0.4044572446943179,0.09171911834198265,0.24934384953303734,-0.061283771382479535,3,left
1.0,0.13479125440432602,0.9718017934684968,0.00960093157188267,0.6440750672336271,-0.25080800982469137,0.4742278227689298,0.09284277217728854,0.2537148965390973,-0.06180277900165708,3,left
1.004,0.13761271893304527,0.9753209590638579,0.0006259900804390017,0.5753598714497659,-0.2206871061093802,0.4213207245674627,0.09221281217499194,0.2512979728428696,-0.061519595284100004,3,left
1.004,0.13962133750130712,0.9779973168721205,-0.00586967672907145,0.6168471555477224,-0.2388580369817154,0.45325297991957614,0.09239988789079565,0.25195773222109524,-0.06159024854364924,3,left
1.0090000000000001,0.14236787594622313,0.9829700958351242,-0.011473102222256323,0.5998890581470471,-0.23145723425601675,0.4402200302857452,0.09249821116144705,0.252427247947997,-0.06165584854298633,3,left
1.01,0.1450781057544398,0.9884759824374103,-0.0172085442065723,0.5997875283694782,-0.2313660407796742,0.44010767180878657,0.09227109040270479,0.25147268804287903,-0.06153446232567051,3,left
1.014,0.15044986636537214,0.9911515393073308,-0.02057714485296652,0.6084938490843479,-0.23522868606278022,0.44684499203454925,0.09253016660952168,0.25248288989373013,-0.061654671743590794,3,left
1.014,0.15666784879275691,0.9925656106010419,-0.020968495461372152,0.5979608588145373,-0.23059156294702535,0.4387204548762408,0.09226663563022836,0.25158162904948844,-0.061561716994360076,3,left
1.018,0.16193864581449738,0.995244937143132,-0.019966358764893694,0.6063247294655286,-0.23421882483079023,0.4451315860195476,0.09254853353211444,0.2523913911863253,-0.06162532801928033,3,left
1.0190000000000001,0.16644985536884296,0.9977566938397134,-0.01959263925917524,0.6015054236324197,-0.23223231056061128,0.4415134036448218,0.09224079933650475,0.2516235508984358,-0.06158284357513098,3,left
1.023,0.1675717474597206,1.0001867200680725,-0.01749373566785749,0.6031613740504116,-0.23274109900325513,0.4426291564656724,0.09252759306091093,0.2522810120846809,-0.06160895273336114,3,left
1.024,0.16856963027224736,1.0043549592460193,-0.014836932137056464,0.6035556911902225,-0.23318029014108396,0.44312812207331653,0.09238951329505585,0.25200913477110143,-0.06160672892547502,3,left
1.028,0.16995182051796692,1.0098113416043457,-0.01292281031458739,0.6021406348469416,-0.23234772159308092,0.4418829172836608,0.09218458971619298,0.2514389845992084,-0.06156482446868777,3,left
1.0290000000000001,0.16656888677624532,1.0161950068445216,-0.004872410345235457,0.604060295451057,-0.23318727967574715,0.44335948516218254,0.09292300711326532,0.25331474546317717,-0.06167444323866208,3,left
1.033,0.16292420498587573,1.020068247290956,0.004009746722865925,0.6016169525673449,-0.23251015219737453,0.44176727132508486,0.09159097133882602,0.24998249007377546,-0.06148858762658687,3,left
1.034,0.1608277208359468,1.0216488257231995,0.008831698533174922,0.6048298859253443,-0.23301844573842267,0.44358072595393194,0.09328799773684249,0.2542085254454023,-0.0617209484291063,3,left
1.037,0.1551355421961651,1.024988888574501,0.015266422681962169,0.600871755090709,-0.23262607162972987,0.44151810405122716,0.09187673216657977,0.25070269282367186,-0.06152962405193315,3,left
1.038,0.1470936939062311,1.0292107021403314,0.01935528985566661,0.6047856047481049,-0.23291053620349994,0.4434818285269334,0.09190662175429237,0.2507632761236453,-0.06153069457492366,3,left
1.043,0.13859961734021947,1.0336372017085735,0.022890886842675495,0.6027291702273506,-0.23283577977946607,0.4425046338823858,0.09461986630684444,0.25753945948618745,-0.06190643287585575,3,left
1.043,0.12905916826709535,1.0374952235312414,0.02731004299094518,0.6003191743130489,-0.23249275435445024,0.44117278712675934,0.08796274433505916,0.24093402058458743,-0.06098886698109493,3,left
1.0490000000000002,0.11996227156986806,1.0398623467792412,0.028975998717128904,0.6096905987611758,-0.23348019864435676,0.4460987686201153,0.09899658809966716,0.2684479194306749,-0.06250796994056249,3,left
1.05,0.11569568947211475,1.0413128422043207,0.031836489310826666,0.5925891659116774,-0.23177013562534088,0.43717645278310263,0.08444380086874845,0.2321639479335489,-0.06050512606545118,3,left
1.052,0.11480522063224513,1.0420680342490367,0.032346123213989955,0.6144478593371365,-0.23392260839720977,0.44855688676111083,0.023356862201620122,0.07983603550818791,-0.052094838544801,3,left
1.053,0.11092035033038208,1.043093427877782,0.03313852003573113,0.5962418555039891,-0.23214338373435978,0.4390873434285484,0.00880190761956727,0.043552983417427894,-0.05009222446719735,3,left
1.054,0.10581137456996459,1.044815529482141,0.03643227312817256,0.5966684809374831,-0.23216472910509067,0.4392961006265915,0.019838262568796432,0.07106202413502355,-0.051610560940000334,3,left
1.058,0.10253051055214493,1.0468840127186119,0.03458937083066117,0.6315593125193582,-0.23562918565832386,0.45747986128862506,0.013181443585146163,0.05446989113724811,-0.050694734761378826,3,left
1.06,0.10072715190382572,1.0483349821212675,0.03215954326315112,0.5458982165044108,-0.22715164126693163,0.41285351111741253,0.015888123748384813,0.06122116275745043,-0.05106751623975385,3,left
1.062,0.1007299864151962,1.0507003275742384,0.029420379333198732,0.6878909933710791,-0.24119515818362663,0.48682307143263737,0.015932948539286552,0.061316499932001944,-0.05107242244267095,3,left
1.063,0.10109696453304409,1.0541232751872287,0.02595940094331414,0.5006180090226153,-0.22267415564839976,0.38926253520110765,0.014499619391234848,0.0577759263009069,-0.050877621064267915,3,left
1.068,0.10168561811866811,1.0540096276198545,0.02597634193496092,-0.28551942680666464,-0.14492816609067805,-0.02025903654781777,0.01621942815248059,0.0620177089676536,-0.0511109178284411,3,left
1.069,0.10382697041869313,1.0525597271373717,0.02445919517356382,-0.4727856751226868,-0.12639951794227652,-0.11783091560337956,0.014876054393876336,0.058713657893479355,-0.0509293498227201,3,left
1.07,0.10746782961907286,1.0515107908032495,0.020791638456111497,-0.33080991580820296,-0.1404521416603732,-0.04384862102507534,0.015598383873198564,0.060495250592210656,-0.05102735460643821,3,left
1.073,0.11312022167790638,1.047163408062673,0.0173449011273782,-0.41643932115068916,-0.1319747867168414,-0.08847194031854688,0.015451259871355412,0.060089700289157125,-0.05100426435524677,3,left
1.073,0.1190201347997309,1.0432998066145098,0.015647348668516747,-0.38159536252217985,-0.13541789946539481,-0.07032551376541665,0.015210200991258218,0.05961297785694772,-0.05098018102298554,3,left
1.0759999999999998,0.12421101562860339,1.0419311873785366,0.012604300908067072,-0.38111534832769794,-0.13548924109971816,-0.07003417309242493,0.015626965082652527,0.06043817819267262,-0.051021904174382654,3,left
1.077,0.13266378540366722,1.0385230318794574,0.0063712110188491764,-0.3993599000960917,-0.13363507099959654,-0.07962393012969926,0.01521026743732584,0.059661605360368686,-0.05098372480475398,3,left
1.081,0.14269478430401114,1.0342423020797282,0.0036804144529025773,-0.3775102879321136,-0.13586624813597165,-0.06812153110946134,0.015503465094296235,0.060183492013548265,-0.05100880259746256,3,left
1.082,0.15098019416589892,1.0334712870054978,-0.0011412560371359313,-0.394519657016294,-0.13411465755394975,-0.0771006675898744,0.015414055803849025,0.059958773419013865,-0.05099635587203441,3,left
1.087,0.15941844861907123,1.0345390701034585,-0.008430842159906372,-0.38534354427825723,-0.13505196033133404,-0.07226974632388777,0.015252823047260965,0.05994463176160529,-0.0510025152198486,3,left
1.088,0.16682985843283887,1.0338335681980162,-0.012866210933848661,-0.3874738075093938,-0.13490045123217595,-0.07327875498600764,0.0156709162576961,0.06010058218978838,-0.05099528050063852,3,left
1.094,0.17364002187299143,1.0333869763659977,-0.020172803594306836,-0.3898138678408544,-0.1344786906419198,-0.07482162571239542,0.01505868453189628,0.05989667608403256,-0.051007647809237985,3,left
1.095,0.18240272060180507,1.0331290263360526,-0.02444168073602352,-0.385762598861625,-0.13520705394056595,-0.07215372641014335,0.015696090695937567,0.06007589246082862,-0.05099237168987005,3,left
1.0959999999999999,0.19122514941138735,1.0313033621983436,-0.026051666619688177,-0.38951556362806805,-0.1344338942378786,-0.07479252006468548,0.015327566381485346,0.05997202148929739,-0.05100115833160661,3,left
1.097,0.19808190719628643,1.0311029916784773,-0.031367801002306114,-0.38702535821983364,-0.1350005791169373,-0.07295038003596017,0.015044000864822361,0.05996671275823698,-0.05101345146161387,3,left
1.103,0.20217550101254264,1.0317877057839584,-0.035945009308751566,-0.38818712112109427,-0.13488856861749554,-0.0735506054415431,0.01632934688249843,0.06009875816747451,-0.05096580311962175,3,left
1.103,0.20330225206274416,1.0319851609187203,-0.04129084126914338,-0.3878823858996612,-0.13432415457092145,-0.07440309416969315,0.013943294623681482,0.05984868718898033,-0.051053820755338646,3,left
1.1059999999999999,0.20388538025525085,1.0332022942950554,-0.04629609775958264,-0.38794046804811927,-0.1356770538335958,-0.07212267160838456,0.017004470123683953,0.06016253077277028,-0.050940459643557985,3,left
1.107,0.2053550404659692,1.033949584443441,-0.052007612110516604,-0.38770568616216927,-0.13367348326334572,-0.07544725548361003,0.014449869247014049,0.05990407555730008,-0.05103521158264762,3,left
1.111,0.20549604299231589,1.034840876174069,-0.061056134092712294,-0.38815255609876154,-0.13578981600700402,-0.07200585329411097,0.014523173256171426,0.05991912758940427,-0.0510332827482857,3,left
1.112,0.20393140896593864,1.0371507519034404,-0.06551296711479696,-0.3878966003507083,-0.13456689522818382,-0.0739950401559614,0.019377668798087284,0.06037600436221147,-0.05085017399825096,3,left
1.115,0.20059212182032723,1.0391549627610348,-0.06853617971316041,-0.3872393295331406,-0.13355552613580068,-0.07548362055886997,0.007441971239199863,0.05924804973561688,-0.05129955877313665,3,left
1.1159999999999999,0.1967181125964047,1.0401577730527656,-0.07594874333386398,-0.3895502755217712,-0.13803691969411502,-0.06867702875429496,0.02723265810288994,0.061116222544391675,-0.05055466862751377,3,left
1.121,0.1959251273838965,1.0409967937845956,-0.0804130084924859,-0.38529304802569697,-0.12972364199019787,-0.08131357735083447,0.0011285417283459602,0.05865579159025588,-0.051537014222835395,3,left
1.122,0.19472026195396785,1.040792847866438,-0.07966836265228094,-0.39079537617586835,-0.14039443513712072,-0.06510744635790489,-0.10842802891807177,0.04834227595647973,-0.05566313959112998,3,left
1.123,0.19059362287136616,1.0387716838802437,-0.07832384708736076,-0.38618576287850326,-0.1314879629018117,-0.07862713850805488,-0.13453399197523225,0.045888803689445444,-0.05664493124217525,3,left
1.126,0.18747285390201354,1.0372956024418558,-0.07869722368042051,-0.3862635284904747,-0.13173263266742358,-0.07824055384544899,-0.11474041818583033,0.047746099055837876,-0.05590090725610625,3,left
1.127,0.18645826634726265,1.0357298775095614,-0.07957725449787305,-0.3952515270496014,-0.148698363358967,-0.05255540090172106,-0.12667850447544368,0.04662714177558604,-0.05634957486511136,3,left
1.131,0.1836206402121522,1.0330320309093468,-0.07895361059319503,-0.3731971527037847,-0.10699713003447041,-0.11569789459291005,-0.12182414526957612,0.04708454031415767,-0.05616642650708607,3,left
1.1320000000000001,0.17910734951294438,1.0324209111285323,-0.07929715560796699,-0.40976589342505076,-0.17613791600848805,-0.01101146532682358,-0.12174621135241429,0.047082133980063376,-0.05616588458206423,3,left
1.14,0.17979857563744805,1.0328239738727807,-0.08028324163054865,-0.36152262696502957,-0.084944097854465,-0.14908158798314827,-0.12431092259477554,0.046861789515967006,-0.05625760579412424,3,left
1.141,0.17955438949917374,1.0323225281701207,-0.07911393906492303,-0.15888092426014197,0.29784525128484474,-0.7286232791973146,-0.12123534217022527,0.047121344964598064,-0.05614856450571143,3,left
1.1420000000000001,0.17355610086103446,1.0337341839673586,-0.07916952024529883,-0.11062434314147099,0.3890351755761717,-0.8666767730764048,-0.12363566419375376,0.04692503867208295,-0.05623230059115571,3,left
1.1420000000000001,0.17188278934090181,1.036425563801797,-0.07902960925952479,-0.14721599283754827,0.3198994433858947,-0.7620127650002815,-0.12234412793531309,0.0470337872141057,-0.056186513816800565,3,left
1.143,0.1718821034823852,1.0383782532256909,-0.07703387574615977,-0.1251369782288716,0.3615993005994491,-0.8251464103873648,-0.1226157062997625,0.04698325359423565,-0.056202393901775435,3,left
1.145,0.16807303885764782,1.0396623236088096,-0.07615688001284321,-0.1341392854647286,0.3446257355743887,-0.799433927087819,-0.12302300753263672,0.047025574178259325,-0.05619956030067472,3,left
1.145,0.16411042821566446,1.0392612582898153,-0.07563312815442613,-0.13422774688003103,0.34440202448226126,-0.7991277580248064,-0.12231877182641204,0.04695289825936694,-0.056204320484444584,3,left
1.15,0.1596373947287451,1.039330189198584,-0.0782137098080107,-0.12956958532940152,0.3532751619234673,-0.8125148480274519,-0.1230130179076775,0.04705805537960803,-0.0561920887345498,3,left
1.15,0.1527924625287308,1.041482773427869,-0.07980717857666447,-0.13516174536327885,0.3426416659071999,-0.7964623747113029,-0.12252952312513113,0.0469676409258841,-0.05620448550348377,3,left
1.155,0.1444067351425137,1.0423946141650253,-0.07642301390338964,-0.1307887111406214,0.3509312317248152,-0.8089924849322458,-0.12269024339634887,0.04695135084828277,-0.05621076369046287,3,left
1.155,0.13574039466120605,1.0423310681865852,-0.07581349212673653,-0.13320005801192916,0.3464353671925694,-0.8021464372100034,-0.12290082719749433,0.0471835913703996,-0.05616202449199742,3,left
1.16,0.12530975511623,1.04274333545085,-0.07532921557898187,-0.1325247817865392,0.3475235527683955,-0.8039212244314047,-0.12233059982201885,0.04666117142851772,-0.05627013779985232,3,left
1.16,0.11549061553476564,1.04149489798942,-0.07257757927516857,-0.13212649318109432,0.34859697278556057,-0.8053269529594025,-0.12316065584441886,0.047442501160843906,-0.05610800967718389,3,left
1.1640000000000001,0.10779556271384258,1.0406279297881889,-0.07242015040383644,-0.13293209263528177,0.3466823152426106,-0.8026974838014778,-0.12230315040671424,0.04660698120536456,-0.0562819545159874,3,left
1.1640000000000001,0.09683194264579689,1.04151091298681,-0.07215778704726583,-0.13213644422240453,0.34849791956405124,-0.8052315593265698,-0.12279902709605495,0.047089760372213074,-0.05618132092872345,3,left
1.17,0.08459108613133014,1.0414883278721072,-0.07088567592709104,-0.13282213900832376,0.34720590213129365,-0.8032736566162708,-0.12316531434916171,0.04751150994892292,-0.05609272122036639,3,left
1.171,0.0748815668634302,1.0421468603248363,-0.07005330699968222,-0.13210723788819817,0.34797564838863915,-0.804837215226148,-0.12148278013331804,0.045672852107749094,-0.05647843513536542,3,left
1.1740000000000002,0.06471497900938464,1.0437276884718065,-0.06943693285190611,-0.1330584368549681,0.3475048913766481,-0.8032143849436988,-0.12460729999364997,0.049082410483093274,-0.055762883189047825,3,left
1.1740000000000002,0.05364289154741533,1.045345067454969,-0.07191034469648436,-0.13180313524088,0.34789865359401684,-0.8051683699315145,-0.12059996677183717,0.04470377648079918,-0.056682274790794684,3,left
1.179,0.04402244371359168,1.0482623334921095,-0.07525053173681812,-0.1331105336444092,0.34753629791870205,-0.8031721735708063,-0.12394371459086585,0.04835967961819,-0.05591402805710666,3,left
1.179,0.03311080717258324,1.0523444036532361,-0.07704695317158278,-0.1324036859954691,0.34765501598965387,-0.8041885138486946,-0.1238455591585351,0.04826088303067182,-0.055936028010386385,3,left
1.1840000000000002,0.020453493733113892,1.0575183025173658,-0.0801945872001039,-0.13155480726673524,0.3482065784122942,-0.8057441753101071,-0.11750006738179662,0.041288338452738244,-0.05739840498220768,3,left
1.185,0.010447564040231772,1.0631860478685775,-0.08407062424439539,-0.13487700358933083,0.3465278416234734,-0.8000476929970026,-0.1331037750461118,0.05842640357639568,-0.053801446244724896,3,left
1.189,-0.0019327300173593838,1.0701910109877482,-0.09017842927963854,-0.12878768347564307,0.3495085544847545,-0.8104117394082058,-0.10723096711083784,0.030010090799861444,-0.05976726370644515,3,left
1.189,-0.013288820059177415,1.0749027685237549,-0.09594654630670982,-0.1365894617477625,0.3457106755182635,-0.797147954898584,-0.14135671510786074,0.06749164039309082,-0.05189690270087373,3,left
1.189,-0.015542509464863302,1.0759088076567065,-0.09809199336330295,-0.13008468679212504,0.3488697205020874,-0.808204415578047,-0.2845440710868287,0.2248083297229187,-0.018903014187235157,3,left
1.193,-0.0224300407582125,1.0824425126999588,-0.10341616534647985,-0.1302311399521614,0.34882942287028207,-0.8079717435690787,-0.3186658979446092,0.26228962034921977,-0.01103411509011457,3,left
1.194,-0.03568267067800478,1.0902193339784474,-0.11136418425339684,-0.14272730840041808,0.34265654537263923,-0.7866679322630314,-0.2928035566306273,0.2338751709447095,-0.016993021429794725,3,left
1.199,-0.04546236542607343,1.094740598051335,-0.11871919811654263,-0.11205199855935141,0.35777628419925134,-0.8389542834428534,-0.30838683152707186,0.25100773494153,-0.013414338118318563,3,left
1.199,-0.057813428714987194,1.104776622017719,-0.12676403627529723,-0.16289899808924782,0.3327196974261978,-0.7522778493727132,-0.3020727178027658,0.2440458217633969,-0.014843044947622766,3,left
1.203,-0.06687104142047434,1.1123000687133675,-0.13138306502233424,-0.09583765015465788,0.365769199578987,-0.8666054185852199,-0.3019374123020844,0.24393187367638275,-0.014911491742698142,3,left
1.204,-0.0683107251778696,1.1137447962791929,-0.13302872842509258,0.1858362883823726,0.5045290371037384,-1.3464920531308953,-0.3053101160719543,0.24760331765159851,-0.014097464500720303,3,left
1.204,-0.07594360869347452,1.1221195030028293,-0.13700028660617863,0.25290625502503805,0.5375833334632407,-1.460824857439023,-0.3013043141355716,0.2432169317403587,-0.015036444314830606,3,left
1.209,-0.08753860441772085,1.1328429563576357,-0.1430535825542722,0.2020310015836289,0.5125254415007405,-1.37415563503334,-0.3043717853931826,0.24661549271369054,-0.01436072063130159,3,left
1.21,-0.09604460153895195,1.1397114196332443,-0.15086890578993242,0.23276981201802827,0.5276294580029941,-1.4263942259517624,-0.3028178683970741,0.24481653923500243,-0.014618364984568437,3,left
1.214,-0.10418456335799905,1.1489458387970104,-0.15757439399354414,0.2201663508734474,0.5215021323317206,-1.4052032240634447,-0.30299337355522593,0.24516724506730841,-0.014750922007633558,3,left
1.214,-0.11213031026075321,1.1582920329065045,-0.15939351613904468,0.22015840946844073,0.5213827610520747,-1.4047906402545212,-0.30369107761416614,0.24574015726373427,-0.01437788317519241,3,left
1.219,-0.11912262278029191,1.1659607801155192,-0.1609196657113337,0.2265385166521322,0.5246400205579109,-1.4160547700905552,-0.3027206447864512,0.24482830412846898,-0.014770735992580757,3,left
1.22,-0.12597512388310295,1.176986476623192,-0.16391191807685396,0.2187685361765228,0.520763277952256,-1.4026470045615738,-0.30343939155590105,0.2456192655889172,-0.01460651056204274,3,left
1.2229999999999999,-0.1345254537183217,1.187703976513722,-0.1635890789366121,0.22501561757051636,0.5237428527922418,-1.412956532849809,-0.3033317045937439,0.2452148750398776,-0.014317607604575969,3,left
1.2229999999999999,-0.14195529054312087,1.1956263318305105,-0.15959268974718668,0.22127098250262328,0.5222128683908824,-1.407652462267515,-0.30268537695432257,0.24515862231976096,-0.015183644500288699,3,left
1.228,-0.14919477943676535,1.2053384028557073,-0.15572563196952807,0.22280087272240617,0.5224246630379842,-1.4084064502896378,-0.3039638793597568,0.24558780979763956,-0.013819129130634798,3,left
1.229,-0.15898781987648192,1.2152186532058602,-0.15207504049602538,0.22272023595674673,0.523049671877543,-1.4105415961520742,-0.30248592950220177,0.24500395059245864,-0.015300380379680477,3,left
1.2329999999999999,-0.1678832592436951,1.2232685972400223,-0.1463950200868554,0.22196939763720683,0.5221500261153238,-1.4074511498460662,-0.30341709116261606,0.24542601368235947,-0.014426481461703103,3,left
1.234,-0.17795356613196905,1.2317338262766009,-0.13996015541108922,0.2233934017753913,0.522846551079122,-1.4098609499253159,-0.30397972319258004,0.24552647211602502,-0.013729240837165977,3,left
1.237,-0.18837072700899277,1.2402434992638127,-0.1327707297778123,0.2210336686890268,0.5226676532603425,-1.4092013039392763,-0.30107444772428105,0.24460094190289725,-0.01688436913753645,3,left
1.238,-0.19637675017369083,1.2472328648443531,-0.12470780046770288,0.22467072933495025,0.5222120933140197,-1.4077183549082124,-0.3065670666025613,0.24643212883744792,-0.011008340475487158,3,left
1.242,-0.2054451452679097,1.2552991440374264,-0.11869032181423798,0.2198634054580456,0.52319604235524,-1.410983793165307,-0.29947634974054005,0.24403944618561899,-0.018562875499098463,3,left
1.2429999999999999,-0.2154512986210276,1.2641899946168351,-0.11066347898466797,0.22476147590052042,0.5220359332802762,-1.4071174598937102,-0.3054123560848224,0.2460544178274482,-0.012251161326540862,3,left
1.249,-0.22262597616478239,1.2703993056686609,-0.0982133073735179,0.2220837477548048,0.5227805349454848,-1.4096096726588119,-0.30522617663605356,0.24597303336323295,-0.012430388738443522,3,left
1.25,-0.22554968566972147,1.2758943160554579,-0.08865937946606522,0.2193017681383026,0.5231914781426641,-1.410955159471979,-0.2939750677655314,0.24220232084678103,-0.024443812327253237,3,left
1.252,-0.22827448395821498,1.2797967198055102,-0.08097137234557097,0.23060248958108612,0.5209672952359882,-1.403585613093751,-0.3216662881925154,0.2515090466632215,0.005097178058539393,3,left
1.253,-0.22975507731119388,1.281154228495037,-0.07164119823506494,0.2098526297096372,0.5251921586531569,-1.417602231986729,-0.27573832437076606,0.2360634962522628,-0.043889764133238404,3,left
1.258,-0.22733251922812442,1.2826098704133373,-0.06713156807881535,0.23642056901801736,0.5197318480124661,-1.399478453552223,-0.33632288355857537,0.25644133104230965,0.020727555665398245,3,left
1.2590000000000001,-0.22714475578636206,1.2839805109645237,-0.06739711770366712,0.2142741484303389,0.5243042434099001,-1.4146617727817692,-0.5905771365110875,0.3419585992040233,0.2918726408037353,3,left
1.2590000000000001,-0.22816975522187316,1.2841781257298193,-0.06259515843179828,0.21481975341762,0.524160211187819,-1.4141700579680165,-0.6511614118686144,0.36233742147474385,0.35648716633237487,3,left
1.263,-0.22706146460712015,1.2832382366685153,-0.05446436133352097,0.257189781435778,0.5154966711914162,-1.385433803866674,-0.6052347334872394,0.3468873978379112,0.3075128950839756,3,left
1.264,-0.22399822338655964,1.2821157006764756,-0.04531390658029019,0.1531312529039993,0.5368174345984696,-1.456179788377908,-0.6329226053507797,0.35620577733291525,0.33702086279315746,3,left
1.2670000000000001,-0.2172587927373706,1.2781435126551792,-0.02826206979679706,0.32562818981646385,0.5014602403007897,-1.338837517524813,-0.6216776220196896,0.35241374586030605,0.3250678608400891,3,left
1.2670000000000001,-0.21331547692239497,1.274189976920323,-0.017637363308818224,0.09812840342707135,0.5480926196576582,-1.4936243569550236,-0.6214830354343304,0.35236162191205156,0.32480569342579635,3,left
1.272,-0.21254683565121993,1.2727528955261163,-0.013856053334120627,-0.8568401441617283,0.7438146363772538,-2.143278238377774,-0.6274272748058347,0.3543479379761828,0.33119864618819916,3,left
1.273,-0.2062123354794662,1.268017267762971,0.005497258240146838,-1.0842941522533005,0.7904200399662082,-2.2980572388394624,-0.6203331324702179,0.35196717980388403,0.32361028091876837,3,left
1.273,-0.19520684570106928,1.263147984936813,0.03110866878526135,-0.9118827010466317,0.7551083831154568,-2.1807212263688824,-0.6258183662896373,0.35382406656023246,0.3294135062506587,3,left
1.2770000000000001,-0.1826232275896721,1.25933549544876,0.055660840197475345,-1.0158327081704406,0.7763823298548511,-2.251478310092396,-0.6229364549550493,0.3528172224852486,0.326488819597644,3,left
1.278,-0.1699613409617518,1.2534552265121763,0.08405916039967151,-0.9735609490545047,0.7677413780068874,-2.222697690588763,-0.6234589593829909,0.35305734065188304,0.3267902137104992,3,left
1.2819999999999998,-0.15736984863054929,1.2505275593671588,0.1109353648774069,-0.9729793163336209,0.7676285135643424,-2.222290590184945,-0.6244393157909214,0.35330818232025735,0.3281494739364007,3,left
1.2830000000000001,-0.14247104062884994,1.2530928975686808,0.13717198770863903,-0.9950369524092141,0.7720923531678777,-2.23736126944208,-0.6229221764996008,0.3528607279029957,0.3262814702679401,3,left
1.287,-0.1265059976569662,1.256794389107879,0.16146314457568572,-0.9687328592817869,0.766819925194888,-2.219338817720259,-0.6242002694767556,0.35329132510215855,0.327642186142318,3,left
1.287,-0.10922185947442695,1.259815962357642,0.18398715509181676,-0.9890430755598282,0.7708155513437714,-2.233331838533018,-0.6236268165704048,0.35298145597073094,0.32749478209720373,3,left
1.2930000000000001,-0.08882502385331717,1.2680451623159619,0.20834182660300615,-0.9782665468643061,0.7687714757462198,-2.2258289250951475,-0.6233526753386229,0.35315638234991487,0.32614180813907184,3,left
1.294,-0.06616094277450289,1.2821665004382135,0.23121322350617834,-0.980651431336116,0.7691895826187876,-2.227524244187905,-0.624319692877596,0.35308325539909313,0.3287552855492845,3,left
1.297,-0.041226717008214384,1.295516196733668,0.2507577177521486,-0.9832803389161778,0.7695885004951746,-2.229459014384925,-0.6230846483362111,0.3530923919901039,0.3257515425090854,3,left
1.297,-0.014395705085541147,1.3075217373753019,0.2654494081397515,-0.9792203844337655,0.7692064553513103,-2.2262285769827175,-0.6239351617924249,0.35313339796727655,0.3276330702827358,3,left
1.3019999999999998,0.014508884475714657,1.319708505110071,0.27506235256334044,-0.9821974270878625,0.7690418392544924,-2.2290592597887513,-0.6242426564029041,0.35302482092013565,0.32880115060900583,3,left
1.3019999999999998,0.046702238230227865,1.3293117134328019,0.2811933996132955,-0.9812184043273834,0.769791505505996,-2.2274058724610564,-0.6221116417117732,0.35323430834334446,0.32285185691003143,3,left
1.306,0.08055369582459526,1.33639617361426,0.27941937351218793,-0.9808410394737943,0.7689568129457761,-2.227935781543373,-0.62624912255445,0.3529088464371723,0.3340826092192798,3,left
1.307,0.11162800221937559,1.3417765883682933,0.2715587177431452,-0.9808185893232209,0.7689452770328726,-2.227927870497929,-0.6208695926900064,0.35330365343271714,0.3195906128171436,3,left
1.3119999999999998,0.13845620702393652,1.3430872217024654,0.2616805195139791,-0.9833732434910843,0.7708743881848709,-2.2282057504610626,-0.6253888417245099,0.3529844423194452,0.33171916788966394,3,left
1.3130000000000002,0.16377229749746508,1.3428700442779142,0.24541624828238698,-0.9767519900475989,0.7663057476720209,-2.227037189706784,-0.6252232154398636,0.3529763712216026,0.3313449420011574,3,left
1.3159999999999998,0.1839213958274952,1.3423013526716514,0.2289419222342418,-0.9872747688324862,0.7732531801062542,-2.229219846510511,-0.6167211792392544,0.35362895407078154,0.30834058825107413,3,left
1.317,0.19764137182398167,1.3393644366593098,0.2159662987594354,-0.9756799741590598,0.7657701794583853,-2.2266358750827395,-0.6376806302100377,0.3520503423695054,0.36494863685236445,3,left
1.32,0.21181650428227372,1.3368397270261363,0.20548159959815354,-0.9825006217847179,0.7701179814246824,-2.2282121305570985,-0.6029055115685893,0.3546565938791928,0.2710653206733029,3,left
1.321,0.2202710503270413,1.3364011032454848,0.20180638112193539,-0.9884280124127613,0.773877892561549,-2.2296010121701832,-0.6487819681792364,0.3512250469675171,0.39490538329848524,3,left
1.3259999999999998,0.22123327043036461,1.3362851687228887,0.20087695366589836,-0.9623372161305788,0.7573967044669738,-2.223415599798913,-0.8413180942738647,0.33677325701110117,0.9146948393398775,3,left
1.327,0.22667372571039063,1.3354408134472093,0.20668377694877238,-1.0108633581102062,0.7879880794284864,-2.2349842405793905,-0.8871954801767139,0.3333475382830143,1.0385353921027136,3,left
1.327,0.23377583374143568,1.3390732864278534,0.2171157051229533,-0.9484555115191405,0.7486891174770087,-2.2200608275972478,-0.852414316562256,0.3359457900789232,0.94464616965675,3,left
1.331,0.23911780824846707,1.3487071415262966,0.22647804818487194,-1.0006017187929945,0.7815042767765827,-2.2325533122585233,-0.873391235317901,0.33437078031212497,1.0012730583974607,3,left
1.3319999999999999,0.24422911809925066,1.3576240325843532,0.23895928675072298,-0.9991886477581093,0.7806222124605899,-2.2322070444753983,-0.8648557343488171,0.33503190981087283,0.9782312071149415,3,left
1.338,0.24714846262911228,1.3664823832426687,0.2449910343563098,-0.899685777145375,0.7180203624433842,-2.2083551856404213,-0.864737527207409,0.33499718564798164,0.9779114361504928,3,left
1.339,0.2485202640509465,1.374043744110058,0.2433421508967457,-1.1442899528597383,0.8718828025876044,-2.2670203930086634,-0.8692084694415572,0.33472280576081703,0.9899829105183109,3,left
1.34,0.24355663065075364,1.3765436518661764,0.23301157673464204,-0.7386881348916424,0.6167742182008467,-2.169714905447917,-0.8638524576698844,0.33506470605025596,0.9755215279084851,3,left
1.341,0.2376954306300854,1.3781707087040476,0.21952123771365395,-1.273706008017593,0.9532575449571725,-2.298092354032876,-0.8680254449768086,0.3347774186182525,0.9867877728059776,3,left
1.3419999999999999,0.23622258352513686,1.3793328646842071,0.21414831265967704,-3.5193827743199457,2.3657452703797492,-2.8367944660946343,-0.8657690372633917,0.3349969763703877,0.9806999701052952,3,left
1.345,0.2285703070788438,1.3779099308820115,0.19647910878683383,-4.054439579232582,2.70222014658403,-2.9652162246492075,-0.8662994771687552,0.3347951252257666,0.9821211639840712,3,left
1.3459999999999999,0.21726382204060787,1.3736373289132686,0.16936704188044321,-3.6487827245843496,2.4471180578407825,-2.8678540084913977,-0.8668685932056426,0.33503138362064,0.9836761723640156,3,left
1.35,0.20607127914829532,1.36619607803037,0.1495389657847641,-3.8934166253913123,2.6009933521176203,-2.926532110225496,-0.8658697698738687,0.33476421564675257,0.9809567415745959,3,left
1.351,0.19014322665694766,1.3566079952839032,0.12958103146722005,-3.7939591683239544,2.5383418430561635,-2.9027751021006023,-0.8668115069432235,0.33496617837695125,0.9835174827244234,3,left
1.355,0.17083852196002525,1.3453435514030114,0.11297669992683543,-3.79238537967949,2.5375537118006615,-2.9021818792459557,-0.8661617411735814,0.3350173698097815,0.9817635785396884,3,left
1.3559999999999999,0.15016914690220906,1.3323470741339825,0.10186078131603213,-3.844812467994602,2.570244530247842,-2.9150627726305967,-0.8664965279597054,0.3344865323652704,0.9826328655001917,3,left
1.36,0.12642171408242264,1.3170292651944773,0.09631191400050637,-3.7820619076017516,2.5310564690895085,-2.8997097068390962,-0.8663796110993287,0.335650898730799,0.9823961612895503,3,left
1.36,0.09833224039611774,1.3009166687754696,0.09867240468850792,-3.8308529499459327,2.561623980250741,-2.911543365525283,-0.8663987852206974,0.3339256463334957,0.9823300632186196,3,left
1.365,0.07059100492835302,1.287318696607168,0.10377900381110094,-3.804786772841351,2.544992282947626,-2.9055434007183836,-0.8664072850368247,0.33576248289430033,0.9824787932711964,3,left
1.3659999999999999,0.03960128613863456,1.2748698622403984,0.11407795671227206,-3.8101709689527286,2.549141937832408,-2.9060192492083337,-0.8663566420888613,0.33470481423096576,0.9822691937626179,3,left
1.37,0.003932343791612574,1.2646179669884716,0.12554465748824034,-3.818190852620386,2.5528721641938708,-2.9093478549002487,-0.8665393976717642,0.33377541783057174,0.982700335906255,3,left
1.371,-0.029821896726235905,1.2626924346620616,0.13288698312686562,-3.804844803659829,2.5460897933046414,-2.904423129927516,-0.8661102833510909,0.33781364229596267,0.981815526753974,3,left
1.376,-0.06658962362738023,1.2688523003910435,0.1451299207714779,-3.8171810906353643,2.552564193516896,-2.908755917539642,-0.8668390510109089,0.33033035643549435,0.9832749010810801,3,left
1.376,-0.10193066374643964,1.281683146315179,0.15945768312738862,-3.8096156878348397,2.5477944913737582,-2.906953071909333,-0.8659184849734494,0.3399375133107982,0.9814426101257836,3,left
1.381,-0.13315527169556512,1.3021586237765448,0.16788745284862536,-3.811007257823737,2.5510528585440113,-2.9047394437833,-0.8666806274600094,0.331918339429795,0.9829542188290578,3,left
1.382,-0.14965838244923332,1.3320848494998732,0.17657583660672616,-3.8153860139053593,2.548360848507895,-2.911611603151064,-0.8666840351102844,0.33213156086263684,0.9829800949500128,3,left
1.3840000000000001,-0.14659142467144803,1.3665845259197011,0.19032320651282025,-3.8070433572622875,2.55123813642607,-2.900925335501099,-0.865152585496842,0.3474332265288986,0.9798821091205359,3,left
1.385,-0.1323434021599093,1.4004104674219457,0.20284919094572895,-3.8162738942414483,2.5483829734432404,-2.91239792606288,-0.8688877509145383,0.3098298827890716,0.9874145696826606,3,left
1.389,-0.07432528954630152,1.4409496543164302,0.20947858199265612,-3.810408103266235,2.5496977830181504,-2.905641386873583,-0.8627028910776753,0.37217421127896066,0.9749505111145895,3,left
1.389,-0.01863530738096037,1.46788414540742,0.21189723324393325,-3.807988945899519,2.55249002711275,-2.9004497119849972,-0.8708589825340367,0.2899456168225431,0.991382983947017,3,left
1.3940000000000001,-0.0014187251841161048,1.4739007227509497,0.21215082390902584,-3.8228930908035785,2.542985178047711,-2.9242063518606773,-0.9051407124068833,-0.055247193629418885,1.0605177304177253,3,left
1.395,0.07324510216263531,1.4900733445959606,0.21051653532022965,-3.794474182761304,2.560121881794366,-2.879962620021116,-0.9132977839205143,-0.13747072272962033,1.07694790829712,3,left
1.396,0.1930211258201464,1.501845309316176,0.19949211391637572,-3.8311401614434684,2.5382275882556993,-2.936815643679339,-0.9071118634017686,-0.07513187442527923,1.0644863331538061,3,left
1.399,0.29795009021739793,1.4966978977944385,0.18343380732436187,-3.8004588481887502,2.5564612366519888,-2.88933477924118,-0.9108466266799876,-0.11273730322944242,1.0720197365309287,3,left
1.4,0.4062752532831774,1.4835674706820572,0.17443244084481946,-3.80156086978582,2.556139376121594,-2.890685726888357,-0.9093186920050604,-0.09741745717481147,1.0689135175796178,3,left
1.405,0.501765095166147,1.4578678669764678,0.16377703472568744,-3.8591727096965576,2.5208086077197875,-2.9810063567707776,-0.9093145352444558,-0.0972433521547707,1.0689571104183258,3,left
1.406,0.5777945039691905,1.4301772642817636,0.14830787491408456,-3.7172503196446396,2.6074451787492423,-2.7589320844303202,-0.9100875248237124,-0.1052064418281755,1.0704433152485078,3,left
1.409,0.6459865720694236,1.3981885682702715,0.1345459340545778,-3.952645415116775,2.463848743839402,-3.1271599011501636,-0.9091561557689616,-0.09565513213066433,1.068636323366328,3,left
1.409,0.6807351909403208,1.3751740291417662,0.12656487723158183,-3.642156680279832,2.653251557370237,-2.6414719989108963,-0.9098895876582231,-0.10311432280427853,1.070084777679932,3,left
1.41,0.6882687007703056,1.367801692536577,0.12449276191849137,-2.339328755350084,3.4486343156998838,-0.6030179268829368,-0.9094697432700525,-0.09902813748046921,1.0691782529779355,3,left
1.415,0.7090666844313922,1.340658763849265,0.1214369606604272,-2.0288907277127386,3.6380901648714254,-0.117370201247618,-0.9096226262522085,-0.10011202168143324,1.0696793624487064,3,left
1.416,0.7321311443545022,1.3059287345020936,0.12620632254488962,-2.264213477721894,3.4944022126573593,-0.4855196992237937,-0.9096234616149941,-0.10090350563951256,1.0693491975132845,3,left
1.419,0.7325421171226166,1.2799365205118747,0.1414433108084766,-2.1223321494246044,3.581137871418936,-0.2635523353057093,-0.9095687776601333,-0.09939333992894656,1.0696459008945314,3,left
1.42,0.7232349483136966,1.2463242533600227,0.1564968025025537,-2.1799983014042006,3.5457481697204134,-0.35376266802197354,-0.9096383353579834,-0.1008581613446286,1.0694618174507209,3,left
1.4240000000000002,0.714579517088437,1.210073236358804,0.17270534986490832,-2.1808981740321487,3.5453865857433717,-0.35518092455763833,-0.9095218434877077,-0.09969145846606273,1.069224093736619,3,left
1.425,0.7011523548122487,1.1754916104577262,0.1880925242930664,-2.150574983175355,3.56381050790287,-0.30773966008881803,-0.9097631867812027,-0.10070562290168511,1.0703122571701273,3,left
1.4280000000000002,0.6798457145099298,1.1423090522087658,0.19842324971410363,-2.18679906062272,3.5415602226082195,-0.3643832482748613,-0.9093270139416549,-0.09954989698381941,1.0680580894203349,3,left
1.4280000000000002,0.6536250900934149,1.1123075422541082,0.19964904938576303,-2.1587291896102867,3.5591597333840372,-0.32054555529957984,-0.9099500703663805,-0.100995697432267,1.0713651892542186,3,left
1.433,0.6240588706752709,1.0852936265447557,0.19020192019900367,-2.173647905640144,3.549248131356321,-0.3437546890675566,-0.9092910103890368,-0.09950633865384731,1.0678500647080553,3,left
1.4340000000000002,0.5909671382328183,1.0639166431853218,0.17557366689117443,-2.170554011734055,3.552124877343317,-0.3390752791210189,-0.9096637420754089,-0.10028494088602288,1.06986491851107,3,left
1.4380000000000002,0.5563379664533961,1.0461717243905309,0.1573206403926411,-2.1662072940337946,3.5539900936148814,-0.3321466528930459,-0.9100251068925133,-0.1013618317744405,1.0716822215339348,3,left
1.439,0.523479114621153,1.0337070138724909,0.13878465643036772,-2.173194832189881,3.549720011446699,-0.34307553689891157,-0.9085091036527587,-0.09731310952721096,1.063860249828426,3,left
1.443,0.4955329863865067,1.0272753565281372,0.12755893864527643,-2.1672064819494423,3.5548305980145622,-0.3339511162343618,-0.9113088103844591,-0.10470144711514968,1.0783427763193971,3,left
1.443,0.4748716812408069,1.0224895728510455,0.12488275920818578,-2.17030243019636,3.549612874421715,-0.33823832615232197,-0.9077163602752021,-0.09524161832731294,1.0597512940459866,3,left
1.449,0.46126017795403873,1.0224424302609636,0.12368288349997643,-2.1703173453906217,3.5545692531999613,-0.3390909648344411,-0.9107146763608388,-0.10312786392198586,1.0752711102533241,3,left
1.45,0.45612951914373656,1.0249125934671262,0.12794027515297252,-2.16826018612565,3.550531033775949,-0.3349891637970416,-0.9106371010305359,-0.10295709084989631,1.0748572792170863,3,left
1.453,0.4584692796604346,1.0262720248797286,0.14161142948151662,-2.1704916032639514,3.5522289426357583,-0.3389892873107524,-0.9049076804680165,-0.0877804197237571,1.0452418004714945,3,left
1.453,0.46659263438448956,1.0268292872776115,0.16029317756310596,-2.170217932995346,3.55502981555886,-0.3390045417428911,-0.9189861552341766,-0.12503174178933818,1.118027460351387,3,left
1.459,0.485455407997183,1.0235279072732935,0.18689349018582369,-2.1667778562241597,3.5455948639260573,-0.33169122813702273,-0.8956437918133093,-0.06328145549830871,0.9973447995678143,3,left
1.46,0.4986753706098034,1.0211414577898286,0.2040777571225007,-2.1745102484766803,3.562269347748125,-0.3473666338659373,-0.9264330279811291,-0.14472733860690457,1.156527702642421,3,left
1.463,0.5019597384212119,1.0183189413475677,0.2097457431461109,-2.1639799020201993,3.541222946424761,-0.3263007980850461,-1.0556663433000881,-0.48667176062593986,1.8246702012169886,3,left
1.464,0.5207495659318254,1.0105421876224991,0.22785385454363583,-2.173030767266312,3.5586389241337377,-0.34428911670782053,-1.0864575987192513,-0.5681205376465532,1.9838598372211504,3,left
1.464,0.5451455771730889,0.9973722874086024,0.2511826571822935,-2.1725562338359072,3.558298987371468,-0.3434535065457154,-1.0631130527026396,-0.5063671192182524,1.8631698954191656,3,left
1.4680000000000002,0.5627478507508481,0.9797243030249053,0.27046251568702634,-2.155727187094642,3.524848490499915,-0.309800517227658,-1.0771906891142484,-0.5436172544028636,1.9359527720940055,3,left
1.4680000000000002,0.5802209448039186,0.9609698482010296,0.2885441799335745,-2.1975051824447687,3.6068315124708503,-0.3931411401795537,-1.0714685307458391,-0.5284509610370189,1.9063614830777935,3,left
1.472,0.5896027176698698,0.9336657836566546,0.30885374838326896,-2.1280309096166956,3.4710084018571896,-0.2546582895419918,-1.0713753401507724,-0.5282578534812254,1.9058956222311616,3,left
1.473,0.5916388159281061,0.9144718390012676,0.3228546003398639,-2.2197779220113434,3.650111417173278,-0.4374651201092905,-1.0743960371408632,-0.5361761265347749,1.9214900246609476,3,left
1.4769999999999999,0.5916343147139957,0.9095630046633978,0.3261287162930921,-2.604895043862666,4.4018866085524575,-1.2048144686369833,-1.0707813105854669,-0.526684399659164,1.9028242875242423,3,left
1.4780000000000002,0.5882023076839967,0.8894739837556104,0.3414214729110069,-2.69675056538017,4.580993566028513,-1.3877079434175479,-1.0735906101304382,-0.5340865107512736,1.917338821210488,3,left
1.4780000000000002,0.5806027046192654,0.8647627316284983,0.3614201430243027,-2.6270622713872562,4.445176894932004,-1.2490373563014006,-1.0720937798585264,-0.5300651565618513,1.9095806876950265,3,left
1.482,0.5666322548710392,0.8477776065246001,0.37099054334854265,-2.6691378514491353,4.527120378039605,-1.3326752523080119,-1.072393458845642,-0.5310538475118267,1.9111924788473662,3,left
1.483,0.5485789029479816,0.8303906105840919,0.3785237611000321,-2.6519926789035777,4.493762199783541,-1.298646855889542,-1.0728724348653906,-0.531984444525277,1.9135613651459455,3,left
1.4869999999999999,0.527695838810132,0.8187450701604584,0.3839729357433468,-2.651726979377238,4.493275845167312,-1.2981604567183913,-1.0720830320466135,-0.5303085260620083,1.9096118315624302,3,left
1.4880000000000002,0.5047147015076754,0.8118042802036747,0.38858446369670563,-2.6608557876622463,4.510859959623747,-1.3160151669169833,-1.0728099359631766,-0.5319030966897537,1.9132651472982687,3,left
1.492,0.4832972489944952,0.8081047709450331,0.39160815685485917,-2.6497764579977523,4.489698318789612,-1.294623870516527,-1.0723748453600583,-0.5307486141899167,1.911014331819788,3,left
1.493,0.461685542646762,0.8073121228206463,0.39381357758955216,-2.6586210389856246,4.506325647596384,-1.3112910939773132,-1.072423115503408,-0.5314868894020294,1.9114593977206416,3,left
1.496,0.43950855851388976,0.8074677020085681,0.3966746645963477,-2.6536354521108456,4.497212817272434,-1.3022955383650847,-1.072747575532441,-0.5309508345830507,1.912690881454298,3,left
1.4969999999999999,0.41923977684556524,0.8111017249168024,0.39805276023012404,-2.6548704180286897,4.499360161576423,-1.304354639949168,-1.0721595327033469,-0.5314747117236656,1.9103153674593514,3,left
1.5019999999999998,0.4012718148488586,0.8160713747626211,0.4012055273669327,-2.656472312824169,4.501965796764326,-1.3067495634902393,-1.072805587094864,-0.5309677618923341,1.9129477122409322,3,left
1.5019999999999998,0.3888315317994375,0.8211944988954505,0.4022196836129791,-2.6530955604483415,4.497045965725794,-1.3025817658247354,-1.0724020184760343,-0.5311793437498138,1.9112688433615481,3,left
1.506,0.3810852706140435,0.8264284302427946,0.400461276024342,-2.657288489507848,4.5023569671872306,-1.3065302260566214,-1.0722047729610764,-0.5317640965501143,1.9106047107727262,3,left
1.507,0.3743550999384715,0.8321391608757752,0.39756008210331584,-2.6532244768045814,4.4979461703990715,-1.303836040093039,-1.0733140575815918,-0.529863945376037,1.9147923225540757,3,left
1.511,0.3722457478305149,0.8388004361221425,0.3940497999018345,-2.655996148268608,4.5005506187868525,-1.3050526734053571,-1.0712130345087503,-0.5332684484705619,1.9067959420280387,3,left
1.5119999999999998,0.3752257830719472,0.8415879014906935,0.3963053863146216,-2.6560132709414077,4.500558240464219,-1.3050476639298603,-1.073919922876553,-0.5289242186163257,1.9171143041653647,3,left
1.516,0.37992845735921976,0.8426387965242659,0.4002489362499143,-2.6516194008328977,4.497187339419758,-1.3042828457203215,-1.0716574528295792,-0.5325392033080703,1.908480996410757,3,left
1.517,0.3890703923384977,0.8430636572732462,0.4045757540843812,-2.6613439534724836,4.504275072297468,-1.3054017196199308,-1.0717309590565782,-0.5324850510894685,1.9087907532136834,3,left
1.521,0.39970754647525175,0.838211970193774,0.4104189808792572,-2.6470974826497553,4.494208608341157,-1.3042506005517227,-1.0760018130199651,-0.5254507369902894,1.9249989515479178,3,left
1.5219999999999998,0.4081329378106611,0.830958293503449,0.41492423629822583,-2.6621318298434145,4.504643534563983,-1.3051752128045404,-1.065492963825792,-0.5426867582773894,1.885075538015175,3,left
1.527,0.41986000672820134,0.8178558214976256,0.42295996561216603,-2.6534943774589097,4.498708001711989,-1.3047368197899325,-1.0829166989521979,-0.5141247961459184,1.9512876541339272,3,left
1.528,0.4289064272909815,0.8049105786829562,0.42842595613898027,-2.646066657039941,4.493634294625288,-1.3044024386652247,-1.0599397017607552,-0.5517932790208128,1.8639595808502105,3,left
1.531,0.43117869610401205,0.8012069805731278,0.42891112029567513,-2.6785105136163265,4.515732277931839,-1.3057560762898544,-0.9634569956947776,-0.7100069869525583,1.4974335191241324,3,left
1.5319999999999998,0.4384222064892327,0.7865425426119113,0.4343844190148235,-2.6184010587136815,4.474857409320362,-1.3033542796110371,-0.9404906075552235,-0.7476746150097564,1.410127611470417,3,left
1.5319999999999998,0.450503469935271,0.7590234963302158,0.4408023941241328,-2.6955437478106408,4.527270318945094,-1.306364097975044,-0.957902865188142,-0.7191135794908371,1.4763157471772517,3,left
1.537,0.460621520344889,0.736475023496497,0.44226893548342755,-2.6311612060673353,4.483541753189744,-1.3038807099788896,-0.9473896475808785,-0.7363499463110639,1.4363832078509469,3,left
1.538,0.4757135657616815,0.7111676279409087,0.4389746219932599,-2.6328988090107437,4.48474092820355,-1.3039628239534928,-0.9516985820133363,-0.7293125771971931,1.4526709657535883,3,left
1.5419999999999998,0.4965672881499338,0.6840018485824823,0.43459899147124126,-2.7556455763099454,4.568025839944187,-1.3086019715898503,-0.9516901572796853,-0.7292650067902314,1.4528095467710567,3,left
1.5419999999999998,0.5151186154107232,0.6612152391818757,0.43065086244318296,-2.4539726740707257,4.363318699941781,-1.297198397490929,-0.9495451564217039,-0.7328705476445831,1.4444216650180701,3,left
1.546,0.5373719881073024,0.6298944648403747,0.4231874965163941,-2.9541402073872316,4.702726694352103,-1.316098845289492,-0.952135073970154,-0.7285357304447577,1.4544956407499265,3,left
1.547,0.5547463126026355,0.6069660555972249,0.41881961106796717,-2.2944370156400207,4.255053927888419,-1.29117492594985,-0.9500845142516221,-0.7319361562502991,1.4466046960374372,3,left
1.547,0.5595096354570341,0.6017717074607897,0.41821285139344877,0.4748384775308451,2.3763413367180006,-1.1869203273728215,-0.951294260113521,-0.7300279589660859,1.4510021938572435,3,left
1.55,0.5723254617089655,0.5834880176261805,0.41046007923263483,1.134541661814152,1.9286953935681652,-1.162022476448102,-0.9507734306727182,-0.7306386935328542,1.449662009905491,3,left
1.551,0.5898235384658546,0.5569925200709958,0.3956711212239647,0.6343532242071693,2.2680225802317704,-1.1808464618387564,-0.9509273938511313,-0.7308054719593473,1.4491479774556115,3,left
1.555,0.6029221528171793,0.53729825199017,0.3795120424665488,0.93610020171935,2.0634878322889776,-1.1696030920832303,-0.950889234866018,-0.7303535451271284,1.4503508060771955,3,left
1.556,0.6168123318685208,0.5174882757001679,0.3644575407765349,0.813200700408169,2.146490851887453,-1.1739834049116393,-0.9508466531335944,-0.7308334986109588,1.449114926138357,3,left
1.56,0.628386822605109,0.5006048535620555,0.35016451859950815,0.8116897069657641,2.1480439202883472,-1.1743870151020628,-0.9511760359008472,-0.7302971827467051,1.4503566700443047,3,left
1.561,0.6398781535917155,0.48574019921536876,0.33737293273201974,0.8758290115476703,2.1040102058507926,-1.1716311480502213,-0.9502119326651565,-0.7311166696527167,1.4486866373278753,3,left
1.565,0.6514583619752146,0.4716241575535266,0.32576926147760554,0.7988265185465961,2.156474331476409,-1.1746768643624634,-0.9520903396470806,-0.7297763547322886,1.4512693363175977,3,left
1.5659999999999998,0.6611081925743096,0.46104981366205733,0.313996105793126,0.8590649196247708,2.116046529475475,-1.1726967780574409,-0.9493659712734124,-0.7316483471865425,1.4477119858753489,3,left
1.571,0.6700203717897364,0.4497157242370916,0.30510712970862364,0.8260641722735136,2.1370194510537206,-1.1730121639408058,-0.9522555958567019,-0.7296764570252785,1.451449006988226,3,left
1.5719999999999998,0.6796722673489756,0.43888293551790347,0.2963733485801054,0.8345348199347475,2.133710045586601,-1.1742891630179084,-0.9506090466922377,-0.7307784643941719,1.4493769779537722,3,left
1.575,0.6885654017856708,0.4323433775391672,0.286510308585057,0.8418016377534334,2.1257903609216138,-1.1720581666418006,-0.9490757572145443,-0.7319136653069798,1.4471593433024588,3,left
1.5759999999999998,0.6898659894100596,0.42594010373581015,0.28016200920130574,0.8279965091798411,2.137539102821507,-1.1741379256121616,-0.955599381908934,-0.7272484881930047,1.4561580016048428,3,left
1.581,0.6863849984798973,0.4191170225922527,0.27333108250046145,0.8419397851452104,2.1281002686039034,-1.173626764830533,-0.9435352740415338,-0.7358456596539806,1.4395979559621672,3,left
1.5819999999999999,0.6822502728566786,0.4152273384359019,0.26496886419977284,0.8306540499105356,2.131337333704522,-1.1711579548899382,-0.9590181481737419,-0.7248183541342086,1.4608324834604265,3,left
1.585,0.672666344626923,0.415206747831679,0.25776583565833366,0.8391868145395933,2.135648793121855,-1.1774494571815999,-0.9460960308003502,-0.7340201354967233,1.443117576443428,3,left
1.5859999999999999,0.6555190547985172,0.41707108131084075,0.24777189127788424,0.8325357148138467,2.125092918576496,-1.167835087673752,-0.9464325380342807,-0.7337887942018844,1.4435501115417222,3,left
1.589,0.6388438621355395,0.4162872146576717,0.2368821374434594,0.8374013577443269,2.1378553175410846,-1.1781676744396599,-0.9711143616813688,-0.7161833757931226,1.4774803773010827,3,left
1.59,0.624966590591262,0.41603485827097275,0.22971225740863097,0.8360822237769263,2.129467989780675,-1.1721416918748637,-0.9104666174971497,-0.7594358465030728,1.3941418108834038,3,left
1.594,0.6077950977746651,0.41605353535361445,0.22601952444376738,0.8303056515983821,2.1253882412897145,-1.1671208028425435,-1.01101683319386,-0.6877244085627354,1.532302572544956,3,left
1.595,0.5974513198919386,0.41359181598396433,0.22472764995393912,0.8470266345345923,2.1490562952221346,-1.1894146202394278,-0.8783956089750931,-0.7823143721511845,1.350076485802382,3,left
1.6,0.5948362841665793,0.41211658384096195,0.22466297078737774,0.8180409943240186,2.1037884254613908,-1.1479953288968934,-0.32170161765117683,-1.1793818245161367,0.5851198138636868,3,left
1.601,0.5878549411987674,0.40580681305883526,0.2266699830646593,0.8545289705667092,2.162412970519897,-1.201206244635114,-0.1890911992163104,-1.2739857876418448,0.40290881524413985,3,left
1.601,0.5824708035011797,0.39561179083451403,0.2301274034159073,0.8243786957454171,2.113254977304852,-1.1567728375705495,-0.28962126530392374,-1.2022512572575068,0.5410389757643371,3,left
1.605,0.5828585069005909,0.3849381018285999,0.23428794034204461,0.8247110895746026,2.114922904330352,-1.1579903253775123,-0.22899903461169846,-1.2455261116222849,0.45774476927782043,3,left
1.6059999999999999,0.5874595152969218,0.37059950242687356,0.23642790565900088,0.8834861213058638,2.2077631125670782,-1.2426757447857582,-0.25365787374611326,-1.227912913762958,0.49162493291049875,3,left
1.61,0.5907628282762445,0.35582808535840654,0.23411501771910226,0.739728363950547,1.9790777371595019,-1.0345094152464474,-0.2540025713074947,-1.2276595478551702,0.4920956211858529,3,left
1.611,0.5864337652468758,0.3377124991379641,0.2324444275252393,0.9778142407701174,2.3584443295735493,-1.3796644391637027,-0.2411017484524976,-1.2369239436701471,0.47438177376092533,3,left
1.6159999999999999,0.5843236460146506,0.32530067289608655,0.2313731294738905,0.6638833209583337,1.8579828273593209,-0.9244062598731295,-0.25652214720730815,-1.225795517820216,0.4955455868961656,3,left
1.617,0.5840293787225104,0.3214711976895126,0.23164269794628828,-0.6544837257870602,-0.24198327657671537,0.9866060065400613,-0.2445616401985747,-1.2345083199393785,0.47914541815943046,3,left
1.618,0.5768691461717115,0.3067586400380486,0.2357718784515911,-0.9684088754068184,-0.7424383662186158,1.4418677881132331,-0.2509622956060792,-1.2297640618151309,0.48790669201669656,3,left
1.619,0.5693538516872091,0.289289024991382,0.24077150564170702,-0.7303491768299415,-0.3631008761428998,1.0966964299617423,-0.2495213078789575,-1.2308686001978841,0.48594093559982976,3,left
1.619,0.5601773195913569,0.27605656633812214,0.24768009792742074,-0.8740386973201605,-0.5917103835527383,1.3049053286598287,-0.24788815576223275,-1.232185427096546,0.48372596093399767,3,left
1.624,0.5463633696784578,0.25798414346145515,0.2531644815980777,-0.8153885290496817,-0.49900901062651715,1.2201420210095817,-0.2505782908208967,-1.2297779447225958,0.4873294507987734,3,left
1.626,0.5338510656741595,0.24351579109537497,0.2595957742192021,-0.8148847265243446,-0.4971504869009624,1.2190314487945304,-0.24828628446633913,-1.23225396774357,0.4843398856788261,3,left
1.629,0.5198113749710935,0.23368449746023487,0.27149357870897084,-0.8452029066396096,-0.5464951911216966,1.2633601342577063,-0.24953960475112338,-1.2303282114894465,0.48586607548912,3,left
1.63,0.504080582259677,0.2223616250864312,0.2785941620712892,-0.8086449859985986,-0.48779284967912834,1.2101928264454962,-0.24921551723392912,-1.2313817312426805,0.48557690964704586,3,left
1.6340000000000001,0.4899437224225607,0.2134763589217324,0.2834489430418947,-0.8374802087710188,-0.5328934963385277,1.251705968943467,-0.24922391353824128,-1.231383046825868,0.4855898922597537,3,left
1.635,0.47546678836041245,0.20809376083074246,0.29087384659523047,-0.8212354262482322,-0.5097549163335985,1.2291150932376604,-0.2487436719831476,-1.2301999657455172,0.4846401574585003,3,left
1.6380000000000001,0.4603096157288801,0.20302676921936347,0.2924909510538839,-0.8261939419838894,-0.5129250506049805,1.2346462580675497,-0.25029748818211595,-1.2325780891149876,0.4874375126090029,3,left
1.639,0.44432832135308253,0.19656701816603267,0.2918458007067456,-0.8285161791183226,-0.5224277926644811,1.240046576797102,-0.24760360626236053,-1.2292985146620952,0.48274793282291545,3,left
1.643,0.42900268791388585,0.18961609210487662,0.2935489695459854,-0.8228511467062378,-0.5087764378586921,1.2302125354406397,-0.25069504049730984,-1.2326378551923531,0.4880489833130634,3,left
1.6440000000000001,0.4149173520539148,0.1817306146548801,0.29430685480207314,-0.8294945834545213,-0.5193239375666167,1.239831813868856,-0.2488386318983664,-1.2307584755137109,0.48488962518253387,3,left
1.6480000000000001,0.39920040327471623,0.17189967339789605,0.2987812408148139,-0.8224467449453525,-0.5166634439894299,1.2326139281795858,-0.2472089932084094,-1.2291592896819579,0.4821257847164966,3,left
1.649,0.38534881349940364,0.16336600724558706,0.3059891141142457,-0.8303394903035857,-0.5096537296000108,1.2371992472981062,-0.254425238823351,-1.2360978774855387,0.4943372182643112,3,left
1.6540000000000001,0.3770152940743361,0.15541096327559084,0.3075232177255901,-0.8214579472810952,-0.5247208939820935,1.2345531446507505,-0.2409620263043824,-1.2232877815532692,0.4715802950036488,3,left
1.655,0.36865954833864956,0.1467415049207315,0.30918427352852756,-0.8298669534486437,-0.506971740205172,1.2358389930989842,-0.2583052119737715,-1.2396967261408665,0.5008777971819394,3,left
1.6580000000000001,0.36155401348027794,0.14017302016184172,0.3122075557949222,-0.8257184267059194,-0.5183593676167125,1.2361254817851828,-0.24380199192093246,-1.2260151030669795,0.47638572735378626,3,left
1.6580000000000001,0.35609695983736966,0.13298441693010746,0.3153197067945388,-0.8199345687282946,-0.5246554254833924,1.233171802821631,-0.24419081897167147,-1.2263879322124587,0.47704264707097155,3,left
1.663,0.3480990520825257,0.12552941316506533,0.3235266806992533,-0.8411739406360769,-0.49060552860027923,1.240193429700898,-0.2718980332326708,-1.252438921092737,0.5238187352677897,3,left
1.6640000000000001,0.3431585016922637,0.11993083404144797,0.33016921918649633,-0.8027483233484922,-0.5552872695693322,1.2285672935761454,-0.20378405065377236,-1.1884183593545385,0.4088319534080488,3,left
1.6669999999999998,0.3357997637224107,0.11282316117723744,0.3385947583134453,-0.8517409010965751,-0.4716773082524335,1.2429923303601975,-0.3167350008025566,-1.2945565919002484,0.5995062949982849,3,left
1.6680000000000001,0.32745052386436246,0.10788766859634807,0.3481924050641819,-0.8109874812016704,-0.541716921238009,1.2311631690228535,-0.16774112293041585,-1.1545695826014541,0.34798785514483693,3,left
1.6680000000000001,0.32578688983674436,0.10796514018295789,0.3522276886228392,-0.8118613686929674,-0.5394512260776996,1.2311533222512185,0.4577364653704651,-0.5670272192005221,-0.7079749470106967,3,left
1.672,0.31912737140271163,0.10670695668141836,0.359262299090068,-0.8901784153739453,-0.40688092437546297,1.2545861806337304,0.6067488476839843,-0.4270528817303725,-0.9595465202123223,3,left
1.673,0.3035374518661243,0.10539556633220801,0.3677443012196003,-0.698018351852316,-0.7332640592375909,1.197470107044527,0.4937620779738633,-0.5331667097779065,-0.7687626572001487,3,left
1.6780000000000002,0.278174608391045,0.11001137454714485,0.37736535162911033,-1.0164994718101417,-0.19189225845799884,1.2919879191944927,0.5619244064279847,-0.4691788135222333,-0.8839118831543157,3,left
1.6780000000000002,0.25935892306739877,0.11451663050181925,0.38521498319003,-0.596475752042676,-0.9060499113205025,1.1673894557080247,0.5341682347609475,-0.49519718710883565,-0.8369465143559238,3,left
1.683,0.25424833230204835,0.116173105558767,0.386856570093597,1.1667808505804225,-3.9033345574743903,0.6441059623069627,0.5338076730671608,-0.4955880212133198,-0.8364430151177883,3,left
1.6840000000000002,0.23462122242246844,0.12253424649191927,0.3899775934034806,1.5867805606513752,-4.6175571412919725,0.5195321905388248,0.5483320719899785,-0.48192235169505604,-0.8609183356939775,3,left
1.685,0.2091138603857205,0.13168287347153174,0.38943241509102994,1.2683594522688955,-4.076048019322486,0.61397881027879,0.5308907196281512,-0.49826323573996517,-0.8313836720532141,3,left
1.6880000000000002,0.19043933453662548,0.13884471524145098,0.3831971879397169,1.4604088440320155,-4.4026419995717765,0.5570101169490184,0.5445394198848663,-0.48557939349059664,-0.8547142858814294,3,left
1.6880000000000002,0.1705878987303297,0.14730099428157128,0.3735575996103379,1.3822541581110497,-4.269814966378359,0.5802068055107785,0.537077660945934,-0.49235317260887235,-0.8416204032012815,3,left
1.692,0.15751047428308562,0.1572709528227334,0.3587187065380121,1.3811969635418069,-4.267774470033109,0.5804881313416523,0.5389307766034461,-0.49090080920555224,-0.8453582874026373,3,left
1.693,0.15077660280215457,0.16555604039723532,0.3444952791622069,1.4220802801240628,-4.33775314984206,0.5684152021511102,0.5407242310492171,-0.4889864829276387,-0.8479002390310024,3,left
1.6980000000000002,0.14796705622621661,0.1738876048893089,0.3310364552188105,1.3731243943308296,-4.253876651034951,0.582865993680967,0.5373679858202065,-0.49213716715712363,-0.8422299776111948,3,left
1.6980000000000002,0.15067032027631322,0.18142998517697995,0.3185207355219729,1.4112258424179513,-4.319281034919813,0.5716316846755312,0.540784037373097,-0.48935391319525623,-0.8488980108772894,3,left
1.702,0.15820189149238612,0.1854798787271764,0.308194312289488,1.3906654524064788,-4.284059852618446,0.5777027207889792,0.5380601172353077,-0.4909401123950736,-0.8422401768057166,3,left
1.703,0.16960267772292606,0.1902610606107209,0.2983890554788601,1.3954844130815771,-4.291720199768202,0.5762138451053789,0.5398994823624399,-0.49066297765287736,-0.8484176886299424,3,left
1.7069999999999999,0.18086760877247768,0.19569091669311217,0.2904106765347639,1.4006016066448401,-4.302124499170347,0.574883221260307,0.5389185699399492,-0.49003806870616184,-0.8434863122715329,3,left
1.7080000000000002,0.19259486904642492,0.19962542849553833,0.28137345987712836,1.3917407030088054,-4.284130059752437,0.5771906343221078,0.5389848848596158,-0.49086913812403493,-0.8454912980490763,3,left
1.712,0.20453032932479256,0.20490241554262653,0.2750636442928116,1.399881608720654,-4.301561996853854,0.5751689045899638,0.540096212530407,-0.49059555895996027,-0.8489976578090959,3,left
1.713,0.21382534725596652,0.2102415834678959,0.2732572652175238,1.3945167758882795,-4.289579686088571,0.5764472498164006,0.5374577832661145,-0.4897031425776073,-0.83740546344574,3,left
1.7169999999999999,0.2210726585253321,0.21601319888378495,0.2674442315817399,1.3971242464668512,-4.293986930753093,0.5756706842016855,0.5417017323395549,-0.4919675550531513,-0.8578089922802241,3,left
1.7169999999999999,0.2284365850452958,0.2236532796424313,0.2618846013359277,1.3960324131358735,-4.297439008214399,0.5765759745096133,0.5365408119648636,-0.488789170872106,-0.8320955454835575,3,left
1.722,0.23508873324571614,0.2290638711308998,0.2606351184543878,1.3970961566517328,-4.2871175861657225,0.5749322479920818,0.5407251414354725,-0.49155903253130595,-0.853354658495473,3,left
1.722,0.24161916170815925,0.23361063343439042,0.2592268064813408,1.395176751895419,-4.301949342127109,0.5774827629009012,0.5407212984034854,-0.49138203323822444,-0.8529593105573845,3,left
1.7269999999999999,0.2503452123052998,0.23934407634820734,0.25717416025766116,1.3976641520045447,-4.286888893333607,0.5746331206386586,0.53253838195507,-0.48629056923044395,-0.8120886571591474,3,left
1.7269999999999999,0.25804765095469057,0.24397836110483773,0.25564143213531276,1.3962313107543118,-4.2955983402609315,0.5762781938402672,0.5524539855417602,-0.49898825641075073,-0.9122208170321806,3,left
1.732,0.26544920839648645,0.25098285854879443,0.25582509999591935,1.3940189660329811,-4.301444060376439,0.5779865717072183,0.5195292007011723,-0.4778458158981939,-0.746351667184986,3,left
1.732,0.2718118186081895,0.2566227737880658,0.25634613842011733,1.4024371196694685,-4.27371008354902,0.5708857649602768,0.5629066686403592,-0.505778285220032,-0.9650564601379819,3,left
1.7380000000000002,0.2714583197009397,0.2572883129866832,0.2559158709136734,1.3868875249774235,-4.3252488073830175,0.58403555080353,0.7450027698405715,-0.6230138277797396,-1.883053012143383,3,left
1.739,0.2713081615210111,0.2648302571193359,0.25551687761911496,1.4069362135408747,-4.259209799583706,0.5671265070631102,0.7883422500283286,-0.6509784553411135,-2.1017169427425313,3,left
1.74,0.2767333424463316,0.2774288427028185,0.25603329458598645,1.390159897178922,-4.314277835121757,0.5812540415613177,0.755492761772104,-0.6297707962651402,-1.9359385363435704,3,left
1.742,0.27969363000606884,0.28923533086283904,0.2576476201145988,1.3905151377109948,-4.31261639682715,0.5809020170048222,0.7753028726710478,-0.6425630184205843,-2.035922689218674,3,left
1.743,0.27871740921719934,0.30280932550237344,0.2592373136745155,1.4229332422660566,-4.208349405321817,0.5538338502584883,0.7672333330613588,-0.6373647919196348,-1.9952451826937652,3,left
1.7480000000000002,0.27831588580945477,0.3160006510611941,0.2594033165655255,1.3433234953314979,-4.4647494349654,0.6203413136788554,0.7671523652118489,-0.6372690814015701,-1.9946612559591685,3,left
1.7480000000000002,0.27384639958522855,0.3359790417248051,0.25745138225133735,1.475333065206465,-4.0396448950893875,0.5100664136495119,0.771313720889745,-0.6400412188338742,-2.0160090190020616,3,left
1.751,0.26735892182609944,0.3523480528668742,0.2562669657668746,1.3011837203166583,-4.600308305509873,0.655526128791555,0.7663424950576563,-0.6367121474777263,-1.9904342855504829,3,left
1.7519999999999998,0.26655662910450395,0.3559861312553146,0.25597157270819526,0.5700270676111217,-6.95331029639931,1.2661705972744657,0.7701948310471208,-0.6393171803018592,-2.010356472889616,3,left
1.7530000000000001,0.26148582852823543,0.3708958415357926,0.2527232345371061,0.39584115777046136,-7.51390790291395,1.4116422142246,0.7681072578499522,-0.6379191291270021,-1.9996163311324942,3,left
1.756,0.24880442232841798,0.3948657691053399,0.24913340872662493,0.5278988044075112,-7.088901525769877,1.3013482623006343,0.7686720976093215,-0.638181789844225,-2.0020488903701446,3,left
1.756,0.23715310938165732,0.41543805300362363,0.2494855954150118,0.4482739403773312,-7.345233114936696,1.36787269988533,0.7689828141828445,-0.638709235401749,-2.0049553073051043,3,left
1.761,0.22721929266968965,0.43652151332295624,0.25219058680996975,0.48062300197530555,-7.240926880838106,1.3408021568159993,0.7684425975957572,-0.6377979584993781,-1.9999256370281684,3,left
1.7619999999999998,0.22044673902965728,0.453521700655868,0.2535727862872392,0.481168341302626,-7.23948143439422,1.3404251216764416,0.7688237220466694,-0.6387340428717633,-2.0046747962041316,3,left
1.766,0.2161163695528346,0.46988705236217987,0.25488425898495337,0.46408619860017236,-7.294134451633037,1.3546126342537024,0.7686358813606771,-0.6380628186778754,-2.001474566726481,3,left
1.767,0.21311135251867766,0.4881306243758502,0.25887100382877015,0.4844809804381027,-7.228640290904851,1.3376137377554231,0.7689083032712898,-0.6382335571299547,-2.0028283563551863,3,left
1.7719999999999998,0.2120395127836172,0.503562858228612,0.26514718049337926,0.46870487863610766,-7.279699575926994,1.3508582411985892,0.7681167995120055,-0.6387436407591746,-2.003015853314499,3,left
1.7730000000000001,0.21228933210394993,0.5199556009069859,0.27255398798504693,0.47700368492045847,-7.252060799285039,1.3437056694433942,0.7697777009845284,-0.6374827976157338,-2.0018420887834307,3,left
1.775,0.2148057254211435,0.536920247659278,0.28025561274821364,0.4754817018198892,-7.258568451274148,1.3453590165883416,0.7672657857610129,-0.6393415119899006,-2.003420248184373,3,left
1.776,0.21721115907605093,0.55110021036108,0.28726765177269314,0.47268574094950844,-7.265587594058605,1.347224797462601,0.7699888844811187,-0.6373895607272372,-2.0019672892663407,3,left
1.78,0.22099754910388214,0.5653787642470987,0.29076070785811425,0.4770302562107358,-7.2531852133079155,1.3439706340613216,0.7684162441340839,-0.6385175490926112,-2.002809692246662,3,left
1.781,0.2268304120276572,0.5792553599823489,0.29796081376965955,0.47335529913174024,-7.26502627819079,1.3470432702247728,0.7669587772101785,-0.6394252631968402,-2.003025240602483,3,left
1.786,0.23207233444550324,0.5886931351341097,0.31203555407121997,0.47503592704650677,-7.256683908395619,1.344944763516164,0.7732048379456825,-0.6353694107099767,-2.0014197963088423,3,left
1.786,0.24278479636822584,0.5977691502007599,0.3187587869593108,0.4757517491206589,-7.261085858920271,1.3459349422521565,0.7616287114239864,-0.6428947793986051,-2.0044310586784,3,left
1.79,0.2568280399349287,0.6112554604110079,0.3174776799162457,0.47307913814346897,-7.259682171172518,1.3457980018714402,0.7765006582874316,-0.633237676657097,-2.000605544685504,3,left
1.791,0.26578263885242187,0.6255621588353595,0.31585430367956946,0.47651530958900984,-7.259289889376876,1.3454535801759095,0.7640820693368369,-0.6412968173301219,-2.003781718503772,3,left
1.794,0.27554457517896996,0.6407289529209267,0.3139618122643677,0.47413645696320866,-7.260782145417357,1.345981360758716,0.7644051184093514,-0.6410732794446427,-2.003638263585807,3,left
1.795,0.28654829850568725,0.6552130247564045,0.30973015174838026,0.47330888955293793,-7.258133470412631,1.3454141912418862,0.7881360535405544,-0.6257318845537738,-1.9978198387076844,3,left
1.8,0.2965135957409307,0.6670118926693255,0.30305077947419834,0.47918691780256567,-7.262466998302661,1.3460107235322174,0.7298213458486136,-0.663441417031911,-2.012169330450765,3,left
1.801,0.3120202130137466,0.6827292653366106,0.29916653885246425,0.4677533672615823,-7.256143501067161,1.3453498824474557,0.8265067786802116,-0.6009200050689254,-1.9883750512030567,3,left
1.805,0.32207158852332346,0.6932835648644835,0.29738808797990157,0.482626020381785,-7.263648355222838,1.346038034270431,0.6989804290316123,-0.683381556202862,-2.0197527936751656,3,left
1.806,0.32418259497066704,0.6955445721069524,0.2970005736764647,0.4701296419368238,-7.257638605671312,1.3455310754042336,0.1636186686258646,-1.0295202366118898,-2.151249210730443,3,left
1.806,0.3351700398540006,0.7071002125732604,0.29452987935923636,0.4705900934430249,-7.2574114912229195,1.3454409502008318,0.03609477672969917,-1.1119757427682464,-2.1826182875312137,3,left
1.81,0.3490137169752232,0.7209648155259631,0.2856228768984952,0.494092214016425,-7.269911606175626,1.3466840536870794,0.13277951719914655,-1.0494621451607296,-2.15884331494527,3,left
1.811,0.3584815287891162,0.7294569084577575,0.2826502427394183,0.43615201456348907,-7.23974314417609,1.3437783828613483,0.07445683183680733,-1.0871696522729866,-2.1731611968556948,3,left
1.814,0.3686060186074561,0.7419756494556213,0.2826957520712233,0.5322828175099681,-7.28956618779166,1.3485402681029435,0.09821094923390286,-1.0718158663167596,-2.167384189810197,3,left
1.815,0.37380608307829344,0.7503803256552388,0.2778243364143832,0.4054676315806107,-7.2239045048254695,1.3422786999774485,0.09849371338044029,-1.0716252048261494,-2.167200066260718,3,left
1.819,0.3745806211898204,0.752996038564692,0.27630272997630667,-0.1267712836281286,-6.948112469138319,1.3159220071777207,0.08612520300238387,-1.0796322310931568,-2.1703957620904974,3,left
1.819,0.38251562972942504,0.7617433044216603,0.2716213296953242,-0.2535764534657853,-6.882399750641358,1.309660510430943,0.10095687791521961,-1.0700332396594021,-2.1665992614207275,3,left
1.82,0.39444577826036775,0.7733097630648493,0.26424577519344306,-0.1574488342019852,-6.9322624351509265,1.3144118681265144,0.08938030783944123,-1.0775219904279076,-2.169508024264234,3,left
1.8259999999999998,0.402211458367979,0.7819043229518969,0.25933272018504117,-0.21542026264500116,-6.9021701455007864,1.3115431832456652,0.09570201439828861,-1.0734428383840677,-2.168085012930145,3,left
1.828,0.4105897644279257,0.7895604621803443,0.24878931452774095,-0.191826310769494,-6.914373357886648,1.3127102321903092,0.09407151138397024,-1.0744713675330118,-2.1680695824795357,3,left
1.829,0.41910721712535104,0.7986500655709513,0.23895082217056818,-0.19152611202598363,-6.914709082404379,1.3127327679272494,0.09275692317872174,-1.07536521213497,-2.169107510473525,3,left
1.83,0.4251450444005267,0.8083085060240273,0.23252980183740707,-0.20382260949491,-6.9079531656961155,1.3121050910306324,0.09520589706723975,-1.0737281907367233,-2.16762954440099,3,left
1.834,0.43247039790507447,0.8166287979137018,0.22390147457763357,-0.18911166394541024,-6.916125073296579,1.3128624717435762,0.09284895181594527,-1.07529464353285,-2.168906623898634,3,left
1.835,0.43977308217016686,0.8230559127827776,0.21857432548299677,-0.20054476136897612,-6.90965481782303,1.3122664285836936,0.09465755287112339,-1.074125981171633,-2.168468993364933,3,left
1.839,0.4483689014410668,0.8275405414432229,0.21576153347574367,-0.19436814864009608,-6.913090528273779,1.3125853754401349,0.09324286285620431,-1.0749610209103229,-2.167520629811236,3,left
1.84,0.45966161673254774,0.8294533735656127,0.21046811387138273,-0.19588273314559207,-6.912774741029632,1.3125371004695685,0.09467396407088324,-1.0742171303850034,-2.170129587541898,3,left
1.844,0.4705993225661307,0.8280221026334444,0.20474083471560345,-0.19723386711291674,-6.910564943729659,1.3123838683316607,0.09297053234211589,-1.0750483450166368,-2.166132214804176,3,left
1.844,0.4825539150154204,0.8264402871813483,0.2012282673639623,-0.19489318567030084,-6.914378446697123,1.312648918377505,0.09470615062716568,-1.074213616118444,-2.1704124486550516,3,left
1.849,0.4965959159891672,0.8212695649070387,0.19858734077603346,-0.1969402187849733,-6.910126540191107,1.3123642289738875,0.09383004109923043,-1.074614881139667,-2.1679093767962483,3,left
1.85,0.5085182903526436,0.8139625140372717,0.19477929942178362,-0.19564808379065216,-6.913339851471989,1.3125744804261439,0.09244673360124145,-1.075364067519913,-2.165902358688685,3,left
1.854,0.519463136909033,0.8059640534955396,0.19477119098470988,-0.19643827593140245,-6.91295383156943,1.3125367172701718,0.09747295229254713,-1.0727438953988058,-2.174930872020405,3,left
1.854,0.531744807130629,0.7931956470017253,0.19156803351845247,-0.19550058655486094,-6.908717494883213,1.3123113449051844,0.08833696912824046,-1.0774857496281278,-2.1581450986952833,3,left
1.859,0.5354458866974219,0.7855371495648826,0.17905482496390784,-0.19721123250577266,-6.918621523500487,1.3128478018378662,0.10002690435394218,-1.0714211244757168,-2.1797058112467274,3,left
1.86,0.537836457484576,0.7720020392989827,0.16558580366962858,-0.19455900526569583,-6.903899354692616,1.3120524437509213,0.09028359834673161,-1.076477377642852,-2.1617064801167705,3,left
1.864,0.5329737120422229,0.7705116746251433,0.14492094266756664,-0.19751930826506697,-6.919523333333463,1.3128937051934804,0.09048454690600555,-1.0763728323265076,-2.1621985360967555,3,left
1.865,0.5069658780367187,0.7881695190512839,0.1311391212708125,-0.19581067316263956,-6.910497163106633,1.3124076441663488,0.10927073094701638,-1.0666171410404575,-2.1964938716032467,3,left
1.868,0.473385096797156,0.8112067148671249,0.1347641190598072,-0.19404112815833635,-6.902862724341675,1.3120029303177803,0.06316887624813496,-1.0905654455609914,-2.11220372391505,3,left
1.868,0.39532663790613876,0.8915479893018032,0.13782432020577245,-0.201400423016408,-6.936458710433519,1.3137923973508945,0.13959123721026942,-1.0508561030091428,-2.251948524703075,3,left
1.8719999999999999,0.319525369935529,0.9611761630588305,0.13990962103417603,-0.187772675974539,-6.874150605497247,1.3104731442992543,0.03878900970960898,-1.1032462950540782,-2.067642498447927,3,left
1.8730000000000002,0.3032355254779694,0.9892773531577335,0.14462667904108878,-0.2052947591763012,-6.954138783241412,1.3147337407017927,-0.38438486576749453,-1.3230443694515182,-1.2938480811536799,3,left
1.874,0.22599265159417978,1.0924489073225427,0.21016719008198323,-0.19065691299748636,-6.887374898788101,1.311177746270584,-0.4852004052335527,-1.3754645506632466,-1.1095723178301529,3,left
1.8780000000000001,0.1402618757674267,1.2659474374026334,0.37076369117445673,-0.19101828427283102,-6.889178506550081,1.311274569139306,-0.4087636425257893,-1.3357227643283565,-1.2492843741094868,3,left
1.879,0.13232670132309082,1.4530955085968928,0.5685342894760539,-0.2190712389305149,-7.016461997672703,1.318050892212731,-0.4548600161429288,-1.359658719527379,-1.1649817804927147,3,left
1.883,0.171833535470861,1.6625282679297695,0.7655248956143358,-0.15015165028133912,-6.703642137308367,1.3013963000048974,-0.43612161389577225,-1.3500106741634472,-1.1993857113505935,3,left
1.8840000000000001,0.35859990519611235,1.9398037570767013,0.8812796176615354,-0.2644199410162498,-7.222280569735617,1.3290087888600715,-0.4358178613634901,-1.3496745275314592,-1.1996441010997765,3,left
1.8880000000000001,0.5255863531571814,2.1334189910919092,0.8968737553919075,-0.11369898677075506,-6.538233139050676,1.2925899077793641,-0.44570856373351087,-1.3550628400010902,-1.1819798076346375,3,left
1.8880000000000001,0.5674018842634587,2.1802093229233708,0.8783067240788567,0.5190989485617253,-3.6666498461174433,1.1397091840287041,-0.43387185708164305,-1.3486675655621037,-1.203206882970184,3,left
1.889,0.7420386769368243,2.3016346895092363,0.7618379936597031,0.6698213174688716,-2.982657743868007,1.1032932845346117,-0.44307116087257314,-1.3535520656570323,-1.1865650857929695,3,left
1.892,0.9698061495467725,2.383589998851317,0.5190649734858361,0.5555457341052568,-3.5012333295307805,1.130902261738818,-0.4381709961745323,-1.3512158793718496,-1.1958800561437326,3,left
1.893,1.1356977127458263,2.2820068838336507,0.2054597091410332,0.6244851499513983,-3.188401274862663,1.1142474548279448,-0.4391482829839718,-1.3510503613658695,-1.1929502105851564,3,left
1.8969999999999998,1.31491123044746,2.11784489138722,-0.15130425630377717,0.5963951966954413,-3.3158615357544377,1.1210323917060452,-0.4407239636804081,-1.353027647528127,-1.1920372485875048,3,left
1.8980000000000001,1.4245909720341383,1.9153593965403355,-0.48574497291129276,0.5960853230514931,-3.3172702391965077,1.1211092868055474,-0.43812981689567143,-1.3502588017137782,-1.1943659771131117,3,left
1.903,1.4360647873488146,1.7054123344140644,-0.7365964360494824,0.6106718376254241,-3.2510842261709634,1.1175829809059934,-0.440517677943972,-1.3526319036188776,-1.1919245008740074,3,left
1.903,1.3755318963371597,1.5084176468183512,-0.8729664659794489,0.5931727569215481,-3.330482400891732,1.1218126194695364,-0.43909274761647454,-1.3519019474976866,-1.1945471811095119,3,left
1.9069999999999998,1.2538730884966742,1.3107087592836282,-0.8900787994575867,0.6068427866780322,-3.2684559170707934,1.11850931338279,-0.43923715362302274,-1.3498752075973433,-1.1907118127342615,3,left
1.9069999999999998,1.1173999068264917,1.132176268781854,-0.8259857457441785,0.5993434342525087,-3.302496222910362,1.1203193977874957,-0.44033144413990166,-1.3552463117822617,-1.1968722079934064,3,left
1.912,0.9780956330749049,0.9681237705766755,-0.7151793296460718,0.6013571888818932,-3.2933232979262295,1.119838005911146,-0.43835785099231117,-1.3470567776346463,-1.1883058963532682,3,left
1.912,0.840921902657471,0.8302567011019408,-0.5725770088871944,0.6027625108557872,-3.2870088568757296,1.11948989016124,-0.4405252062499515,-1.3558195241367175,-1.1973214760785482,3,left
1.9169999999999998,0.7137630288202976,0.7206493917124206,-0.41069491421398585,0.6000497320239173,-3.2992402570959127,1.1201556729619266,-0.439172731329304,-1.35070505021657,-1.1922958680170086,3,left
1.9180000000000001,0.5922820753052037,0.6399037197853941,-0.24034395137576053,0.6026908787439662,-3.2873193016004185,1.1195094521085185,-0.438503330089913,-1.34655207591499,-1.187054584921797,3,left
1.922,0.47054736053759927,0.5953799378676706,-0.07899820998358804,0.6005514637301295,-3.297026232375657,1.1200259788569948,-0.4422453667309321,-1.365145085339756,-1.2085046522013823,3,left
1.922,0.34060888331012296,0.5755674907910564,0.05828420185662733,0.6024929338088205,-3.2881009133565264,1.1195726082695625,-0.4351593352793299,-1.3305899601877305,-1.1689941195708906,3,left
1.9269999999999998,0.19172188944690005,0.6034096415659,0.17351862615379948,0.6001866302568124,-3.298833728250866,1.1200944738800995,-0.4442906623477956,-1.374975537635933,-1.2196670029515524,3,left
1.9280000000000002,0.02397394599315776,0.6740862280914421,0.2606483445685001,0.6031166186715766,-3.285136328013689,1.1194389063589019,-0.43665465044996105,-1.3379161609741077,-1.177387579651755,3,left
1.932,-0.16274458536640934,0.7998433730899559,0.33414151272005377,0.6000887192444233,-3.2993079997647925,1.1201151471105015,-0.43691109984300147,-1.3389393692549172,-1.178437437679292,3,left
1.933,-0.3527471576500212,0.9742630068194928,0.3978531269088519,0.6016873803052671,-3.291798509663815,1.1197600689880958,-0.45130687806348824,-1.409532150863408,-1.2593649363449173,3,left
1.9380000000000002,-0.5120720976730795,1.1499330630288251,0.4437403906382492,0.6038111708824241,-3.2819589276321,1.1192763102326984,-0.41586644329266664,-1.236005822926445,-1.0605672260419272,3,left
1.939,-0.6426844465850855,1.399786414444666,0.5196906938580328,0.5957382871331054,-3.3195143387305985,1.121103504507391,-0.4746414783561948,-1.5237176223890516,-1.390152957224644,3,left
1.9409999999999998,-0.7138209247867047,1.587269878061048,0.5817023081398895,0.6104877451499895,-3.2508585060796316,1.1177663800549809,-0.397118926411189,-1.1442387641028788,-0.9554349679427919,3,left
1.942,-0.7253201717540922,1.6326331243749292,0.5996219598402267,0.5916001513911853,-3.3387975898471334,1.1220410946662769,-0.07177725573322111,0.4486483230770296,0.869432362067685,3,left
1.943,-0.7530460990387084,1.8121461807292465,0.6737664148884126,0.6073454157484516,-3.2654646416466884,1.11847488497428,0.005732340004719047,0.8280931712671741,1.3041582875304507,3,left
1.946,-0.7648859324133139,2.0407747481528085,0.7783309213838583,0.6070027873618962,-3.26711955902378,1.1185581361943358,-0.05302559284392895,0.5404328976810187,0.9745659102415969,3,left
1.9469999999999998,-0.7345472482668988,2.16538565677605,0.8587763933335031,0.5767121059877824,-3.4080489999377255,1.12540649960027,-0.017590751848163687,0.7139210495140101,1.1733534821971927,3,left
1.9509999999999998,-0.7032316395828311,2.271955150800033,0.9321189963536005,0.6510581220189722,-3.0620347996694015,1.1085849889713042,-0.03201050508061411,0.6433137651350234,1.0924686341116816,3,left
1.952,-0.6567321632668932,2.2789880480051705,0.9735399722291843,0.5278240983796294,-3.635665946256145,1.1364790070224133,-0.0322003221442476,0.6423936158500431,1.0913364736453912,3,left
1.9569999999999999,-0.6252637933136815,2.2376314326298647,0.987680398720744,0.6903539697253196,-2.879024583645113,1.0996774383139454,-0.024671894735454357,0.6792476974281236,1.1337263233691877,3,left
1.9569999999999999,-0.6186378354233352,2.223828110569305,0.9889331733529582,1.3727525916522079,0.29728714374828835,0.9452304222653741,-0.03368104114439014,0.6351384145503007,1.0829529451782165,3,left
1.959,-0.5768469399131586,2.1119434690361656,0.9642006756146922,1.535257651773294,1.0540579547397533,0.9084008337952144,-0.026675675320594273,0.6694408683203933,1.1224892588546695,3,left
1.9609999999999999,-0.5094776165799642,1.914517738146927,0.9125909482801888,1.4120671225424348,0.48024583275103705,0.9363375133755968,-0.030458230484224566,0.6509181290636668,1.1011659994630671,3,left
1.962,-0.43335455904248904,1.6959230206446148,0.8433667757604557,1.4863643725872109,0.8263517078599664,0.919483802990905,-0.029547525123060726,0.6553737667558128,1.106068489836514,3,left
1.966,-0.33631789422221214,1.457194201929827,0.7697968221519443,1.4561062303639853,0.6855880302776873,0.9263217596353396,-0.028673709024251724,0.6596664584185299,1.1116382945253878,3,left
1.966,-0.23313542574933804,1.2288272941392564,0.7008063027866904,1.4557748162844755,0.6833768256624575,0.9264876306417066,-0.030186869011954425,0.6522310497414223,1.1019968468668844,3,left
1.9709999999999999,-0.13654426265656497,1.0184370129382874,0.6430851896579439,1.4714389686717555,0.7576672054151042,0.922754739864666,-0.028834535309211203,0.6588862496962211,1.110999409341066,3,left
1.972,-0.047536772646247664,0.8263692248408852,0.5958011737186397,1.452713382145045,0.6685750679799742,0.9272556699655505,-0.02970489589946461,0.65459724939284,1.1049872543160721,3,left
1.976,0.03003786334008248,0.661915391487527,0.555857529878057,1.4672420751193709,0.7380991885186002,0.9237090755616747,-0.02922272321941951,0.6569579823084049,1.107681962669841,3,left
1.9769999999999999,0.08871926700857435,0.5208859073902661,0.5212889803514071,1.459377712108713,0.7006795432209154,0.9255997851842142,-0.029646121110289907,0.6549362660270639,1.1074041291718397,3,left
1.98,0.1287605024146722,0.4026024089746478,0.4854563848235615,1.4614278233010394,0.7086120517696609,0.9253548524487271,-0.028942583795196503,0.6582631379548327,1.1065575829183758,3,left
1.9809999999999999,0.15342444491147347,0.30918052278198405,0.44635913031964725,1.4628139906984727,0.7202417499461526,0.9243365722356487,-0.03005351072269319,0.6529998485557926,1.1074763134986214,3,left
1.985,0.16175443062345984,0.24057435954226639,0.40084689003696305,1.460407261178665,0.7001278446513375,0.9260939502578512,-0.028787850980931166,0.6590089460374609,1.1069536326732572,3,left
1.986,0.15953868992707987,0.19245096684291652,0.35113743046372403,1.4623038062777236,0.719885428889455,0.9241773674964813,-0.029518219951544494,0.6555415183773723,1.1072602773126767,3,left
1.99,0.1591884562523172,0.16361261440828764,0.30214145881185955,1.4612269935791677,0.7061623265922377,0.9256064752791637,-0.030328548720531152,0.6516675133777364,1.106512796588373,3,left
1.9909999999999999,0.1627314782727786,0.15215115842140453,0.2519296759563876,1.4622451202321112,0.7108240798952534,0.9253865472916815,-0.027016289733046258,0.6674754058236948,1.1084749444690312,3,left
1.995,0.17372088074631492,0.15468718747133403,0.2063653704821693,1.4599681174020276,0.7163849587241359,0.9237029156028269,-0.033147107462509484,0.6382174090028745,1.1049005743917568,3,left
1.995,0.20709963324220407,0.1726743414125323,0.1695030185109253,1.4646174764455937,0.7010978000313652,0.9276758378522586,-0.02526004543379822,0.6758584384057537,1.1095750178904882,3,left
2.0,0.24888696670638327,0.19732844267090466,0.14092261867756786,1.4575529667480254,0.7233045677662373,0.9217781348766908,-0.03185109964184641,0.6444018999745107,1.105633096877439,3,left
2.001,0.3096348214464144,0.23312182241602636,0.11267982586694704,1.4652545166873452,0.7004265218838569,0.9280265167357629,-0.03169236320708901,0.6451568625605298,1.1056361192510584,3,left
2.004,0.39300349174654314,0.2773765629102004,0.08033789233301095,1.4608064201783284,0.7136537416174872,0.9244158244143991,-0.019041894405822407,0.7055432973329085,1.1136000226890834,3,left
2.005,0.47758171671130606,0.3187772905901455,0.04734788101659783,1.456593416409154,0.7232940721502439,0.921388952759667,-0.05011953273110586,0.557197919892418,1.0941008060356638,3,left
2.009,0.6038614466041394,0.37914238954272217,0.005997478731056707,1.4745412976327643,0.6788231643462467,0.934746760248337,0.0014091539333685541,0.803163729334498,1.1264430625096684,3,left
2.01,0.6968809473511826,0.42352778233811067,-0.02142620062750397,1.4412811968867438,0.7614079424974515,0.90996908738325,-0.06656094209129076,0.47871658803664263,1.0837546855885067,3,left
2.011,0.7210008232576133,0.4361389324640866,-0.02893547028299256,1.484020157201316,0.6555111582485318,0.9417778189707403,-0.3519369602307362,-0.8835063055890962,0.9043565901205343,3,left
2.0140000000000002,0.8170496502841318,0.48394685218037936,-0.0538464352966134,1.4483253127626166,0.743853737772969,0.9152251394620563,-0.41991531879799515,-1.2079941004741002,0.8616288100604794,3,left
2.015,0.9550853488685657,0.5494314416895099,-0.09252176217534946,1.4492513529259854,0.7412721237886488,0.9159542516973906,-0.36837089599662565,-0.9619503125422765,0.8940278837787676,3,left
2.02,1.0608194276503216,0.595454696184037,-0.12342951187230272,1.5174850213651512,0.5736275246709033,0.9665422116843759,-0.3994692080750554,-1.1103993687137113,0.8744946355314287,3,left
2.021,1.1665795894693232,0.6370782546406308,-0.14969895251785187,1.3498052311880226,0.9858212927977829,0.8421949677744751,-0.3867987622702127,-1.0499106035276535,0.8824207118925462,3,left
2.024,1.2681473406037287,0.6678457883087711,-0.18772933343806186,1.6278297647038762,0.302408800707709,1.0483660966379285,-0.3866498526354098,-1.0492099831860364,0.8825743270803985,3,left
2.026,1.3253237245164318,0.6805770654191975,-0.21736373408013365,1.2611044679508365,1.2037468886087062,0.7764364008447672,-0.39325336291102825,-1.0807213770382487,0.8783610791761371,3,left
2.026,1.3386922554879108,0.684024876897922,-0.2250883177518008,-0.2783957198700688,4.9856335995048,-0.36475008221573163,-0.3853207382647812,-1.042859875045015,0.8833749218958493,3,left
2.029,1.3712831972753625,0.686006103733332,-0.24934678124543608,-0.6451554651465958,5.886642049848419,-0.6366221675347455,-0.3915327921429458,-1.0725209838594583,0.8795255688537742,3,left
2.03,1.40163703195527,0.6809430565413572,-0.2722759237907575,-0.3670653576425584,5.203903201376532,-0.43057429370656464,-0.38811776748021104,-1.0561927329864444,0.8814924735626608,3,left
2.0340000000000003,1.3897156910119832,0.6663776926497079,-0.2659271988600044,-0.534831222305104,5.615109798863044,-0.5547294482483575,-0.38901503648308927,-1.0605220832274362,0.8812391960347515,3,left
2.035,1.3590319926156198,0.6492725693379022,-0.24623493618098627,-0.46651451033953195,5.448596967418379,-0.5043796164500877,-0.38973416908101,-1.063897981880587,0.8804051157073405,3,left
2.039,1.3014982216358493,0.6341988675762754,-0.20953035959463867,-0.4656290784564044,5.445126617237946,-0.503435347109026,-0.3883351604977144,-1.057265279804957,0.8815893801780625,3,left
2.04,1.225438499379597,0.6269752346413293,-0.1572457314781603,-0.5013762379881792,5.533505424401355,-0.530058578854552,-0.3897721921099927,-1.0641250641545872,0.880688864394986,3,left
2.044,1.1406409890846385,0.6334786781001647,-0.09543154987061725,-0.45844711221294493,5.429118932371096,-0.49847678646617727,-0.38856561336041723,-1.0582818315419495,0.8808809149214898,3,left
2.044,1.0436012997979698,0.6588247422705933,-0.02314127775784731,-0.49204565163895597,5.508180615846591,-0.5226046871012486,-0.3895445023070958,-1.063146123398783,0.8815600846104336,3,left
2.048,0.948980785982699,0.7019651675965073,0.05039387752585187,-0.47367030518867936,5.4690290459787585,-0.5103235517974831,-0.3887105609199007,-1.058879224514354,0.8801530410804561,3,left
2.049,0.8593045205339194,0.7616834155175337,0.11662294997760082,-0.47824392672611804,5.472917356760986,-0.5120698477789212,-0.38937031825659807,-1.0623338726721812,0.8817970761267959,3,left
2.055,0.7817464431780374,0.8372904645544711,0.17114900012823023,-0.48264771893059855,5.489592325863548,-0.5166448362701273,-0.38914284692394063,-1.0610710855461924,0.8807506823061289,3,left
2.055,0.7148985634234245,0.9226763725802968,0.21113125176702535,-0.47438758812755066,5.4693490099641355,-0.5105326892512154,-0.38846881940232786,-1.0577028195250824,0.8801484383306374,3,left
2.06,0.6519803282152201,1.016731101467866,0.23939743718153972,-0.4828134229000086,5.47919336670411,-0.514349269067464,-0.3905368745637946,-1.068238283850941,0.8833371344757064,3,left
2.06,0.5972724529784941,1.1199753044051426,0.26009039935808065,-0.4760668846160478,5.487429199880129,-0.5149007736766043,-0.3869100550703696,-1.0496934984104382,0.8772931813189084,3,left
2.063,0.5404349770288592,1.2252245502257213,0.2745046549949922,-0.4806578981960289,5.461694854610894,-0.5100200569618109,-0.3914918687440885,-1.0731484293636537,0.88510065777756,3,left
2.064,0.48559959937410346,1.3248488389133823,0.28479086674147763,-0.47817458002534535,5.495052086916131,-0.517010645678416,-0.38769865146312965,-1.053717222891169,0.8785633223567615,3,left
2.068,0.4256214122839526,1.411209374831993,0.2918721081770121,-0.47837931241844944,5.4727533036159715,-0.5120585617784738,-0.3877520056579742,-1.0540128095585466,0.8787694025772697,3,left
2.068,0.3570585912509141,1.4775281245747518,0.29824513274656866,-0.48114526784534345,5.459902831358892,-0.5097127111800477,-0.3951159592742111,-1.0916776606567733,0.8911568896796428,3,left
2.073,0.29079044700724965,1.5212656219090563,0.30321168040161867,-0.4745063963880293,5.529591954055095,-0.5240383949359579,-0.37708784169196974,-0.9994335178102782,0.8606687263340935,3,left
2.074,0.20050078546142483,1.5265170251432738,0.305538173194951,-0.48522517774889,5.396431117546583,-0.49628752756352784,-0.40695192822881376,-1.152255697271403,0.911233840807721,3,left
2.0780000000000003,0.1393108568550867,1.508966433512981,0.30886485697789723,-0.47216760147547643,5.569157883611583,-0.5324469548339753,-0.3675717135202137,-0.9507256788705137,0.8445350579503541,3,left
2.079,0.12423399673647023,1.5022376697990376,0.3099839876205632,-0.4827688970347051,5.4242094534816125,-0.5020331698906499,-0.20222781689938635,-0.10467615329532667,0.5645637798920842,3,left
2.08,0.07565253591255,1.4522662956868273,0.3180780749295724,-0.4827376834495199,5.4287856697996535,-0.503054550953591,-0.1628503787061111,0.09685369730633998,0.49786793194751555,3,left
2.084,0.030666899499225585,1.3559186746549916,0.33664287558251815,-0.462052207638438,5.70395861511383,-0.5606783751707514,-0.1927058057735064,-0.05594130134533148,0.5484334321998472,3,left
2.085,0.02728530360834001,1.2587100507707012,0.35829345508519983,-0.5124385202505654,5.0264434405338765,-0.4186893894629983,-0.17469657746732226,0.03620727845114315,0.5179314474255922,3,left
2.0869999999999997,0.05723883969472436,1.115892219131171,0.3967913048440632,-0.4291080611285808,6.150363086414913,-0.6542873504850303,-0.18202919816717866,-0.0012610200066839952,0.5303554719987683,3,left
2.088,0.09343436614203032,1.0130585777703525,0.42644393394314506,-0.538926551351688,4.667628232969269,-0.34344444605505653,-0.18212237989380858,-0.0018478032020728778,0.5305003097727932,3,left
2.093,0.10613917182680208,0.9879794451931182,0.4330333842470835,-0.9998724635284277,-1.556176536384752,0.9613265235569166,-0.17829414620647768,0.017895470585493116,0.5240368749622757,3,left
2.094,0.15292598787997236,0.8872120929953518,0.46247476275624555,-1.109687809306384,-3.0391246603394864,1.2722426053857543,-0.18288323874631432,-0.005738498345810524,0.531788134985872,3,left
2.094,0.22862546288134938,0.7570306629000116,0.5017013875233849,-1.0263888915261656,-1.9147637613075152,1.0364958830358995,-0.17930451237353706,0.012638947524903498,0.5257361769443637,3,left
2.0980000000000003,0.2991564984034189,0.6721421490622179,0.5225941051477903,-1.076676827273161,-2.5929368034304536,1.1787012399828432,-0.18124826231550284,0.00282082077237039,0.5290474842864411,3,left
2.099,0.3776764915535865,0.5869364538322933,0.5358753541878231,-1.056185550548612,-2.3169920748767114,1.1208318907482457,-0.18077155704013492,0.004847943726957783,0.5281781646556325,3,left
2.103,0.4474447330226179,0.5242162429865684,0.5355140333078988,-1.0558737591747462,-2.313049524144347,1.1199993150871506,-0.18031939528724322,0.007871112562214521,0.5275193478885191,3,left
2.103,0.5101248190165906,0.4818689164507343,0.5218932890395803,-1.066767465673773,-2.457911559493233,1.1504141741070817,-0.1811324432911658,0.002840665080008114,0.528764840684186,3,left
2.1069999999999998,0.5676458385952885,0.4514171181130262,0.5032023941233672,-1.0535559274783377,-2.284243905876902,1.1139142012242305,-0.18035926477364983,0.007490347574936309,0.5275603182444775,3,left
2.108,0.6166610192254631,0.44521849742316655,0.48018972371378044,-1.0640863943461794,-2.419717615305429,1.1424423906916061,-0.18091741563734898,0.004640664314000441,0.528506566740548,3,left
2.112,0.6629869930027239,0.4491617312680571,0.4542306692676489,-1.0581666067587334,-2.3464425972602516,1.1269566063757286,-0.1805646719831372,0.005159007742230656,0.5277141402443759,3,left
2.113,0.7001866154011318,0.46294518650457506,0.42865542565785547,-1.0596261743686548,-2.3632848820331875,1.1305405008793286,-0.1808142098028346,0.006821952799717419,0.5285825247067029,3,left
2.116,0.7339276652900825,0.48438058576748705,0.4025944491029287,-1.0615080146019888,-2.3829975804685795,1.1347781758086706,-0.18057534901560945,0.003658964298261921,0.5275128692267271,3,left
2.117,0.7669334076793703,0.5085724799668616,0.37084210712642296,-1.0575768499711398,-2.3482550387720353,1.1271573420544627,-0.18080500872760552,0.007158009728508169,0.5286109699746654,3,left
