time,gFx,gFy,gFz,ax,ay,az,wx,wy,wz,subject_number,foot
2.659,0.5312293090551903,0.9103577197687669,-0.01238995881471081,3.501857064596554,-1.2974423299363202,-0.3137181833230456,0.132697648480251,-0.06483203371780863,-0.539131506958435,2,left
2.6630000000000003,0.5265637200539951,0.9253963205189607,-0.014071611375089128,3.503060110514984,-1.3115539436637618,-0.31188311517736284,0.13265401043308,-0.06491569756030136,-0.539399832901526,2,left
2.6639999999999997,0.5242846598375048,0.9419939927528393,-0.01729740565172503,3.502516294150226,-1.3022241633876073,-0.3131441421612355,0.13278445814365963,-0.06486921982130983,-0.5385498029967764,2,left
2.668,0.5244867843419987,0.9602038836914547,-0.01610241785448676,3.5034924386950097,-1.3066709791822184,-0.31267928825669444,0.13259699017196067,-0.06497215761621039,-0.5397629215050186,2,left
2.668,0.5195794570833545,0.9785809465509223,-0.018251564525276633,3.5004209811065885,-1.3051364404966117,-0.31232025796362517,0.13278736587359513,-0.06481785831167176,-0.5385426926324809,2,left
2.673,0.5141124102191615,0.9973660128774241,-0.01809933677285209,3.5069109682485733,-1.3062015841021481,-0.31339729681729,0.1326772658477708,-0.06490645649900036,-0.5392484748808515,2,left
2.674,0.509375018672325,1.014157677069818,-0.011450864434185588,3.497106598361889,-1.3040451811563476,-0.3118502442723273,0.13260335573685278,-0.0650820041804214,-0.5396952057415956,2,left
2.679,0.5038197687239051,1.0279361084911818,-0.0041738049505003726,3.5077208703808425,-1.3070967376508007,-0.3134202592484343,0.13295400389677128,-0.06444231337041786,-0.5375309416239012,2,left
2.68,0.4994176610028123,1.0402631196651404,0.002405229365346255,3.5015901822494007,-1.3053413419882198,-0.31251235530187127,0.13230237305840353,-0.06562203276922049,-0.5415548583139758,2,left
2.6830000000000003,0.4922288760552192,1.0511400711009093,0.005170210811233458,3.4959425161382187,-1.3021598135112653,-0.31190486925067185,0.1331373555173196,-0.06409924180801435,-0.5364015377252533,2,left
2.6839999999999997,0.4815090660582701,1.0585527671182535,0.005401673106469995,3.520188399635212,-1.313924632698582,-0.3147900097425558,0.1324410654062667,-0.06537392631727434,-0.5406974247102541,2,left
2.687,0.4698896867075183,1.0601687675021472,0.00613342034953398,3.475248741976064,-1.2922133715818642,-0.3094284547112751,0.1324621187765498,-0.06535068081671663,-0.5405647104240368,2,left
2.688,0.4577830260684363,1.0601793968341382,0.007182681141021321,3.532982197642567,-1.3202309273445567,-0.3162981465997543,0.1337803837364675,-0.06287364093874268,-0.532444515301717,2,left
2.693,0.4464265118581815,1.060602586565023,0.00766722208332093,3.4847714883065253,-1.2967762227793194,-0.3105699754269431,0.1305385824793434,-0.0689523850141365,-0.5524147088250562,2,left
2.693,0.4320644671300125,1.0547256430060692,0.004731992417360026,3.48603454111115,-1.297238250946105,-0.31074265250506883,0.13591346841746627,-0.05887387660118623,-0.5193052540752507,2,left
2.698,0.4227530450720578,1.0496654822349394,0.0024765397166629207,3.578133828299701,-1.3427039627878745,-0.32158834442556417,0.12882457024959193,-0.07216911125945195,-0.5629716678286238,2,left
2.698,0.4218527102192271,1.0494679729420517,0.0025524530484377153,3.351801849668135,-1.2310822038216411,-0.29491866908545206,0.09907519123619163,-0.1280297025488694,-0.7462301259194679,2,left
2.699,0.4104118942864472,1.040515838141556,-0.0005349654890837112,3.7270668340460333,-1.4161731293989301,-0.3391355420032671,0.09198717643395928,-0.14132999463759766,-0.7898903560251789,2,left
2.7030000000000003,0.39965046001958493,1.0324615057806414,-0.004050075346362488,3.232092454605116,-1.1719925117830368,-0.2808195957794306,0.0973605841181358,-0.13124045331952186,-0.7567894707681708,2,left
2.7030000000000003,0.3979550388095426,1.031715896537586,-0.00465847204701938,1.154306053433174,-0.14662711537001893,-0.036077679342207535,0.09412027010367979,-0.13733681383202523,-0.776755552700763,2,left
2.705,0.3856106934034106,1.021334668409621,-0.003373594853443909,0.6593370465419811,0.09762417914762454,0.02222845464991517,0.09543788988068336,-0.1348373161151159,-0.7686268873873496,2,left
2.707,0.3713496083462516,1.0091928870838687,-0.00033465369355291656,1.0345936326220555,-0.0875772259508083,-0.021973080106601796,0.09545778244803937,-0.13483526254499137,-0.7685215652457811,2,left
2.708,0.3581534175448283,1.0029329680978887,0.0023803012397868033,0.8082686012921882,0.024135920174336453,0.004683907597379508,0.09476519749982991,-0.13610128209853672,-0.7727708374676516,2,left
2.7119999999999997,0.33781510557038363,0.9942031279752482,0.0013263764264610425,0.9003682897145848,-0.02132450119094558,-0.006162518495647721,0.09559394112326858,-0.13455998886833495,-0.7676731046333116,2,left
2.713,0.3180130988072323,0.9868037231310711,-0.004160665652956813,0.9016178659269337,-0.021963834530039056,-0.0063105803710075915,0.0949497363271031,-0.1357980733824717,-0.7716560077807715,2,left
2.719,0.2942983287961165,0.9810025915701512,-0.008018067403969025,0.8534365779628734,0.0018779331409746174,-0.0006361455268488272,0.09529483295245822,-0.13505817737205944,-0.7694832505713798,2,left
2.72,0.26865663104942195,0.9742988862426686,-0.00905042722232916,0.9111281212119353,-0.026690999646096537,-0.0074292888080708065,0.0952200395627257,-0.13535679435834835,-0.7700248402040528,2,left
2.722,0.25150711798419145,0.9669613490314892,-0.01304475865116559,0.8662299746449826,-0.004433662305085538,-0.0021435470151858777,0.09512211391697523,-0.13534671664668652,-0.7705288678119335,2,left
2.7230000000000003,0.23937209068298343,0.9580780329184451,-0.01702124621806611,0.8904578656810203,-0.016435131889087157,-0.00499583166737446,0.09528623812119824,-0.13519311743754142,-0.7695969049494353,2,left
2.7310000000000003,0.2307043336033313,0.9503798257556678,-0.019014010429830926,0.8847752939252536,-0.013712875744834058,-0.00432458594543455,0.09513659236237426,-0.13547536231912738,-0.7705194961284213,2,left
2.7310000000000003,0.22447745885130188,0.9428065819104495,-0.022870731534626182,0.8787574607804571,-0.01047274434721347,-0.00362280838482842,0.09522849411489892,-0.13501641672817377,-0.7698065577077053,2,left
2.7319999999999998,0.21487895848411848,0.9376034166024537,-0.026328841447245805,0.889177268469806,-0.01608260974837216,-0.004837650080313347,0.09520385851174734,-0.13571726548775523,-0.7702937217444312,2,left
2.7319999999999998,0.20281677909770307,0.9387365683666706,-0.0289714893169531,0.8796115125274738,-0.01078717870370071,-0.0037263953625803594,0.09517532950445587,-0.1347942312829079,-0.7699691909840861,2,left
2.738,0.18943994138465486,0.9420610642360703,-0.0341343013457067,0.885911272692042,-0.014354655305528322,-0.004456026150731431,0.09522962184319436,-0.13573346337522743,-0.7701679233770298,2,left
2.738,0.17167188879806738,0.9462855123685578,-0.038263976308912796,0.8828382021906038,-0.012841692528647992,-0.004094009717617752,0.09518224791820268,-0.13522062911596616,-0.770151893600412,2,left
2.74,0.15269809680741508,0.9507535161175975,-0.03662004485475563,0.8841670739924148,-0.012647731255697795,-0.004273430071653675,0.09519117070195635,-0.13468576803988125,-0.7698308782634335,2,left
2.741,0.1362122523984724,0.9517976463855728,-0.03001916607795645,0.8828170757900584,-0.013924141909417714,-0.004061994570688716,0.09524390681694149,-0.1368555672377707,-0.7706689711323598,2,left
2.7460000000000004,0.1234417740746942,0.9482731437591176,-0.0233227916317066,0.8852228470191833,-0.012213034704313796,-0.004423613313243013,0.09512444160095365,-0.13287178927731375,-0.7692487694126648,2,left
2.7460000000000004,0.11447393445792944,0.939131113074416,-0.01983310529370785,0.8821383217696585,-0.013780653615649431,-0.00397686136246936,0.09528562021466547,-0.13797308998609753,-0.7710238710822601,2,left
2.7510000000000003,0.10864090053094641,0.9242902385279282,-0.013955300226800228,0.8839151181065885,-0.012872134091291895,-0.004234361135675358,0.0951478200487241,-0.13371954872000047,-0.769562745327309,2,left
2.7510000000000003,0.10706838870159245,0.9077603423623402,-0.004868770640207587,0.8865993372436978,-0.012657899250908588,-0.004592076762038612,0.09515649304979393,-0.13382727520845256,-0.7695698549454908,2,left
2.7560000000000002,0.10638885188177219,0.8922154945081257,0.0016951436278294949,0.876343620100148,-0.014331942681899999,-0.0032022210439749802,0.09540606077499886,-0.14195817402261302,-0.7724419386138486,2,left
2.7560000000000002,0.10346408835355038,0.879100432804863,0.006536684521294317,0.8952892043254923,-0.011190879690830761,-0.005771029691737949,0.09478559295516445,-0.12198287749992741,-0.7654302267551517,2,left
2.761,0.09450944133000688,0.8730498129730944,0.00585057827045664,0.8708657982838804,-0.01517682819153202,-0.002461242057011556,0.0958169041498507,-0.15510093060578095,-0.7770372220390617,2,left
2.762,0.0856733000715619,0.8711892710676783,0.000764184287893184,0.8913006972499832,-0.011870844537272444,-0.005229614138531111,0.09445583558748566,-0.11141693583631643,-0.7617354945510053,2,left
2.766,0.08282834057271693,0.8708454739576661,-0.0005454327491169263,0.8908647652594804,-0.012019834711448038,-0.005168824344166906,0.08874405607101357,0.07191520137847603,-0.6974635821270969,2,left
2.767,0.07417034045277923,0.8756301159572923,-0.0035809751182598504,0.8513933486812295,-0.018068998340116337,0.0001705038871125746,0.08738320335740583,0.11560451972836831,-0.6821656350338932,2,left
2.7680000000000002,0.06212987049785414,0.8817632357219463,-0.010045308990894501,0.9483233773388067,-0.003156618963586234,-0.012942402830551635,0.08841487060605525,0.08248181414014565,-0.6937649084313879,2,left
2.773,0.04732218594686603,0.8907520022976021,-0.013623387256194913,0.7875999974139168,-0.027876207278554097,0.008800701615095441,0.08779222562888016,0.10245099801699434,-0.6867645047067898,2,left
2.773,0.033462336677458675,0.8989423693959049,-0.015137528123195371,0.9996143789062806,0.004711573162274316,-0.019882133593317832,0.08804687331799611,0.09434729051584673,-0.6896236358935149,2,left
2.7739999999999996,0.030194876638358913,0.9008033393560773,-0.015168287965433718,1.8894929842616797,0.14129811594275693,-0.14031614057687744,0.08804749234166973,0.09418646019836627,-0.6896408975699855,2,left
2.775,0.01810903492175632,0.9096501914217006,-0.01275584168980394,2.1014675134971856,0.173848847966131,-0.16900532110245448,0.08791893722464254,0.09851181691200935,-0.6881794001090775,2,left
2.7760000000000002,0.0016970351357100603,0.9208441219355377,-0.00989324516740625,1.9408594980354306,0.14919575951427322,-0.14725177806793435,0.0880737860068464,0.09334440490975246,-0.6899371544540076,2,left
2.78,-0.004592028480981622,0.9256644445876715,-0.006977950773542185,2.0375500244200517,0.1640298182479405,-0.16037473069022176,0.08795171080936451,0.09734667755128082,-0.6885573383970593,2,left
2.78,-0.010927684218483549,0.9329004495161144,-0.0006467130483657137,1.9984631509235968,0.1580405875022879,-0.155032081514274,0.08802218977596726,0.09525676295362617,-0.6893345168603375,2,left
2.786,-0.011572921519913234,0.9386720006115391,0.006985906183034124,1.997552264438085,0.15789150936625468,-0.15496100499454507,0.08799513127734294,0.0955740587611266,-0.6890793002917774,2,left
2.786,-0.009988475664141357,0.9416594769199296,0.009959080217957512,2.0183859998075553,0.1610944486064227,-0.1577580827672347,0.08799773401017251,0.09643919146384208,-0.6890239407875046,2,left
2.79,-0.015198641550812738,0.9476599876365654,0.010988576742987729,1.993917840992266,0.15733997967758517,-0.15440227665998915,0.08800345915864638,0.09509157772778772,-0.6891923005076459,2,left
2.79,-0.017728148101392737,0.9552481421650407,0.01290104376600884,2.0122283880955214,0.160141860414186,-0.1570233158834074,0.08799457502192803,0.09630436864414438,-0.6890094836156745,2,left
2.7960000000000003,-0.020795036570257802,0.9662037858547692,0.014858755028283235,2.003518765460112,0.158820451359727,-0.15559837651615205,0.08801403343955612,0.09568858547754305,-0.6892273794041766,2,left
2.7969999999999997,-0.027790944258933047,0.9764078099670327,0.02081974823226873,2.0038166341383103,0.15884739169193268,-0.15594077067261466,0.08796871070521144,0.09542056711316937,-0.6888721712389513,2,left
2.799,-0.029281860850231118,0.9784185766742092,0.031590965535428846,2.0082321071507128,0.15954005610381727,-0.15629752171617414,0.08805304101864948,0.09665012960952023,-0.6894677178899901,2,left
2.8,-0.02518278133619949,0.9781707556162703,0.044185279865723265,2.0034746003428996,0.15880936089689263,-0.155651604373633,0.08793185021081204,0.09466806544557096,-0.6886310323450742,2,left
2.8080000000000003,-0.019731428704799707,0.976693827945463,0.057059628512764485,2.0048737562751695,0.15899853036895734,-0.1562875647276878,0.08806017300098964,0.09680850068534273,-0.6895133646497917,2,left
2.8080000000000003,-0.014167259181837616,0.9702378171086476,0.06458124779369423,2.0089063993873095,0.15967648814872443,-0.15581256911159103,0.08798740376450148,0.09552829178599781,-0.6890186683952145,2,left
2.81,-0.012916665129993572,0.9650384959647753,0.06338475242876371,1.9997266192274725,0.15817937158335674,-0.15609310485914396,0.08791789701169979,0.09464004228625691,-0.6885171671964168,2,left
2.81,-0.01622276769164485,0.9629102781046722,0.05953640864005254,2.0109058503146873,0.159989274334257,-0.15598250011834414,0.08821096680709399,0.09887988629782991,-0.6905892764218831,2,left
2.8139999999999996,-0.017423723610755712,0.961771590839537,0.05746678074857459,2.0037357227629222,0.15883421199439823,-0.15595043005798753,0.08766950599372193,0.0909534455259744,-0.6867684926283746,2,left
2.815,-0.016021178926803204,0.9617519520253244,0.057306256935888075,1.9990507055484226,0.15806889006622424,-0.15612453948775779,0.08836426735777823,0.10114565782348713,-0.6916698885464493,2,left
2.82,-0.014457588341762678,0.9615992796266923,0.06212582790415004,2.022712218218162,0.16190448209802522,-0.1557884712674817,0.08778450629868614,0.09263089780622208,-0.6875795095435455,2,left
2.82,-0.008946550833437166,0.9604766021708413,0.07016200281996882,1.9779116724566026,0.1546495769197875,-0.15628778885848998,0.08779932474410534,0.09288357540295657,-0.6876835444341455,2,left
2.825,-0.00024763406107484814,0.9572351554109775,0.07562060484875893,2.035844972782203,0.16402823955203544,-0.15570116204027742,0.08890751149271725,0.10904666993288616,-0.6955059753547352,2,left
2.825,0.007332480746418228,0.9555422280480738,0.07830921179401074,1.987307283661339,0.15617130387104422,-0.15616848984018966,0.08618491821871213,0.06929355205913472,-0.6762862796507858,2,left
2.8289999999999997,0.014874603195825637,0.958302161268529,0.0777856396061474,1.988765874217769,0.1564079546102172,-0.1561734134069608,0.09069858486114597,0.13521284426969868,-0.7081528970694622,2,left
2.8289999999999997,0.018860558382819893,0.9588500436139361,0.07675550497018407,2.0810527157519294,0.1713446667412883,-0.15525135197228782,0.08474544447658172,0.04826499623943713,-0.666119087566907,2,left
2.8339999999999996,0.01863992784517274,0.958367389241914,0.0769824124496101,1.8539647601079507,0.1345888882403608,-0.15748683062639876,0.05975433647729149,-0.3166657238487681,-0.4896827307728236,2,left
2.835,0.022303262210120287,0.9622560703316112,0.07273344966449913,2.2306067009390085,0.19555269829224878,-0.1537933938311149,0.053801995558668464,-0.40361129481147373,-0.4476424937182263,2,left
2.835,0.026172999685591468,0.9639161028147378,0.068521135169189,1.7337644375809282,0.11513085201674697,-0.15866092637884568,0.058314369986838366,-0.33769419713883436,-0.47951868001073594,2,left
2.841,0.027064596029907365,0.9644509684359213,0.06743296222444056,-0.3518614263847718,-0.22242898939593161,-0.1790378166858297,0.05559296104595473,-0.3774492051693692,-0.4602923679438313,2,left
2.841,0.029909855986059004,0.9679892873390809,0.06526818288398861,-0.8487224248369282,-0.3028582096562429,-0.1839081607798225,0.056700897158827646,-0.36127597350359986,-0.46811082408802296,2,left
2.842,0.03273622666217646,0.9687725704508788,0.06654777892498624,-0.4720197973731151,-0.24188022001585296,-0.18021715142500333,0.056714170619386106,-0.36104379445141566,-0.46823616661513057,2,left
2.844,0.038520005089616796,0.9701981458662534,0.06869374637953839,-0.699243200141171,-0.27865492979636736,-0.18243210053413106,0.056138293491983286,-0.3695302147790156,-0.46410502432635703,2,left
2.845,0.04760638253436985,0.9743849224819122,0.06652639380453018,-0.6067284646353208,-0.263699397577197,-0.18156006803491367,0.05682710274858083,-0.35936490994943293,-0.4690597689812511,2,left
2.8489999999999998,0.054934333286613374,0.9776125556613076,0.06274525196553271,-0.6055630537609944,-0.26347298838639127,-0.1814840290745901,0.05629208125758916,-0.3672821788816178,-0.46519227556458,2,left
2.8489999999999998,0.06274925262840717,0.9821319259465003,0.05857557150401907,-0.6538382287608976,-0.2713394593120312,-0.18204608022101537,0.056581341843017066,-0.36301361057273074,-0.46727316504376415,2,left
2.8539999999999996,0.06790464152646597,0.9887020830539336,0.05479107274349734,-0.5959691831191729,-0.2619210506045919,-0.18139180862850396,0.05650876040150743,-0.36398472364664164,-0.46683729091352977,2,left
2.855,0.07031959395454584,0.9969313993876492,0.04720227518831703,-0.6411080939491115,-0.2692492774759069,-0.18187077265304585,0.05644999912928869,-0.3651276413386768,-0.46617621150930577,2,left
2.858,0.07394564717320368,1.002341967583542,0.0346927037103136,-0.6165478831047573,-0.2653183877460895,-0.18170694124902315,0.05655188315689786,-0.36314987217645733,-0.4673193310111019,2,left
2.859,0.07537366177502183,1.0032078976535685,0.023552359972938145,-0.6226765795695441,-0.26616800944464947,-0.1815226220593404,0.05646558117059963,-0.36501094989356353,-0.46619021449179754,2,left
2.864,0.07620993935552683,1.0026541786517047,0.013964008276400378,-0.6281832452710322,-0.26730426126742385,-0.18199662390180027,0.05651843752294797,-0.36376028898511287,-0.46697767436643556,2,left
2.865,0.07953275050158862,0.9979866717323007,0.005542760276711017,-0.6181700263959718,-0.2653831132900796,-0.18138341536861552,0.056481273624707944,-0.36429874555999947,-0.4667189824145385,2,left
2.8680000000000003,0.08357098965369414,0.9913143977199137,0.0015392627029885437,-0.6277288069350262,-0.2671697086553557,-0.1818875645732315,0.05653976294137884,-0.3643328159994026,-0.46636333367358995,2,left
2.8680000000000003,0.08790034285884493,0.9851105727829589,0.0028870068992944845,-0.6206855837613583,-0.26603187606594014,-0.18182242564799636,0.05642638749619321,-0.36395870613045767,-0.46731927881902124,2,left
2.8739999999999997,0.09233278227961303,0.9791867923921355,0.008073677828212758,-0.6255004142271667,-0.2663668863587384,-0.18110733308722277,0.056600235024545004,-0.36444799951196627,-0.46592649785881146,2,left
2.875,0.09505292874280602,0.9757091166540918,0.011788321236344304,-0.6215174157278279,-0.26673750564552545,-0.1828100758754681,0.056408656536357495,-0.3640176753410561,-0.4673670340928898,2,left
2.8789999999999996,0.09671956804412493,0.9733289753792398,0.012025207468124549,-0.6257781070359042,-0.26591252970088897,-0.18025346440738738,0.05651928692395911,-0.3642673822136202,-0.4665342972820594,2,left
2.8789999999999996,0.09936306015591549,0.973336046219861,0.014363617077813723,-0.6215489620948464,-0.2668425741945246,-0.18298195177464605,0.056628508115913564,-0.36427983636669864,-0.4659141321390382,2,left
2.885,0.10049913378961595,0.9732722844713688,0.017785565431541438,-0.623498576498859,-0.2662252794127562,-0.18140052820845784,0.05616843171178096,-0.3639625703713938,-0.46875451437278415,2,left
2.885,0.09909090786538091,0.9723919542261021,0.01639301798779852,-0.6276270547358211,-0.26608924655993776,-0.18006147984932142,0.05702076527082127,-0.3645642300444438,-0.4634809076663783,2,left
2.888,0.09855899399993512,0.9747641861923056,0.01321858185719603,-0.6135648899032455,-0.2673327464595585,-0.18596146964020355,0.05592516604726725,-0.36380821843703004,-0.47024414371905354,2,left
2.889,0.09947135932130448,0.9725428812271935,0.012562841052355785,-0.6389211322233748,-0.26490987632937685,-0.1750125991968382,0.05684036851378402,-0.36443209136200244,-0.4646018615926507,2,left
2.8930000000000002,0.10329685927671317,0.9679568765954534,0.010190955714978349,-0.606523336502355,-0.26804690024360167,-0.18907329142002374,0.05681701339826724,-0.36439304536292605,-0.46476417743265463,2,left
2.8939999999999997,0.11084083617107299,0.9659481940888559,0.005193224723619234,-0.6335071383756896,-0.2654178102714446,-0.1773337405731059,0.05506578683234975,-0.36329636853192615,-0.47548061723466145,2,left
2.897,0.12064537482879598,0.9631089039553494,-0.004021576884286014,-0.6330237320795087,-0.26552864867278525,-0.17765476381360648,0.05936906788534904,-0.36600974259478847,-0.44913453469609554,2,left
2.898,0.13387038706636623,0.965900298977042,-0.020731617278995085,-0.5807562212676546,-0.27041060491759367,-0.2000296903416758,0.052233861585424514,-0.36151105600857325,-0.4928157269792784,2,left
2.903,0.1423204607259373,0.9698802618902066,-0.03148825138695329,-0.7089368851062958,-0.25836557868709453,-0.14503031801174693,0.06164557857380709,-0.3674410204823022,-0.4352040042909233,2,left
2.903,0.1449824233476332,0.9730689824786956,-0.03773050794757159,-0.49647591731454405,-0.2783474076016883,-0.2362237805288821,0.10115424251910216,-0.3922603409672138,-0.1933944616976597,2,left
2.904,0.15095229370657584,0.9782836168138836,-0.04904235276712825,-0.7767130726576139,-0.2519922821086211,-0.1159387453968869,0.11056659484092134,-0.39818504695674806,-0.1357880947741735,2,left
2.907,0.15313739377322053,0.981635940007011,-0.05538800469456516,-1.9532727580756721,-0.14140521922706695,0.38893813761983986,0.10343043084952047,-0.3936959964620211,-0.17946158425939557,2,left
2.908,0.15062542185094813,0.9949757751240935,-0.06016303036955145,-2.2335554312990156,-0.11505812043953731,0.5092251250657279,0.10773440788288624,-0.3963975548706514,-0.1531200567785185,2,left
2.908,0.1453809783038053,1.014754258978297,-0.06327715081185002,-2.0210452164419914,-0.1350312654690265,0.41802955087324684,0.10598348765153044,-0.39531082595232137,-0.1638417836404766,2,left
2.912,0.1325780321139267,1.0287151214054822,-0.05944284738683978,-2.1492071488934257,-0.12298293458273893,0.4730281177114627,0.1059581547827288,-0.3952696295328546,-0.1639834147392275,2,left
2.9130000000000003,0.11878437627168853,1.0442956461658923,-0.061249515656100754,-2.097102998356524,-0.12789370122679686,0.4506602021826056,0.10687724869586882,-0.39588117042742044,-0.15837824344369072,2,left
2.917,0.1054048313400311,1.0609122090689045,-0.06703638868219822,-2.0962681034618003,-0.12794255281499356,0.45032409682962293,0.10577645560162528,-0.39515669514571955,-0.16509521471619804,2,left
2.918,0.09506712222160682,1.0730213623538019,-0.06580211631644096,-2.1237558673357255,-0.125402337434621,0.46208527001340527,0.10663347932395328,-0.3957089874195544,-0.15985885995926982,2,left
2.9219999999999997,0.09415095956184068,1.0809567660882422,-0.06420851033805268,-2.0908562322990587,-0.1284508632026674,0.4480030493938266,0.10617221937102822,-0.39544704440354095,-0.16269912916847984,2,left
2.923,0.09675412484270027,1.0871979649141303,-0.0672579385846784,-2.1164290058958883,-0.12606617392607933,0.4589612034832678,0.1062755447442021,-0.39542304246693144,-0.16201079157893816,2,left
2.928,0.10235129862112366,1.0926613638021456,-0.06780701297495201,-2.1027977835124396,-0.12738567849621113,0.4530797129585453,0.10640184446794113,-0.3956551029050251,-0.16133442099195053,2,left
2.928,0.11011348388438628,1.095040096703394,-0.06245007278089216,-2.1055380901881784,-0.12700483142268332,0.45435919174284534,0.10618518523159198,-0.395331860854787,-0.16254175453166422,2,left
2.932,0.11419630247348245,1.0963986798157879,-0.05184054379522797,-2.1098795743686365,-0.12680935159229823,0.45604324386316064,0.10638776578662307,-0.3956082052051717,-0.1613965763138599,2,left
2.9330000000000003,0.11602920677606283,1.097632305878232,-0.04064269399837313,-2.102715014057906,-0.12722173422783298,0.45318881860013505,0.10625453725585683,-0.3955258171298094,-0.1622127667907969,2,left
2.9360000000000004,0.11674198468420027,1.095662240321169,-0.032567102124902755,-2.1093159471937515,-0.12680944707064973,0.4558458143264703,0.10630582893908466,-0.39528160534783024,-0.1617232416407463,2,left
2.937,0.11802969523264419,1.0919140515256387,-0.025495097913338788,-2.105353834039585,-0.1271837814461501,0.4541440109931187,0.10632160388424941,-0.39592322999090096,-0.1620281032700136,2,left
2.9419999999999997,0.12213013953337645,1.0879386985367425,-0.021370770706919076,-2.1058257254950963,-0.12675286476923497,0.45467271407275045,0.106266214845199,-0.39494602841504156,-0.16176820546838716,2,left
2.943,0.1321049975756399,1.08129577417147,-0.023558369882444773,-2.1087075069782055,-0.12736536202652005,0.4551637333393327,0.10633119731116551,-0.39599151661687154,-0.16200898023374466,2,left
2.947,0.14691657963374788,1.0731515109637446,-0.03047864369860187,-2.10345983878506,-0.1265408045164661,0.4540243056793729,0.10628427600128364,-0.3953814290292951,-0.16192717084448083,2,left
2.947,0.16090139814967494,1.063449207007929,-0.03527249217037602,-2.1092305879958984,-0.12740313969826197,0.4553146547447259,0.10629025018857427,-0.3948850772596102,-0.16157272152795382,2,left
2.952,0.17818830088189974,1.048892892808831,-0.03683211948453097,-2.105617495227162,-0.12693123236299791,0.4544495466013633,0.10634010003299232,-0.3971059056038897,-0.1626592404766578,2,left
2.9530000000000003,0.19889893071280473,1.03180425771907,-0.04124046984819074,-2.1038839088149235,-0.12639412379176446,0.454296256786951,0.10623392600594306,-0.3929783936113098,-0.16072812735819034,2,left
2.9560000000000004,0.2163580750607893,1.0144938684139664,-0.047005831947738275,-2.1137311137845387,-0.12853127633017358,0.455936653983668,0.10637335344325718,-0.39828062099118666,-0.16318899657345387,2,left
2.9560000000000004,0.23079552882044102,0.9990785308171489,-0.05172316854506015,-2.0950617603126434,-0.1246066380686579,0.45271977551684295,0.10625567814196354,-0.39385270129879446,-0.1611420888914612,2,left
2.963,0.24480614047389815,0.9879963102788959,-0.05866864495777792,-2.119125134101111,-0.12963710822357322,0.4568892982757481,0.10626370971540991,-0.39397693305430836,-0.16116842621974636,2,left
2.964,0.2578524329234421,0.9787896335428196,-0.06673210050961054,-2.098999573561815,-0.1254413969087879,0.45339302872288023,0.10647224978845582,-0.402406846670226,-0.16516697133087402,2,left
2.966,0.26883920596402877,0.9724364044821848,-0.07597031447058032,-2.099684697885532,-0.12554049339830753,0.4535474429727384,0.1059539225563806,-0.38168094780812967,-0.15537314443064826,2,left
2.967,0.27877525000363557,0.9701518677531004,-0.08739393156225932,-2.137597725992528,-0.13358728720523114,0.4600167784847431,0.10681487024173836,-0.4160481308283981,-0.17160311858182659,2,left
2.9730000000000003,0.2845779750539155,0.9687386395576294,-0.09235292666018878,-2.044248534815286,-0.1138273662982605,0.44404674852035664,0.105679107569445,-0.3707165767434767,-0.1501963686965042,2,left
2.9739999999999998,0.2860158737763198,0.9694770936679025,-0.09388824503152103,-2.1990654824444076,-0.14658409842426717,0.4705419399853307,0.10092069662233549,-0.1804831971231457,-0.06030478433775036,2,left
2.9739999999999998,0.2871147896880199,0.9719225510227165,-0.09934822159554585,-1.9948635782455244,-0.10338104987312484,0.43559643108603757,0.0997856253147841,-0.1351535427661003,-0.03889445646132727,2,left
2.975,0.2895878498383952,0.9726552487679364,-0.10115155333806314,-1.1379273647913495,0.07798281799005749,0.2889986361271239,0.10064554693705999,-0.1695134374388391,-0.055127739505375174,2,left
2.9760000000000004,0.29388221083611804,0.9748739237297008,-0.10352875335414703,-0.933756542329947,0.12117883901021342,0.2540704388796712,0.10012792007920607,-0.14880529215577082,-0.04533737646304932,2,left
2.9760000000000004,0.2971083184091449,0.9797150926298362,-0.10860674101425666,-1.0885310004086444,0.08843572042759376,0.28054036464833565,0.10033691097754176,-0.15720381133137282,-0.04931897485691707,2,left
2.98,0.30027581809960513,0.9836633131109291,-0.10749735404430563,-0.9952004056206589,0.10817724483530575,0.2645863603345362,0.10034261611855802,-0.15737006406279044,-0.04937903228633324,2,left
2.9810000000000003,0.30233821726045335,0.9872874529913009,-0.10653017216633416,-1.033160276628703,0.10014911772453658,0.27107010097857914,0.10022936241702529,-0.15290233289840727,-0.04728597281595171,2,left
2.985,0.3002991380178442,0.9923471487173654,-0.10698027280252274,-1.0337013843961032,0.10003917772404289,0.2711616374170873,0.10036303039111574,-0.15821867516891985,-0.04979005658364277,2,left
2.986,0.2973190739881123,0.9984132981908185,-0.10471695161230872,-1.0138169249469944,0.10422696120812967,0.2677810492624883,0.10026186038006882,-0.15413247922673257,-0.04784539081999052,2,left
2.99,0.2911415902061112,1.0044555886779722,-0.1027764522055146,-1.0375969771770197,0.09923371054130029,0.27180348894196626,0.10031085177204904,-0.15623195152691408,-0.04888306399471221,2,left
2.991,0.28306928304359225,1.0114184175740313,-0.09630559831046483,-1.0191301642833546,0.10308782944112813,0.2687092946940475,0.10030960589494323,-0.15593859452824627,-0.04866576834097397,2,left
2.995,0.27537316686620195,1.0167850114702897,-0.08773368454017877,-1.029035635174285,0.1010442129578629,0.27033952634943104,0.10028079397998235,-0.15508542867521047,-0.04835910099612967,2,left
2.9960000000000004,0.2620629818046386,1.0167410179540795,-0.08109425703890971,-1.026796078842981,0.10149589481807508,0.269984232353786,0.10031753089544046,-0.15631592254095308,-0.04886365775803708,2,left
3.0,0.24923631489567685,1.0166593921615439,-0.07158285217020771,-1.024235438772514,0.1019924697700795,0.26960042279749313,0.10029365646338351,-0.15536052995987698,-0.048411651548082725,2,left
3.0010000000000003,0.23832252462612535,1.0183777467350703,-0.06388955968274558,-1.0285228031142521,0.10122992725194116,0.2701586619925227,0.10028900005431067,-0.1556125413380004,-0.04867291729093795,2,left
3.0069999999999997,0.22252122695470647,1.0195952726947448,-0.059482874183229055,-1.0247440907803451,0.10178071628863272,0.26981409346678675,0.100329331582299,-0.15622224260605627,-0.04863599413879921,2,left
3.0069999999999997,0.20918598871210586,1.0212399422928211,-0.05719640825419231,-1.0269800848315065,0.10161267677638583,0.2698262330396367,0.10025870299791466,-0.15489512227635682,-0.04849377627090074,2,left
3.01,0.19736662604252064,1.020437377353824,-0.05684880383088174,-1.0262370062463022,0.10152675277595541,0.26999436075104455,0.10033783520735717,-0.15646267964275826,-0.04871760206782787,2,left
3.011,0.1844013155637288,1.018325043752713,-0.052656794099455936,-1.0262475111110545,0.10152235515881278,0.2699987207487168,0.1002895142866595,-0.15545442137589804,-0.048539838334319095,2,left
3.014,0.17408492946671805,1.0177233331877766,-0.046959589652302694,-1.0259617954708726,0.1020339961688441,0.2694022305508059,0.10025594543900787,-0.15490405033653099,-0.04853717137891561,2,left
3.015,0.16207166403781353,1.0153818970494135,-0.044058147076894635,-1.0273175602964963,0.10071602502145933,0.2708856768158772,0.10041779965041828,-0.15790088338160913,-0.04882666682607497,2,left
3.02,0.15106826646103028,1.0096803428232601,-0.04462868529587764,-1.0247162647343218,0.10280471169137101,0.26857361951927305,0.10011406971430138,-0.15220418354917367,-0.04822411118392789,2,left
3.02,0.1426839053840614,1.0034772520123514,-0.045929563192697025,-1.0278275251233056,0.10050646418908432,0.27109618367612964,0.1005054191725041,-0.15956926515246384,-0.04902155119940457,2,left
3.0239999999999996,0.13419661380204329,0.9986459849585934,-0.04384815172965095,-1.0259218652591622,0.10185742449917426,0.2696201721510435,0.10017803700490407,-0.1533990872686723,-0.04834569581290865,2,left
3.0239999999999996,0.1284259760542843,0.9945696135810698,-0.04411818831726423,-1.0242337046479624,0.10303100549867822,0.26834006020601814,0.10018802284871736,-0.1535993648056545,-0.04837966046225864,2,left
3.029,0.12495597356631888,0.9924344691351923,-0.04660689062660296,-1.0317510074988765,0.09786629089969905,0.2739645498736275,0.1008093731692987,-0.16527634892075752,-0.04962678199243437,2,left
3.03,0.12431764766443051,0.9919976924796141,-0.045567876698140594,-1.0176862026115296,0.10747104540811958,0.2635126829909146,0.09928034739952904,-0.1365271928062019,-0.046538664862601595,2,left
3.034,0.1263071829375625,0.9936771699105524,-0.047618129095356565,-1.035831730035797,0.09511941899466393,0.27694803974246895,0.10181650849381907,-0.1842135587103759,-0.05166778022415609,2,left
3.034,0.12761868068470872,0.9961795949866386,-0.051799349774893665,-1.0206458777385388,0.10543980969486556,0.2657251877788909,0.0984705735254056,-0.12130769472463136,-0.044898915072439455,2,left
3.04,0.12694393114198566,0.9966332756258428,-0.052340501826103294,-1.0210505695313596,0.10515995785569841,0.26602789229794255,0.08442985372643341,0.1427066138950977,-0.016501517105443158,2,left
3.04,0.12678214039611196,0.9990309858630358,-0.052139090427750195,-1.050089019419166,0.08546813243679043,0.2874415892071712,0.08108235982090778,0.2056171854427807,-0.0097307103743033,2,left
3.0410000000000004,0.12989867682235806,1.0019204592655533,-0.04685026227658606,-0.9786975200022365,0.13387590868751564,0.2348061231154498,0.08362103901099097,0.1579202160074386,-0.014864393865045074,2,left
3.0439999999999996,0.13175151001180724,1.0050145695095436,-0.04117302102421161,-1.0970890107246816,0.05360628414930374,0.3220817784600364,0.08208970979931413,0.18668695245554323,-0.011768335852837614,2,left
3.0439999999999996,0.1306105642920769,1.0089240099026484,-0.04327865652157894,-0.9409154177463401,0.15948773524311027,0.2069628841537226,0.0827115365355465,0.17498662609784152,-0.013026507282971795,2,left
3.045,0.12956651065639135,1.0096780431994428,-0.04548259581715757,-0.2852882092248399,0.6039099706931631,-0.2762622085328515,0.08272455332405428,0.17480969141630215,-0.013048733825694265,2,left
3.049,0.12728209922821265,1.0171822883792234,-0.05028856667729682,-0.1291003658078207,0.7097993412676021,-0.3913837179628086,0.08238957801182195,0.18096792176251214,-0.012380071345327277,2,left
3.049,0.1220672851999792,1.0302320195725505,-0.061879895331131224,-0.2475188663362195,0.6295186956209189,-0.30410324969114444,0.08279254514005328,0.17358785476798808,-0.013182386603695622,2,left
3.054,0.11807087643118491,1.0405788543987105,-0.06986285845719006,-0.17609217265803115,0.6779319007338451,-0.35674466538906324,0.08247626928212903,0.17934094141582368,-0.012555373176541148,2,left
3.054,0.11859577190037654,1.0543920032490322,-0.06921178599911307,-0.2051641245636741,0.6582505869556043,-0.33532586972112355,0.08264550607478846,0.17624194524368897,-0.012892192246295016,2,left
3.0589999999999997,0.1195755913816592,1.066342430889725,-0.06366629749330269,-0.20555328181466087,0.6579361525210756,-0.3350244593484202,0.08261801758602078,0.17692351922105473,-0.012825697824608934,2,left
3.0589999999999997,0.12154572245907531,1.0760861007956848,-0.05604042962185379,-0.1903444267694797,0.6683157077907033,-0.34625320323083897,0.08254226968208053,0.1778180507325983,-0.012707605413605005,2,left
3.063,0.1251079769733472,1.087028796292754,-0.051231367661399366,-0.20856941863121647,0.6558931983901922,-0.33280230130351696,0.0826730583411561,0.17627076376476147,-0.012911622749038692,2,left
3.0639999999999996,0.12732644706640928,1.0907850644567494,-0.05133627758241957,-0.19436529085847334,0.6655507624344241,-0.34327884886844184,0.08253436835604835,0.177759949396207,-0.012705385750558552,2,left
3.068,0.12974150603274848,1.0917154748347664,-0.05327814257678669,-0.20205639960545801,0.6603957011306294,-0.3376262906523939,0.08263595648526076,0.17674139558138818,-0.012851630060827308,2,left
3.068,0.1307411549563263,1.0913699803072263,-0.05735646729824273,-0.20022472260657917,0.661450087049317,-0.3389255732968216,0.08261570640035468,0.17712992868111332,-0.012810164901243901,2,left
3.074,0.1316480966487646,1.0866718946742115,-0.05826348337266478,-0.19833003406881883,0.6630564278068608,-0.3404089898682519,0.08251522320431534,0.17736555379140334,-0.012716794037557138,2,left
3.075,0.13146033370681776,1.0830922240100929,-0.05605992533966937,-0.20167868517813697,0.6603916851677438,-0.33783441254622903,0.08275626129794952,0.17661282807288636,-0.012953198219756299,2,left
3.0789999999999997,0.1262096327620778,1.0771612440554992,-0.059628828682096124,-0.19851356406653992,0.6628518151547187,-0.3402520314818157,0.08239931905412459,0.17768590438726728,-0.012605906748263609,2,left
3.08,0.12269937709748774,1.0671167716796333,-0.06978239613269284,-0.20072622478525404,0.6613547775121402,-0.3386220376086835,0.08277632239853691,0.17660809684055195,-0.012969000657617899,2,left
3.0839999999999996,0.12060545995157669,1.0584164086652974,-0.08673415923711049,-0.19951015388153087,0.6615953675298991,-0.3393608725086973,0.08255843281768549,0.17723150467495175,-0.01275914851917672,2,left
3.085,0.1190780176415886,1.050318106781933,-0.10413046602154286,-0.2000822564435721,0.662541464625348,-0.33929893084928886,0.0823784635988535,0.17762253673747597,-0.012593961541294468,2,left
3.089,0.12090499367565388,1.0405872251448327,-0.11511558666595005,-0.19975739627505135,0.6607717899595023,-0.3390017790871009,0.08317631540577419,0.17572186432469566,-0.013337188500838452,2,left
3.09,0.12126365258717745,1.0307662726554931,-0.11729617041130225,-0.20000524281291748,0.6627250105639616,-0.3393910962105265,0.0816961341331825,0.17925596522355441,-0.011957901695784184,2,left
3.093,0.12412757337905521,1.0226134557041275,-0.1112366511113379,-0.20001749285932507,0.661491079304404,-0.3390515818402686,0.08359617083872634,0.17473030590315808,-0.013727617431258984,2,left
3.094,0.12904262992557686,1.0131922603528491,-0.10999445221210298,-0.19925805043630465,0.6609493261530927,-0.3393264132428391,0.08201012922370797,0.17850280553139908,-0.012250835480814735,2,left
3.0980000000000003,0.1324261861734055,1.0005982392060657,-0.10906276909340434,-0.20132135082472444,0.6641745926899787,-0.3390525342749875,0.08205409689884685,0.1783857714996583,-0.012292304254019643,2,left
3.0989999999999998,0.13980206583534247,0.9891213337141019,-0.10576522659017645,-0.19772239118983573,0.6580391262824425,-0.33939279107139486,0.08507432353874458,0.17125694036627948,-0.015101547150189902,2,left
3.102,0.1467048379831185,0.9804500817742597,-0.10902435713506231,-0.20229268240344922,0.66595196160792,-0.33899350682953544,0.0776499330330655,0.18878945031932168,-0.008195829660044677,2,left
3.102,0.15048407856233834,0.9723926522048543,-0.09982920514181287,-0.19849760158266533,0.6593318790740674,-0.3393115877823689,0.08996013263637889,0.15972153949586215,-0.019645489477344978,2,left
3.108,0.15469677529829595,0.9673370397817043,-0.08552037209665941,-0.19852178737986076,0.6595649875583083,-0.3393615246767475,0.07372303281648038,0.19805767184488227,-0.004544017230654427,2,left
3.108,0.15651068504268195,0.9664678816348279,-0.08091699876128239,-0.2060162218718021,0.6720112561825564,-0.33856294535908227,0.00557686144524876,0.35894395615740404,0.05884418468857701,2,left
3.109,0.1610232088858081,0.9624047438485248,-0.0635583788404381,-0.1876882977151083,0.6413564100843719,-0.3404568410464418,-0.01065966614194407,0.3972744403283698,0.07394515933188553,2,left
3.112,0.17564924058499082,0.9538267801166275,-0.045374856411568285,-0.21805238217377582,0.6921994929984356,-0.33733417110426767,0.0016488771289497536,0.36821450618197604,0.062495857943968135,2,left
3.112,0.1862603107382218,0.9494363926258295,-0.04281054514114721,-0.17800670013802125,0.6251376804885096,-0.341452365598519,-0.005772075008150133,0.38574273192049546,0.06940241756639567,2,left
3.113,0.1897767699217803,0.9488247711436304,-0.04203410727648964,-0.009891255204662004,0.3437580474386858,-0.3588439523209194,-0.002757368666494428,0.37860725396191136,0.06659007482131866,2,left
3.1180000000000003,0.2056160092994659,0.945380331410604,-0.041332823308391456,0.030142424217244276,0.27671218626961464,-0.36297539122640393,-0.002706583250757951,0.3785136231347346,0.06655439794866225,2,left
3.1189999999999998,0.22698685202078794,0.9419355343139726,-0.0398272670432242,-0.0001844368386678761,0.3275280757732225,-0.3598320764683043,-0.004298349111507916,0.38224528000108093,0.06802357823598973,2,left
3.122,0.244465087834989,0.9426471206220355,-0.03770976790105357,0.018062576808903493,0.29690185625634213,-0.3617428909117862,-0.0023976723755835963,0.37776939485445443,0.06626055445994325,2,left
3.123,0.26682061888969066,0.9445605587416762,-0.03882894493375573,0.010702054051103258,0.30933282351508123,-0.3609457286712239,-0.0038687332854716186,0.38126511314141787,0.0676385835190077,2,left
3.128,0.2903412562980996,0.9451479568567177,-0.03880991278957593,0.010507976894683003,0.30955038864035067,-0.3609618091231648,-0.0030930830367726274,0.37936065730701196,0.06688585517009323,2,left
3.128,0.31151683710620093,0.9462174213514598,-0.03459614477116606,0.014451988766582427,0.3029913935073961,-0.3613530973570678,-0.0032387840967916994,0.37983089178978324,0.06707518797657458,2,left
3.1310000000000002,0.33164481034956095,0.9477527488653592,-0.029947838892109543,0.009851624927299454,0.3107949344118494,-0.36085010782858445,-0.003494572524148795,0.380279795826712,0.06724710497821854,2,left
3.1319999999999997,0.34755045441644306,0.9469425164611409,-0.02983942874254745,0.013244020003117406,0.3047966179213498,-0.36129231437474063,-0.0030935157868848895,0.3794565216436564,0.0669266677490831,2,left
3.137,0.36190378941470447,0.9445840931804412,-0.029985086626726932,0.011712394906580414,0.3079083841244087,-0.3609756850318796,-0.003436081466446049,0.38026639128213835,0.06724578192119612,2,left
3.137,0.3764834611440577,0.9419819113799087,-0.027235236399180705,0.011629479787133813,0.3073754976191728,-0.3611614603453546,-0.0032721636116349994,0.3796500253574885,0.06699569296970101,2,left
3.141,0.38601955061426224,0.9388542735629475,-0.025914567023455678,0.012574467836729518,0.3063288566622694,-0.36110415512695815,-0.0032220940587135882,0.3800560088614092,0.06717219383428033,2,left
3.142,0.3915354194216881,0.9380001171222025,-0.025185383078508372,0.011676862203983951,0.30783701860952195,-0.3610103354092187,-0.003446334328511511,0.37980340965584736,0.06704800017950549,2,left
3.147,0.3959998082372258,0.9393652475135696,-0.025125778695096034,0.011734986487015129,0.30674384335512406,-0.3613028368863182,-0.003152583713604368,0.3799435212848643,0.06712949238079463,2,left
3.147,0.39835182432104116,0.9400525346923907,-0.02838954783520979,0.012967946938834463,0.30695508564721224,-0.3607752094159498,-0.0033589742097268087,0.37994915419055975,0.06711653276283724,2,left
3.1510000000000002,0.3983985200859975,0.9430242996698106,-0.03404415674605136,0.010530767178160403,0.30764066770892085,-0.3615006558559961,-0.0034229026365087934,0.37968477663232497,0.06699925806515761,2,left
3.1519999999999997,0.3957963324004959,0.9485315969172378,-0.040383443706143635,0.013392380364170859,0.30646896633220116,-0.36075448278751265,-0.0029328643770096803,0.3803451645578097,0.06731676770704846,2,left
3.157,0.3934837648462066,0.9525698082813752,-0.04733200349317215,0.011604105414101677,0.3073711852169069,-0.3611718132012324,-0.0038912766618153373,0.379237749325707,0.06677417855838885,2,left
3.158,0.38925643696387047,0.9570553725253834,-0.055185604454647,0.010346910156743501,0.30767439973780175,-0.36156050136912077,-0.002642805686670719,0.3806175414607493,0.06745424215965293,2,left
3.161,0.38240742900486624,0.9630237731198755,-0.05860644634809513,0.01644924812241079,0.3053457881175349,-0.3599205698943012,-0.0036925170833442163,0.3794833084858721,0.06689349842907383,2,left
3.162,0.37503937412683297,0.9685638944652105,-0.05564872710133799,0.004957023015282059,0.3099563606432589,-0.36294403501378136,-0.003652774548268415,0.37948689836606786,0.06689790601377052,2,left
3.167,0.3636791830643499,0.9720978704119492,-0.0531697286306376,0.019792084878366582,0.3039062497275387,-0.3590695794502033,-0.0016814155032321009,0.3817218838839846,0.06799580142025721,2,left
3.167,0.3539673849838354,0.9739959044705433,-0.05283943404175044,0.007372300626485292,0.30901323413382087,-0.36230098356302476,-0.006542963856615135,0.3762675111596442,0.06531283444106845,2,left
3.1710000000000003,0.3403454539253381,0.9794214351768883,-0.05221832916444353,0.007740846446971919,0.30882546540307404,-0.3622159534230163,0.0015235515867015902,0.3852967562383523,0.06975552382239067,2,left
3.1719999999999997,0.32779069378520265,0.9853003045427703,-0.05345772193113154,0.03136110105537144,0.299180066540759,-0.3560500667444869,-0.009117927122163689,0.37339199625460495,0.0638976556234731,2,left
3.175,0.3257622105041537,0.9861054993879861,-0.05422439552801875,-0.02675404451139146,0.32297666526349383,-0.3712008828514741,-0.05378231201200574,0.3234082943682039,0.03930238758061826,2,left
3.176,0.30769146161293104,0.9878537106320381,-0.04847419404940084,0.0696351829202394,0.2834767282543764,-0.3460816917780546,-0.06442332535217066,0.31150331553602273,0.033444662258702566,2,left
3.177,0.2891785732226059,0.9908575652501584,-0.043272075276761766,-0.05752273035620027,0.3356008003521534,-0.37921378626568125,-0.0563559627321107,0.32052960949924214,0.03788594079380931,2,left
3.182,0.28587033560879865,0.9904310025871111,-0.04101077448095278,-0.5912677472306671,0.5543934059749004,-0.5182852338865994,-0.0612224867090618,0.3150866184385772,0.035207364737151955,2,left
3.1839999999999997,0.26624138426047184,0.9906859440180282,-0.032852955691466276,-0.7184625795458316,0.6065407423220561,-0.5514209724791326,-0.05923959457031488,0.3172975397887761,0.0362965993912813,2,left
3.1839999999999997,0.2417509611499814,0.9929992268842147,-0.02460029319361365,-0.6220051809831908,0.5669948847532162,-0.5262956247379578,-0.059218077901837224,0.3173373551601991,0.03631351321558836,2,left
3.1860000000000004,0.22261905628799147,0.9939152875520354,-0.023391635463319904,-0.6802051157540224,0.590855408015019,-0.5414527832789033,-0.060246932357898304,0.3161636329556652,0.0357397445853434,2,left
3.187,0.1992057513596819,0.9961522685854435,-0.02692137802710913,-0.6565112387715605,0.5811419791921548,-0.5352838080119464,-0.05901264126967602,0.31756719597002325,0.036426649589652804,2,left
3.1919999999999997,0.1785039242097367,1.0009178040597435,-0.03398537404419512,-0.656163398380083,0.5809993594503639,-0.5351946225591251,-0.05997717120812304,0.3164784037570555,0.03589248920937196,2,left
3.1919999999999997,0.15835271779550567,1.0049739140148817,-0.039983768728227786,-0.6686637442269103,0.5861226520315308,-0.5384406324389551,-0.05944676186092458,0.3170518336932693,0.036177900230315224,2,left
3.195,0.1425249026630211,1.00974763861298,-0.04197120376653422,-0.6536107426301043,0.5799550718242994,-0.5345408292254766,-0.05959223114451141,0.3169530879126269,0.03611890907007912,2,left
3.196,0.13160127284831546,1.014655821122143,-0.045139674979411196,-0.6654527517752717,0.5848043098482506,-0.5375952953657911,-0.05968566106527244,0.31673832550198344,0.036031137293972594,2,left
3.2,0.11835734897801078,1.0184857329154209,-0.05309893976691546,-0.6589482370150489,0.5821434207952607,-0.5359308931137027,-0.059501294437484926,0.31707988811336735,0.03617724020558301,2,left
3.201,0.10574528378783135,1.023130481060522,-0.0660062442529363,-0.660487155621829,0.5827718111654143,-0.5363188767125266,-0.059682027568554105,0.3167698219567159,0.03604218021305639,2,left
3.2060000000000004,0.09381228310763155,1.0263258884354427,-0.08193270396556304,-0.662365478448671,0.5835367938547968,-0.5367825538818456,-0.05953095730751307,0.3169378242664022,0.03612500422137692,2,left
3.2060000000000004,0.08459999622092061,1.0280918583595504,-0.09271871644171376,-0.6587823394026998,0.5820842040830516,-0.5359316054445513,-0.059678626278094254,0.31697295712180695,0.03610979276866095,2,left
3.2110000000000003,0.07900787008390145,1.0278713971976032,-0.09619816739789216,-0.6627073563339374,0.5836650540744903,-0.536812073457336,-0.05949152942709994,0.31672447999077236,0.03606179955207534,2,left
3.2119999999999997,0.07628564413820647,1.024351694097208,-0.09623485124779418,-0.659387138755293,0.5823386080386479,-0.5361213746177196,-0.05973462414768653,0.3171354502457995,0.03615321485315641,2,left
3.216,0.078560785658983,1.0200303479438135,-0.09260514028536682,-0.6613861597959414,0.5831304540682745,-0.5365032374769619,-0.05948220087815307,0.31668984625781066,0.03605208106190244,2,left
3.216,0.08376064090904761,1.0110335161774526,-0.09212482440840497,-0.6613934195061573,0.5831331267395409,-0.5365039196583632,-0.059617431115466815,0.31695915166967137,0.03611632675493129,2,left
3.22,0.09399937221977633,0.9982869306448723,-0.09883476978147851,-0.6587211625833584,0.5820891294743837,-0.536065421114199,-0.059786559046608,0.31713266177000554,0.036142895507325634,2,left
3.221,0.10812792611575928,0.9886612646671529,-0.11049314070195276,-0.6643897801682169,0.5842953797275265,-0.536953303127025,-0.05913244343323358,0.3162773335799175,0.0359794831989297,2,left
3.2239999999999998,0.122304960085062,0.9811036814638479,-0.12805402249589393,-0.6562941664481243,0.5811519560471576,-0.5357228080505092,-0.06032992908431714,0.31788084984314985,0.03629101057133856,2,left
3.225,0.1365109247875662,0.9744092669839751,-0.14271891034966483,-0.6647130281874416,0.5844164087035343,-0.5369794681543885,-0.05879585228909713,0.31581800030121626,0.03588913170601113,2,left
3.23,0.1452677283895526,0.9691215699857285,-0.15036997239389505,-0.6599167496818534,0.5825579695350278,-0.5362712017900331,-0.06007506205678223,0.3175416973881222,0.03622534223687528,2,left
3.2310000000000003,0.15238305937966332,0.9648785166848322,-0.1532705245037409,-0.6558078525860296,0.5809670020927431,-0.5356670742398864,-0.06004607556570428,0.3174891077127422,0.0362134325687479,2,left
3.234,0.16029600593807802,0.9618150432553075,-0.15203365743015618,-0.6737041687313194,0.5878956651193756,-0.5382880373248664,-0.05758861111508305,0.31422193683048,0.03558172041443741,2,left
3.234,0.16520875577751865,0.9603763621050044,-0.15205683079274973,-0.6405948994521224,0.5750785472038853,-0.5334484048009822,-0.06362188598540067,0.3222591331129696,0.037137542110491736,2,left
3.24,0.17698890094849218,0.960161871072626,-0.14760028727404664,-0.6830529983843346,0.5915139670411309,-0.5396479540354657,-0.0536205239381536,0.30893145730162075,0.03455732370815284,2,left
3.241,0.1872910240292081,0.9597672142114174,-0.1405168269536854,-0.6476336543671697,0.5778030841035984,-0.5344796012552311,-0.0668115820618614,0.3265104969663515,0.03796030319395547,2,left
3.245,0.19080156109751992,0.959426382352251,-0.13703430765243926,-0.6485875275874449,0.5781740325082645,-0.5346173744288436,-0.12218870010535102,0.40028993561080883,0.05224015057546495,2,left
3.2460000000000004,0.20545561265368173,0.9582755349892104,-0.12949337052492768,-0.7160953011634557,0.6043012781293065,-0.5444667420680254,-0.13537856053172392,0.41786747319283746,0.05564147591540382,2,left
3.2460000000000004,0.2238594236861283,0.9579128970067345,-0.11915800103851582,-0.5501980201612868,0.5400919123059331,-0.5202673117966714,-0.12537979331948934,0.40454192408885437,0.053063923319256676,2,left
3.2489999999999997,0.23715576591500104,0.9620014880676854,-0.10981995800193661,-0.8252385509985483,0.646546184930625,-0.5603835113438221,-0.13140895993714902,0.41257796196237206,0.054617322423222536,2,left
3.25,0.24548756505857416,0.9650132480446416,-0.10553182016712218,-0.4624803882256706,0.5061395091299072,-0.5074762111042138,-0.12895668265910087,0.4093090627119951,0.05398607138751284,2,left
3.25,0.24719003716683716,0.9653103543649345,-0.10582349631206886,1.060382555231592,-0.08324053488062944,-0.2853232908942145,-0.12892287238036745,0.40926263860827283,0.053977443669430844,2,left
3.2539999999999996,0.2516322181396239,0.9711279917206671,-0.106524609489781,1.4231387096664028,-0.22364444021115734,-0.23241556305300437,-0.13020392471223508,0.4109755365126891,0.05430552649165832,2,left
3.2539999999999996,0.25651436513423026,0.9804057636358146,-0.1075309191229454,1.148078260694166,-0.11719082486348881,-0.2725412676372003,-0.1286743512100259,0.4089258878714832,0.05391601592988359,2,left
3.259,0.2561587678545588,0.9882504220529748,-0.09569108987120237,1.3140546151776575,-0.1814096197616022,-0.2483099848834667,-0.12985812320970577,0.41051916352470386,0.054214267823746276,2,left
3.261,0.25356026324370856,0.9984196183542171,-0.07519004845693701,1.2463783197426825,-0.155255342486091,-0.2582238477152301,-0.1292272645684006,0.40966297226207493,0.05405852878621779,2,left
3.265,0.2500321769975775,1.009485642915289,-0.06729699051925503,1.2456792758265633,-0.1549311400959072,-0.2582669629994792,-0.12936813387768745,0.4098572775904877,0.05409184913593867,2,left
3.265,0.24263797048838384,1.0182389525229647,-0.06685969700980104,1.280819524135966,-0.16858413794362792,-0.25319901453155447,-0.12952557295747863,0.41008052718552596,0.054126600527730134,2,left
3.2680000000000002,0.2285925314684984,1.030579180045559,-0.0658884613322111,1.238531580228829,-0.15219494501504835,-0.25934269406852783,-0.12927400542150544,0.4097022991873761,0.05408062375462139,2,left
3.2689999999999997,0.21066196790736735,1.045493534936611,-0.06779478497759611,1.2717675425751889,-0.16501331104920394,-0.2544452554135582,-0.1294744429584001,0.41004334741306947,0.05409975480420135,2,left
3.2739999999999996,0.1905636887273538,1.0557389181598553,-0.07008707572230062,1.2532640179022523,-0.15799612029168317,-0.25730293831367845,-0.12938355522455036,0.4098315405018278,0.05411626297300749,2,left
3.275,0.1731274993089158,1.064380760587517,-0.07244896471132915,1.258535614677724,-0.15978823841376466,-0.25626098967290045,-0.12938887377665376,0.4099109043454868,0.0540857918655446,2,left
3.279,0.15887871962623107,1.0722196510215232,-0.07761380723957924,1.2617789198936642,-0.16134780386733133,-0.2561227466577469,-0.12938779102466744,0.4099101285327358,0.05408523587231889,2,left
3.279,0.1454291040649159,1.0776899404682032,-0.08421949521923233,1.2547875044541494,-0.158399433018136,-0.2568756693039289,-0.12948552151180992,0.40990619771352266,0.05416949848676986,2,left
3.284,0.13488200201767014,1.0809311280590475,-0.09364977639367894,1.2624601009557352,-0.16136669361447714,-0.255754149379702,-0.12921680140673303,0.40985467970749,0.05396522701567197,2,left
3.284,0.12542183458318984,1.0804239025057045,-0.10967258300337689,1.2551411647526083,-0.15898415263892732,-0.25731683108809095,-0.1296550650533529,0.4099813609838143,0.05427960359739725,2,left
3.2880000000000003,0.11966712720695827,1.0795843251965476,-0.1268267396139926,1.2623769040777613,-0.1607561877548194,-0.2551298999553844,-0.12916601661188012,0.4098171932677298,0.053938838107364634,2,left
3.2889999999999997,0.11567288354441696,1.0749435084417276,-0.1370525200210457,1.254924694013417,-0.15940600925276152,-0.2579049457242934,-0.12945556690590396,0.4099213532752305,0.05413753052672797,2,left
3.2969999999999997,0.11025021808515126,1.0670965986245247,-0.14396369267853998,1.261645899994404,-0.1603721622294757,-0.2551249986796712,-0.12970809331318467,0.410015027823314,0.05430956485811352,2,left
3.298,0.10561818016852864,1.062835657608467,-0.14975615488121685,1.258582461307385,-0.16013103332626555,-0.25661179578383886,-0.12859455880244514,0.4095938944784763,0.053554513286922,2,left
3.298,0.09793874158804025,1.0584052727070183,-0.1514819314726698,1.2533920747581162,-0.15893725442609086,-0.25826482361152486,-0.13066763053363004,0.41038557658224967,0.05495682052148468,2,left
3.299,0.09060175790513306,1.0557578767369615,-0.15499220406425743,1.2714038719049576,-0.16234310754089182,-0.25171540499398704,-0.12800016969830674,0.40936163290901895,0.05315478072558055,2,left
3.303,0.08576143473430085,1.055338524405637,-0.16356767121710827,1.2391121710050683,-0.15645629373495595,-0.26369971518784996,-0.13022948782828125,0.4102196672874316,0.054659784344008144,2,left
3.303,0.08048872812370117,1.0585486730902698,-0.17140099229122416,1.2801757712714115,-0.16386096781521348,-0.2483692424577034,-0.13016959257695848,0.41019700689617317,0.05461930211259303,2,left
3.3080000000000003,0.07698707718391956,1.066178181660194,-0.17322430014096862,1.2460630073979,-0.15774361097920692,-0.26114387394417626,-0.12591329918311647,0.40855374548583934,0.051747766430900344,2,left
3.3089999999999997,0.07532034464743359,1.0776958909379206,-0.16934968832802172,1.2467256861947718,-0.1578106788932288,-0.26083459779758467,-0.1363759551179084,0.41259433395865747,0.058805797398017876,2,left
3.312,0.07683899018370273,1.0997589158710657,-0.16305829476884726,1.3124651713864643,-0.16973798778542684,-0.23637843634194697,-0.1190268706560295,0.4058928186966041,0.04710277383365799,2,left
3.313,0.07910805774525362,1.113877327176664,-0.15750521820492394,1.151262393733091,-0.14056304277484605,-0.29643690558394586,-0.14191169790892522,0.41473399678299017,0.06253989620238501,2,left
3.3139999999999996,0.07916975368689726,1.1226236138827095,-0.1597707845238281,1.4184019106984214,-0.1888854429645731,-0.19687535525332875,-0.2379873046198806,0.4518648028426899,0.1273588191098345,2,left
3.3169999999999997,0.07906710764478347,1.1390971941915886,-0.16591665523670102,1.066097532481288,-0.1251638026782762,-0.32819198991885645,-0.2608762464869268,0.4607109154877619,0.14280137602250875,2,left
3.318,0.07898132144497305,1.1477451132870184,-0.16856358562620266,-0.41289780038376367,0.14236072317896675,-0.8794059005134477,-0.24351865027940492,0.45399925147889675,0.1310866408018034,2,left
3.319,0.08074744289914734,1.1662087105874062,-0.17118313733771917,-0.7651946860020238,0.20609092616765567,-1.0107291794659927,-0.25399399372447806,0.4580548461370977,0.13816309203447263,2,left
3.323,0.08391094915688482,1.1961193954478162,-0.16792235852297105,-0.4980928547476934,0.15776519366828115,-0.9111610317621939,-0.24972282002661167,0.45639417134008775,0.13526847466863395,2,left
3.324,0.08777008141281964,1.2196275924556557,-0.15540494827801232,-0.6591939452122972,0.18691560393480203,-0.971214672459705,-0.24967513571274894,0.45638551400449745,0.13524920625142128,2,left
3.3280000000000003,0.09077108018306346,1.2446431409746581,-0.13733922134335397,-0.5936435642557956,0.17506234240280738,-0.9467866745707006,-0.2519028024164841,0.45724225614790254,0.13674656978937355,2,left
3.3289999999999997,0.09083773415247037,1.2670431233516273,-0.11388010871796682,-0.592718300887288,0.17486489008725842,-0.9464196853805902,-0.2492171802325095,0.45619613522351793,0.13492368959194773,2,left
3.332,0.0920830575757163,1.2856160411286797,-0.08705317424435795,-0.6270920321189777,0.18114602453717044,-0.9592747568716863,-0.25133486591758775,0.4570409571981946,0.13638781405057093,2,left
3.332,0.09332827268979932,1.2999350263872895,-0.056191632808201504,-0.5859128647140867,0.17360719844711758,-0.9438670655250582,-0.25015218417277973,0.4565384722328124,0.1355289418190198,2,left
3.3369999999999997,0.09315162702656005,1.3079543673429295,-0.03153141288704474,-0.6179864682830369,0.1794981658436725,-0.9558793428156085,-0.2504816584213249,0.4567214791752434,0.13582599962845915,2,left
3.339,0.09163853972000104,1.3172102967665629,-0.025305162146716152,-0.6006913578437107,0.17633131255759743,-0.9494085595390981,-0.25072140218869177,0.45676978214985836,0.1359281769014466,2,left
3.341,0.08437642826755187,1.325443703061566,-0.025226969944375968,-0.6046353459907376,0.17696820976279892,-0.9508294987800563,-0.2502055494071642,0.45656999743922233,0.13557953875814727,2,left
3.343,0.07389114720446485,1.3321676292741151,-0.022523026881829528,-0.6092433166385505,0.17804791993456115,-0.9527041335555365,-0.25079658856722176,0.45688074334878703,0.13608900184873007,2,left
3.3480000000000003,0.06338797746833315,1.3421815574943379,-0.01725316097021909,-0.6012670833219993,0.17618111821038523,-0.9494610510840611,-0.25022662762092185,0.4564723971491904,0.13545161644497267,2,left
3.3489999999999998,0.05046019297175296,1.3542890619332821,0.00028945847033953146,-0.6087628550056977,0.17805725221958668,-0.9525860904296705,-0.2507352491949226,0.456949478504834,0.13617185144391453,2,left
3.352,0.035684463651750445,1.3647353070991,0.020031482810304976,-0.603730940402979,0.17673233282516088,-0.9504466902143683,-0.25034357498658955,0.4564991407314559,0.13550577804963654,2,left
3.353,0.022956737989541023,1.3737377639815587,0.02559545447416829,-0.6059133800340464,0.1771233856028951,-0.9512577555156372,-0.25049298846941404,0.4567295205367108,0.13583848657205555,2,left
3.3569999999999998,0.011435909427928801,1.3845809801512838,0.02685085241334742,-0.605984502298351,0.17790584755798938,-0.951773842797727,-0.25078378618067876,0.4569910524689224,0.13623543226772156,2,left
3.358,-0.001965295392656184,1.3945389979519147,0.029659626224493807,-0.6046211886476511,0.17590052450055071,-0.9501469782481308,-0.2498530878338017,0.4559793266944189,0.13473070850820068,2,left
3.363,-0.01559242742389786,1.405473646901113,0.0259384411125537,-0.6063762315223544,0.1788416655078805,-0.9524700012753352,-0.2514793132757901,0.4578167329875872,0.13745318357857333,2,left
3.364,-0.02741559801199043,1.4213708122912643,0.01698688244202494,-0.6048753279958086,0.17577329733735167,-0.9501315530368155,-0.24943554743375843,0.4554748587854228,0.1339880773417572,2,left
3.366,-0.03297006477260093,1.4350010733659928,0.011813148503582598,-0.6057464298446171,0.17754686993847524,-0.951484141207931,-0.25112259212834376,0.457422129627238,0.13686688878504277,2,left
3.367,-0.03400245341947662,1.4520939645572581,0.009335114340532774,-0.6056770238765864,0.17892743047013848,-0.9523443710577336,-0.2510939863192744,0.4573769987044549,0.1368029878874658,2,left
3.3710000000000004,-0.03456530413515953,1.4740353902266303,0.004897823627482803,-0.6049190991657281,0.1726936239699034,-0.9481839198038043,-0.24784514693818455,0.4536492292364728,0.13128607655749483,2,left
3.372,-0.030208125167135245,1.489223847830421,0.0009347393793775672,-0.6063771648673615,0.1842635750255031,-0.9559191041171032,-0.25579965061959115,0.4627977575354223,0.14482014365127097,2,left
3.3760000000000003,-0.029924174315331342,1.5067819857638374,-0.0004563213423504448,-0.6045734873969126,0.16941999467686664,-0.9460121856064667,-0.24262582412138944,0.44763642739256404,0.12239408872773819,2,left
3.377,-0.034202556215613626,1.5199731282302515,0.0003741260045885959,-0.6060473416746004,0.18180538465145474,-0.9542714092410448,-0.2599940789541697,0.46762955113961374,0.1519646936919565,2,left
3.3819999999999997,-0.036322545844742773,1.5230216123315525,-0.0007850883376746556,-0.605923706777473,0.18145808113726772,-0.9540155405915532,-0.332907357154179,0.5515717902881763,0.276138290138282,2,left
3.383,-0.04855604841471734,1.5361793670468913,-0.017022320973685487,-0.6034746761177129,0.15789817291700842,-0.9384047513884107,-0.35027002033660015,0.571560226658041,0.30569864963760474,2,left
3.383,-0.06582413148077956,1.5548394124442266,-0.0383902550892755,-0.6095555479620254,0.21581305008414003,-0.9767983073802928,-0.337106606660875,0.5564056543931974,0.28328662366992,2,left
3.386,-0.07923074290415927,1.5716139426762874,-0.03016609335288164,-0.5994800201464159,0.11978664080037282,-0.9131435040943401,-0.3450479573039744,0.5655501380837906,0.29681447884630713,2,left
3.387,-0.08775273335997466,1.5830748288876402,-0.011409788318994293,-0.6127528015637025,0.24645350647067132,-0.9970931045995396,-0.34181091012841724,0.5618178610482203,0.2912822959172403,2,left
3.387,-0.0907386873774683,1.5852470956364924,-0.003720815354380588,-0.6684452770131522,0.7785231362801674,-1.3493149637886332,-0.3417782159357432,0.5617906556513109,0.29126561557875347,2,left
3.39,-0.10126575177504968,1.590552377702918,0.01265777913846597,-0.6817322948863859,0.905290531599995,-1.4332324737431605,-0.3434540828270305,0.5637056385593738,0.29406522446719535,2,left
3.391,-0.11695847727477504,1.5937977826693293,0.012563403720694023,-0.6716053979325582,0.8090416419532872,-1.3696399149916711,-0.341442730875423,0.5614041429766659,0.2906933486215194,2,left
3.395,-0.12793320754471432,1.5843946213866864,-0.009119198758571988,-0.6778078052864533,0.8673179299976196,-1.4079491828879096,-0.34301545038995573,0.5632088509898552,0.29334892971780074,2,left
3.3960000000000004,-0.13048786684537095,1.5697617877203234,-0.020210542715976814,-0.6751472314076137,0.8432884412958765,-1.3924242165721408,-0.34214797729709123,0.562197648858469,0.2918255919260174,2,left
3.4010000000000002,-0.1227127329007758,1.5566617316086973,-0.02735870910908552,-0.6753033067284724,0.8433967718201436,-1.3921179626858367,-0.34239177631072026,0.5625180506122482,0.292388212527188,2,left
3.4019999999999997,-0.11625009384635987,1.5467990473666937,-0.035445207489020886,-0.6765165736403528,0.8555729819026132,-1.4003419294268338,-0.34253321231905154,0.5626126102668212,0.2923754302550524,2,left
3.407,-0.11780077983630298,1.545500985906094,-0.04443153970177781,-0.6747969556769122,0.8403829993585263,-1.3906043921623192,-0.3422458369369587,0.5623654881836954,0.29219713178420326,2,left
3.408,-0.13053695322853598,1.5584673766770183,-0.05535930844198875,-0.6765444877694671,0.8531324207713262,-1.3980171592032744,-0.342530041134692,0.5626259529944632,0.29243316810824715,2,left
3.41,-0.15551330214976333,1.582301364218531,-0.060885615424545035,-0.674963867886964,0.8448228058809919,-1.394285766146468,-0.34228344105670244,0.56234143784121,0.29201100986432016,2,left
3.411,-0.1820216099575726,1.6106619403025904,-0.06445867728683445,-0.6762532542848694,0.8488069072038746,-1.3947522880645613,-0.34254420650672307,0.5627655327223942,0.2929151483279925,2,left
3.4139999999999997,-0.20513874771319013,1.6409902320897556,-0.06333193619083351,-0.6755164576886477,0.8484130040977312,-1.3962220614608345,-0.3421936684898908,0.5620788602769045,0.29126679135946376,2,left
3.415,-0.22344491691486823,1.671475120465105,-0.04811129683536004,-0.675209506711572,0.8455414389171747,-1.3943359160364976,-0.3426578081161071,0.5630355833173435,0.2936257653720534,2,left
3.4210000000000003,-0.23339110942784108,1.696329292496487,-0.0198286313740349,-0.6771780331043333,0.852007646544001,-1.3954074681792197,-0.3421740159478311,0.5620283032257922,0.2911296706011328,2,left
3.4219999999999997,-0.238581269700808,1.7154050028879526,0.013557332150104856,-0.6731316984701892,0.8415533101071923,-1.3958209734567455,-0.3424361929730707,0.5625904093875278,0.2925425336947272,2,left
3.424,-0.24310445653309645,1.7274824865723142,0.04092845216307084,-0.6789705188533921,0.8552578545029439,-1.393951667768273,-0.3427480343775495,0.563173520776568,0.29390606306765243,2,left
3.425,-0.2447039849514434,1.7289203568094036,0.054364726929739184,-0.6728328584217829,0.8414814049704917,-1.3964960529035724,-0.34152388669437533,0.5607828855178785,0.2881768775480956,2,left
3.429,-0.2441279979297373,1.7262765993120444,0.05736959852086275,-0.6763355932738345,0.8490168267412768,-1.394744248156068,-0.34376858361502727,0.5651872215978878,0.29875878888671736,2,left
3.43,-0.2418576360391004,1.7138180870051838,0.05774750519198896,-0.6794460100686182,0.8564057887409828,-1.3938273695297898,-0.34089215910794224,0.5595383704375302,0.2851806046378841,2,left
3.435,-0.23791256120451773,1.6945899995073028,0.05142365040769904,-0.666025323014793,0.825953839824695,-1.3990922297895523,-0.34329095664688086,0.5642516760811944,0.2965126769164349,2,left
3.4360000000000004,-0.23163232199395972,1.6754207677795672,0.03879287634009316,-0.690858940618089,0.881878147130257,-1.3889634416504089,-0.3432354953039064,0.5641342254633037,0.2962204042161988,2,left
3.4389999999999996,-0.2209159565208293,1.6503964758075513,0.031265555533919576,-0.6589944543823829,0.8103111048819971,-1.4021313293569042,-0.3386310148561956,0.5551136703182646,0.27456451542161037,2,left
3.44,-0.2081395515376629,1.6275091821933863,0.033016439565604815,-0.6855892056881202,0.8699573828153376,-1.3910687637975359,-0.3499365231490559,0.5772731896376906,0.32777552949172994,2,left
3.445,-0.18188620993528726,1.5931741921793152,0.05018341660704166,-0.6848705556725823,0.86842629561054,-1.391428420018384,-0.33119524784013726,0.5405347272677956,0.239552835161187,2,left
3.446,-0.16052528016195555,1.5664235167855458,0.06551859209562402,-0.6341617678563747,0.7545421640148229,-1.4124107361886122,-0.3559134470244978,0.5889923923379259,0.35591886641830217,2,left
3.449,-0.1561245561267378,1.5629946055243935,0.06840931794139979,-0.7587980750724204,1.034308127175745,-1.3607307214949849,-0.45968709003120845,0.7924071486144163,0.8443797057579429,2,left
3.45,-0.12421127656804361,1.5256186438583597,0.0913716917371897,-0.552139454384446,0.5705087411210261,-1.4464703754448114,-0.48440321885169174,0.8408663098960714,0.9607506459912437,2,left
3.451,-0.09402436005579928,1.4882094914649082,0.11528835130889316,-0.8247330891654716,1.182233821301182,-1.3333545842151544,-0.4656657227311307,0.804126132619471,0.8725212035422225,2,left
3.4539999999999997,-0.09021215434845514,1.4826613301040306,0.1174804058620425,-1.9688558255041477,3.7498604869842795,-0.8585489223330309,-0.4769666311235762,0.8262853766588178,0.9257352872257149,2,left
3.4560000000000004,-0.06464180698715362,1.4490864423897913,0.12983555500559968,-2.2414890218285333,4.361602660171732,-0.7454182514550078,-0.47236595985553864,0.8172694894647705,0.9040865234227351,2,left
3.4560000000000004,-0.032878706282638226,1.4028028679519875,0.14368335137377947,-2.0347699783160236,3.897790093945249,-0.8311901277436546,-0.472309811334067,0.8171415263358861,0.9037719105388189,2,left
3.46,-0.010964971198832631,1.366834798602102,0.14374559080704447,-2.1594524159429045,4.177530203177065,-0.7794591258596478,-0.4747035823561225,0.8218702801464568,0.9151416264705087,2,left
3.4610000000000003,0.015207960670999589,1.3283519654977485,0.1404552772618348,-2.1087569465003697,4.063746217123746,-0.8005057791131514,-0.471839672909674,0.8162055769511778,0.901518946251477,2,left
3.464,0.03942989599298631,1.295152479556619,0.13293174016622372,-2.1079236839552085,4.062025572285845,-0.8008056610806744,-0.4740650237958005,0.8206176236416198,0.9121330762083419,2,left
3.465,0.06503875812748297,1.261780333867601,0.12919192576116817,-2.134751586923495,4.1219228923811775,-0.7897658294088457,-0.4728622657495863,0.818238594197797,0.9064120986120427,2,left
3.469,0.09349982849551781,1.2254244410046733,0.13370885059713783,-2.1025689610107343,4.050131766080086,-0.8029897307757796,-0.47316048787716547,0.8187808683813911,0.9076975784306112,2,left
3.469,0.12188132876027699,1.192396527178654,0.13634877383445515,-2.1276995032244037,4.1061046842633075,-0.7926907276311338,-0.4734147522924938,0.8194152979527864,0.9092742184424181,2,left
3.4739999999999998,0.1480172501192985,1.1623876122033245,0.13882687299647822,-2.1141841052154136,4.075955900163286,-0.798243999248486,-0.47297398587398154,0.8183171788594563,0.9065460268877275,2,left
3.475,0.17160650780725226,1.133990771640883,0.1474658874563528,-2.116966744651116,4.0825589123319075,-0.7969770327952155,-0.47335406930000745,0.8193494295348767,0.909136487834917,2,left
3.478,0.19751835001346638,1.107706583639454,0.15639880568814535,-2.121393459380295,4.0913401799261155,-0.7954996994321577,-0.47311729056359497,0.8186562808596721,0.9073832937444014,2,left
3.4789999999999996,0.2240719394162829,1.0855678138527682,0.15783660398323937,-2.113740514832487,4.076150175360762,-0.7980564931302278,-0.4732714003828513,0.8189566143131326,0.9081030446058307,2,left
3.484,0.24603372234959772,1.0712617278929444,0.147370109882958,-2.1213568145538275,4.090808637461619,-0.795655255697379,-0.47306075812775933,0.8189679083669733,0.9082962530587946,2,left
3.485,0.25887060548028973,1.0705973829780113,0.12905558904508302,-2.1160159406008257,4.080762373215851,-0.7972663684015059,-0.4734579881742298,0.8187766675898425,0.9074586674374745,2,left
3.488,0.2590955984893894,1.0852946518966924,0.11397077159817537,-2.1176912102037706,4.084539281676905,-0.7965655598597872,-0.47284574155164655,0.8190238359814055,0.9086156780563591,2,left
3.489,0.24359598350054237,1.1184029892393452,0.09920853723947322,-2.1204327873459903,4.087093729703199,-0.7965514742668632,-0.47352448580523276,0.8188109682834779,0.9075049939106192,2,left
3.495,0.2112248535429287,1.1716657639587913,0.0794436717496803,-2.113239321777967,4.079172557455001,-0.7969691294478323,-0.4731323800721509,0.8189349765351475,0.9081472096297676,2,left
3.4960000000000004,0.1671690676661328,1.2395647074201679,0.05590032145741921,-2.123754401267966,4.090504676712662,-0.796435658575092,-0.47273744755502656,0.8189275286400894,0.9084324165669211,2,left
3.4989999999999997,0.11929234563002505,1.3188178908681896,0.030489582174567355,-2.112831928899202,4.079067531281501,-0.7968854867105907,-0.4743926883488543,0.8188109105766697,0.9068389150087366,2,left
3.4989999999999997,0.07082459214710224,1.4060827525504118,0.01158967240000193,-2.119145179959399,4.085681708485765,-0.7966243669292052,-0.47132616433750973,0.8190357291238908,0.909809197807823,2,left
3.503,0.02745855945108426,1.4932390789511336,0.0012128307915376293,-2.123954918832764,4.089961817512632,-0.7966626043634426,-0.4752690794973395,0.8187551427309179,0.9060200158372069,2,left
3.5039999999999996,-0.00756240184022466,1.5795180587177322,3.191120590891219e-05,-2.1020885823528417,4.069392629139053,-0.7968359895502216,-0.4719743149734916,0.8189869895895613,0.9091697600503643,2,left
3.508,-0.04372658639107993,1.6611015306743715,-0.0014830542635610351,-2.1426785450416297,4.107627123957213,-0.7964976555938035,-0.47205940612516617,0.8189645171984219,0.9090639085198449,2,left
3.509,-0.08153000588789597,1.7270324415172469,-0.010995227445584154,-2.09061397980138,4.058653379551361,-0.796910053623618,-0.47836296951952506,0.8185834427844543,0.9031606330385502,2,left
3.512,-0.11632150871987282,1.7804504254062032,-0.029850088728381644,-2.1340527117492893,4.0994807333751915,-0.7965759911868674,-0.4628701843609985,0.8195378243992821,0.9176757482977351,2,left
3.513,-0.13942584982515083,1.8047272694107088,-0.07949161637947312,-2.132818135341116,4.098236500849174,-0.7966121169727741,-0.4885613899055009,0.8179496293693701,0.8936232238132131,2,left
3.5180000000000002,-0.14861850899776285,1.8046490862489568,-0.12262906170084975,-2.050254738385977,4.021000207178032,-0.7971324040133019,-0.4546703193809243,0.820048286181671,0.9253293145600487,2,left
3.5189999999999997,-0.15229159219369381,1.8059250316190876,-0.13573284855235335,-2.2532205951318436,4.210930240324431,-0.7958338614294242,-0.31243186628888053,0.8287493776071586,1.058479796707794,2,left
3.52,-0.13307885945205974,1.77352004979443,-0.16500946587818396,-1.9167093128856625,3.896042732283468,-0.797984002782754,-0.2785335227556845,0.8308550459027639,1.0901554333700303,2,left
3.523,-0.10995184323415462,1.7367217255421257,-0.18807060234835316,-2.360541586636912,4.311330139807836,-0.7951554518225254,-0.30423371969308444,0.8292614657773897,1.0661411419139681,2,left
3.5239999999999996,-0.10110322122506302,1.7264970582385613,-0.18208467667990497,-4.223565039661524,6.05438523886569,-0.7833416041845298,-0.28873995150756127,0.8302051666844525,1.0806500738572353,2,left
3.525,-0.06298699270488001,1.6757498564746778,-0.14873404661820167,-4.667378953304681,6.469624126949823,-0.7805234335817903,-0.29502560948600376,0.8298653267988891,1.0746760850182535,2,left
3.529,-0.00885311326910033,1.6026435296006551,-0.07567066129406463,-4.330874483063674,6.154785172537572,-0.7826582276329401,-0.29515470222863005,0.8297648698343132,1.0747481580104226,2,left
3.53,0.029915362340495317,1.5455863846642495,0.0010580706343507346,-4.533894127011626,6.344749131249712,-0.7813699940847482,-0.29179246419675353,0.830099934522708,1.0776221574756053,2,left
3.533,0.05920231052386118,1.4892147492595165,0.052834801493956564,-4.4511695255307995,6.267309926396318,-0.7818974759975739,-0.2958080454070064,0.8297273027856078,1.0741333387808971,2,left
3.534,0.07527367228997117,1.4447748974605408,0.07677857123565235,-4.450218127561134,6.266483057602001,-0.7818980395431867,-0.29269999707791544,0.8299718958674474,1.0769261469482996,2,left
3.537,0.08992269405213607,1.4143158251867303,0.06984199353471737,-4.4933018150458075,6.306727384760489,-0.7816310443404614,-0.29431627449715003,0.8299802699602705,1.0751850369467473,2,left
3.537,0.1118362645657574,1.3948267997240205,0.04561064182206354,-4.441527129779951,6.258314999561339,-0.7819565728546751,-0.29408716905223686,0.8296492363226854,1.0761355035291553,2,left
3.542,0.14121042735517567,1.3904302767082883,0.01719513857114171,-4.482110241088007,6.2963429426317905,-0.7816930203840573,-0.2933864528894877,0.830285927207024,1.075523732056014,2,left
3.543,0.1867315936493947,1.398170428663247,-0.01130569223611375,-4.459722572228609,6.275209557592685,-0.7818550507971842,-0.2944682346305354,0.8294915065759603,1.076066366605568,2,left
3.5469999999999997,0.24580073037218578,1.4126078998934264,-0.03752328042633279,-4.465742984317159,6.2811656906013065,-0.7817820117117722,-0.29349838377451964,0.8301311735680821,1.0757344789538124,2,left
3.5469999999999997,0.3144943513624644,1.4299182080375692,-0.061477207234940504,-4.470236325183519,6.284972398827055,-0.7817965455974474,-0.2939759326212243,0.8301071667285529,1.0752767027365275,2,left
3.553,0.39378997597536103,1.448628950921985,-0.081601178241063,-4.4612645947245255,6.2768951274373475,-0.7818189888457213,-0.29423737690683394,0.8290145341015269,1.0773313311508095,2,left
3.554,0.48164088205919775,1.4646235396829548,-0.09426942207075799,-4.4706470952699995,6.285676902803305,-0.7817592831646316,-0.2931610834994659,0.8315405932806589,1.073083843049147,2,left
3.5580000000000003,0.5730164688584707,1.4756001159030407,-0.10094239345902781,-4.462470065482995,6.277436758991274,-0.7818750156782204,-0.294881410439781,0.8277653439848569,1.0793130947587755,2,left
3.5589999999999997,0.6638417781734396,1.4793689922599764,-0.10146096132466481,-4.469547685658853,6.285405291741873,-0.7816838755364561,-0.2930261257305598,0.8317909402372587,1.0726924838939422,2,left
3.5610000000000004,0.7533663305364662,1.4791703628570316,-0.09871908006715983,-4.463077198515034,6.277343151772089,-0.781943339462212,-0.2941318857381976,0.8294631786488633,1.0764864713228555,2,left
3.563,0.835886000903888,1.4736775919988139,-0.09548838817917438,-4.468479571962199,6.284537620093631,-0.7816759607636563,-0.29491785032251383,0.827465957262276,1.0799127851248143,2,left
3.5660000000000003,0.9079894391846655,1.4583405759581163,-0.08650505608412777,-4.466359884656457,6.281319682801319,-0.7818245109254319,-0.2912042987363863,0.836221629494442,1.065172420619966,2,left
3.5669999999999997,0.9695730404058801,1.4378393612798537,-0.07164885544235394,-4.461417992038838,6.275626064624859,-0.7819710619856046,-0.2981406133247839,0.8199819243590802,1.0924628302635222,2,left
3.573,1.014525900709719,1.4130037954935903,-0.051948692429285986,-4.477301039196355,6.295157332924263,-0.7813634564934716,-0.289222823429819,0.8408343764193571,1.0574305065425484,2,left
3.575,1.046960489995326,1.388644845513804,-0.030878853135635403,-4.449201414626566,6.260209524934868,-0.7824827789127389,-0.2966725596326193,0.8234266236447634,1.0866737829193651,2,left
3.577,1.0666275574167199,1.3602173061374585,-0.009687112944013539,-4.484796601791464,6.304624739700415,-0.7810475118807774,-0.2964531436160247,0.823896045435755,1.0858965539017897,2,left
3.577,1.0731131497029125,1.326867149777696,0.010122460860642401,-4.455281362372234,6.26773987792343,-0.7822460212523079,-0.2823058477626609,0.8570924995971811,1.0300871610190874,2,left
3.5810000000000004,1.0694810958540684,1.2911912877923146,0.024778121588592897,-4.4557740516402,6.268436354137681,-0.7822119880509344,-0.31709954164657034,0.7755038634017026,1.1672443396890138,2,left
3.582,1.0486088721505404,1.2450476726790445,0.03937589303605457,-4.512871911756209,6.339570350145475,-0.7799298368484284,-0.2594040570959518,0.910778207153013,0.9398340422386285,2,left
3.5860000000000003,1.0325275017750477,1.2182431775070566,0.047214687515170245,-4.372966982522319,6.165170374190907,-0.7855436930429388,-0.33550505120512797,0.7323547974063205,1.2397884113097302,2,left
3.5869999999999997,1.0202492298972774,1.2030981071567086,0.05152554956031098,-4.604783345096099,6.454164950712672,-0.7762306593024229,-0.6548956820533397,-0.016654633508081745,2.498811095586288,2,left
3.5869999999999997,0.9987660890914565,1.1764353562529075,0.059656642524046025,-4.299057351780921,6.073048012056564,-0.7885210049763807,-0.7309937915128372,-0.19508082444052222,2.798765427698035,2,left
3.592,0.9868207366925924,1.161569805522114,0.06363753809179006,-3.0156595689512606,4.473046832766108,-0.8400740423689796,-0.6733037877944068,-0.05979341559053724,2.5713624001607993,2,left
3.592,0.958411276225908,1.1285733966304137,0.07872857938997693,-2.709880630355314,4.091955930523881,-0.8523821724594134,-0.7080903101128937,-0.14141652609724065,2.7084939854518657,2,left
3.593,0.9114579874392726,1.0762408697376487,0.10579570765888172,-2.9417479803930684,4.380880074874632,-0.8430415376105218,-0.6939498936315417,-0.10815662175625365,2.6527372545148804,2,left
3.597,0.8751818643590561,1.0373052473913555,0.13187361384020896,-2.8018871381267885,4.206619079854715,-0.8486776852633353,-0.6937271877941116,-0.10777466438400451,2.6518819866305767,2,left
3.5980000000000003,0.8413670991062618,0.9956266307406688,0.16366138901629498,-2.858749009063621,4.27753790729013,-0.8463983172381302,-0.7011724242937272,-0.12509628619059365,2.681208917416389,2,left
3.602,0.8138891986746004,0.9537659251574363,0.19642674012221642,-2.859718747005367,4.278491175257734,-0.8463175147211488,-0.6922706275854785,-0.10428054421957955,2.646128562561176,2,left
3.602,0.7939872203023532,0.914575634852336,0.22805493854568995,-2.829544100686558,4.24140318955388,-0.847615732611706,-0.699178663313704,-0.12059550904034605,2.6733741995734563,2,left
3.6060000000000003,0.7770230662206601,0.8741407281197121,0.2590178861857835,-2.8657652201468093,4.285814492070528,-0.8460403905002614,-0.6955006383530002,-0.111598398953454,2.6588260008685185,2,left
3.6069999999999998,0.765933306127909,0.8397602549594344,0.28296454070639254,-2.837452508677179,4.251251246482692,-0.8472958955799902,-0.6962569080933744,-0.11401222540123526,2.6618929371066953,2,left
3.611,0.7557532862659151,0.8075133862356186,0.3032331438067057,-2.852666770106749,4.269903633859142,-0.8466340361207314,-0.6973657211930544,-0.1158271825461379,2.6661587425883813,2,left
3.611,0.7473431314976022,0.7762874952748393,0.320895897879739,-2.8496532651696462,4.265523365788281,-0.8466551064118153,-0.6955577882152904,-0.11221317683245752,2.659115646455283,2,left
3.617,0.7389912496965791,0.7479221425021769,0.3337248279870217,-2.844339285927732,4.260904112745621,-0.8471902889587348,-0.6971640155228819,-0.11598563403914958,2.6654478104170654,2,left
3.6180000000000003,0.7260240151575359,0.7216564601476885,0.3421275227681154,-2.8535252499605495,4.268903284154861,-0.8462674799443479,-0.6962624907618188,-0.1127104669044193,2.661739803415913,2,left
3.6210000000000004,0.7118157511150509,0.6980873357854462,0.3477335507057799,-2.8442428742442436,4.2615667109374495,-0.8473196974114447,-0.6963323468925202,-0.1155269973286168,2.662367758053644,2,left
3.622,0.6963939126780112,0.6766255807793164,0.3546906112355259,-2.850823519940529,4.26639428416108,-0.8465137367176675,-0.6969290298670159,-0.11296945269686168,2.6641939602746367,2,left
3.6260000000000003,0.678054442089358,0.6550392360519768,0.3616106638176702,-2.8489491651697003,4.264028767873729,-0.8465846994401671,-0.6960365655662757,-0.115093905151535,2.661236359336569,2,left
3.627,0.6613062252427138,0.6348738190313057,0.36426077014863395,-2.844780070039589,4.265092405594413,-0.8477558018753404,-0.696724042626637,-0.11427043620415067,2.6636227602671223,2,left
3.63,0.6452731612530355,0.6170744600923469,0.36557859068196624,-2.855349861229568,4.263959076606007,-0.8450368385944469,-0.6967824733741546,-0.11230440391363973,2.663573510935051,2,left
3.6310000000000002,0.6272694539747157,0.5991989183333584,0.3693964620971209,-2.8398233655652803,4.265952685531822,-0.8490839603125238,-0.6955414038753847,-0.11859060425008547,2.6599034458938116,2,left
3.634,0.6088684280443899,0.5819948654402037,0.37479052431078297,-2.85605412025698,4.2634255402220145,-0.8447817317950598,-0.6980755429164973,-0.10748130894980108,2.667627016822913,2,left
3.637,0.5875534880771781,0.5672793134077811,0.37828120115340114,-2.846672086583399,4.264884388061892,-0.8472691309356283,-0.6947381218236772,-0.12154724607046793,2.6573798884991353,2,left
3.637,0.5657948635079887,0.5551229017041155,0.38117759424641434,-2.839298153798275,4.267020323590156,-0.849380171990662,-0.6975590371873202,-0.10989046563619313,2.6660723979358494,2,left
3.642,0.5450552006883371,0.541772093547368,0.38741549939847353,-2.872494933392362,4.258802012960356,-0.8400946858102294,-0.697429942234789,-0.11007073386649463,2.665626777561511,2,left
3.6439999999999997,0.5230636218600595,0.5297610365664757,0.391492186035049,-2.8108840876481676,4.27399399455832,-0.8573205060503224,-0.6921917409620675,-0.13265611273869024,2.649612552128187,2,left
3.648,0.5042261021225591,0.52031569498978,0.39443787267838737,-2.889937599903792,4.25440490944089,-0.8352001438808965,-0.7051419154947596,-0.07734300081124902,2.6892751765891934,2,left
3.648,0.4896487474964236,0.5056339932740631,0.40321884494827964,-2.8239648208147123,4.2708045029423705,-0.8536720550872721,-0.68364263391803,-0.16897560905869258,2.623401936209695,2,left
3.6519999999999997,0.48241081050441176,0.49458107604167506,0.40937142330126786,-2.825829797034316,4.270425870628888,-0.8531555650312788,-0.7120089716609406,-0.04814490919695687,2.710325874798124,2,left
3.653,0.4800864825016658,0.49126328696224203,0.41072865733703423,-2.951296471463168,4.238824286246045,-0.8179785858286339,-0.8310907528714749,0.45934468685765123,3.0751732251656483,2,left
3.654,0.4736230131344167,0.47845624601957554,0.41632330567788517,-2.642849058866225,4.316483294593572,-0.9044689145514226,-0.8594609995217253,0.5801785570972764,3.162109945991354,2,left
3.657,0.46792256476349425,0.4570925569197829,0.4227661793183706,-3.1542703484071746,4.187671206654999,-0.7610434738166056,-0.8379440015277297,0.48853156416982335,3.0961787616739382,2,left
3.657,0.46516517812905733,0.4460527234937364,0.42449775810029805,-2.479719354758398,4.357639593027914,-0.9502410750963599,-0.8509403397140558,0.5438821727723097,3.135992380674388,2,left
3.662,0.4643183954592326,0.4409523829154654,0.42577945024665576,0.35142274904734083,5.070828663393835,-1.7441482578377774,-0.8456176801176227,0.5212281794222478,3.119701895614206,2,left
3.6630000000000003,0.4661922826362057,0.4249003763403063,0.42530817472671884,1.0259597287892408,5.240902904469554,-1.9333800015907627,-0.8456045127498671,0.5211421040680634,3.119635478210472,2,left
3.6639999999999997,0.4660891799897804,0.4052990547012459,0.417061953364397,0.5145674720121992,5.111958982224773,-1.7899181778093851,-0.8483118877644211,0.5327066155141023,3.127956582468226,2,left
3.668,0.4666004040797838,0.3889773662095303,0.4073489670853502,0.8229715211829172,5.189635731811068,-1.8763924846604576,-0.8450217316814936,0.5186791173284111,3.117864084106152,2,left
3.6689999999999996,0.46779805893264514,0.37106398135145513,0.39883005937498167,0.6975558385881928,5.158287671949738,-1.8413421049984375,-0.8476576599920641,0.5298710660410879,3.1259205751519974,2,left
3.6719999999999997,0.4653715433030684,0.35253559997923434,0.38796478484010477,0.6956488132238143,5.15727912255517,-1.8405559368346038,-0.8460944645196617,0.5233231874938395,3.1211968627420767,2,left
3.6719999999999997,0.4612967303453493,0.3334102362599688,0.381145248996517,0.7616277061140957,5.174649484836957,-1.8594123365637274,-0.8467061976490617,0.5257387575670663,3.1229574640219466,2,left
3.677,0.45442824198083626,0.3148802772327971,0.37860322437202,0.6826357805414087,5.154009278903015,-1.836911821197325,-0.8467152906437555,0.526010996321947,3.12312482524652,2,left
3.678,0.4470049631139862,0.29732497232146127,0.3772218200170705,0.7440943761870862,5.169811606185284,-1.854296624604153,-0.8463633270397108,0.5243258367883925,3.121935308798035,2,left
3.681,0.4412384082231201,0.27774534875659485,0.3787209616744859,0.7111343138722108,5.162134568674293,-1.8453492079364326,-0.8469654553379291,0.5268875729614555,3.1237791614437307,2,left
3.682,0.43294851618845,0.2578291609428688,0.3802642545877374,0.7182439027344598,5.161905327303166,-1.8463912365254291,-0.8460306851564627,0.5232550677508576,3.1211211573405206,2,left
3.6860000000000004,0.425882299135778,0.24073090183825382,0.3816985739168307,0.7277986337415405,5.167792294118714,-1.8507092346185128,-0.847424207689634,0.5283947361394463,3.1249201468314434,2,left
3.687,0.42174108588600456,0.22520059559619193,0.383022110784389,0.7116561591879641,5.159456151133449,-1.844172457075853,-0.8456070200817346,0.5218407490679423,3.120054238620946,2,left
3.6910000000000003,0.42252902797853414,0.20925056056482214,0.3804534190283555,0.7266639080484557,5.166640394154619,-1.8499830656370455,-0.8474481888398699,0.528420072698828,3.124947730811071,2,left
3.6910000000000003,0.43410181810268555,0.19323449539481485,0.3730773824368264,0.7171214032639912,5.164265821248494,-1.8473212530040488,-0.8464490799167947,0.5248914716317262,3.122317811580282,2,left
3.696,0.4456396322504939,0.17793298943561914,0.3616979362013152,0.7198863200298142,5.158650085178628,-1.8451247521649559,-0.8453865780207088,0.5210013085545475,3.1194364851990146,2,left
3.697,0.45364817115850653,0.164051577356696,0.35069944602789327,0.7230971965404933,5.173885446822244,-1.852816620527993,-0.8496648573142794,0.5364614338219846,3.130912512536904,2,left
3.702,0.46689345835131923,0.1520132490193997,0.33874096796673925,0.7160246414048193,5.150581385166231,-1.8407018161816544,-0.8418192488482135,0.5081599218766829,3.109899188477422,2,left
3.7030000000000003,0.48004469178110404,0.14196591985191015,0.3196123734525662,0.723989575193162,5.1755318387839395,-1.8537355743725759,-0.8518605078353272,0.5443678318516428,3.1367826506082515,2,left
3.707,0.49048292263656673,0.13352150818446007,0.3016574097905257,0.718715295072649,5.16094496845278,-1.8460164182265177,-0.8434930790119275,0.5141947779175993,3.1143834670804926,2,left
3.708,0.5013845914330759,0.12531086368436345,0.28574511498845095,0.7174966782758576,5.149212926332719,-1.84029491514812,-0.8436938797216094,0.5149275692562458,3.1149181671262243,2,left
3.71,0.509706475640139,0.11805674882416381,0.26623862272597104,0.7282785653541649,5.2019384016026,-1.8668614311630864,-0.85971579329629,0.5726854023963321,3.157816894371886,2,left
3.7110000000000003,0.5152793620405075,0.11404227747601403,0.24863210035217675,0.7072986437406843,5.103907238577169,-1.8173180344370554,-0.8203760716522395,0.4308433202246126,3.0524858015418994,2,left
3.716,0.5225207308885216,0.10943803519141099,0.22990553273942071,0.7344607708635869,5.2298432890376585,-1.8809960712848346,-0.8855838926839428,0.6659811408024849,3.2270815493156695,2,left
3.717,0.5278277225196408,0.10446571377011317,0.21902652670223932,0.7116915986155801,5.124677661955134,-1.8278092519458848,-0.7995872947186478,0.3558481115492648,2.996816995966673,2,left
3.72,0.5286733926068878,0.10434086736498513,0.21716099151492593,0.7126585656153264,5.127622937445084,-1.829345359451255,-0.438508439862605,-0.9459458011053853,2.030075647276576,2,left
3.722,0.5341169767403966,0.10280237688953262,0.20787889991485023,0.7549318880453741,5.327839904410165,-1.9304456834479762,-0.35252607357676624,-1.256083997875697,1.7998363489824043,2,left
3.722,0.540908704844923,0.09941725380480634,0.19492294384301143,0.6506085486431126,4.835603343716681,-1.6818392706152026,-0.4177161362762102,-1.0209506423212054,1.974397538621142,2,left
3.725,0.543545631805355,0.09946678526606703,0.17311713810004886,0.8236993922035276,5.651801461085714,-2.0940700997255197,-0.3783789196467562,-1.1627549796920884,1.8690816758739235,2,left
3.725,0.5471714930672249,0.09852960852545356,0.15426014888796977,0.5953692974812781,4.5752140299169755,-1.550336306397361,-0.3944346714186183,-1.1050891229241468,1.9120182173869642,2,left
3.73,0.548752409361088,0.09736457543842346,0.14869502936834225,-0.36247083595279295,0.056500585197517994,0.7318388914392816,-0.3945511493133005,-1.1042074890109417,1.9124362664129195,2,left
3.7319999999999998,0.5481298417845588,0.09959854539494431,0.1311878164620734,-0.5908006865395112,-1.0201408094808273,1.2755648611226973,-0.38631384185414896,-1.1345546780945681,1.8902325893956118,2,left
3.7319999999999998,0.5490394577878053,0.10503509408017095,0.11369682399402195,-0.4176891531393476,-0.20385302722651116,0.8633403529339825,-0.39621401104944337,-1.098222423782437,1.91688607774414,2,left
3.735,0.5487992149585141,0.11126742388316255,0.10654189909107695,-0.5220868124077851,-0.6961781763036679,1.111957578351391,-0.38845066508711357,-1.1264864894288675,1.8960375153953828,2,left
3.735,0.5478786708413802,0.11568553351907922,0.09705701654145481,-0.47965960384808964,-0.49592646592275935,1.01081352218462,-0.3928008240612332,-1.111343052661372,1.9075600221041173,2,left
3.74,0.5502061202563442,0.12268443689496861,0.09021828734648865,-0.4789215207270845,-0.49290335012795006,1.0093610518969334,-0.39142200498828794,-1.1145742044107696,1.9042691925949058,2,left
3.74,0.5558666363581741,0.13255808921430656,0.08294471235695829,-0.5014443623845176,-0.5983027578662443,1.0624363255615399,-0.3910160511412577,-1.1190332877786058,1.9024923472876383,2,left
3.745,0.5635916697628456,0.14186727389830717,0.07486274406176333,-0.4744252946787776,-0.47198129627631713,0.9988589055400342,-0.3920781554489867,-1.1115297763400713,1.9061822671459767,2,left
3.7460000000000004,0.5736136502529574,0.15332483915063222,0.06907187114442828,-0.49553334506809366,-0.570462172284335,1.048378311756586,-0.39095844762802495,-1.1184952254957619,1.9025099417439733,2,left
3.7510000000000003,0.5828382414045277,0.16390727340802144,0.0626629989099545,-0.48419111643652085,-0.5174145670094733,1.0216806357401862,-0.3921823466175246,-1.1141083006798524,1.9057807205519124,2,left
3.752,0.5905298354280288,0.170495427317227,0.05977815596086011,-0.4864621487084979,-0.5290608081914414,1.0277476444315923,-0.3903566881512,-1.1152585391954348,1.9021440870367237,2,left
3.755,0.5995881886656533,0.17678096065414137,0.061794017467453194,-0.49035025902986956,-0.5444332143752812,1.0349151846084728,-0.3933135990914925,-1.1170114906180715,1.9072013952308209,2,left
3.7560000000000002,0.6074248621243978,0.1829828112891233,0.06581411030091375,-0.4836329635808649,-0.5178416742854868,1.0225119966519047,-0.3891934871804651,-1.1133469651736796,1.900435895668712,2,left
3.76,0.6151055894052478,0.18776912804063806,0.07071188730076758,-0.4903881761901756,-0.5434652043208122,1.0341933770119929,-0.39353142497068655,-1.117448898664489,1.9075032144829136,2,left
3.761,0.6254261065791136,0.1885220100024616,0.07650662321884567,-0.48561559139420013,-0.5259234413778828,1.026338159603109,-0.39111048602559684,-1.1147700984769995,1.9036483270100852,2,left
3.765,0.6334132800447083,0.18768770707488525,0.08295662750714787,-0.48701509913785546,-0.5325723367025306,1.02970478659503,-0.38859986137241864,-1.1139899186575697,1.899191972500991,2,left
3.766,0.6412137297888275,0.1898267429607815,0.08887006977610602,-0.4898692384261658,-0.5368084795413716,1.0299818746875915,-0.3988940860189757,-1.1199072203651008,1.916840788494018,2,left
3.77,0.6494473934263953,0.19176086427773836,0.09354321884747333,-0.4825704637941129,-0.5234599776655282,1.0274967517485318,-0.37992837927096074,-1.1084816947009597,1.8844446637560517,2,left
3.77,0.65149754972858,0.19447740023794807,0.09727121641781249,-0.493277395122394,-0.5425209031630174,1.0307731465289371,-0.40425340791205694,-1.123254142337657,1.9259692217864428,2,left
3.775,0.6522965984299158,0.1974502911597794,0.09951923106775927,-0.482103934717533,-0.5233325460246017,1.0278520517903322,-0.3839566692126567,-1.1108800701385095,1.8913305678645433,2,left
3.7760000000000002,0.64975360281021,0.20077976705766926,0.10256098879436554,-0.4885617764437872,-0.5344313728968393,1.0295450979954965,-0.3844632552543434,-1.111373011967017,1.8921566493620117,2,left
3.78,0.6393991711884977,0.2075581625814914,0.10828790801175833,-0.4935991042192118,-0.5414920514686306,1.0297407918908614,-0.42330618246727425,-1.1344500125182355,1.9585762261911155,2,left
3.78,0.6289192618827604,0.2115785164867015,0.11197188496968982,-0.47086974824804323,-0.5073467966461874,1.0272505721178835,-0.327884621342743,-1.0775428459746355,1.795451460045927,2,left
3.786,0.613897491471806,0.2142158147991081,0.1140925667639289,-0.5130538742589328,-0.5708301550035284,1.0319478391908774,-0.4860861750050942,-1.171946341541671,2.0658934616278675,2,left
3.787,0.6012175971703101,0.21796098711029807,0.11588757711452512,-0.45893334716288126,-0.4895231675398106,1.0260238051856003,-0.27741844359839596,-1.0474236420082268,1.7091742128434428,2,left
3.7889999999999997,0.5984009407694783,0.21892398032943433,0.11754766466187937,-0.5040930888394797,-0.5573065510719969,1.0309179651403322,0.5985154213470167,-0.5249712566627742,0.21173792501742617,2,left
3.79,0.584521332717668,0.2191418295687855,0.12679452564708388,-0.5028211161151799,-0.5552102796130469,1.0306609606139003,0.8071933603838268,-0.4004644915458695,-0.14502322326618283,2,left
3.79,0.5662289798935298,0.21837896098993148,0.1391252754867191,-0.4169338772761182,-0.4270810978077737,1.0218758787515974,0.6489785379434426,-0.49485276890428265,0.12547707773825573,2,left
3.7960000000000003,0.553224365028729,0.21734440598914218,0.1480715442983363,-0.6280643567430548,-0.742202269945367,1.0435525298137214,0.7444037789446714,-0.43793188423976825,-0.037676376070232415,2,left
3.798,0.5320733191601159,0.21606541609974128,0.1624763472227964,-0.27801276038187567,-0.219739621430189,1.0076328998049942,0.7055812398153143,-0.46108083492719754,0.028687515445816422,2,left
3.798,0.5193651401008015,0.21443243612831764,0.17471406868956468,-0.739708977622731,-0.9087977568979589,1.0549692661543364,0.7050199328969653,-0.4614288300725377,0.0296966683080528,2,left
3.799,0.5176440318155662,0.21397810140434928,0.17700213095290213,-2.6776966044109782,-3.800430569852548,1.253544456460122,0.7254038198254391,-0.44925468521951406,-0.005255119058807786,2,left
3.8,0.5063728585033742,0.20804117516753243,0.18473816316597325,-3.139376965135142,-4.489385403475593,1.300836969647703,0.7009811550267732,-0.46383791130521035,0.036644519889518744,2,left
3.804,0.4926949751163591,0.19953855264210124,0.19538209067119167,-2.789333267811851,-3.9670893967645213,1.2649637602925083,0.7200091478955709,-0.4524757124496511,0.003969066645078394,2,left
3.805,0.4815203248848527,0.19443699052890467,0.20051430236577084,-3.0005030595919786,-4.282058705144206,1.2866620895078897,0.7097523137006349,-0.4585977137669318,0.021566529479771855,2,left
3.8089999999999997,0.46789784059824446,0.1858336595538987,0.20813889388071055,-2.914491318867828,-4.15395950079391,1.277712133910003,0.7120625865710913,-0.4572307568171491,0.017741325174959702,2,left
3.81,0.45481629326373374,0.17669895271241715,0.21795564543224677,-2.91344207105925,-4.152066434370332,1.2778048740134946,0.7148740961433039,-0.45552177964204504,0.01253458643551569,2,left
3.8139999999999996,0.4458927750928844,0.17062048562617946,0.22546813259747794,-2.9583186218530875,-4.219344128913782,1.282201572494437,0.7100086761409903,-0.45847725856191024,0.02154162670472462,2,left
3.8139999999999996,0.44149860076888714,0.16169124847021588,0.22833604333712676,-2.904434940165677,-4.138808438547704,1.2767679150250524,0.7146212376398065,-0.45566138675262957,0.012810536981707015,2,left
3.818,0.43740934040023005,0.15333483092091812,0.22739125027214196,-2.946600714709229,-4.201461795090729,1.2812628492637042,0.7115032028877717,-0.4575723158012207,0.01881499951059749,2,left
3.819,0.4318675758118069,0.14755453491094814,0.22686592205368317,-2.923474793446228,-4.167799936972672,1.278330235430152,0.7127946318044973,-0.4568026789693558,0.01661336781438001,2,left
3.825,0.4288907789060691,0.14270072028001102,0.22080383354338506,-2.929457189247787,-4.175274396061646,1.2799142855816332,0.7130919621867498,-0.4565303667857106,0.01485420735534098,2,left
3.826,0.4277866967565511,0.14260381640054054,0.20739092327555614,-2.934475378783202,-4.184541508959098,1.2792360780976282,0.7117013362978302,-0.4575764134062356,0.020089831883176413,2,left
3.8280000000000003,0.41955023120090196,0.14466039352476076,0.19751858322475413,-2.924868198271918,-4.168788939442577,1.2792026737567428,0.7136107269858778,-0.45611465596027767,0.012561846294985439,2,left
3.8289999999999997,0.4052401660972442,0.14727049971811873,0.18973605580483638,-2.934626198825022,-4.183336666095074,1.2802107528834572,0.7117944521513815,-0.45754207718939105,0.020211824596926553,2,left
3.833,0.39407125299546175,0.15431844732563588,0.17968273715969368,-2.9266284378800496,-4.174031019277723,1.2776266547993873,0.7128462133874749,-0.45671596263016523,0.015788245533596236,2,left
3.8339999999999996,0.38443257574696454,0.162187295030294,0.1731425650403587,-2.9328285131178484,-4.177276986973853,1.2822952799011116,0.713266885012305,-0.45629370079241627,0.012804124234462352,2,left
3.838,0.37400223807505045,0.1689861412586866,0.1710212770636404,-2.9278322293789163,-4.178780338282303,1.2757657633242538,0.7107967972766804,-0.4585168779645324,0.02693585471595788,2,left
3.838,0.3658776116281859,0.17797427875612434,0.17345837443652903,-2.9316022263510835,-4.174855997584316,1.2825674417201665,0.7154087937637712,-0.45437537783375137,0.0006765814607919644,2,left
3.843,0.3604724737158421,0.18764050372372953,0.1789975065411856,-2.9304671831132616,-4.178680192362562,1.2787436175194697,0.7095271927459204,-0.45966917243552013,0.03432418496306317,2,left
3.844,0.357311547524815,0.19594602796192287,0.18234118277817274,-2.9262451441842767,-4.1771363950367455,1.2751171248020827,0.7144189139212915,-0.4552606371948875,0.006267315444342662,2,left
3.8480000000000003,0.36139647703602384,0.20219357165033294,0.18207726666505925,-2.9387390381648713,-4.174963503591444,1.290379728469424,0.7142357691937951,-0.45541040937120575,0.007108513095396712,2,left
3.8480000000000003,0.369865083587673,0.20701754139980516,0.18091386836892445,-2.916982289913081,-4.181102211316932,1.2622180102463818,0.7051254110331369,-0.46368661153237284,0.060247912637785325,2,left
3.852,0.3822040936173694,0.21102966586794575,0.17879163146005353,-2.944410325193066,-4.172460497927951,1.29832877823472,0.7275555138647072,-0.44332171500530254,-0.07041709196843302,2,left
3.853,0.41058412081836115,0.2119779809580551,0.1706411628685582,-2.921725864810598,-4.179994619029805,1.2682008854807547,0.6903696444318044,-0.4770853777459432,0.14621655356163418,2,left
3.8569999999999998,0.43547890206379897,0.21162749123170438,0.1612176746377837,-2.922011530354623,-4.179299445304004,1.2689890367849876,0.739404762215807,-0.4325586601863689,-0.13949250737827032,2,left
3.858,0.44321264213025346,0.21128808353361056,0.15790514894787075,-2.966140499653486,-4.166241232484779,1.326511272834678,0.9451004635073853,-0.24573837929979545,-1.3386203311378606,2,left
3.858,0.46931665271839207,0.20735571871731834,0.1463255477350469,-2.8581496513223463,-4.1990448323290614,1.1851642654277748,0.9941166703529417,-0.201222439765813,-1.6242845184244041,2,left
3.863,0.518435692110279,0.20104605895232747,0.11499259594282267,-3.0370277663151324,-4.144390844476074,1.4195158007958006,0.9569607327728851,-0.23496878802682214,-1.4077156163116666,2,left
3.864,0.5467644420720956,0.19810448023328153,0.09327015629137228,-2.8011486288663274,-4.216571078097722,1.1104036575301286,0.9793650692534993,-0.2146194807286993,-1.538341729996405,2,left
3.8680000000000003,0.5547274670518142,0.19779105875504338,0.08703435413710797,-1.8108534776526868,-4.519230809181198,-0.18699821719559648,0.9702560044391588,-0.22289308197147562,-1.4851595292660558,2,left
3.8689999999999998,0.5793321265332876,0.1946885802511159,0.06191381153319929,-1.574976182494991,-4.591417826464017,-0.4961269568596291,0.9701162822345266,-0.22302087112684654,-1.4844894195678144,2,left
3.8689999999999998,0.6106692000568221,0.19191316954861537,0.030173272921212857,-1.7538139057345163,-4.536699202893238,-0.26176139176281554,0.9749087505942322,-0.21866593604954063,-1.5122377366562518,2,left
3.8739999999999997,0.6356057880313768,0.19304679048401818,0.009381771146524241,-1.645958307866739,-4.569702956101885,-0.40308766213332203,0.9691721958125301,-0.2238787733721962,-1.4789763927305541,2,left
3.875,0.6625280918554821,0.19601357441963985,-0.01098546167612237,-1.6898134940877303,-4.556250698612387,-0.3456536606380995,0.9736357903174752,-0.21982342775013158,-1.5049222831225313,2,left
3.877,0.6838762864377915,0.202291813800699,-0.02977661422756466,-1.6905009178912271,-4.556123851834386,-0.34469481631882154,0.9712389023426251,-0.22199808844243255,-1.4907969585460594,2,left
3.878,0.7018212131606905,0.21047118716761742,-0.04767282266927306,-1.6673903884865744,-4.563066885925684,-0.3750521127163279,0.9717639605773374,-0.22152906156386395,-1.494342045090581,2,left
3.8810000000000002,0.7200926114031732,0.21766396836851193,-0.061161645738902946,-1.6950553723906552,-4.554734252077088,-0.33873206201627737,0.9724427666991985,-0.2208987790653162,-1.4974689334173714,2,left
3.8810000000000002,0.733872823029408,0.22752235075843535,-0.06689970029177583,-1.6735442441830175,-4.561258654524188,-0.3669485109806103,0.971289205852847,-0.22196350128013276,-1.4917608093250236,2,left
3.886,0.7424577815074377,0.24175776978416263,-0.06894382177594234,-1.6850331186273935,-4.557624323783596,-0.3519475844907576,0.9723640867364947,-0.2209736483654647,-1.4972172195345508,2,left
3.887,0.7431826841942477,0.2567124326118426,-0.067849827184689,-1.6826695551723583,-4.558730599848275,-0.3548721518296757,0.971670653382176,-0.22160331838149772,-1.493167815550161,2,left
3.891,0.738803808682809,0.2723479909958081,-0.06573024659706869,-1.6791151540177336,-4.559156769099774,-0.35982536850747593,0.9719004427655683,-0.22141994251564512,-1.496008158561445,2,left
3.892,0.7328979284380541,0.2901668877716257,-0.05974286247905148,-1.6850228447889863,-4.558161989683857,-0.3517226656843617,0.9720676112880194,-0.22121024113611992,-1.493552924611845,2,left
3.8960000000000004,0.721701153416645,0.30776156861076054,-0.04919142544403776,-1.6795646135771882,-4.559183485228891,-0.35916238476916207,0.971652392801896,-0.22167367124361126,-1.4962491867558907,2,left
3.898,0.7031083967513453,0.32562642244028395,-0.03838855296087139,-1.6829002341642374,-4.558157114000982,-0.35479436211418086,0.9721260103766849,-0.22115155664939065,-1.4935548896019166,2,left
3.9019999999999997,0.6809571837734048,0.34381600275272023,-0.025627221493354013,-1.6823225606343652,-4.559538378907837,-0.3550182651852186,0.9718033203527111,-0.22149765215330425,-1.4948273182861564,2,left
3.903,0.6567185971965914,0.36057489949349936,-0.011628541032186315,-1.6803091451005516,-4.55740116011285,-0.358873714776218,0.9717676152232991,-0.2215761634963419,-1.4973326202630894,2,left
3.906,0.6297641356876933,0.3764156767540274,0.0018209747101449153,-1.68411181941752,-4.5603456391948605,-0.3520760122824571,0.972321145171293,-0.22087254519286523,-1.4886737037357192,2,left
3.907,0.602467441314243,0.38911907444071625,0.016970805839221104,-1.679908490338481,-4.557251968624087,-0.3595175232328931,0.971222472338844,-0.2222426010559611,-1.5043155504462629,2,left
3.912,0.5750400025754558,0.39740246734688456,0.03424953623151878,-1.6825734149319893,-4.558967894747262,-0.3549097467397456,0.9726500448449292,-0.22046845171146454,-1.4843241772458544,2,left
3.9130000000000003,0.5487450521446711,0.4027374349746776,0.053809907900485926,-1.683703272722728,-4.560802343536744,-0.35246294945587403,0.9714504997576695,-0.22195609152496848,-1.5009758953623162,2,left
3.9189999999999996,0.5242442928715103,0.4033471382907915,0.0771653470065024,-1.6768454522676366,-4.553355093407648,-0.3656685226343109,0.9715108454297233,-0.22189178594973835,-1.5006708587002444,2,left
3.92,0.5036477354112765,0.3992642367213294,0.10120020635526923,-1.689910934159848,-4.567061538591647,-0.34072721705537234,0.9737091666569856,-0.21913282775135987,-1.4684420302009562,2,left
3.9210000000000003,0.48817416450125395,0.39458837702348426,0.12024103074048619,-1.6730531016295012,-4.54948482259768,-0.3728553714964647,0.9682708554488753,-0.2259434209405668,-1.5474844394803664,2,left
3.9210000000000003,0.47096418161777054,0.388054263443721,0.13723785790625181,-1.6871639904862539,-4.56414997740994,-0.3459903457150014,0.9772992600274819,-0.21464242070076436,-1.4164733511023915,2,left
3.926,0.4590072837680897,0.38265229666814893,0.1498345281621791,-1.6866486116355932,-4.5637878866798,-0.34687892563047695,0.9653873244305851,-0.22955031991116792,-1.5892722937899362,2,left
3.926,0.456037515283796,0.38180509297733056,0.15271841793302623,-1.6601676537337835,-4.53570845880165,-0.3975794845219113,0.9155114551683085,-0.29205069083336876,-2.31482187518398,2,left
3.927,0.44333638409459764,0.37763219965298395,0.15885458640038363,-1.7254234355466795,-4.60468473908984,-0.27276968518993405,0.9036059723547629,-0.3069541083470195,-2.487640174257419,2,left
3.93,0.42058850662475256,0.3751182702159962,0.16993162869217632,-1.6171689680585386,-4.4903272598302735,-0.47976460802361254,0.9126161010923189,-0.2956634640530319,-2.3566053579768367,2,left
3.931,0.40926028424550376,0.3782623808443091,0.17316799024454987,-1.7599801145429763,-4.6411661301223734,-0.2067286051045235,0.9072151394975401,-0.3024563953391221,-2.4356496687538125,2,left
3.935,0.40505247634851915,0.3795671603944517,0.17464758735982,-2.3590134295075758,-5.274330931474333,0.9390309304998393,0.9093541450018808,-0.299721566585902,-2.403469967138407,2,left
3.9360000000000004,0.3889015016193833,0.38347001010307,0.18163818589093012,-2.5018453155014795,-5.425179243171616,1.2120594623053527,0.9094870183974095,-0.29963220861620654,-2.4030456389820416,2,left
3.9360000000000004,0.36915141865736345,0.390206013434091,0.1891819295764224,-2.393568408569938,-5.310811540210424,1.005072626812634,0.9082275949324539,-0.30113425996161536,-2.4198792762304144,2,left
3.9410000000000003,0.3507618943983168,0.3978143753697735,0.1978563522636274,-2.458815658514853,-5.379783966304089,1.1298854859908722,0.9096596943188332,-0.29937262583935687,-2.3996931602582503,2,left
3.9419999999999997,0.33001997370126146,0.40932948362082033,0.20758766572705906,-2.4324091274016255,-5.351738358797718,1.0791581440221356,0.908661385727445,-0.30068739236182584,-2.4154442696129115,2,left
3.945,0.31285347346571474,0.420348613993044,0.21566877498172848,-2.431733606824432,-5.351303456770995,1.078327211177368,0.908975264772866,-0.30008798367225364,-2.406894434194375,2,left
3.946,0.29346220680960255,0.43153046727597083,0.2243509376394078,-2.446074108898485,-5.3660730422315455,1.1051095668249113,0.9093059381414497,-0.3000285761682395,-2.4089483214861316,2,left
3.951,0.2725333312105279,0.44525795926310874,0.2313142415397551,-2.4289876264326518,-5.34839229260815,1.073063754486383,0.9085822328718411,-0.300500033584111,-2.411055348110447,2,left
3.952,0.25855516311385907,0.4573826481454587,0.238261282573804,-2.4421517722703645,-5.362143705292773,1.097969494012512,0.9093034339583231,-0.2999433154500587,-2.407276473632121,2,left
3.955,0.24731540854041156,0.47002967102857707,0.24907367617643855,-2.435490282997492,-5.3547856082212775,1.0846932978767136,0.9090562408570899,-0.30025616153131895,-2.4109275341048377,2,left
3.955,0.23507919134847066,0.4831198467044595,0.258578444213299,-2.4359876814701873,-5.356332557724684,1.0873677375852169,0.9083835823692933,-0.30045534175664224,-2.4082733141856387,2,left
3.9589999999999996,0.22305352602866146,0.49098808152829576,0.2675413772883763,-2.4397423724246474,-5.358544034549726,1.0915831936664997,0.9102319176841934,-0.29961018231730957,-2.4098178849111744,2,left
3.96,0.2137836684610374,0.49808489927493826,0.277922699216672,-2.434201613553816,-5.3548420106492465,1.0846232462780774,0.907364936838964,-0.3010084898273495,-2.409105951612821,2,left
3.965,0.2089174434976231,0.5046381867331038,0.28508359363733426,-2.4390705712000162,-5.358271779755947,1.0910368916548228,0.9104613888026692,-0.2994673088494485,-2.4092822606266084,2,left
3.966,0.20553261611252313,0.506694304856043,0.2873708497108457,-2.4370666124232,-5.356138237876058,1.0871783217731081,0.9086451410253975,-0.3003920997063224,-2.4095709115657593,2,left
3.97,0.20178680417281647,0.5090085296634597,0.2874923525583972,-2.434510303698869,-5.35662041904418,1.087666434102882,0.907163863488595,-0.30108260229197437,-2.4086057242648975,2,left
3.971,0.20048323651573452,0.5098156015672789,0.2863351774534223,-2.442367845389964,-5.357649927646001,1.0904067159294644,0.9138024640796851,-0.2978633177551917,-2.4105902000577086,2,left
3.975,0.20051474343246206,0.5093500160570101,0.28075985419504007,-2.430163578879844,-5.355603444348916,1.085395762640336,0.9014540170642609,-0.30388086237295914,-2.407438938376024,2,left
3.9760000000000004,0.20176517208297756,0.5123596264506338,0.2738938626799922,-2.443262778391272,-5.3578803525281264,1.0909088012305146,0.9173238210316872,-0.2961359072388624,-2.4112949707637625,2,left
3.9789999999999996,0.20540246041896587,0.5157304890572818,0.27092441903695114,-2.4355530543219706,-5.3564142058612845,1.0874528039934757,0.9040683902364048,-0.3026111718137551,-2.4081556751300175,2,left
3.98,0.20770318736185722,0.518369031027992,0.2673870047494271,-2.429607644625073,-5.355895300245859,1.0858160272460413,0.9044379773799869,-0.30241961898444225,-2.4081180517324117,2,left
3.985,0.20965171468574392,0.5207714342510492,0.2628631005004408,-2.4567727326380533,-5.359386275366376,1.095174982886326,0.9296853199996907,-0.2901142844520605,-2.4144306089610215,2,left
3.986,0.21262704449706654,0.5238151379464868,0.2606091478321194,-2.4061896999055143,-5.352691378693548,1.0774240924787029,0.8676133748078529,-0.32038639507561106,-2.399091378538646,2,left
3.99,0.217759901938814,0.5284930366207714,0.25695715924547596,-2.4711847612243933,-5.361338386429039,1.10030344758922,0.97053998004486,-0.2701785897058253,-2.424459480172244,2,left
3.991,0.22246956365120277,0.5306020627976249,0.255341345692753,-2.416908502783018,-5.3540978267142,1.0811705570162768,0.834774275272818,-0.33641520532370817,-2.391020569055438,2,left
3.9939999999999998,0.2242544294855171,0.5308913168321778,0.2535871640582493,-2.418441582197679,-5.354374129108791,1.0818177849731216,0.2649289346950691,-0.6143770865866083,-2.25058135074664,2,left
3.995,0.23082024395919848,0.5347233793280728,0.24382567599396832,-2.52171770616613,-5.367920335880102,1.1178674874894239,0.12915145703233066,-0.6806417265847038,-2.217138636357051,2,left
3.9960000000000004,0.24182491216662294,0.5404776573965359,0.23085790276639573,-2.267809849251757,-5.334527380094478,1.0291176273999112,0.2320973161928175,-0.6303890492537518,-2.242500309316285,2,left
3.998,0.25535747104642625,0.545673579909796,0.21380867732934966,-2.688808450140363,-5.389924017948504,1.1762955036456186,0.17000713415307828,-0.660701169434968,-2.2271999895334202,2,left
3.9989999999999997,0.2652721252998539,0.5487457909610082,0.20119249541008602,-2.1335276440097446,-5.31684710760956,0.9821827803784515,0.19525980954745845,-0.648390153682294,-2.233421905569617,2,left
4.004,0.2673174883105538,0.5489655726603953,0.19837486080978,0.19724156467913867,-5.010255159880446,0.16749948921020535,0.19564971208230675,-0.6481398374991548,-2.2335278733443333,2,left
4.004,0.2779290945150993,0.5516578788867196,0.18747119736483955,0.752473364187725,-4.9371688995393725,-0.026551531077789292,0.1823397013706447,-0.6547561916856939,-2.230223875818411,2,left
4.005,0.2972231626501859,0.5568407887883794,0.1708716098248485,0.33154690687052346,-4.99258486721898,0.12053842322396727,0.19829564864277932,-0.6467997451271483,-2.2341924820066072,2,left
4.0089999999999995,0.3176769804871349,0.5620863634487876,0.15543795712956726,0.5854072005628909,-4.959163123667161,0.03183813378799054,0.1858509909780558,-0.6530403873761328,-2.231088157325133,2,left
4.01,0.3424676042082183,0.5685842627707391,0.13738840956105164,0.4820948275407304,-4.9727430548883,0.06795474180788183,0.19255167020576747,-0.6496989022180464,-2.2327558898686735,2,left
4.013999999999999,0.367720475281317,0.5759625565324351,0.11989686318038674,0.4807330249222998,-4.972991742973679,0.06835477138046255,0.19110446405567422,-0.6502604139455264,-2.2324323966460953,2,left
4.015,0.39411852802409253,0.5882218492117415,0.09992113483900554,0.5346890217873015,-4.9657547894230145,0.04965897318131255,0.1890966595328522,-0.6517041197612521,-2.2318303501322045,2,left
4.018,0.4217871618895822,0.6047296587657047,0.07670734459217163,0.470106168300005,-4.9744431599393,0.07199981974754201,0.192569253169878,-0.6492111312222881,-2.2328714275886314,2,left
4.019,0.4475933346122428,0.6199305231106811,0.05446929610654909,0.5203380874734519,-4.967646933810926,0.05467303871833385,0.18919172394167844,-0.6518386717685962,-2.2318112900977285,2,left
4.024,0.4735853775451352,0.6340176056689163,0.03201463610800801,0.4932182680073406,-4.971294762156923,0.06405255267469673,0.191520393904481,-0.6499217949808103,-2.2325669917155873,2,left
4.024,0.4997576569470372,0.6478374514257079,0.009058874857358212,0.49970463962897027,-4.970601516219629,0.06158943520718177,0.1906829673129749,-0.6503231819146408,-2.2323620516478995,2,left
4.0280000000000005,0.5248771173349198,0.663168534111308,-0.012498481945752043,0.5060924356559905,-4.9692479263355125,0.05998870992524519,0.18993257030111696,-0.652138383038616,-2.2318398924504694,2,left
4.0280000000000005,0.5487250375813177,0.6789124526218355,-0.03429783409433156,0.4950294498640574,-4.971586125899653,0.0627667960007825,0.19210991761401647,-0.6477649348254917,-2.23314761414166,2,left
4.033,0.572009301762294,0.6926777069308347,-0.05884604531021505,0.5049922482869098,-4.9691929459040605,0.060620377331453056,0.18896928124009804,-0.6542365327400108,-2.2312228537722154,2,left
4.034,0.594153326435865,0.7069837949639776,-0.08172078624491447,0.4985372830906492,-4.970904823016566,0.061811740922115194,0.19217457741685456,-0.6474076366424248,-2.233239935433236,2,left
4.038,0.6147560036624018,0.7212955747628623,-0.10173971581831776,0.5019903337269812,-4.9704581828116545,0.060595256292562884,0.19032116868540075,-0.6513534984704498,-2.2320735031826153,2,left
4.039,0.6342812150214808,0.7329905540706125,-0.1206171071271935,0.4993635900215225,-4.9692034808251755,0.06348923217651015,0.189039308528242,-0.6546025403063711,-2.2311477195551337,2,left
4.042,0.6512351242202343,0.7453465617511774,-0.13610205884864057,0.5034734405073276,-4.972319861108781,0.057537539062568054,0.19505783509667202,-0.6401874927635833,-2.235304057336989,2,left
4.043,0.6659780181172387,0.7580946895133716,-0.15036877071485388,0.4969034963950494,-4.967728460106418,0.0665695286300815,0.18387643410713614,-0.66692857193001,-2.2275894635905393,2,left
4.047,0.6788046681657731,0.7656172527790128,-0.16413105245676235,0.5044894191669265,-4.972546553615503,0.05673808095972868,0.19820729529161468,-0.6326062288546223,-2.237490555374614,2,left
4.048,0.6896936249000623,0.7728501833495924,-0.17643193725013448,0.5001141304523521,-4.969761246439122,0.06241533141040564,0.1862556724068335,-0.6612518440736461,-2.229225085330433,2,left
4.052,0.6993392180000169,0.7807732072270402,-0.1858956547604043,0.495044135159245,-4.9675323251824075,0.06776500021174298,0.18661115561993297,-0.6604663256232124,-2.229462935567909,2,left
4.053,0.7065003891942627,0.7829857277988606,-0.19086362946980662,0.51554789096994,-4.977511439537628,0.044945315554092764,0.20926167909273632,-0.6058993634093948,-2.2451740294675924,2,left
4.058,0.7111704908027563,0.782634314501889,-0.19527094143725016,0.47761122811705337,-4.9589924246611226,0.08723224032458601,0.15356676287168164,-0.7400188440026078,-2.206540405921014,2,left
4.059,0.7136716612111993,0.7792576977393479,-0.19885423313070683,0.5264264826194085,-4.982759389627642,0.032899621771213285,0.24590732203007837,-0.5176517245255625,-2.2706038034747804,2,left
