time,gFx,gFy,gFz,ax,ay,az,wx,wy,wz,subject_number,foot
10.288,0.9719118286019546,0.5812709317561806,-0.10723729489113869,-0.324904913601204,-8.167300917809712,0.8134394997906456,-0.029547634111187868,-2.2286840786484525,-1.6860227445663436,1,left
10.289000000000001,1.022351017188088,0.5812979072598584,-0.13641429456527976,-0.3281819779992207,-7.993845492723556,0.8196121869132234,0.006154561335646361,-2.1664234171726315,-1.710508731627066,1,left
10.292,1.0766819184356022,0.5795225117762312,-0.16696193950921512,-0.32275380115992364,-8.28145730228118,0.809386946771314,0.006669233125099622,-2.1656193959577577,-1.7109462361962051,1,left
10.293,1.1115665512845867,0.5790713836971582,-0.18321742901431212,-0.32992078657231616,-7.902120286453876,0.8228744203530169,-0.012070640934456756,-2.1981027217883424,-1.6979125484801605,1,left
10.298,1.1219177323038898,0.5783321149001288,-0.1887310049682857,-0.3599731432082317,-6.3097620419883125,0.8795235604372423,0.010379156904124796,-2.15922625898405,-1.713563685348925,1,left
10.299000000000001,1.1514347490204395,0.574950437101126,-0.20487491062246727,-0.3671596259682743,-5.930481793273091,0.8930175189294245,-0.007108660662011455,-2.1894562405346374,-1.7013203835401374,1,left
10.3,1.1880888773285443,0.5688908259371563,-0.2211278643588817,-0.361710367122103,-6.21803219230506,0.8827852700485727,0.002318865160531463,-2.173130508886622,-1.7078938272414614,1,left
10.302,1.2082249302236594,0.5594453355219102,-0.22723803262626813,-0.36497936298090466,-6.044553380377847,0.8889552620720984,0.0001844628375846126,-2.1770734443517448,-1.706637624831012,1,left
10.302999999999999,1.2258812079779693,0.5465293626470746,-0.23361018198581784,-0.3636990824569778,-6.115279524658879,0.8864511132678146,-0.002368892142177513,-2.180813725778064,-1.7042157348462106,1,left
10.307,1.2340399091533216,0.5300043212471648,-0.23611862061265082,-0.363570568268055,-6.11596098517435,0.8864008284093924,0.002049588322942681,-2.1743343843779703,-1.708400855752099,1,left
10.309000000000001,1.233587640793466,0.5114326578813819,-0.23343825663828593,-0.36442440252906033,-6.0794024502193,0.8877390903985343,-0.0021233672777809165,-2.1801084933962436,-1.7041226583393148,1,left
10.312999999999999,1.2238641939362123,0.4947753111110469,-0.23486373265901447,-0.36343414687383147,-6.123287910363535,0.8861401552511512,0.0006889942622152277,-2.1764016224104132,-1.7071801827231017,1,left
10.314,1.1971500977334384,0.48376464951644665,-0.23141935754311643,-0.3641517841969112,-6.088954185304663,0.8873778120419711,-0.0004990310539989655,-2.178483923556294,-1.706375022227632,1,left
10.317,1.1537971633690864,0.4800438503470704,-0.21073579757597233,-0.3639312291843853,-6.10795362797491,0.8867346743146034,-0.0006703344054416082,-2.176562095868655,-1.7041650153516932,1,left
10.318,1.0864099833173997,0.4870225007307584,-0.17943327569552248,-0.3635905621941944,-6.10247054949504,0.8868244282928364,0.0003748744029837516,-2.1798135379534758,-1.709664102526371,1,left
10.322000000000001,0.993286460278587,0.5127831982147006,-0.13321054773434549,-0.36440841500422116,-6.099651947331598,0.8871060658053977,-0.0010322930940947885,-2.174698315127712,-1.7015647720659173,1,left
10.323,0.8922644286120079,0.5577140528770954,-0.0808740809469124,-0.3633583733681726,-6.105596683575172,0.8866721111141594,0.0002660202811862404,-2.1805024509462445,-1.7100604587567712,1,left
10.327,0.8018561353964018,0.6227209471559219,-0.02966940810397687,-0.3642176799023321,-6.099653821541785,0.8870606661818701,-0.00048599492984119065,-2.1771529119561266,-1.7051502446291544,1,left
10.328,0.7279913246594242,0.7116274578257855,0.04869461410763109,-0.36412353758794913,-6.105043481649435,0.8868710933178674,-0.0006881792206639375,-2.1734851603580223,-1.701224048993554,1,left
10.332,0.6846073082809547,0.8262044877821021,0.16955168345603794,-0.3628520182640627,-6.098852977590505,0.8867612095860249,0.0007733528729563146,-2.188525936344851,-1.7188035688240277,1,left
10.333,0.6900399238538437,0.9734241636049368,0.31850395016285393,-0.3658572336695623,-6.1076393900741,0.887202007208524,-0.0019650073249613377,-2.1606837153456553,-1.6861826244768312,1,left
10.337,0.755800317173758,1.1476273037528222,0.45633043326511435,-0.3613511728363045,-6.095816165107564,0.886499535745105,0.0015132586432285296,-2.1964983059261005,-1.7280438919938896,1,left
10.338,0.8882971952500983,1.3401646922857195,0.5572350266370549,-0.36615750060178676,-6.108179808960703,0.8872559078065629,-0.0013724449957445617,-2.166570222591923,-1.6931078317868438,1,left
10.342,1.0693749594415891,1.511021273336128,0.5307439028096943,-0.36337624772990046,-6.10141552238648,0.8868071489000056,-0.0012501784053994213,-2.1672956204339657,-1.6940852204157304,1,left
10.343,1.2623819796293134,1.6092965498836842,0.33636536960206836,-0.36100472171619735,-6.09370853758879,0.8864814611329765,0.00405855795016273,-2.224718530364158,-1.7605647453095377,1,left
10.347000000000001,1.4457205535778708,1.6287900364487848,0.0646773203066913,-0.37142181088916437,-6.1243644072430925,0.8880044306974092,-0.00901950206147458,-2.0836475706663267,-1.597142726271959,1,left
10.347999999999999,1.573261983683914,1.5644109984185923,-0.2624649752226789,-0.3521009533800955,-6.068070489896027,0.8851651056315157,0.012656747990077832,-2.317551448405633,-1.8681008508311887,1,left
10.353,1.6081586857379597,1.498470737014459,-0.4642735140162474,-0.3769041083789585,-6.1402255075038905,0.8888106839215952,-0.015918419509099835,-2.0090178647367756,-1.5107169006924523,1,left
10.354000000000001,1.6106939971836336,1.4802260160535194,-0.5141459957920811,-0.3562081412587599,-6.080044627135292,0.8857722382035942,-0.13578841060786512,-0.7136880267441551,-0.010679754094736371,1,left
10.355,1.5595272093033088,1.395800438702155,-0.655485579306827,-0.3567443848185353,-6.081463560155021,0.8858454352057135,-0.1643396830051006,-0.4051321114671292,0.34669210932565675,1,left
10.357000000000001,1.4200087363670377,1.2697986035957745,-0.7725043285839659,-0.3962615550662829,-6.196889791092545,0.8916547665070838,-0.14269799976224318,-0.6390753396538356,0.07575304017031931,1,left
10.357000000000001,1.249830688430953,1.1719997018122985,-0.7562262074117021,-0.29918468773888784,-5.913448319078651,0.8774002372485918,-0.15575502774780764,-0.4979597691459886,0.2391588573257917,1,left
10.360999999999999,1.0148755795991573,1.0585111806899197,-0.6543158778331625,-0.4601013455943471,-6.383322078825432,0.9010125709319119,-0.15042416517455587,-0.5554134474613067,0.1726796098572427,1,left
10.363,0.8472009100863488,0.9896752182046977,-0.5485714209385957,-0.247895591912428,-5.763592372811733,0.8698924255526761,-0.15039201545545028,-0.5561467414568602,0.17173078902881522,1,left
10.366,0.8069750907089697,0.9766423041388156,-0.5130796718614844,0.6433178425706346,-3.161701358171051,0.7389945197906035,-0.15311447505596876,-0.5261480108022407,0.20660253843133625,1,left
10.367,0.6594018951118648,0.9334308234943103,-0.3721928910336825,0.8554521133088444,-2.5419917900109112,0.7079163150374456,-0.14984128095997462,-0.5621070589288063,0.16483447944615032,1,left
10.368,0.46547511903524347,0.9055370177342734,-0.13892004286619175,0.6946128131334119,-3.0118437663821114,0.7314832569986616,-0.1524122034445177,-0.5340648844334606,0.19736103836509428,1,left
10.370999999999999,0.32382233605149313,0.9520667073767293,0.08313107429477545,0.791719032140475,-2.728393991958522,0.7172115215421024,-0.1509565088474774,-0.5492987436065716,0.17982630039961356,1,left
10.370999999999999,0.15214048185650242,1.0703809929404646,0.34798820810956754,0.7519454484839567,-2.8438925277703992,0.7231712651749957,-0.1514528620200934,-0.5455545605329098,0.18382296433623319,1,left
10.376,-0.015252893643743637,1.2587440650900485,0.605448089238412,0.7519609973581975,-2.845155909582404,0.7229207594658509,-0.15152036425677684,-0.5420270586064664,0.1884898789190494,1,left
10.377,-0.16776509569828374,1.4920017221765525,0.8249584184536979,0.771865736749253,-2.785198040582018,0.7203464950696821,-0.15125072672490186,-0.5483783600469345,0.18042218028460033,1,left
10.380999999999998,-0.29752345164182525,1.7432093587868356,0.9973673121087125,0.7478505660625681,-2.857131007269652,0.723529774039118,-0.15155611106547942,-0.542335925875654,0.18798704893590035,1,left
10.382,-0.38004331337408986,1.9890655011328997,1.103129071249491,0.7668312620825126,-2.8009328601839893,0.7208900555238063,-0.15114935152591,-0.5467091011540395,0.18292795972196657,1,left
10.386,-0.43204903761518787,2.2035045937953455,1.1486460342416327,0.7557378921843056,-2.831779501122178,0.7228097005698345,-0.15187837571460513,-0.5439161208524397,0.18510966219140168,1,left
10.388,-0.4472901654795278,2.3601419444746368,1.1064753436128965,0.7602885415169199,-2.8234581506327983,0.7212056852407729,-0.15061548252716384,-0.5459388149496649,0.18517244874138244,1,left
10.390999999999998,-0.4155598348731655,2.4278665609136145,0.9810153667884305,0.7593147133278109,-2.817752350066536,0.7229598364791885,-0.15240305991571604,-0.5439655997221065,0.18386978387681846,1,left
10.392000000000001,-0.3302387484209789,2.376651221956603,0.8068793952521545,0.7591171938538321,-2.828817063745329,0.7210123689696581,-0.15051529319934287,-0.5458746870804708,0.18548341621955744,1,left
10.397,-0.20856275221649656,2.1936962519511356,0.6254283013815274,0.7599483197361693,-2.8180292627688024,0.7224660013271331,-0.1515778541484052,-0.5450784715744166,0.18419574254416604,1,left
10.398,-0.0765139150506096,1.914918766267285,0.48462393718250396,0.7569116673695762,-2.826825238376171,0.7229249262939916,-0.15263389153681534,-0.542871776000696,0.18484641897068757,1,left
10.401,0.051293184570393544,1.603301981258632,0.3954642642368046,0.764999884189238,-2.81871249061333,0.7188163768742954,-0.14824114179707726,-0.5500411193682003,0.18488024560297872,1,left
10.402000000000001,0.15879631716668818,1.298237808657009,0.3486016720904026,0.7495132242221342,-2.8284945075718078,0.7277670570923085,-0.1563465481954231,-0.5371941531476854,0.18429794592663684,1,left
10.405999999999999,0.2510779011239088,1.014508841303611,0.34805111037407654,0.7718998531821671,-2.8159994511457382,0.7145182580558231,-0.1459475567134992,-0.5535902457095819,0.1851615507978033,1,left
10.407,0.34070547523874173,0.7661592556240837,0.39071094962040426,0.748166832889644,-2.828928384270414,0.7286239860585275,-0.15462622814829619,-0.5399415876331857,0.18439454833321528,1,left
10.411,0.4356225866732163,0.5443629748904577,0.45300669811067873,0.7616724599314197,-2.82207538519447,0.7205013842019966,-0.15440384138903612,-0.540157233362454,0.18459378304859364,1,left
10.411,0.5281356686521812,0.3514247567132991,0.5160841156697903,0.7743484955597999,-2.8131111317808872,0.713356448146386,-0.13781255365012218,-0.5666894845230597,0.1854681833547816,1,left
10.415999999999999,0.6069251708287764,0.20222195941367446,0.5687086571359223,0.7205586808674653,-2.847338665251103,0.7443967626453712,-0.17857883896018062,-0.5016552113097271,0.18311122209981956,1,left
10.417,0.6821317443685871,0.07219480916927537,0.5887545883030902,0.8200142047747899,-2.7847672757062565,0.6868683904416748,-0.11098783466787548,-0.6094418734135432,0.18706972089439172,1,left
10.421,0.7278718870344809,-0.0010215926199226497,0.5826111695093938,0.6923668627069194,-2.8649083220281057,0.7607366267746007,-0.2001427488021088,-0.46727107891725483,0.1818487088534903,1,left
10.422,0.735943905405522,-0.01617580834395646,0.5792748225131314,0.7989213699825856,-2.7980861433886544,0.6990583032824531,-0.5743550579691128,0.12966262482295193,0.16014189219609032,1,left
10.423,0.7612995245097234,-0.05289471127802641,0.5504634592367194,0.7961072448639341,-2.7995767157582327,0.7007434553676053,-0.663517018337173,0.27186057693395527,0.15495107411514097,1,left
10.425,0.7918369556078269,-0.08166546049751533,0.49310970071393406,0.5926664671508639,-2.92803355372774,0.818327820042269,-0.5959183877447525,0.16404453507096592,0.15887690334183693,1,left
10.425,0.803130958629531,-0.07419076759880233,0.4343985874089265,1.0926485720792891,-2.6126800401622745,0.5292746308576952,-0.6366817832665286,0.2290676224642078,0.1565075234134013,1,left
10.432,0.8315694347417675,-0.04672853411229566,0.3455424504183807,0.2636300442691228,-3.135449790356369,1.0085816627363628,-0.6201157636125971,0.20263285856473373,0.15749027386210393,1,left
10.433,0.8544245376656721,-0.017960387900389747,0.28212707953771843,1.3571572625460329,-2.4459318714236766,0.376329677678294,-0.6198389960581295,0.2022074714421433,0.15745637149551528,1,left
10.434000000000001,0.8624232028060921,-0.008517342323956775,0.2667246616350477,5.94670763803323,0.4488221380882137,-2.2770033899089643,-0.6285956491833169,0.21615684430210289,0.15702364676185676,1,left
10.435,0.9165998910308653,0.023905333454130456,0.2001300344188537,7.040347613138285,1.138371323252069,-2.909339823887954,-0.618118990890625,0.19946131733391448,0.1575543727040298,1,left
10.435,1.0103684362431822,0.07376726829544775,0.11527351544873204,6.211207081017747,0.6155677519322382,-2.4299414194076325,-0.626257933817854,0.21243745654168433,0.15711571910769884,1,left
10.440999999999999,1.1194323535612947,0.10908656367050491,0.05841710930591082,6.711142818408229,0.9309083752384673,-2.7189598739719516,-0.6219318204747553,0.20552530418630616,0.15743535824868674,1,left
10.442,1.2560219027212551,0.1459784435088281,-0.0004465660276548253,6.508106646797234,0.8025637982362127,-2.6016785539768312,-0.6227731056895306,0.20690362564001752,0.15716529478935398,1,left
10.445,1.4054139205956884,0.18110276303294878,-0.0398173349228432,6.504421918081432,0.8008317159608754,-2.5993413418969404,-0.6242057491319506,0.20912710215703595,0.1574641275334518,1,left
10.445,1.5510960773484326,0.21535918169943974,-0.061585768781938555,6.612224728275978,0.8680001437870073,-2.6619546040094697,-0.6218637395001427,0.20546647389982176,0.15713068375340403,1,left
10.449000000000002,1.68536371954051,0.2596060436085387,-0.07481459471178947,6.483334294523459,0.7875143392807432,-2.5871553428193206,-0.6240135491930954,0.20883600301531163,0.15738037395055005,1,left
10.45,1.7966796697573681,0.31342573373078497,-0.07064644100215163,6.583326268380105,0.8502344229271832,-2.64508547420348,-0.6227536817595393,0.20682598046375428,0.15745687505389372,1,left
10.454,1.8717894248522182,0.37741208381171,-0.06274185474938407,6.530603729267258,0.8163030817740149,-2.614844551351994,-0.6228109625540368,0.2070272478940148,0.15675809054531192,1,left
10.456,1.9018521524803467,0.45212218014480976,-0.04873031296911717,6.5398414647549945,0.8243134669251024,-2.6194142722966682,-0.6239397271642457,0.20857658428885836,0.15828208880190933,1,left
10.459000000000001,1.889006651203767,0.536922355471319,-0.022670634055548353,6.559271601885822,0.832809879258678,-2.631974163901946,-0.6219540645186659,0.20578392566115222,0.15602588634547715,1,left
10.459000000000001,1.8274859195806532,0.630512013715907,0.009882479375116623,6.528267537001209,0.817864216553819,-2.612422677569695,-0.6241270986154586,0.20885063547034982,0.15842789737935345,1,left
10.465,1.7177974615835088,0.7286039336718247,0.04472480032277096,6.556451269406546,0.8319668821457241,-2.6300132336175057,-0.6227826252041593,0.20693717630322728,0.15704512117890265,1,left
10.466,1.5727853541168504,0.8223189846610177,0.07916402657569199,6.541015637487188,0.8221997095556437,-2.621100934082734,-0.6220636865535,0.20598863037360418,0.15582763826218438,1,left
10.468,1.4049834378899406,0.9069184799196364,0.1157817282127569,6.53834741423052,0.8273279715097028,-2.617153043428975,-0.6259306167061297,0.21128718690648202,0.16111426822166777,1,left
10.469000000000001,1.2263034900795151,0.9830803849656199,0.15215362984307373,6.559893955332763,0.8253515982778336,-2.6351063288423004,-0.618629043461772,0.2012539298589538,0.15131762663400292,1,left
10.475999999999999,1.0415290276418743,1.0472945519858943,0.1888970843330363,6.524050024728108,0.8259664151079935,-2.6061842149455816,-0.6280342417581222,0.21418351195900265,0.16389537095477325,1,left
10.478,0.8668832283902298,1.0962533976226598,0.22757486634664384,6.5629501294375725,0.8257454184390658,-2.6374142985268434,-0.6201697623846119,0.20337056587075797,0.15339544061762445,1,left
10.478,0.7018792874535034,1.131659084820339,0.2663844513327003,6.539384010306322,0.8251873827557085,-2.6187398956420473,-0.6204296912811795,0.20373509888659685,0.1536772011541911,1,left
10.479000000000001,0.5487129055387518,1.1542051101592858,0.3061819271406594,6.524464541747147,0.8281038299453466,-2.605760384435305,-0.6352727630430516,0.22411718187839313,0.1737066210508132,1,left
10.482999999999999,0.4238196748023576,1.1675077525293722,0.34687323344907695,6.598592229587851,0.8209004647513414,-2.667669760088039,-0.5987335025398803,0.17393609834388685,0.12447947923302762,1,left
10.484000000000002,0.29909377152473415,1.1733362362285742,0.39389540715038507,6.459525270965758,0.8332565205067894,-2.55193602735445,-0.6593333235588941,0.2571600866730842,0.20609977688588968,1,left
10.488,0.2196741907266084,1.1716685597115928,0.4238293712866371,6.638455238228167,0.8176144384984143,-2.7007518995303075,-0.5793996678446394,0.1473867411118711,0.0984429062502616,1,left
10.489,0.202344103651447,1.1704168666814159,0.43201400337998597,6.488925283959204,0.8305843575952625,-2.5764270527885924,-0.24399838630807996,-0.3132896001769617,-0.3534428186887697,1,left
10.49,0.13880097527379048,1.1637026393366339,0.46026934644138423,6.493540233216228,0.8305779601031439,-2.5801182275880636,-0.164072568543551,-0.42305390823327754,-0.46109976632285665,1,left
10.493,0.05993604222995871,1.1481094880208553,0.49347970063320595,6.776813452015713,0.8047111215352158,-2.81611574437263,-0.224656831127804,-0.33983904192097114,-0.3794802965042199,1,left
10.494000000000002,0.016240185467044435,1.135108078475418,0.509595810621073,6.079881149166117,0.8678878184721128,-2.2356732457245485,-0.18813941683491012,-0.39002616780088467,-0.4287041793502758,1,left
10.498,-0.03559443198657578,1.1168009000438075,0.5222523229565614,7.235619557079609,0.7632341327533219,-3.1981810403874054,-0.2029589307515602,-0.3696068602581027,-0.40868168915779274,1,left
10.499,-0.0638784256733897,1.1001549002445832,0.5273883450193968,5.711161785540383,0.9012761102715208,-1.9286170680197763,-0.20323501714615938,-0.36931922047957005,-0.4083894633365385,1,left
10.504000000000001,-0.06823096934067346,1.095166298536776,0.5280352589796511,-0.6869539939534497,1.481199271347521,3.3999165288146704,-0.19537501641705673,-0.3800244792889153,-0.41890084017715085,1,left
10.505,-0.08815417176255749,1.0802531641388913,0.5265938476552736,-2.2114543036707968,1.6193265901658047,4.669490032560663,-0.20474122352012858,-0.36719893104556967,-0.4063161425319338,1,left
10.505,-0.10247417676914897,1.059725417822094,0.5204055964495984,-1.0555917844648364,1.5145526676946002,3.7069371404606337,-0.19752059765368696,-0.37719324205363214,-0.41610753016006036,1,left
10.51,-0.10162356247753909,1.0463989969096326,0.5134375636490582,-1.7527831713319917,1.577793080314752,4.287498926459257,-0.20127325459585205,-0.37179165717329854,-0.4108458906960105,1,left
10.511,-0.09205315063728611,1.0357267067738878,0.5016714989558182,-1.4690924062773574,1.5520287682070613,4.051281609663207,-0.20066822598975959,-0.37304852809442873,-0.41201559329270865,1,left
10.513,-0.06963081327427122,1.0311565738010229,0.4872218133089609,-1.4649949168038938,1.5516656500096677,4.047893666473299,-0.19927179338010167,-0.37444410477055357,-0.4134621205235779,1,left
10.514000000000001,-0.03702972103217812,1.0319693168381137,0.47253963898873835,-1.6140879409640378,1.5652560202342376,4.171919607454061,-0.20135532462473926,-0.37199876212336,-0.4110016004890639,1,left
10.519,0.006789043434084187,1.0381307527963275,0.4555151632032888,-1.4352120590935051,1.5488599541120789,4.023231659502712,-0.19967002448879131,-0.3743172603602774,-0.413274970467143,1,left
10.52,0.06222313354290786,1.0495176331029195,0.43969248961047885,-1.5749632511949794,1.5617941751653959,4.139225390850496,-0.20027419975682814,-0.3727148333840057,-0.4118189971902586,1,left
10.523,0.12472469106982098,1.0611340102672275,0.4203026233044149,-1.499158599654494,1.5546556335629478,4.07647983082391,-0.20098386017221342,-0.3735055993271089,-0.412330195869294,1,left
10.523,0.1926220958696968,1.0739288413475179,0.3948255510634466,-1.5166752225235185,1.556361028888487,4.090903487447116,-0.19918905109590113,-0.3733370913426619,-0.41255933540504275,1,left
10.527999999999999,0.26689841148398763,1.0867081234971265,0.3671629383303515,-1.537358260466621,1.5584585248191842,4.107798709044985,-0.20137168935933342,-0.3731466567985282,-0.41195218023766333,1,left
10.53,0.34482549906168514,1.0962297316745777,0.3335471852571489,-1.5003065331162428,1.5543746823854225,4.077999347010559,-0.19992995652088338,-0.3735049761855913,-0.4125463002075173,1,left
10.533,0.4203386366160189,1.0997791443198857,0.29528391600914067,-1.5372001134127968,1.558970777641947,4.106904839432773,-0.19924871948358,-0.37304184029813586,-0.41230199285629343,1,left
10.534,0.4926244110377246,1.0981628655932067,0.25511919473056777,-1.5098565975232265,1.5549551254624139,4.086364906986261,-0.20326611439870157,-0.37364434890380627,-0.41197566657884255,1,left
10.537,0.5595126840977647,1.0918039807997735,0.21318188177465197,-1.5238927675814422,1.557453289041915,4.096275334374285,-0.1955710951775555,-0.3728637277435002,-0.4129105042659826,1,left
10.538,0.6233045799739483,1.073522786869948,0.17324364883100307,-1.523888608857529,1.5574629040392258,4.0962563118935815,-0.2055400281432045,-0.37374441944171066,-0.4115913912450954,1,left
10.542,0.682746781559932,1.0492053916300792,0.1351048704491952,-1.510277291214479,1.5539567572407267,4.08822067469284,-0.19718027865663504,-0.3730610638575702,-0.41274270153865167,1,left
10.543,0.7339840091477892,1.0180510870690667,0.09745212875331158,-1.5361366075027774,1.5614950672655503,4.102214646868345,-0.19746381468229324,-0.3729991043371773,-0.4126345257860089,1,left
10.548,0.7811385858711002,0.9772695853824654,0.06291647268088474,-1.5018797907549497,1.5506402213498895,4.084936947700653,-0.21325177609718104,-0.37451562100149427,-0.41064418825286864,1,left
10.549000000000001,0.8236761860246876,0.9379929917179053,0.03364544358120526,-1.5358734280621842,1.5619833824092288,4.1012518171480234,-0.17436420677621634,-0.3709056666010756,-0.41564730812661077,1,left
10.552,0.8696725024323679,0.8890936532923509,0.010425018831612563,-1.5170370232460424,1.5555015382567983,4.092497110298943,-0.2388725985903598,-0.3768451406976382,-0.4073103706809893,1,left
10.552999999999999,0.9004478469647345,0.854440000215761,-0.0008073262130426338,-1.501142516229807,1.5499474250565157,4.085231083484393,-0.1537753580094105,-0.3690303472214683,-0.418321206206301,1,left
10.557,0.9072568220622135,0.8454164300830653,-0.003029145474041958,-1.569747823479899,1.5741729535467628,4.116223842651152,0.20337547577479662,-0.3361661369407668,-0.4644793406035608,1,left
10.558,0.9317374233892637,0.8120632515447421,-0.008031558039151345,-1.4434407478798421,1.5293281357332027,4.059519664878638,0.28847368037451754,-0.3283666355229572,-0.4754900004339987,1,left
10.559000000000001,0.9628140439410688,0.7731522490241107,-0.012062821847657897,-1.6049887954331123,1.5868552480432063,4.131796330792929,0.22395825862848343,-0.33427173483234784,-0.4671462021200915,1,left
10.561,0.979861140328161,0.7530268411973643,-0.012100258553817612,-1.4703925729270382,1.5388506951116385,4.071689146293403,0.2628666371205377,-0.33071864132110607,-0.4721743689908123,1,left
10.562999999999999,0.9895546885605108,0.7363311301225122,-0.01375899888436916,-1.4740938853721643,1.540161620591213,4.073349774642928,0.24703841749042976,-0.3321598426078748,-0.4701319130729481,1,left
10.567,0.9860335154253674,0.7320068396431966,-0.017304356893841858,-1.730102481705981,1.631623506626434,4.187465129104189,0.24681229595143916,-0.33217295347728537,-0.4701014798518617,1,left
10.568,0.9762404463715543,0.73765827726637,-0.02044262560680893,-1.1009810446585435,1.4068191384338862,3.907110375574528,0.25511310733097226,-0.3314516010399142,-0.4711688611648719,1,left
10.571,0.9513585987701539,0.7546054190603416,-0.022888638506303727,-2.1439521424162327,1.7795519639398107,4.371811252448785,0.24517365765452043,-0.33228314102893136,-0.4698989271135978,1,left
10.572000000000001,0.9279522085067419,0.7701376916389682,-0.025686116284900685,-0.7683795966444144,1.2879186369562077,3.7589801999334638,0.25291019066635395,-0.3316852687608364,-0.47087641698944677,1,left
10.573,0.9214271992918114,0.7748520851804497,-0.026376722575158988,5.004696826712541,-0.7755149677234279,1.1870933172950857,0.24874250818635243,-0.33195774399030487,-0.4703606867418073,1,left
10.575999999999999,0.8923873314866025,0.7965869338423708,-0.027165918798116,6.380194618152891,-1.2671583241317252,0.5743634988675479,0.249692864466771,-0.33191737548677547,-0.4704732999875624,1,left
10.577,0.8491524282488288,0.8283807993861938,-0.030026264385635403,5.3373909418925045,-0.8944224872513871,1.0388827734534294,0.25079295682060765,-0.33191074877221993,-0.47059618988021223,1,left
10.581,0.8110925314736557,0.8554298151595181,-0.027047386171371562,5.966236605909312,-1.1191949596705286,0.7587416487740324,0.24889995042072321,-0.33178222728489404,-0.4704146495503312,1,left
10.582,0.7658246968315826,0.8824580808278379,-0.01857987077393774,5.710591671788285,-1.0278263156460787,0.8726940256534013,0.2506575752987059,-0.3321408632652626,-0.47053266800773197,1,left
10.585999999999999,0.7206007374316027,0.9041671121517141,-0.007020799514705991,5.706530081922375,-1.0263530140121202,0.8743537167866052,0.24950152392587302,-0.33160934284962995,-0.47051738875569427,1,left
10.587,0.6770466914707925,0.9220987459694923,0.012440359942943208,5.841304844918698,-1.074559759934265,0.8145293875302868,0.24998985737023782,-0.3320726327736365,-0.47047347502291326,1,left
10.591,0.6306541048071761,0.938192845170688,0.03406976885118121,5.680001264875633,-1.0168695576395468,0.8861727272687221,0.24998703666324187,-0.3320775754416161,-0.4704722516196632,1,left
10.592,0.5850996289947408,0.9501907654986614,0.05423639097114056,5.805418679670962,-1.0617137074603429,0.8303948924542741,0.24977483629147684,-0.3311539883450285,-0.4706432619731094,1,left
10.595999999999998,0.5445791808726717,0.9581158617220543,0.07936099786873782,5.738410498494925,-1.0377919263948245,0.8604265562236628,0.24996684927178056,-0.3332912394823368,-0.4702144273232834,1,left
10.595999999999998,0.5075205121557371,0.9621343579904114,0.10676014612762219,5.7522687010032545,-1.0426491813566945,0.853667697020751,0.24992163406380136,-0.330080890717391,-0.47088544699778145,1,left
10.6,0.4715173798849082,0.9631916164640517,0.13105852851569233,5.772849465341629,-1.050171915829461,0.8455084348423703,0.24982883450761667,-0.3335159551008662,-0.4701518306816908,1,left
10.602,0.4400407566629701,0.9614978669611595,0.15052174836366455,5.738587907618801,-1.0377209822047546,0.8595328121366036,0.249927500374277,-0.33152729517559376,-0.4705816212593536,1,left
10.605,0.4131260717770772,0.9587804594408221,0.16397449891000968,5.77026187038682,-1.0492056674088677,0.8464101286210868,0.25003136656557357,-0.3298105261495963,-0.47095429664928834,1,left
10.606,0.39171829596023533,0.9547087470542236,0.1745596902397663,5.750814502275041,-1.0422559136229113,0.855082000655431,0.24952271332808182,-0.3373272504902458,-0.4693157780756314,1,left
10.61,0.3760139986347055,0.9484931185018395,0.1823765194074748,5.754461424795025,-1.0432563641244017,0.8516259931480512,0.25051777467247727,-0.32338334645570116,-0.4723613329548166,1,left
10.610999999999999,0.36498538263936553,0.9416502053750706,0.18612861099914796,5.765556679513667,-1.0479149303640525,0.850868975265622,0.24920425643535543,-0.34129060629344155,-0.4684458494392624,1,left
10.615,0.35846181826308243,0.933833179164101,0.19178849168903223,5.744351718729648,-1.0393020880765769,0.8540708090626571,0.25031646493163107,-0.32634030845594914,-0.47171702805400584,1,left
10.616,0.3579953205053204,0.9225782530302108,0.19841852190130516,5.767822665847492,-1.0487930252690116,0.8502719716922498,0.2502886151633709,-0.3267423757564009,-0.4716280211385566,1,left
10.62,0.3640429894409659,0.9100071524711897,0.20092877107756962,5.752892993196305,-1.042820344717389,0.8530761942896716,0.24813456468671793,-0.35525844714106625,-0.4653880951797623,1,left
10.620999999999999,0.3705898513394028,0.9005886471743343,0.20174222058515417,5.7468017803390055,-1.0400939220548522,0.8524745205274462,0.2534374772321364,-0.2851732598084008,-0.48072763650721606,1,left
10.625,0.3806806748770987,0.890794193076765,0.1999426159760124,5.784554417331908,-1.0559901587584015,0.8501667972377204,0.24463559048803468,-0.40137545821099363,-0.45529177868674664,1,left
10.626,0.39028503057367503,0.883668325232245,0.19691759372621043,5.712540136773761,-1.0257956029004378,0.8553375855801607,0.2562524570144907,-0.24810705135540528,-0.4888432167862211,1,left
10.626,0.39192734065822876,0.8834707754678626,0.19547191348067858,5.805458166626488,-1.0647264251329656,0.8484989890079365,0.30504568929685816,0.39530670791436934,-0.6296566015051062,1,left
10.63,0.3975686256361903,0.8810047723725306,0.1929207530536469,5.727705242279891,-1.032161592340589,0.8542875956490432,0.31666964221197025,0.5485782339643841,-0.6632081263101378,1,left
10.630999999999998,0.4058198005728446,0.8774365890915403,0.1856370483942515,5.730504114988202,-1.0332887819176417,0.8538238205785165,0.3078550417838816,0.4323636696611506,-0.6377743914479792,1,left
10.635,0.4087021738211968,0.8768779304258686,0.17526828628378946,5.876481958592297,-1.0945738621194594,0.8437969222937037,0.3131729137375047,0.5024794203038649,-0.6531060452397868,1,left
10.635,0.41233285264245034,0.8766195934470407,0.16708335440865535,5.516871194936105,-0.9436559734619284,0.8688006234175549,0.31100744371979383,0.4739088879920214,-0.6468826178445952,1,left
10.639000000000001,0.4167477245441403,0.8797434694884854,0.15615993327050104,6.113328907406404,-1.1939554396219647,0.8272541429505489,0.31097954484777673,0.4735801385049959,-0.6467689262636294,1,left
10.64,0.4176671029734641,0.8824086264136193,0.1481128443070699,5.326592025509847,-0.8638097437515443,0.8820570482631122,0.31211153543862585,0.48846042972573517,-0.6500668399366724,1,left
10.640999999999998,0.41871672730254794,0.8834373066759744,0.14454800278015828,2.0251803646066344,0.5217194309057203,1.1117550731346153,0.3107536947959585,0.4705790182974206,-0.6461355479512756,1,left
10.644,0.4243903066346443,0.8875718533620459,0.13142699593382556,1.2385301037310272,0.8518367451712956,1.16652193949789,0.3118136089912895,0.4845932224167655,-0.6491678430718584,1,left
10.645,0.4309476041504501,0.8908681985340658,0.11815336768350962,1.8349033487272384,0.6015557751461263,1.1250015150493162,0.31123763968231666,0.47686661377970496,-0.647589169461618,1,left
10.649000000000001,0.43722291306154915,0.8932890734742094,0.10789827178958239,1.4752241744908243,0.7525285939977046,1.1500658647958948,0.3113770812961325,0.4789365849848475,-0.6478486722837833,1,left
10.65,0.4455294208451914,0.8967335490984745,0.0944440975321433,1.6215804417674984,0.691052488865112,1.1398151672034729,0.3115173327036953,0.4804999741635833,-0.648428267127354,1,left
10.654000000000002,0.4523936630169389,0.9000848572025288,0.0838173531778984,1.6236102169722777,0.6902767446167969,1.1397698195257617,0.311264280354803,0.4773921391672689,-0.6475588123028855,1,left
10.655,0.4581880555038736,0.9018236480180113,0.07491023156338181,1.546923891802221,0.7223853676171195,1.1450090087590339,0.3115099089541615,0.48063248124769503,-0.6482663836905742,1,left
10.659,0.46414382820192046,0.9029975444500467,0.06870874404070007,1.6388249418608654,0.6838492640999692,1.138654409971459,0.3113292328419488,0.47782580020151455,-0.6480030876915794,1,left
10.66,0.46751436632655047,0.9065527124007254,0.06462736590866394,1.5671656639537233,0.713984127118451,1.143733549900658,0.3114379633740718,0.4802302622806435,-0.6477271478180818,1,left
10.665999999999999,0.47070732223946893,0.9084747346004889,0.06268372985278178,1.6059847005428753,0.6974940440573334,1.1407401840811315,0.3113828906494261,0.4780552973895723,-0.6484479146138312,1,left
10.667,0.47313143696644255,0.9089361461240729,0.06791319699528346,1.5967905395919666,0.7016948896463251,1.1418826024735844,0.3114023947293419,0.4798572051443275,-0.6475664043148632,1,left
10.669,0.4705436243748836,0.9098018918911848,0.07458388060839369,1.5870187666156839,0.7053760361573154,1.1419454185458253,0.3114174011599636,0.479162403646114,-0.6481516900055859,1,left
10.67,0.4639649943747015,0.9100497106005765,0.07848401192790067,1.6043599946165537,0.6984329747862903,1.141230866999193,0.31134866314899357,0.4774866962398911,-0.6484200809872861,1,left
10.675999999999998,0.454370329035515,0.9116278790582741,0.08123550955609618,1.587742639214443,0.7054095947827335,1.1423922793526566,0.31149881250370737,0.48283397754224877,-0.6468097346307407,1,left
10.677,0.44110515457460375,0.913592125353637,0.08561086545717891,1.5995678942689882,0.6998268413551956,1.1406534738644896,0.31125595133314565,0.47338653629290406,-0.6498992234793022,1,left
10.679,0.42376801728031477,0.918629435617941,0.09180192447563307,1.5931203031081018,0.7039498107317552,1.1431948691606295,0.3115549866798709,0.4853486993972425,-0.6458948149229577,1,left
10.68,0.40444030710286305,0.926375228438937,0.09504021093301714,1.5954928497088239,0.7008400120410787,1.139907747435606,0.3113107176420997,0.4754329653900882,-0.6492540107018898,1,left
10.683,0.38093571356324885,0.9305507418012855,0.09931089958268852,1.5956151496398507,0.7030424411993939,1.1432274732811736,0.31130907549310605,0.4755926255256872,-0.6491378847960895,1,left
10.684000000000001,0.35597521843266505,0.9322986049809618,0.10450163935043535,1.5937660649839127,0.7025160559157119,1.1414330926057996,0.3117968257868264,0.4947895149267166,-0.6427993331708632,1,left
10.687999999999999,0.33567275034183414,0.9334969501311989,0.10530671426503982,1.5977020039258263,0.6997421684160321,1.139501259405157,0.3106098730996395,0.4477623043338416,-0.6584157952269503,1,left
10.687999999999999,0.3106826840345177,0.9339317627174477,0.10961448166293276,1.590678477860647,0.7076017516497978,1.1472456607019557,0.3125734920786536,0.5256776782467583,-0.6325081569197692,1,left
10.693,0.29262775570524446,0.934748527522348,0.11522389212961205,1.6012929387852137,0.6940373139584106,1.1330513560266358,0.3099849838038313,0.4229272485524392,-0.6666866598856866,1,left
10.693,0.288482327101375,0.9351266629489867,0.11761147457309072,1.5885329554456193,0.7110902784567783,1.1512170689962766,0.29911507893135414,-0.00842631613856841,-0.8101123870642186,1,left
10.693,0.2728552703739004,0.9317835609908527,0.1262717758605143,1.5988170766821108,0.6970075929513542,1.136077019672984,0.29652658602981274,-0.11117688228167893,-0.8442945772180881,1,left
10.698,0.2500319933944769,0.9300850498213069,0.136207459524599,1.5991080187310236,0.6971514399159731,1.1364472854316263,0.2984892209540475,-0.03327411158373543,-0.8183801595182496,1,left
10.7,0.2338505693799175,0.9348637107142521,0.14224752203704974,1.5779849761894518,0.7246355850378523,1.1654214397927778,0.2973056885747669,-0.08025610220369014,-0.8340049869159738,1,left
10.702,0.2159134252916728,0.9376436680811232,0.1445271047391029,1.6290771308761396,0.6574261264738209,1.0942637429547275,0.29778642970297864,-0.06115281210893001,-0.8276592942238288,1,left
10.703,0.19273961961053188,0.9428653044998361,0.13668563814935575,1.5446790192203985,0.7687329651531971,1.2122247453712411,0.29779514925577877,-0.06085396406541495,-0.8275449222294621,1,left
10.709000000000001,0.17893921766425308,0.9515250527051247,0.12951685196688265,1.6558804427460196,0.6219668027620711,1.0566428091530953,0.2975398020427278,-0.07091946507365081,-0.8309125003585474,1,left
10.71,0.1739414705425027,0.952656460640482,0.12658633907246683,2.123126266612773,0.005732626940438856,0.403556994246295,0.2978451493704336,-0.058870370302880635,-0.8268861332553429,1,left
10.710999999999999,0.15516484396412503,0.9570066705148856,0.1136334799426691,2.2342893762545666,-0.141025542144684,0.24797675072238484,0.2976083287461708,-0.06823980878323246,-0.8300103727655666,1,left
10.713,0.13335225770413972,0.966130734336821,0.09292516582919211,2.1500074708265,-0.02975483145778717,0.36593118903799654,0.29773286349570227,-0.06323334395687899,-0.8283606407214268,1,left
10.713,0.12004158737466737,0.9701087174853729,0.07417520325479468,2.2008506139923734,-0.09687024518548232,0.2947895590728138,0.29771189507597956,-0.06426909655817246,-0.8286557059168143,1,left
10.72,0.10548504209649232,0.9729232867784036,0.057210146376926584,2.180135931779084,-0.06955807662163987,0.32373522892244233,0.2976643164044689,-0.06580660135261468,-0.8292519154765119,1,left
10.720999999999998,0.09402769303749436,0.9737991374733123,0.0379981614680918,2.179912905694887,-0.06917825566476042,0.32414369494993966,0.29773967996672523,-0.06324658667558732,-0.8282965834592932,1,left
10.722000000000001,0.08514812496700622,0.972452158967175,0.022198914068633092,2.1906419925931866,-0.08349195394716266,0.3089673585114243,0.297671372791832,-0.06561341696469392,-0.8291664735303639,1,left
10.722000000000001,0.0759180149957452,0.9691062529444253,0.011686840767521078,2.1778036039860558,-0.06634300895988264,0.3271461172230372,0.29770792140866964,-0.06416048580167834,-0.8286840265686299,1,left
10.727,0.06904533147280317,0.9638642474157721,0.0006146597444978402,2.1877746802449534,-0.07969991643055076,0.31298905833769186,0.2977171503613107,-0.06443182090008762,-0.8286208616106345,1,left
10.728,0.062306151838936,0.9614483599500186,-0.005450205588626091,2.182378954115892,-0.0724963784194695,0.32062346331371006,0.29765943884421897,-0.06526350892768605,-0.8292478852415293,1,left
10.732000000000001,0.05316761715147608,0.9563975782077003,-0.006380654413479323,2.1837558810321314,-0.07414381781408311,0.3188759961895682,0.2977543344405511,-0.06367500498177614,-0.8281969638099143,1,left
10.732999999999999,0.0429081306954176,0.9478330897060269,-0.00622912556525045,2.1847920195083494,-0.0760508603144344,0.31686043589719115,0.2976514940369128,-0.06543321771212363,-0.8293386687888191,1,left
10.737,0.034170006876796055,0.9420028217719135,-0.004842790820036868,2.182992013160809,-0.0727490528887012,0.3203491261503042,0.29771357069468884,-0.06431496334908048,-0.8286451872236588,1,left
10.738,0.026120559774481557,0.936496455053911,-0.004032123317601714,2.184478862479033,-0.07584626486958558,0.31708041212322535,0.297754075562128,-0.06385780445676495,-0.8282152312698581,1,left
10.742,0.020079740231891012,0.9303295082145548,-0.002873711045876295,2.1835909023977162,-0.07377016959103684,0.3192694457267889,0.29755540010247095,-0.06668826872747284,-0.8303713497506455,1,left
10.743,0.01616864376680346,0.9235772181931761,-0.004963113319003603,2.18428604580932,-0.07467962313431073,0.31830531378754306,0.29792783259226246,-0.061289236037243955,-0.8263235944115335,1,left
10.748,0.012116874225116581,0.918127840714764,-0.009556960828829897,2.1830093990473367,-0.0746717442846255,0.31833550978302044,0.29744854932213083,-0.06825570067470563,-0.8315317259431789,1,left
10.749,0.010547700536429692,0.915584316932512,-0.012280849898186143,2.1855478265293744,-0.0741893608940202,0.31879687192968265,0.2978493382372236,-0.06242576176897151,-0.827179997068066,1,left
10.752,0.010479767092409213,0.9115036391712674,-0.013866473179945094,2.181672745425873,-0.07479291707616625,0.3182316067451786,0.29783644166790946,-0.06263661753626751,-0.8273132815745136,1,left
10.753,0.01115425026336654,0.9084469535593399,-0.013309775114792028,2.1859210075331585,-0.07430365252765393,0.31867095956169966,0.2970782892247116,-0.07357986644368913,-0.8355586677862759,1,left
10.757,0.014978225163008833,0.9081423467639063,-0.012133516527745624,2.1834664024444974,-0.07458791263735604,0.3184150737557563,0.2989447703695572,-0.046619420659550284,-0.8152758242255711,1,left
10.758,0.01782127494608713,0.908265249562271,-0.010195235433814273,2.1810953992300206,-0.07449141882669286,0.31855775097588407,0.2958485322223513,-0.09133828823307036,-0.8489081279266584,1,left
10.761,0.018236651812927135,0.9094579481960964,-0.008599538750855378,2.191144995919374,-0.07447184623161951,0.3184042848016283,0.29993362191457185,-0.032351689289148694,-0.8045497350746931,1,left
10.762,0.01984836314999502,0.9108025902859636,-0.006570482725220155,2.1725210727976543,-0.07452985065509704,0.3186647948413582,0.3170658357520035,0.21515296128295486,-0.6183481205391479,1,left
10.763,0.020740604863917052,0.913999925925437,0.0006473476317327242,2.1964602624285887,-0.07448406234412638,0.31830100112496096,0.321152667593735,0.2741354743223977,-0.5739966163126018,1,left
10.765999999999998,0.019775080481750182,0.9190128054585546,0.009586507980260162,2.1764591713928336,-0.07450883990729115,0.318617231965424,0.31805454484548756,0.22942102608363382,-0.6076214673768969,1,left
10.767000000000001,0.016009411349288714,0.9262771333249853,0.018003876963562364,2.1769868819989835,-0.07447348292797998,0.3186496036536961,0.3199203080772354,0.25638315796063527,-0.5873357877560705,1,left
10.770999999999999,0.008438974895559854,0.9345897197519557,0.023469097496909022,2.215207860255969,-0.07457652478482682,0.31787710919268275,0.3191684101169847,0.2454252354127073,-0.5956058993543152,1,left
10.770999999999999,0.0026956530973999064,0.9408784084746015,0.024912804290192037,2.1212597114671374,-0.07434800354332069,0.3197415317289458,0.31914205766318005,0.2452459452505777,-0.5956859860739339,1,left
10.776,-0.00549231317047002,0.9493579025652612,0.026100215290938117,2.2770496994799747,-0.07473124866566394,0.3166510299041426,0.319562138445168,0.2510306307554539,-0.5914105304262298,1,left
10.777000000000001,-0.01505527252155192,0.9551182194331254,0.025684352592814607,2.0715434605024874,-0.07421561335330605,0.3207340462891852,0.31906364592721476,0.24410922247611344,-0.5965427117456785,1,left
10.777999999999999,-0.017528423148668155,0.9574675850234491,0.02530957639760803,1.2092584406030265,-0.07198816881262524,0.33806162808520474,0.3194443642043112,0.24948882641008774,-0.5925277237935476,1,left
10.78,-0.026369080514238294,0.9632597830681175,0.02714998888947615,1.0037560921298248,-0.07145956900137893,0.3421628725622791,0.319262190051847,0.24661964354069227,-0.5947490701926396,1,left
10.780999999999999,-0.04160582186429401,0.9677079373651586,0.026914882428596937,1.1594972802556311,-0.07186047364020329,0.3390333268349324,0.3192495501774165,0.2472014771843649,-0.594109011982408,1,left
10.786,-0.05131641986458857,0.9726488810948105,0.024510735209944567,1.065705471722973,-0.07162441985871867,0.3409586886778133,0.3194031914553245,0.2481049393449932,-0.5937775368726811,1,left
10.787,-0.06091496939360824,0.9791808428185633,0.023149002175278585,1.1036148013312181,-0.07170746083753715,0.34011051697584427,0.3191879846761033,0.24661030115128993,-0.5944749782449623,1,left
10.79,-0.06882233989899017,0.9838066285945519,0.019845536660595867,1.1045955359275497,-0.07173286046871835,0.34021145694433985,0.3193724546446906,0.24798871464897915,-0.5937782316006048,1,left
10.790999999999999,-0.07211806659723143,0.9889415229425628,0.014966708801612216,1.0841190544331116,-0.07165633591259256,0.3405048419476393,0.31931556331397726,0.24715505325982753,-0.5944084428490034,1,left
10.797,-0.07410905986127174,0.9939710669160507,0.010823455148804857,1.1083141008853397,-0.07172914914236661,0.3400695306065703,0.3191585155911273,0.2472738225832658,-0.5936879511680367,1,left
10.797,-0.07227587271702543,0.9981182120496613,0.0028248225024384626,1.089983727292144,-0.0717030596445544,0.340535953464249,0.31957502189790443,0.24783541864523487,-0.594707657449363,1,left
10.8,-0.06683045212425184,1.000057069988625,-0.004793820071472098,1.098882832857269,-0.07165750366272751,0.3400405268779486,0.3189399115237983,0.24679816903947227,-0.5933366246291929,1,left
10.800999999999998,-0.060767982845851054,1.0019247776270488,-0.009532308705057571,1.0986165619317005,-0.07177520081086768,0.34059081686416925,0.3196194615996245,0.24794099768312636,-0.5947701136551442,1,left
10.805,-0.05174160750853484,1.0041985246967482,-0.015686440832943724,1.0934445395251835,-0.07161634421919999,0.34002653294262664,0.3192228553405343,0.24722202927842313,-0.5939861755579141,1,left
10.807,-0.038928693422039265,1.0039586667768492,-0.0161727590589991,1.1000621626177947,-0.07174949690754256,0.34042603528314797,0.31890078709498726,0.24689286924241274,-0.5930911438611266,1,left
10.81,-0.027720430665578694,1.006754192842965,-0.009927607470636491,1.0957409175601538,-0.07173949047740266,0.3405174809885811,0.32034259734581094,0.24880904231654344,-0.5966490593207121,1,left
10.811,-0.018017245741082058,1.0094579153222947,-0.0045740892496014705,1.094953295969407,-0.07152160991000744,0.3395460383338819,0.31766307445728126,0.2451696988527224,-0.5901159849090977,1,left
10.815999999999999,-0.0061697916994455345,1.0084124326821802,-0.0014811677563910197,1.102127155814106,-0.0720332997567093,0.34165803556622865,0.3211047764414189,0.249861971417125,-0.5984897710341854,1,left
10.818,0.004223657750052274,1.008277715334979,7.03517092642169e-05,1.0895326088167643,-0.07126513348751318,0.3385454675796147,0.3182313247479027,0.24593694461874965,-0.5915055231116818,1,left
10.82,0.015298051075403545,1.0058960969346806,-0.00018441468949040605,1.1036509934207066,-0.07208567573464437,0.34184948499183954,0.31831026466481915,0.24607285365212314,-0.5916703448423527,1,left
10.821,0.02894031261637094,1.003190643881658,-0.0033719305847091322,1.0950293159067073,-0.07161064337577605,0.33994989577909873,0.3237847312136032,0.2534595027495767,-0.6050658455656066,1,left
10.825,0.041686016799856576,1.0012500636664674,-0.011419643860459735,1.0890401309610347,-0.07120396470951686,0.33828304005188714,0.3103285569919454,0.23526928999091815,-0.5721713152524358,1,left
10.825999999999999,0.057820739107656456,0.9960216718037163,-0.023404839218036422,1.1179133389370248,-0.07298876222554344,0.3455236572965559,0.33263874413593575,0.26543817176951257,-0.6267025043803529,1,left
10.83,0.06839603271629274,0.9934087905295035,-0.030310542866874894,1.0637392159494818,-0.06967799119837002,0.3321088796321192,0.3032130711771279,0.22564526435074994,-0.5547792989217842,1,left
10.831,0.07152429945218625,0.9945718907834186,-0.031081245066831624,1.1335274170420977,-0.07392899347557585,0.3493291825003068,0.17968613028277694,0.058653378618658665,-0.2528202361721691,1,left
10.831,0.08355802548505249,0.9925257377769666,-0.03583182964060209,1.0751700808286877,-0.07038094298151065,0.3349552590491976,0.15026302266553088,0.01886483091041094,-0.18089852417901092,1,left
10.834000000000001,0.0965359746660353,0.9902005542164644,-0.04228560617421506,1.0768946736214353,-0.07047469239357625,0.33534017573755115,0.1725704339308859,0.04902899430287755,-0.2354280975567915,1,left
10.835,0.10325641347743145,0.9939319275841004,-0.04471544039429934,1.1877837788041752,-0.07724549276830961,0.36275902489100154,0.1591132053165043,0.03083699273912578,-0.2025329524027829,1,left
10.842,0.11078635521780732,0.9990232609435874,-0.044802155790785836,0.915023668212526,-0.06060853293719627,0.29537351667940526,0.1645968760267579,0.03823927760550169,-0.21593381358607483,1,left
10.843,0.11826194381105413,1.0026764378346074,-0.04364570092523281,1.3673489488319095,-0.0881894920100805,0.40709834059650596,0.16465601034596744,0.038341537180278835,-0.2160871020147705,1,left
10.845,0.12312612839128971,1.006206667435746,-0.043539822642660195,0.7707089657365248,-0.051814383967959815,0.2597362594215472,0.16181095720757216,0.034464762584260566,-0.20911939018308043,1,left
10.845,0.12416312334766128,1.0072284314115005,-0.04474948170538305,-1.733610444241736,0.10091651215800265,-0.35883715207496353,0.16522437847525523,0.03910897889688871,-0.21747671021755377,1,left
10.845999999999998,0.12622266236286753,1.0098808359304359,-0.04588539887193395,-2.330249509372122,0.13728479390231524,-0.5061962886668039,0.1625570613156834,0.035490384052762655,-0.21095073986699586,1,left
10.85,0.12907222963223597,1.0148132882613312,-0.049741467330839964,-1.8779081324441678,0.10971117409948679,-0.3944749939592348,0.16402314935242227,0.03744779309227728,-0.21452279668537771,1,left
10.850999999999999,0.1272271932711469,1.016465787141871,-0.05609153327113525,-2.1507291521857796,0.1263511070368635,-0.4618604976460523,0.16362286331765213,0.03698574822964454,-0.21358221477444989,1,left
10.854000000000001,0.1270549100949686,1.017266226812025,-0.06230314863946701,-2.039711961157062,0.11955546955324736,-0.43443358806456395,0.16336103655718048,0.03649577563411588,-0.21287675987945043,1,left
10.856,0.12733023801227616,1.017431565608721,-0.06886685049873519,-2.038179593083427,0.11951493423996207,-0.43406768943232027,0.1638751709986883,0.03735753749622501,-0.21421393217139592,1,left
10.859000000000002,0.12289569971756165,1.0168028503434332,-0.07342358315463182,-2.0963280634539134,0.12298686751380962,-0.44841300380560756,0.16337194898709456,0.036544414927647303,-0.2129196849580639,1,left
10.859000000000002,0.1220262162013596,1.0183394572989928,-0.07339569247927365,-2.0266644780611784,0.11881143601690256,-0.43122286469510684,0.16378960524168013,0.03710790009408478,-0.21394008183453928,1,left
10.865,0.12229457498446589,1.0183721950815565,-0.07059952298134776,-2.0809396484026395,0.12209001948535841,-0.44462151668874295,0.1633878658219559,0.03681099711676561,-0.21307708189807578,1,left
10.866,0.11965417460845264,1.0185068064782037,-0.06747276253110986,-2.0516026973014236,0.12023936105616205,-0.4373621649524517,0.16389022241764178,0.036927481502932076,-0.21403296040756342,1,left
10.869000000000002,0.11916209975778791,1.0231718213900076,-0.06560143749560396,-2.058472008055374,0.12085653150249993,-0.4391017003985737,0.16324034850736607,0.03688827448830921,-0.21285038041759674,1,left
10.87,0.11659134931643404,1.0278716087490092,-0.06666859034843203,-2.0659256143471922,0.1209698227101994,-0.4408690589997614,0.1639146171690709,0.036905046316951566,-0.2140657201514208,1,left
10.876,0.11240337141116294,1.030261230556788,-0.07111837389233168,-2.0528706975313815,0.12059222388857387,-0.437734756604877,0.16355424922089043,0.036934897111770795,-0.21343502711211815,1,left
10.877,0.11014292154528901,1.0334381744643835,-0.07444508850517426,-2.0651703009378375,0.12100875391645938,-0.44070091082974816,0.16309873384903756,0.03676464488309189,-0.21253695619225393,1,left
10.878,0.10740505405105367,1.0361145276345476,-0.07393669452444591,-2.0567208022163683,0.12049047765423124,-0.43861318565694163,0.1648552452188234,0.037189031411799786,-0.21588732439934724,1,left
10.879000000000001,0.10678492464767148,1.0333161268591908,-0.07452473323191694,-2.0609765898647967,0.12136882420630471,-0.43979764942298005,0.1616404606610482,0.03645980822696344,-0.20977861951807658,1,left
10.885,0.109975614330025,1.0281148852573274,-0.07849183030090578,-2.0596799608954375,0.11987570649024569,-0.43917300733866144,0.16575896561933026,0.03738330252442355,-0.2175991767004597,1,left
10.885,0.1129171992950482,1.0241440115472273,-0.08369899296832484,-2.0595957825644517,0.12197995928805856,-0.43960606702208294,0.16232424763831127,0.03661738547509848,-0.21107940640957362,1,left
10.888,0.11584491625835804,1.0202844776635223,-0.08670035117728506,-2.060061082224743,0.11975981436404434,-0.4392374509580068,0.1624029455106848,0.036618398777973,-0.2112200844069511,1,left
10.889000000000001,0.12019764973680239,1.0184834645643157,-0.08363752560694053,-2.059199083524513,0.12100624714675436,-0.43930349336278474,0.16899962659510137,0.03814393853783832,-0.22376998652859575,1,left
10.892999999999999,0.12474663736607333,1.016299277097317,-0.0730294011777719,-2.0613953444387008,0.12226053614940112,-0.4400877751882398,0.15280209649443818,0.034417214093848396,-0.19296548289449694,1,left
10.894,0.1362776292046498,1.0118117542287228,-0.055389342654302204,-2.0565937834905217,0.11706577149814042,-0.4378463762302614,0.17965467732756668,0.04059079218590714,-0.24403061771409323,1,left
10.898,0.14719018782235693,1.0095260762927198,-0.043794245240348514,-2.0646311013346725,0.1266460982927407,-0.44178767136255515,0.14423595356330887,0.0324478698171149,-0.17667610821602506,1,left
10.899000000000001,0.15015384862880163,1.010360112385737,-0.03970148915700379,-2.0545040587984262,0.11435679825387493,-0.4367757858239817,-0.0044354094068734945,-0.0017470998542828417,0.10607470858932644,1,left
10.9,0.1624525315439683,1.0101486968618976,-0.02554375295470763,-2.0628821543476485,0.1246111026154731,-0.44093932364061694,-0.03985532356982936,-0.009892114931148069,0.17343311880170215,1,left
10.904000000000002,0.1804491871368116,1.007540218300875,-0.011439844543495238,-2.0629524850514196,0.1243534021486694,-0.4409040588736482,-0.013003942071158925,-0.003717970857588412,0.1223664196711042,1,left
10.904000000000002,0.194545884940293,1.0055575877296246,-0.007708413734461847,-2.045997350236216,0.10473661879281379,-0.43271333265778533,-0.029192172361584785,-0.007437819125783212,0.15315991054066044,1,left
10.908,0.21131820867773385,1.004397053900776,-0.006410262613331872,-2.0873258521354288,0.15292771819499734,-0.45275169344510513,-0.02261792607714021,-0.005932190425862007,0.1406434023766533,1,left
10.909,0.2290626606280617,1.0041439601071263,-0.01091235882906624,-2.0188843524331412,0.07303239908429696,-0.4195539047649832,-0.022503090617432588,-0.005896620310488342,0.14044382995424434,1,left
10.913,0.23995767786544614,1.0047699092861415,-0.01588363245728605,-2.1091600938692947,0.17841135677998365,-0.4633357955144526,-0.025979908186873457,-0.006705452283747096,0.147037669479807,1,left
10.913,0.2436273386137599,1.005926002093548,-0.0160323638095881,-2.4884234617265673,0.6207889931780597,-0.6472633939185034,-0.021831614969819557,-0.005747508316563055,0.1391563121458249,1,left
10.914000000000001,0.25030772654578937,1.0090773477290464,-0.020266268299334013,-2.578752031042122,0.7261668266302415,-0.691047888716484,-0.02503671999565111,-0.0064762116604180015,0.14526718989787268,1,left
10.917,0.25876524905795695,1.0111383829788032,-0.025441361223931112,-2.5102533697497846,0.646272723982584,-0.6578472819623489,-0.02335770859906311,-0.006116856365189724,0.14202447432102633,1,left
10.918,0.26261991814908264,1.0109951542417321,-0.023811283991141192,-2.5515601520229803,0.6944642856313471,-0.6778845735520778,-0.023652898150076526,-0.006138610701394494,0.14267114927082997,1,left
10.923,0.26353649853541516,1.0113474210140923,-0.017495159513097748,-2.5347945713932285,0.6748434682717788,-0.6697031880974034,-0.02423880345721114,-0.006330004987134269,0.14368085698053007,1,left
10.924000000000001,0.2633148188468786,1.011023152040536,-0.01033411259631457,-2.5344570267807938,0.6745944479816913,-0.669647822274962,-0.023341602196679186,-0.0060784819976654894,0.14205788342049813,1,left
10.927,0.2641223929943096,1.0107967440428522,-0.003596388484417393,-2.5434199532292725,0.6848363063241523,-0.6738401835110995,-0.0240887368985045,-0.006249901372576565,0.14347951746152426,1,left
10.927999999999999,0.2638096092772212,1.012180607567532,0.00096825792602417,-2.532710515615787,0.6725594004313151,-0.668799592633621,-0.023772525952175383,-0.0062610954720569885,0.14272361814571372,1,left
10.932,0.264293213625329,1.0118764223458223,-0.0014444440653152678,-2.5409991735964983,0.6821343784374669,-0.6727532795827136,-0.023568666261381148,-0.006022401620700449,0.14268904736797855,1,left
10.933,0.26647167955733864,1.0113883513062905,-0.008720742777327812,-2.536697612812366,0.676928972962604,-0.6705365164233932,-0.024199084412989475,-0.00645358149568768,0.14336118707080933,1,left
10.937000000000001,0.2688225586918012,1.0131580522712622,-0.014643424768804078,-2.5372830479809254,0.6782175427185161,-0.6712414158206303,-0.02340764358356001,-0.0059664138009659085,0.14241758134947968,1,left
10.937000000000001,0.2732403857851883,1.0152835737439414,-0.020661390944180624,-2.5391966750941117,0.6794049062285217,-0.6714442509073499,-0.023945000051045856,-0.006266405597392858,0.14311506604452823,1,left
10.943,0.27639041758284366,1.0201503927648738,-0.026086541318965865,-2.5362554739783967,0.6772572563382215,-0.6709077416643182,-0.02415930389388035,-0.006467479151789999,0.14324292610232942,1,left
10.944,0.28328259546388057,1.0273000333573112,-0.029294792700928163,-2.538887289449845,0.6793037092778138,-0.6714746751866846,-0.02276219418784315,-0.0054812740037183585,0.14180998437237333,1,left
10.947000000000001,0.2940472435974819,1.0342044217281732,-0.035893229734391664,-2.537614480286291,0.6778100841044454,-0.6708511771199743,-0.025461645627007347,-0.007335405571260868,0.14467374644986752,1,left
10.948,0.29936662143453585,1.0428817163936703,-0.04866430667328754,-2.5368309823038793,0.678795674409074,-0.6717873188838756,-0.021956314003034973,-0.004945372182474915,0.1409221531810056,1,left
10.952,0.30495274900718755,1.052410729597332,-0.06091397501920606,-2.539898623283504,0.6780322966724036,-0.6702671809023724,-0.02489926329432684,-0.0069448342753356904,0.14408561168302436,1,left
10.954,0.3129668235301172,1.0562406537663702,-0.06380087688505143,-2.5350159683194082,0.6788144893508827,-0.6723865161938354,-0.024794141297508187,-0.006884095772117129,0.14395152320977983,1,left
10.956,0.3207010629448292,1.052959723519293,-0.06255569721600415,-2.5402784286141538,0.6780470719102358,-0.6701550296949241,-0.019250265524573113,-0.003088871496317434,0.13804833786805873,1,left
10.957,0.3309847061814364,1.04665270024678,-0.05751298758061477,-2.537147225707299,0.678385620581627,-0.671400600070734,-0.03291327168304904,-0.012427190626059589,0.15262777295788188,1,left
10.964,0.33937382293171187,1.037007144014871,-0.03719456428959727,-2.534895243918798,0.6791969081922686,-0.6726907762134842,-0.010245467551601472,0.0030608164365820813,0.12842788036866087,1,left
10.965,0.34190393809569153,1.0308414678086066,-0.02232247367652913,-2.5454839383325085,0.6764965724836839,-0.667398954392971,-0.040149266912432056,-0.017370786872346722,0.16035714437820914,1,left
10.966,0.3421044007749703,1.0284098435770161,-0.017423512782345576,-2.5257138263348224,0.6813509454519961,-0.6771484136586562,-0.16565060843204074,-0.10312755029104081,0.294342576380824,1,left
10.967,0.3440778745476576,1.0210999481883534,0.006262507217795471,-2.551130864184346,0.6751520669552691,-0.6646444148540358,-0.19555550673230526,-0.12356561317204755,0.3262740905220008,1,left
10.967,0.34927568398523356,1.014570149752624,0.03436918371221527,-2.529896899178036,0.6803133610467534,-0.6750768979409238,-0.17288339828987037,-0.10806563177103119,0.30206572855407826,1,left
10.970999999999998,0.3578083836465319,1.0073129769106879,0.05477832882155235,-2.530523668660515,0.6802268933514424,-0.6748183581712379,-0.18655698682296518,-0.11741895157525375,0.31666561344207467,1,left
10.972000000000001,0.36468751992414306,1.0002037834376178,0.0750913919238681,-2.5708470029910844,0.6702104926040118,-0.6548488749375347,-0.18099430615467066,-0.11361050484687178,0.31072643545502054,1,left
10.975999999999999,0.36765061477045957,0.9977701565782493,0.0895595132680243,-2.471671205206859,0.6947670675579618,-0.7039021313032301,-0.18091444764755768,-0.11355389488226711,0.31064034952810937,1,left
10.977,0.3760101366443857,0.9907790087560095,0.10588662997116456,-2.6361311196922745,0.6540670264570478,-0.6225784204925795,-0.1838333416213755,-0.11556691013649825,0.3137585523072449,1,left
10.982000000000001,0.38453067652806205,0.9857376321231414,0.11814373124052154,-2.4192022441374426,0.707749191563134,-0.7298418814364338,-0.18033676581541613,-0.11313905584741338,0.310022582812694,1,left
10.982000000000001,0.38685935229341994,0.9841220269551554,0.12008540246030723,-1.5088954512264237,0.9331486958561308,-1.180157114680636,-0.1830606619527945,-0.1150546797606799,0.31293427547245084,1,left
10.982999999999999,0.39940057028823334,0.975351329772524,0.1267894313543296,-1.291979265998363,0.9868374577554089,-1.2874251037404916,-0.1815910016050408,-0.11399685574124896,0.3113619397664016,1,left
10.985999999999999,0.4219751208520564,0.9660418095592184,0.1339865106035757,-1.4564018707092297,0.9461311256576854,-1.20609068141591,-0.18192713207409195,-0.11424956544870676,0.3117220984166781,1,left
10.987,0.4411322808309627,0.9582699663185668,0.13796743512971643,-1.357304370756322,0.9706819884504538,-1.2551626621254321,-0.1823180915313765,-0.11456222324905334,0.3121423619509369,1,left
10.992,0.45771215088028305,0.9514190073798153,0.14136242485711736,-1.39750106489379,0.9606954426722283,-1.2351669863358565,-0.18163886069756444,-0.1139516121787297,0.31140830488329196,1,left
10.992,0.47169486116067777,0.9486659898684561,0.13986367190657434,-1.3982852873855505,0.9605488668063987,-1.2349364484279735,-0.18228060450788552,-0.11464233164804868,0.31210861421593356,1,left
10.997,0.48123005197244395,0.9481444427743371,0.1381476020199368,-1.3769176603988607,0.9657930384459815,-1.2453514836148987,-0.1818448049949235,-0.114035155936626,0.31162480913578205,1,left
10.998,0.4869244323291532,0.9534344078996545,0.13855873949948383,-1.4023527642766866,0.959515759918462,-1.232836503549032,-0.18203996325987298,-0.11441512279837088,0.3118479102683376,1,left
11.001,0.4855418761890049,0.9644373147902657,0.14024489813957713,-1.38278846947689,0.9643962941993509,-1.2426433564574348,-0.182039179149082,-0.11441673764399984,0.3118472138445771,1,left
11.002,0.4772690771996841,0.9745046373160726,0.13810018926385398,-1.392869437246277,0.9617809477419226,-1.237239633868951,-0.18192091759950824,-0.11387849725260633,0.31169360095579723,1,left
11.005,0.46943247425467016,0.982660468675277,0.12049068331777277,-1.3914061890395042,0.9623488542671144,-1.238681538607482,-0.18208824727262776,-0.11503824909620677,0.31193473770638586,1,left
11.005,0.465272231785813,0.991155307006615,0.09345587522077534,-1.3873967096273412,0.963089503986216,-1.2397841777141574,-0.18192338621996262,-0.11336599115387513,0.3116655065222407,1,left
11.01,0.4625046805178399,0.9988528663118413,0.06888481243624249,-1.393226451821435,0.9618469334949338,-1.2376022449330142,-0.18204959448232128,-0.11511485278900915,0.3118996355233546,1,left
11.011,0.4609377599875329,1.0029257439590173,0.04349754427942393,-1.388654415734642,0.9629805598358476,-1.2398701242604035,-0.18199247881403147,-0.11411506886387837,0.3117812020904812,1,left
11.015,0.46150504585390606,1.0078828597265312,0.02277164558444997,-1.389968356977382,0.9622833568287892,-1.237918340958804,-0.18194992616364886,-0.11325810004338024,0.31168634651927885,1,left
11.015999999999998,0.46466156422312066,1.0165410557116923,0.0178965586245836,-1.3926385187707573,0.9624721318548815,-1.239572239994124,-0.1821172999673204,-0.11699634666011835,0.31208156090384853,1,left
11.02,0.46866351776688575,1.023914017996194,0.02067100388939415,-1.386657521823381,0.9626851942818497,-1.2380934247235507,-0.18182502888051516,-0.11007585497375905,0.31136789203914417,1,left
11.020999999999999,0.46852859909737754,1.0325093880184117,0.024418920392728048,-1.3937640414630128,0.9622770403467701,-1.239307988250187,-0.18218780062490458,-0.11895382161073795,0.3122710085001408,1,left
11.026,0.4638478415741403,1.044234537767069,0.02782538731420596,-1.3891683438834912,0.9626342332435973,-1.2388490957294367,-0.18189032785656606,-0.11154531206107281,0.3115226438729929,1,left
11.027000000000001,0.45681059433477683,1.0543352472676206,0.034162570842673726,-1.3867288677540464,0.9625648692725839,-1.2376984027267546,-0.18189941391777817,-0.11174755820743273,0.3115443632793311,1,left
11.032,0.4449133753922446,1.0618626739950972,0.05004875229222322,-1.4002127001258748,0.9621723999120316,-1.2413409493170433,-0.18245434107273323,-0.12586319935383977,0.3129573381553679,1,left
11.033,0.42714820481342164,1.0669229551738164,0.06032668970639557,-1.3745443195763523,0.9630646815765452,-1.2349154909692248,-0.18109292368184066,-0.09116844623981755,0.3094864210882491,1,left
11.035,0.4079428723362627,1.0720336334586484,0.0671673969577237,-1.4077413406137702,0.9618597037665566,-1.2430466125971695,-0.18334722104562157,-0.14869319438677922,0.31523862854900686,1,left
11.035,0.3971730001550572,1.0750451429278702,0.0773494393625292,-1.3799283631834172,0.9628906679954633,-1.236309907093407,-0.18037611597594322,-0.07281893517301852,0.30765360173908296,1,left
11.036,0.3953253070925812,1.076596507810621,0.08131684468630122,-1.3808308186813725,0.9628243074734231,-1.23641161943677,-0.16792321380735306,0.24561947243664706,0.27584565524822846,1,left
11.042,0.3883932413308251,1.0867145133455618,0.10293716313911017,-1.4334648177237115,0.9609607863555301,-1.2494706944007121,-0.16495486463176476,0.3214907163991389,0.26826396057585983,1,left
11.044,0.3790979963497122,1.0986189495242318,0.13157724501830592,-1.303884084131366,0.9655966314584384,-1.2174917208447864,-0.16720349148508676,0.2639749810491847,0.2740083469763285,1,left
11.044,0.3782599289370959,1.1046861531970218,0.1302590485955603,-1.5188103300005715,0.9578893356536317,-1.2704668395771508,-0.16585046389367433,0.29865060653438835,0.270550991587731,1,left
11.045,0.37962570764476933,1.1081514489300714,0.12352085423757031,-1.2353024789460303,0.9680626516423715,-1.2006136226080724,-0.16639564737155588,0.28456613538272285,0.2719451396803365,1,left
11.049000000000001,0.3801168766153907,1.109047812432384,0.12244468838827013,-0.04529300918220486,1.0107373545772882,-0.9072833769194064,-0.16641258114675644,0.28432487593140443,0.2719868005857584,1,left
11.05,0.3816381483798166,1.1116758320897033,0.11101174847651409,0.23820439318564424,1.0209116517678531,-0.8374417994064732,-0.1661143583054233,0.29176686300477717,0.2712263101521085,1,left
11.05,0.38050909087661045,1.1138568987229536,0.09963478177167431,0.023271409091315073,1.0131988290058649,-0.8903954021017799,-0.1664647584075079,0.2828836143271831,0.27212093282773,1,left
11.055,0.38032007481425445,1.1112750294180531,0.09137422153155556,0.15292035110613536,1.017850086777265,-0.8584432441573996,-0.16620218734633604,0.2897542880295224,0.27144912519674247,1,left
11.056,0.3877928983747168,1.107574440231319,0.08508693250881963,0.10011709870782973,1.0159574799731348,-0.871478934564425,-0.16632404687165053,0.2861406227664265,0.2717636173911,1,left
11.059000000000001,0.4007511927539913,1.1043905261703548,0.08841581430890419,0.0994907933342635,1.0159319174791324,-0.87158743289992,-0.16633153630459174,0.28680280026763433,0.27177737653696377,1,left
11.059000000000001,0.41353626912760655,1.1030971516123342,0.09403655569817798,0.12697829711156994,1.0169218257066637,-0.8648758472933148,-0.16624301279306258,0.28802097824869144,0.27155774646146846,1,left
11.065,0.42396452448941746,1.099819803560615,0.09762012475119336,0.09401735696111893,1.015735946841252,-0.8729384243777192,-0.16634956561574676,0.28612859619455827,0.27182480286755856,1,left
11.065999999999999,0.4357165703127892,1.0934049475725685,0.10882232637887121,0.11974732801135823,1.0166604401551536,-0.8666233758507595,-0.16628729874570064,0.2877292740472114,0.271665646333569,1,left
11.069,0.4485476414721372,1.0901468501418325,0.12225293427500894,0.10568413134408518,1.0161583582525768,-0.8701385216113929,-0.16625547926821505,0.286997087039886,0.2715939617952037,1,left
11.07,0.45654047824480704,1.0891509584463468,0.12005204120646552,0.10934193715500243,1.0162817262634278,-0.8690777823745672,-0.16640572220084587,0.28668577623571256,0.2719559275086598,1,left
11.075,0.46059117489699675,1.0903487098424667,0.10174228611330956,0.1122062651993354,1.0163978741309199,-0.8686458165221831,-0.1661543151191097,0.28784912660313305,0.2713461948795808,1,left
11.075,0.45969603243575174,1.0960085219723261,0.08297818185535014,0.10683387380733174,1.016188851875948,-0.8696341219703894,-0.1664322599713242,0.2863531817024959,0.2720216576363696,1,left
11.079,0.4497769189535836,1.107140802403114,0.07088014371087278,0.11201609498833692,1.0163876268809264,-0.8686243767671674,-0.16626505020114307,0.2873891208628041,0.271614351558248,1,left
11.08,0.43337770069301895,1.1256094487084085,0.05770170970624897,0.10799477353413237,1.0162436458626052,-0.8696177829431133,-0.16614147794994555,0.2877486443757634,0.27131618075199654,1,left
11.085999999999999,0.41138007111669617,1.1470667859749806,0.043758907792206404,0.11124695250242315,1.016336148856396,-0.8683205729464577,-0.1667201546043393,0.2851909211949317,0.2727186900314813,1,left
11.087,0.38550035536539834,1.1660848094532767,0.03741254648606601,0.10782070753191159,1.0162681082794638,-0.8702976234959146,-0.16563815343257915,0.29016690239740317,0.27009479270103665,1,left
11.09,0.36072155718301047,1.1800870905358114,0.0334679815679213,0.11197250278892103,1.0163354892826715,-0.8675849257212942,-0.16703052993819695,0.2836934863359698,0.27347209588853477,1,left
11.09,0.33893049879428566,1.1886691021413283,0.024780139511947907,0.10772550960740152,1.0162697180027584,-0.8704323780126574,-0.1658670644430837,0.2891335797377543,0.27064941127931647,1,left
11.093,0.318349170215774,1.1920825721043784,0.004563553685041303,0.10989680209933791,1.0162981798177055,-0.8688571174352392,-0.16589990773353763,0.28893093583075247,0.2707303725091893,1,left
11.094000000000001,0.29996112614870973,1.1911455958342898,-0.018271071919499737,0.11316764918719673,1.0163710445702754,-0.8671533837819483,-0.16811457317270206,0.2787048825622069,0.2761002675051586,1,left
11.097999999999999,0.2860708960507476,1.190427653365724,-0.02841255836915744,0.10114373030647483,1.0161304109521505,-0.8740429792185167,-0.16266973701688414,0.30391993811093265,0.26289569046090927,1,left
11.1,0.2701769256281732,1.1924442366560057,-0.04378787700853695,0.12302802808259225,1.0165634368648417,-0.8613691571060412,-0.17169737197133755,0.2620809997983019,0.2847909609096976,1,left
11.104000000000001,0.25824733018875223,1.1959724269584873,-0.05895179424456995,0.09502139539638232,1.0160091847204267,-0.8776189207166148,-0.1597910289224697,0.3172788128541456,0.25591181366076987,1,left
11.105,0.2544599872151301,1.196502862648087,-0.0658062867969001,0.11836345759515648,1.016472782551274,-0.8640637741911512,-0.10980791860593621,0.5489198150394443,0.13468700956727359,1,left
11.106,0.24280737760166518,1.1980541088631464,-0.08689136446087443,0.11787956701432142,1.0164603243691448,-0.8643913040867892,-0.09790531212031417,0.6041239341025986,0.10581196349643088,1,left
11.109000000000002,0.22883969866506765,1.2057862089539595,-0.10243203472052703,0.07288939044489554,1.0155713927424084,-0.8903637884737462,-0.10692731853481141,0.5622697069879947,0.12770136564949214,1,left
11.11,0.22524290904434008,1.2145295763747246,-0.10544553995563885,0.18329189420440128,1.0177607580898789,-0.8265764990286657,-0.10148656182213184,0.5875121548429015,0.11450016993958453,1,left
11.113,0.22682633724377288,1.228362025595255,-0.11778003484495045,0.00028989151042779077,1.0141236954541717,-0.9323214012298515,-0.10370305735332555,0.5772469116170442,0.11987433349530632,1,left
11.114,0.22873731419031373,1.2395109248544842,-0.12654233912499463,0.24165761530906205,1.0189305124864019,-0.7928526616619884,-0.10372422671710262,0.577087289261232,0.11993912895770593,1,left
11.118,0.23140753007587214,1.24243328228004,-0.12852673113124263,1.255042162983364,1.0390623465607802,-0.2073434598809668,-0.10258369323381811,0.5824987644559112,0.11714521245473661,1,left
11.118,0.23536723430982667,1.2591942078970426,-0.13348873128144767,1.4964084584918793,1.0438947990425027,-0.06788923539929867,-0.10394549690467124,0.5760125431540757,0.1204868860297756,1,left
11.119000000000002,0.23724654444948923,1.2888335290174933,-0.13637754016389614,1.313417547977215,1.0402179781430676,-0.1736092643344227,-0.10289105623170297,0.581070748713557,0.11789132967825136,1,left
11.123,0.23441113162459448,1.320229174084329,-0.13686398267155064,1.423786824291868,1.0424393781928005,-0.10984847842363381,-0.10346287498459197,0.5783472865022392,0.11929455235062775,1,left
11.124,0.22712427312988948,1.3576259564173174,-0.13351350480737117,1.3788612347832687,1.041554659283006,-0.13580610265966175,-0.10330443529162232,0.5789366556448465,0.11894268060313097,1,left
11.127,0.2185629634949896,1.3999579630181165,-0.11597239488282692,1.3782849502459604,1.041474487198371,-0.13612087672325435,-0.10322963310658775,0.5797491663348204,0.11865707799079878,1,left
11.128,0.20521506853410076,1.4465089202381307,-0.08389264655308834,1.4017221983160493,1.0420821302027938,-0.12261983146126983,-0.10335984863952277,0.578344122310001,0.11915221067923266,1,left
11.133,0.18178326816115262,1.490710954441602,-0.05265885925146963,1.3736673594976958,1.0413257820258788,-0.13877098654408826,-0.10327747272791477,0.5797088481351296,0.11873248728990979,1,left
11.134,0.1545476150113721,1.5208514181753274,-0.03271417490167576,1.395485956734316,1.0419549388289537,-0.12622278802517684,-0.10331126819535465,0.5787688909422223,0.11898974090210607,1,left
11.138,0.1292326942256482,1.5404175189971547,-0.024466528951848206,1.3837027604261674,1.0416368344592049,-0.13300562418454293,-0.10323630157720784,0.5791093794606259,0.11880946903982058,1,left
11.138,0.11291268217464702,1.5586619462737485,-0.02718991290268244,1.386541066130797,1.0415274497989753,-0.131316475261367,-0.10348670630809906,0.57940190802096,0.11909162523128042,1,left
11.142999999999999,0.10967144794300325,1.5765559453510392,-0.03725537187377477,1.3892630149043363,1.0421150328274154,-0.1299030090753257,-0.10295504225974,0.5785454392015572,0.11854524036385915,1,left
11.144,0.11459633181843606,1.5973678104216447,-0.05433945745893102,1.3845468659155804,1.0411028615989468,-0.13235344312422487,-0.10375760899660724,0.5797793705816472,0.11938319985887784,1,left
11.147,0.1287619732870041,1.6253187542356204,-0.07828157293979005,1.3887640937489003,1.0423133786913779,-0.13025364981956872,-0.102889553964052,0.5785219924571309,0.11845959311374718,1,left
11.148,0.15059241608444826,1.660160886626993,-0.09633792077846398,1.386048674364214,1.0413611191891308,-0.13155404109875257,-0.10339098188343539,0.579249085264154,0.11899292540017463,1,left
11.152999999999999,0.1713135744234151,1.7016804601713744,-0.09144787235432178,1.3875503825482172,1.041383715414757,-0.13068398757360972,-0.10385095674165273,0.579747385164512,0.11951993567121384,1,left
11.154000000000002,0.1856244068040725,1.7463047887454266,-0.06361391978572573,1.3862406693945881,1.0430224752368638,-0.13193896975840247,-0.1018737862594362,0.5774003838322193,0.11730058171333055,1,left
11.158,0.18760521187909174,1.7932136947354036,-0.026695339626409464,1.3884113839847263,1.0392598657783758,-0.12954615537783296,-0.1055386935622157,0.5817610623807259,0.1214120312282872,1,left
11.159,0.17448597410667452,1.838829487055469,0.008051583386261219,1.3849816341264405,1.0448701753312748,-0.133226345765562,-0.1008304410250172,0.5761726067296817,0.11612723511257546,1,left
11.161,0.15129879522818723,1.874334467573981,0.029604016748337132,1.3888919326251101,1.0388932880927673,-0.1291564770543227,-0.10476226076488052,0.5808328319520455,0.12054155865721199,1,left
11.162,0.12155697267885227,1.8992804502355465,0.03715743002581921,1.3866341679256697,1.042348919637127,-0.13150690773184298,-0.10465847961579192,0.5806944618314891,0.12042988857225333,1,left
11.165999999999999,0.09053338521610724,1.9118684786170441,0.04041357630476723,1.384129178244764,1.0453098452620715,-0.1338565345150452,-0.09714964172359111,0.5718624236486701,0.11198033438350526,1,left
11.167,0.060714697766423804,1.9113780563133362,0.040466133334365,1.394371753178902,1.0323227953014693,-0.12399112873711089,-0.11560356998356222,0.5935790742234696,0.1327421515037583,1,left
11.171,0.03167379545714957,1.9017892510992618,0.03620657198276786,1.3754098301501383,1.0564140857646338,-0.14226693154482395,-0.08500607519560952,0.5575723434328166,0.09831690510109413,1,left
11.172,0.01835738943755799,1.8909758188641859,0.03296253466588828,1.3998077891244338,1.0254745163083476,-0.11877168195054141,-0.12536372909074112,0.6050657132316946,0.14372853617097758,1,left
11.172,0.016551211878010418,1.8900009665890254,0.0305270538342978,1.3794128722327994,1.0513133029409185,-0.1384009360942049,-0.29473796217391274,0.8045273917967797,0.33446457884518954,1,left
11.175999999999998,0.01172927646429668,1.8780693174190377,0.021449404080168193,1.3799177896119104,1.0505905064322052,-0.13789908491714342,-0.33508821230998287,0.8520510615170709,0.3799050243949228,1,left
11.177,0.017915185021389498,1.850975885157486,0.00595768876720311,1.419029619627004,1.0013806518932276,-0.10033584945600758,-0.30450751727765896,0.8159751974150578,0.34541873394987355,1,left
11.182,0.038635521042974665,1.826083598383221,-0.019102430245039263,1.322918999371042,1.1223763513120533,-0.19264496310291002,-0.3229333598894628,0.8378081354250462,0.3662744898362664,1,left
11.182,0.06863522245203738,1.7767320844220027,-0.053505446614927954,1.482294834880745,0.9217311910426932,-0.03958356506935469,-0.3154621331915093,0.8288193967030449,0.35771023847416583,1,left
11.186,0.09114310552297175,1.7342116044762899,-0.07223332210371783,1.2720525281462027,1.1864026262557947,-0.24148381406355035,-0.315320303769563,0.828840858578193,0.35769964605213855,1,left
11.187000000000001,0.09837530669593579,1.7220246478976993,-0.07614338844609843,0.3897529289905034,2.296699193380745,-1.0889128644720252,-0.31927235042259855,0.8334138837647684,0.36208569678229635,1,left
11.187999999999999,0.11775064677350949,1.674339151610304,-0.08882667213579538,0.17950012750185654,2.5613460809753725,-1.2908215444381805,-0.3145868307959272,0.8277349417448923,0.3566833518146063,1,left
11.190999999999999,0.13662835427878922,1.6065011323680736,-0.10012133694576295,0.3388559365322018,2.360810892831698,-1.13776101097098,-0.31816231721148935,0.8324639195047638,0.3611160731914498,1,left
11.190999999999999,0.13329562164321096,1.5531893920455313,-0.10177761815896613,0.24286078761712424,2.4815212416493506,-1.2300312834532643,-0.3163490619851289,0.8294359727810264,0.35837426845531073,1,left
11.196,0.11717541369280239,1.5003849221705767,-0.09769466763866176,0.2817058006455409,2.432832391259504,-1.1925712284288512,-0.316596624574691,0.8308225241109146,0.35951170194170284,1,left
11.197000000000001,0.08579351305968416,1.4610492715442782,-0.08180918474201493,0.2826317215904468,2.431395505574067,-1.1918960877923075,-0.31728483874811886,0.8307602893450323,0.35960224256952034,1,left
11.2,0.04166128314584738,1.4373326366367265,-0.05909977150172078,0.26175573246290285,2.4579323691937534,-1.2117348019558696,-0.31637794803834185,0.8296841686015328,0.3585750816312446,1,left
11.200999999999999,-0.010757199930003757,1.428133200746602,-0.038618365875806415,0.28647965157182087,2.4267045922229826,-1.1880796890869438,-0.3169268664828905,0.8319506871874017,0.36046261378043504,1,left
11.206,-0.0690807782566614,1.4353129169560974,-0.02169679959315712,0.267661354091958,2.450164583585447,-1.2063340111521108,-0.31704848235950617,0.828392211529051,0.35769843727048245,1,left
11.207,-0.12191599003783685,1.4500103368038806,-0.0015783326236182916,0.27696900633314336,2.4391662286966085,-1.1968143137594227,-0.3162650076214033,0.8329912750991699,0.3611442263814687,1,left
11.21,-0.16463574838743755,1.4707475201911873,0.032330218838580546,0.27634875111879353,2.438716559077287,-1.1984089185886928,-0.31736524233556523,0.8284013855232206,0.3577692960071591,1,left
11.210999999999999,-0.1900037085298258,1.4886196521795139,0.07309283303631423,0.2714833256972331,2.4463481524586763,-1.2018566732051288,-0.316594526921962,0.8308932458305426,0.35956750037903773,1,left
11.216,-0.19154312808485874,1.4960646985429444,0.11086067146565996,0.27791426517293505,2.437052503808392,-1.1966564099929982,-0.31621399005148954,0.8333793134488947,0.36143658508545357,1,left
11.217,-0.1734966711507083,1.4929977668014174,0.14070527006509664,0.273490540675834,2.442609991609194,-1.2009145315338525,-0.318478570139634,0.8232126234824584,0.3539299975393354,1,left
11.22,-0.14426649861011082,1.483350847067834,0.14718778557071194,0.2733137440595159,2.445060406115425,-1.1992713629168894,-0.31410454277301175,0.8418582662605818,0.3676552328965432,1,left
11.222000000000001,-0.11711080955049916,1.4791530768090864,0.1300336980632955,0.2792150883669448,2.4325407963962222,-1.1977453004169507,-0.31979775323935145,0.8180099241714174,0.35011727217450395,1,left
11.225999999999999,-0.0968828962777484,1.4786970934553318,0.09934249030943193,0.26847598940211037,2.453654538477946,-1.201881770102025,-0.31501310956039297,0.8378778375153532,0.36472392775968077,1,left
11.227,-0.09803475076526236,1.4914850447329417,0.06113659543930958,0.28063124127832745,2.430255384574602,-1.1967917320044121,-0.3151677307573817,0.8373800768997193,0.36435511926465863,1,left
11.232000000000001,-0.11675725979862606,1.5182048735059164,0.029391195373713933,0.2731353010224903,2.4443730523813016,-1.2001889008611308,-0.32424643886084403,0.7994187646191127,0.3364570244924594,1,left
11.232999999999999,-0.14206527353326043,1.546072297936286,0.009382887192504267,0.26814300294968935,2.4546845344555197,-1.2016991768807692,-0.30188812817304045,0.8926495815237532,0.4049812519958905,1,left
11.235,-0.20232134620768774,1.6007330583890207,0.000798760426831828,0.2927004371752134,2.406128655910682,-1.1924733262654086,-0.3389776703710991,0.738107900951112,0.2913827739851958,1,left
11.235999999999999,-0.25002786967697715,1.6471306835912005,0.0010028357307109628,0.24652146018056217,2.4969854890287406,-1.210200592756311,-0.2900517529678952,0.9419219224037403,0.4412163253419706,1,left
11.24,-0.26521403520363374,1.660393656891689,0.004008789509635234,0.306042694948073,2.3800296586596836,-1.1872156418248183,-0.08464467728191209,1.7974879317467125,1.070077133672492,1,left
11.241,-0.32927864307222593,1.708331542152005,0.005209216445356031,0.2562634446107922,2.477792496040532,-1.2064978984715906,-0.0357305312292322,2.0012651928396226,1.2199330192306375,1,left
11.242,-0.43287818379171716,1.7865666175137247,-0.006929117645001172,0.25773853557970916,2.474958672483573,-1.2058329370689735,-0.07280598293489601,1.8467860509616612,1.1063044823677513,1,left
11.245,-0.5353551320382662,1.855360451900832,-0.038733269316459124,0.3523115981018169,2.289044676252187,-1.1694466348223602,-0.05044762655452333,1.9399513553993821,1.174840398555453,1,left
11.245999999999999,-0.640343532528117,1.9221389417366153,-0.07368909052675536,0.11969135607522685,2.7462685706308116,-1.2590854031860783,-0.05955868915940346,1.9020243599284061,1.146979414840342,1,left
11.25,-0.7446072575961475,1.9914054225409938,-0.08070836206529367,0.5054329176391759,1.9880704680114178,-1.1103842120706655,-0.05963708626834325,1.9015638244995787,1.1465019997803017,1,left
11.25,-0.8054640446309409,2.0319124359932106,-0.07053204741549622,-0.003352086946865479,2.9881638602795624,-1.3065458806421335,-0.05496702603432498,1.9212894461892922,1.1612874015981158,1,left
11.255,-0.8196926706445171,2.0412418032876154,-0.0657342810342342,-2.1392661215042477,7.185937198342236,-2.129855326771656,-0.06053951885231,1.89769386558085,1.143542678746249,1,left
11.255999999999998,-0.854920275419592,2.0658883769147316,-0.0491558883977322,-2.6479965563467713,8.186032124425903,-2.3260168831021044,-0.056229873650508765,1.916024193285732,1.1574105610867778,1,left
11.257,-0.884350800611575,2.0848579295041167,-0.03636219851893698,-2.262296534953852,7.427810353669007,-2.177299014474375,-0.05856976959268863,1.9061157159609838,1.1499583782396527,1,left
11.259,-0.8702826484332158,2.071242107641891,-0.048265414295672465,-2.495001220093986,7.8851115721104215,-2.266997331348489,-0.057897897792221695,1.9085876238414148,1.1514404168102108,1,left
11.26,-0.8273311259305081,2.0399875404959404,-0.059813744791718984,-2.4001045191771047,7.699042368307039,-2.230487956467666,-0.05765676383931254,1.910639727061695,1.1540256717704676,1,left
11.264000000000001,-0.7391609349454469,1.985766328002472,-0.054841203365567,-2.399240402576014,7.696435127999477,-2.230005850563605,-0.058077877571241,1.9070824480135187,1.149557390661364,1,left
11.265,-0.6147023271998039,1.9131143335155258,-0.03658356632757476,-2.448211991350207,7.793959048852726,-2.249091540194344,-0.057879211064045394,1.9101218658471262,1.1540649362037558,1,left
11.269,-0.4622881080022259,1.8306584447987049,-0.009061081426378554,-2.3894096414236934,7.677133760258752,-2.2262203752829137,-0.0579066225854889,1.9082448041417026,1.1508732206326155,1,left
11.27,-0.2819255037384987,1.7420802454492317,0.02878990562905452,-2.4354369755171454,7.768133647300865,-2.244050729910543,-0.057597487241659945,1.9095161879772136,1.151791805558779,1,left
11.277000000000001,-0.09133511820383414,1.6530116611025916,0.07599876675471434,-2.4098969069681258,7.719006251902389,-2.2343765005390646,-0.058833566817205966,1.9076399044614847,1.1537738277705436,1,left
11.277999999999999,0.10565489807891389,1.568746137301285,0.12920285831075912,-2.41742605177821,7.730368371513175,-2.2367278432836826,-0.05617561927905626,1.9112336501566236,1.1487340294945,1,left
11.279000000000002,0.30274753583237285,1.4943171351543567,0.18246226190602255,-2.4209077076475376,7.743124461590967,-2.239018317817452,-0.06017948061152807,1.9057107677548717,1.1561337672424705,1,left
11.279000000000002,0.49012522361084876,1.4266939481116576,0.22741008410171865,-2.4133000337954744,7.720919739172778,-2.2349227139114634,-0.05585992566372054,1.911812767903836,1.1484029593261889,1,left
11.284,0.6669214753399372,1.3697685215410405,0.2675051408277578,-2.420979796614628,7.741793278789141,-2.238809876825867,-0.05835517646422125,1.908288519083454,1.1528713689536776,1,left
11.285,0.8277242627286177,1.3254665804971415,0.301010475063361,-2.4137475373337294,7.727632086196556,-2.2360302251580855,-0.06062021978302632,1.9047783870377317,1.1563746494196514,1,left
11.289000000000001,0.9669415314807935,1.2897539795242152,0.32663517728314573,-2.4225927844027852,7.734289832322753,-2.2377208741010426,-0.05085508472798045,1.9195312309986485,1.140591697436026,1,left
11.29,1.0831388633761114,1.2631659033384373,0.35010239234256924,-2.40956981156385,7.733204568652294,-2.2366289132609447,-0.06895719632166193,1.8922002604998605,1.169883449266608,1,left
11.294,1.1716237554601365,1.2420319155258155,0.3650183671952507,-2.427274524437064,7.731439514546628,-2.2375940017752223,-0.04570381803379327,1.927336192818546,1.1323006898879409,1,left
11.295,1.2363486022212902,1.2273573572407428,0.37369932835572706,-2.4087232217964587,7.733951384841967,-2.236689043463076,-0.06512112400734024,1.897981675314909,1.1636630108073138,1,left
11.299000000000001,1.2760544531093636,1.2143585953962717,0.3805527300664804,-2.4189330572085894,7.7315044956186965,-2.237016239521363,-0.06460771309116438,1.8987340870714933,1.162778443173782,1,left
11.3,1.2877331146159259,1.1978894495158712,0.3811638730798266,-2.430251031034958,7.734326175422335,-2.2382668351582797,-0.027531308182710303,1.9549014749327656,1.10313099128365,1,left
11.304,1.2832969687778397,1.184416800957701,0.37794546006418306,-2.384841891870556,7.730048763891099,-2.234379676334229,-0.11865116571281918,1.8168709190241377,1.2497628922705708,1,left
11.305,1.2589663404099858,1.1609170984158963,0.37278495514749443,-2.4683051841666837,7.736524078368325,-2.241301468230567,0.032430335559513565,2.045747478075939,1.0066446932900626,1,left
11.309000000000001,1.2341347209269904,1.1380888606239177,0.37013790972794214,-2.3613076399200152,7.728536925357459,-2.2324789175516386,-0.1668480437323588,1.7438363703438893,1.327306025120009,1,left
11.31,1.2280119375287413,1.1328522291458087,0.36930247796928617,-2.450557036549074,7.735071690025996,-2.2398166358736904,-1.0033508430417033,0.47657487532787385,2.673198196313189,1,left
11.311,1.1978278495144687,1.1062119178519383,0.3681129502709216,-2.4484226984567172,7.735404689062473,-2.239721778493822,-1.2026332963835984,0.1746255656745438,2.9938444415558383,1,left
11.314,1.151654857461502,1.064112901072808,0.3711212544748431,-2.2773402310403728,7.72127349227668,-2.2253936729510726,-1.0515451666869842,0.40355271517771674,2.7507493690316873,1,left
11.315,1.119431685893399,1.0290949143521906,0.37738082146154267,-2.6974877244165913,7.75540350910762,-2.260484398098355,-1.1426712130701149,0.2655050854220624,2.8973633790136195,1,left
11.32,1.0713143247513597,0.9765232592603402,0.3903136503664803,-2.000981221538614,7.698972246550906,-2.2023396392571764,-1.105593214407689,0.32160297842925933,2.837711465548295,1,left
11.321,1.035051712322846,0.9416987735262964,0.40140285589371105,-2.919619868050983,7.773388353780606,-2.2790219474866626,-1.1050723998831509,0.32255008337152313,2.8368696888333345,1,left
11.323,1.0259186813540153,0.9338156533947239,0.40610059019231554,-6.776201125393361,8.086495253478045,-2.6010799061448964,-1.124508994255439,0.2928802535495677,2.8681440820662303,1,left
11.324000000000002,0.9885074029099107,0.897602359412823,0.4177254483449526,-7.694760179736024,8.1609625363522,-2.677753998563319,-1.1012255746112976,0.3283753430584899,2.83068207577304,1,left
11.324000000000002,0.9382162504833702,0.8540550295180294,0.4319122166475239,-6.998393989055154,8.104482528707148,-2.619628213504453,-1.119360768216655,0.30080551557009194,2.859860078673589,1,left
11.327,0.8970825168439469,0.8232488677725847,0.44799460059653695,-7.418382261309416,8.13856802613088,-2.6546865988003856,-1.1095750672002862,0.315443252531063,2.844115488869501,1,left
11.328,0.8448261629178375,0.7865297987412002,0.4658716935455456,-7.247409916509062,8.124668859297286,-2.640402648952016,-1.1118266036797602,0.312636444596777,2.847739562444024,1,left
11.332,0.7907476219195885,0.7567866911338683,0.48001500998246377,-7.245303037361052,8.124534929315818,-2.6402619825773854,-1.1143903976259595,0.3077115890723029,2.851861133760899,1,left
11.334000000000001,0.7405409814082922,0.734265584212624,0.49403018115729097,-7.334301373461904,8.131713304664554,-2.647625992276721,-1.1099386600127223,0.31573287859922883,2.8447032469994467,1,left
11.339,0.6875025713752221,0.7119028674571852,0.5081102374597554,-7.227818268090862,8.123117566528409,-2.638826464631272,-1.114119683078533,0.30838056986769724,2.851426294853902,1,left
11.339,0.6324473966977169,0.6973896793124563,0.5294574613472858,-7.310568515916797,8.129795459744123,-2.6456469478126063,-1.1112981148841201,0.31264679357547376,2.846886631775596,1,left
11.344000000000001,0.5836801285888831,0.6865218797787507,0.5569177918421093,-7.265849226182972,8.126178941586861,-2.6419505778805337,-1.1125843382867502,0.31258562137619134,2.8489634466140643,1,left
11.345,0.5456168806077553,0.6739765125478338,0.5835331923484186,-7.276891642613625,8.127109602507971,-2.642948803394127,-1.1124603769702621,0.30845901641322504,2.848746915479884,1,left
11.347000000000001,0.5124226744009148,0.6634952357104398,0.6125509168947858,-7.286471336466314,8.127785981283273,-2.6435052462659954,-1.111971087969752,0.3156374115098422,2.847985342715765,1,left
11.347999999999999,0.4869706079692106,0.6544875771182965,0.6368441976010379,-7.269866478119228,8.126608186067905,-2.6425372255266684,-1.1126180968199446,0.30779410775688704,2.848998855088588,1,left
11.353,0.46937394085749223,0.6444652386505796,0.6539272137012893,-7.2842674317205365,8.127570600146974,-2.6432266007031195,-1.1120462226209504,0.3126276763493823,2.8480947547273825,1,left
11.354000000000001,0.4537720821056807,0.635125845118166,0.6693796801531544,-7.275247136037946,8.127002418045148,-2.6428824451289232,-1.1125347205198368,0.3153020737166129,2.848894176451524,1,left
11.357999999999999,0.4401423873521535,0.6244889044408846,0.6805258280388218,-7.2809750312891754,8.127468451071003,-2.6433639085554175,-1.1120029066381854,0.30115323609199907,2.847978868181494,1,left
11.359000000000002,0.42695103443863863,0.6129288923736073,0.6888376968680049,-7.273550311757969,8.126563196281955,-2.6419862288061804,-1.1126997511354593,0.32783548995738426,2.8492109902888823,1,left
11.363,0.41197051534042306,0.6036703822340892,0.6968502626028887,-7.287386023689773,8.128378274613516,-2.6448738992695704,-1.1118692663972043,0.29347213720693954,2.8477320345581187,1,left
11.364,0.39647213091418,0.5951900233771246,0.7021102380789084,-7.266019125791447,8.125610782963495,-2.6405046520621775,-1.112537437978219,0.32220531174924083,2.848926686809567,1,left
11.367,0.3775325660069387,0.5857867207892505,0.708057904581475,-7.289761062665537,8.128640650109354,-2.645243831887279,-1.1126176961367842,0.32126275755980055,2.8490516109363115,1,left
11.368,0.3561390003685112,0.5759264039748969,0.7158712466970237,-7.276053809328969,8.126888109681587,-2.642504746228928,-1.111018504133246,0.26700496701690796,2.846252858714472,1,left
11.372,0.34032271547032034,0.5638143355962595,0.718996402144918,-7.262096573891693,8.12521248220719,-2.6399701521311663,-1.1148356405068056,0.4005679891335001,2.8529512288211314,1,left
11.375,0.31923710234406666,0.5447864683545055,0.7182261296994299,-7.320406906021722,8.132339424065202,-2.6508424572253784,-1.1085330259339217,0.17905009988082954,2.8418859653284656,1,left
11.376,0.2977360448118218,0.5300495092202926,0.7178697467108259,-7.212408793609219,8.1191258135602,-2.6306865070919407,-1.1168481010722717,0.47125263545003815,2.8564856415219935,1,left
11.377,0.2946776706545094,0.5267673169269971,0.7171295248852311,-7.351260076592363,8.136115217790351,-2.6565873454014426,-1.1518456981453418,1.6973438629392907,2.9179036018053948,1,left
11.378,0.28367623694576327,0.5141592217928945,0.7182423663730464,-7.235260686574302,8.121912662294513,-2.634949950651106,-1.1601806934942798,1.9895576474355727,2.9325378342453243,1,left
11.382,0.2602735485229678,0.48821602871927194,0.7217512451356137,-7.238172007188,8.122308442070732,-2.6355343308253465,-1.1538565240748309,1.7680275866623352,2.9214351784318664,1,left
11.383,0.2529096098814388,0.46924964550912607,0.7259720915519352,-7.460327721423294,8.149395216735044,-2.676829750302163,-1.1576654722018263,1.9015859831677262,2.928119345595664,1,left
11.386,0.25380170122799217,0.45241688189497953,0.7339728022743732,-6.914472881655529,8.082775777364326,-2.575311010350405,-1.1561377532544292,1.8473685569383005,2.9254445769938857,1,left
11.387,0.25625428543862727,0.42416928740112525,0.7431540467275295,-7.819537568026567,8.193273671706867,-2.7436578480094944,-1.1560642160792036,1.8463391494006505,2.9253027118036052,1,left
11.390999999999998,0.26048120036451705,0.4068081291056078,0.7487057815103104,-6.625709696721582,8.047493940073467,-2.5215874284403275,-1.1569529085927988,1.8751968575691613,2.926879904138978,1,left
11.392000000000001,0.2632838191025106,0.4024558456671135,0.7498706568694637,-1.613914792169806,7.4364057853158885,-1.5899132650632326,-1.1559028189985106,1.8407094908834978,2.9250199954134817,1,left
11.392999999999999,0.27366716543581227,0.3850466140430052,0.74652117545737,-0.4199942697454892,7.29065073014291,-1.3678543258576235,-1.1566944412589728,1.8674452626984583,2.9264165342157584,1,left
11.397,0.2897360539323055,0.3622120445214454,0.7435870950760683,-1.3252215593508443,7.4010158015239895,-1.5361276027064226,-1.15635115318253,1.8534028983210136,2.925828256748039,1,left
11.398,0.30819275486441033,0.34214525651029626,0.7412461030085421,-0.7791839616487829,7.334762104271539,-1.4348206974981377,-1.1562322692171116,1.8557342835237294,2.9255740539609736,1,left
11.402000000000001,0.3295555438247446,0.32458815035736377,0.7351566742076393,-1.0014625336398775,7.361162492875091,-1.4757108614311847,-1.156706989230194,1.861158894699395,2.9264854876930166,1,left
11.402999999999999,0.3517490563254313,0.31153214234261484,0.7279924517266738,-1.004413728654049,7.362517408214804,-1.4768689401810864,-1.156069511711876,1.8525902141811827,2.925270783829883,1,left
11.405999999999999,0.37810674503541664,0.2955372266939556,0.7199442323234564,-0.8881136008686101,7.347354131011521,-1.4546477675584404,-1.1566043561099277,1.8603469433872628,2.926285802795909,1,left
11.407,0.40451345112578824,0.28087238876077814,0.7094911384511399,-1.027568603476397,7.364782486092741,-1.4808316579245853,-1.1564893399814018,1.8562254263306812,2.926084758429572,1,left
11.411,0.42623441524106287,0.2695172343296294,0.6967298336496053,-0.9187449998540724,7.352340873478614,-1.461107447387457,-1.1558754588827465,1.8550911699963688,2.924865481093466,1,left
11.412,0.44699762971262363,0.25742200571679963,0.6795879777802691,-0.9778388400391629,7.356875601424971,-1.4704604460104351,-1.1573965902251069,1.8618098678620199,2.9278591113810375,1,left
11.415,0.4680543541053209,0.24724165531519626,0.6596382869157882,-0.9635974056197494,7.359739072282036,-1.4706243175388485,-1.1550987482143085,1.8507987691925694,2.9233432074833607,1,left
11.415999999999999,0.4870413648803632,0.23410222966176966,0.6377170195060623,-0.9491084756104518,7.3523291597070966,-1.464482191702908,-1.1575539557469783,1.8627205360650065,2.9281669251801024,1,left
11.421,0.5045893391555925,0.21632096615225666,0.611828145351036,-0.9751596792560783,7.36000403400206,-1.47207382901779,-1.1561264206934627,1.8555418044487224,2.9253645624356093,1,left
11.422,0.5217612313823101,0.2000946740011306,0.5853323918840623,-0.9499353336864986,7.356966913526524,-1.4674086484368256,-1.1549388296302654,1.8507926395181533,2.923022958594064,1,left
11.425999999999998,0.5347264691280299,0.18377475223806305,0.5603937270467895,-0.968377981070206,7.350873957250496,-1.465738996205232,-1.160207563888056,1.8739321898793484,2.933393200202614,1,left
11.427999999999999,0.5474128577415468,0.16433278205133287,0.5311154953946424,-0.9574649368299861,7.368608147404817,-1.4753610822748349,-1.1504228033063681,1.8305952076537382,2.9141383836533743,1,left
11.431,0.5654365286196095,0.14411936358196112,0.5002184011152504,-0.9627450955142647,7.340809815281744,-1.4589619240533933,-1.1629913748447032,1.886336516255802,2.9388691250377548,1,left
11.432,0.5811522606221529,0.12753703854972276,0.47608775259639635,-0.9611417660750908,7.370935149766632,-1.4771918251761407,-1.1524947646685244,1.8397635802925456,2.9182179429035733,1,left
11.435,0.5952706149981539,0.11421726662584139,0.4531395291311473,-0.9593689107308715,7.353197897809619,-1.466157123353692,-1.152789389742782,1.8411693470411652,2.918790983749722,1,left
11.436,0.6116173131830136,0.10092890629645035,0.4338002948181,-0.9662324654748929,7.338936846213906,-1.4582041507100914,-1.1727750462822446,1.9294955545953054,2.9581279709779915,1,left
11.440999999999999,0.6247317125664312,0.09107382113847268,0.4211530093705683,-0.9516765930256479,7.403249365302084,-1.4958863678123755,-1.1236356089830282,1.7122318702246928,2.8614208519923467,1,left
11.442,0.6403604950498376,0.08475073958185089,0.4033350428812411,-0.9750123166060272,7.283530480311018,-1.4253251467817116,-1.205120476012505,2.0725058524636384,3.0217765479825998,1,left
11.445,0.6527549321023169,0.08082365066266706,0.3900121285438449,-0.9463669629423794,7.43742071498064,-1.5161735048723708,-1.0976361020774457,1.597306029844558,2.8102615328676115,1,left
11.446,0.6565337544087686,0.0789462951137715,0.3876400215252552,-0.9697237422680258,7.308870832759398,-1.4402262484203967,-0.6466632515015227,-0.3972117342847966,1.9226376619644967,1,left
11.447000000000001,0.6720292738182942,0.07414590091363743,0.38154867434686135,-0.9699516610680263,7.312470403002205,-1.442439207171137,-0.5391862381083787,-0.87239544639671,1.711130874612921,1,left
11.45,0.6931131684027827,0.07064686685366127,0.3768903295557863,-0.9231277465030878,7.557273999274967,-1.5868361439045913,-0.6206395746196642,-0.5121290170188064,1.871452508412816,1,left
11.450999999999999,0.7065723208350795,0.07034153220877204,0.37570711560909875,-1.0369701195258454,6.95539307609841,-1.231700032009555,-0.5715805830642857,-0.7294343176693372,1.7748311221630488,1,left
11.455,0.7202970380883742,0.06664905545417751,0.3662351374158161,-0.8486857854858221,7.953422477098624,-1.820615279890415,-0.5914205647766877,-0.6409781625797559,1.8140139115747438,1,left
11.456,0.7278982226459231,0.06338484128719804,0.3572464722959431,-1.0968583728022572,6.636976168857718,-1.0438115159503427,-0.5919136605918687,-0.6398038078479853,1.8147959883463438,1,left
11.46,0.7284666370155287,0.06336415989305504,0.35459677669516243,-2.139246346129469,1.1114462288914404,2.2167135896910013,-0.5812245274427064,-0.6860835245529524,1.7939433581348294,1,left
11.460999999999999,0.729473142108219,0.06091582795173573,0.34783395985341115,-2.3873804557264924,-0.20508335348034273,2.993513880577389,-0.5938698405882578,-0.6305860129278633,1.8187519552909448,1,left
11.460999999999999,0.7254659954851977,0.05784150408045988,0.3378032995413033,-2.1992417542953993,0.7930866446895166,2.4045881683421184,-0.5842654640655505,-0.6739072848181386,1.7996914769024897,1,left
11.465,0.7158923024820839,0.056695187406451054,0.32787744484768466,-2.312731582021031,0.19106111617087224,2.75977608400261,-0.588976352898273,-0.6503521919851267,1.8094696550658194,1,left
11.466,0.7036848485886766,0.05497032170253942,0.3189454422529293,-2.2665290238355684,0.43593461305406944,2.615262830615258,-0.5887394004637825,-0.6560852062448634,1.8081316934755545,1,left
11.470999999999998,0.6885850913450544,0.0531292450881347,0.3149755946294098,-2.265927373204327,0.4396301407610055,2.613230762588037,-0.5861543594182161,-0.6617701116101193,1.804112983566695,1,left
11.470999999999998,0.6726896345713387,0.04996936644674778,0.3157507787035508,-2.2900673906799995,0.3107454335330878,2.6889742036131876,-0.5895198099115708,-0.6514677568540004,1.8098846544192155,1,left
11.475999999999999,0.6559233453123294,0.04755728576821013,0.32115072046997784,-2.26114947251416,0.4652154671762891,2.598259423342958,-0.5872587485755767,-0.6615073596721625,1.8054270186632915,1,left
11.477,0.6404315382836265,0.046952595324631655,0.3298659495175622,-2.2836606212845956,0.34478886592753744,2.6688918412568228,-0.5870246909882013,-0.654044206299353,1.8065469581263507,1,left
11.479000000000001,0.6279819097490709,0.04518349162384033,0.3408471226059626,-2.2715098154855404,0.4096578321965668,2.6307980615115563,-0.5903704585246945,-0.6586695365262425,1.8095197876929419,1,left
11.479000000000001,0.617028247796523,0.045193378721600994,0.35465280213307504,-2.274360942006305,0.39541804722120466,2.6395660705074304,-0.5843891776351195,-0.6561468309840242,1.8031364316094176,1,left
11.485999999999999,0.6101101850086645,0.04370473233889971,0.3673074708487086,-2.277381266639766,0.3766146029435692,2.6494863950968446,-0.5911277684312022,-0.6572343453521929,1.810654429455854,1,left
11.487,0.6053554911880721,0.039823486578140097,0.3756899139913874,-2.2721474794446994,0.40914157833383985,2.6323161193213496,-0.5869909093514547,-0.6576800184514244,1.805831893628219,1,left
11.489,0.6001223854085227,0.03718769265347356,0.38263882125462645,-2.27695731795316,0.37779579535959296,2.648330744829997,-0.5841813563435174,-0.6547248193594597,1.8031629597914445,1,left
11.49,0.597686488378302,0.03205612864048371,0.38861240693789656,-2.273786842612334,0.39925648187331403,2.6376454195078205,-0.5978732913835412,-0.661497528715859,1.8175895053777862,1,left
11.494000000000002,0.599714568870007,0.027393947799825225,0.38927593680532,-2.2753281813467474,0.39112617779242886,2.64246057069651,-0.5721511491153954,-0.6503929021491326,1.7901858403843716,1,left
11.495,0.6035514908344534,0.024139608900465674,0.3866514712209579,-2.2746831042987457,0.3859270278474051,2.641858254118201,-0.6052994177582725,-0.6641273911654182,1.8256086145168924,1,left
11.499,0.6028677954846693,0.01887705206746513,0.38315457175151635,-2.2753103216397066,0.40229348966847445,2.6405881042229975,-0.5775737745580689,-0.6528824943821709,1.7959348567429023,1,left
11.5,0.6001563002938135,0.014288064104712984,0.3784761673083664,-2.274178791115902,0.3789203523932156,2.641867790902204,-0.5784053581510019,-0.6528459719546518,1.796895592943307,1,left
11.504000000000001,0.600233249094936,0.010867927846395595,0.3761540820711222,-2.2756454014861527,0.40245350502958754,2.6413196569518114,-0.6310578670478012,-0.6751946894754788,1.853059962463936,1,left
11.505,0.5991484250597228,0.007326701211594359,0.3744830383207487,-2.274800870412091,0.3888418260176332,2.641644856118141,-0.5015246048086949,-0.6207568033105588,1.7147834071879866,1,left
11.51,0.5961714143056778,0.002373838468732732,0.37087968461872567,-2.2734947538497097,0.38017295468664064,2.6401165491059944,-0.7163454332407353,-0.7108320840015769,1.944144602214395,1,left
11.511,0.5942638399601978,-0.0008218407775329113,0.36897647566779207,-2.2784624299770244,0.42207799555188324,2.6444643888640638,-0.43297502841863156,-0.5920895410132396,1.641577573186325,1,left
11.513,0.5947661031471632,-0.0015482969696368988,0.3694431563204662,-2.2692871191881876,0.344168907627031,2.6365171322846788,0.7563692705235159,-0.09341056110969581,0.37173065442948133,1,left
11.514000000000001,0.5912343249045924,-0.006653391912195829,0.36926394974841104,-2.281116530815792,0.44395185124131975,2.6468724596768305,1.0397623428763492,0.02532379946058555,0.06913019255864128,1,left
11.515,0.5829538430171282,-0.013127591382896408,0.3671991390864463,-2.2712191457140065,0.3607668363196306,2.6381582246113964,0.8248983883103971,-0.06470467088277336,0.29855878971668426,1,left
11.52,0.5764914205489848,-0.01854253126387542,0.36416853651180725,-2.2714253298545453,0.36333360168785456,2.6382051921713012,0.954488209411536,-0.010397864207808683,0.1601853745045967,1,left
11.520999999999999,0.5686894954114854,-0.02667577840790565,0.3621350513369761,-2.2905599187259726,0.5205936069946154,2.65563038588105,0.9017812205258591,-0.03249877286597132,0.216457805685621,1,left
11.524000000000001,0.5597749615340837,-0.03452112849984443,0.35927983915445416,-2.2435759367395303,0.13383584231524215,2.6129418491881133,0.9009761135599368,-0.03281027338784984,0.21733838434259642,1,left
11.525,0.5481781696992338,-0.040127917381342616,0.35271939808944575,-2.3214841849151284,0.7750696253531051,2.6837395031638147,0.9287364464872456,-0.021214630396182342,0.1876575807983188,1,left
11.529000000000002,0.5379027275230529,-0.042533787461044706,0.34890720766583105,-2.2187016662033177,-0.07064049659303842,2.590304551685165,0.8954628826882269,-0.03511321449372772,0.22323973322338134,1,left
11.529000000000002,0.5346538336654394,-0.043538655926628145,0.3486029456875145,-1.7869171344273989,-3.62007338807934,2.197523356139861,0.9214076143047523,-0.024281645441917327,0.19548436188917007,1,left
11.530999999999999,0.5248997930621682,-0.04718607803967503,0.347328039618319,-1.6840588456679337,-4.465747028394748,2.103982951270879,0.9074349364610605,-0.030121108178802255,0.21042601601461508,1,left
11.534,0.5117942826579719,-0.05149751771039081,0.34975476129632144,-1.7621176420314235,-3.8245164907104012,2.174965173301999,0.9104807822097616,-0.028809029336856144,0.20721937128617368,1,left
11.535,0.5058225670755747,-0.055973712639787676,0.35194975666142736,-1.7149219620905003,-4.2114175795567395,2.1320704078923933,0.9145897325324688,-0.027197420946792096,0.20268663164233136,1,left
11.538,0.5020366761919453,-0.059451568264444664,0.34994339573657873,-1.7342853367685747,-4.0537621143667515,2.149631762442497,0.9074826953052415,-0.0299878061781576,0.21052509309127893,1,left
11.539000000000001,0.4984816265456199,-0.06048061770107,0.34805228321744114,-1.734333763819504,-4.051869519132001,2.149729559905631,0.9143592596995573,-0.027335590966686682,0.20287624204100466,1,left
11.543,0.4958198007852302,-0.06065410383826882,0.34772471042347647,-1.72439476774072,-4.134229369035837,2.1406671968521165,0.9096367666400947,-0.029132132465684538,0.20816283428586613,1,left
11.544,0.4972195890720193,-0.05924764412342803,0.34630829232748395,-1.736600114723776,-4.035091462473339,2.151712998599075,0.9113859552019721,-0.02839720477402486,0.20629735561003176,1,left
11.548,0.5005640580610295,-0.05628682425138795,0.33663064470389115,-1.7266414628049145,-4.11305019520802,2.142829368411613,0.9126960873367198,-0.02818705450275797,0.20444540804513897,1,left
11.549000000000001,0.5018719707213452,-0.0499833017032013,0.32552545160435997,-1.7327175147850147,-4.06983568565583,2.1480554264031597,0.9087366189480784,-0.029072433252463795,0.20970841868259335,1,left
11.557,0.5039982883024172,-0.04140662557719767,0.319255069881624,-1.7303033207153595,-4.081422455612103,2.146229036059282,0.914419058600585,-0.027845361057836523,0.2020965368585949,1,left
11.558,0.505531979489712,-0.03534985471959018,0.31175330031375365,-1.729969997869499,-4.090745217394508,2.145631016076526,0.9086590622626436,-0.029028852355386717,0.20989323747901636,1,left
11.559000000000001,0.505915265310717,-0.027677215375474663,0.30334684634455034,-1.7322943495662368,-4.071689950913701,2.1477418747918358,0.911990472343484,-0.028343628809590148,0.20538468782368946,1,left
11.559000000000001,0.5053733451102619,-0.01816826130622179,0.2921118854206832,-1.7282594349527622,-4.092669178695579,2.1446217473544893,0.9142018218483539,-0.02802967284661438,0.2022037242908799,1,left
11.562999999999999,0.5013170026871608,-0.011935643871828367,0.28217051619304945,-1.7339722071634873,-4.073569371803616,2.1485615774861087,0.9036687213924225,-0.029762049537265953,0.2170390163145125,1,left
11.564,0.49746607643972524,-0.005128543048617547,0.27668831723266585,-1.7269850541340905,-4.08944172904606,2.144080571885001,0.9232452438465382,-0.026531430746970095,0.1894808196613182,1,left
11.567,0.49524158993774237,0.0021030498795821984,0.265690982103013,-1.7337571595890315,-4.078081021539155,2.148242160503872,0.898162488468894,-0.030656824026012296,0.22480907032914968,1,left
11.568,0.49340521645159724,0.007076773067411174,0.2538533998849295,-1.7301895162155176,-4.0818064774498914,2.146151563251241,0.9190783242410723,-0.027223135307870176,0.1953409615234289,1,left
11.572000000000001,0.49061638025799553,0.011992912849289123,0.24672371423913012,-1.7263871348430253,-4.090997025779596,2.1436887018300297,0.9184417552374826,-0.02734526718384712,0.19621489764981387,1,left
11.572000000000001,0.4845210840657221,0.01452039728814825,0.23667701502765776,-1.7414934167338405,-4.063395730654434,2.153072303824456,0.878858019217512,-0.033768303618473314,0.2520832312601798,1,left
11.577,0.4783950412677357,0.015029203559038225,0.22659343675049437,-1.7139262156727177,-4.110902690569867,2.136077139757898,0.9762047831052899,-0.017958991477266446,0.11470488755597208,1,left
11.578,0.4688697642101078,0.014207896529661226,0.22033559481226983,-1.7491251439675604,-4.051535370039183,2.1577192360455424,0.8148025136525927,-0.04416968736935631,0.3424830199217879,1,left
11.581,0.4600465718755953,0.011249909874774491,0.21658143254153278,-1.7198244204094033,-4.100397777519113,2.1397284234904665,1.0276769675556299,-0.009604565058909506,0.042057964297216754,1,left
11.582,0.4581305996437192,0.010968318065160486,0.21427150322833016,-1.720543564395579,-4.099685301908101,2.1401488728462787,1.9210276772965962,0.1354070110789299,-1.2187613457070081,1,left
11.582,0.45113647034222515,0.01050615353488301,0.20933998439173196,-1.7765513156763828,-4.00538107322108,2.174576724703738,2.1338854051792255,0.16996332571550826,-1.519174224748632,1,left
11.587,0.4408143973903736,0.006950640830307016,0.20270058001563057,-1.6390237840630149,-4.236073818929532,2.09007639185387,1.9725092813042664,0.1437663961224645,-1.291415127196373,1,left
11.587,0.4307908417828391,0.003210215696936083,0.1941215918658435,-1.866987012966587,-3.854102731472255,2.2301251956392907,2.0698344177062924,0.15956432512532842,-1.4287777233107097,1,left
11.59,0.4218097465497146,-0.0006932656590353441,0.1875788279242338,-1.5663361836994678,-4.357655562928131,2.0454285434605746,2.0302494302593677,0.15314061821577468,-1.3729084842833787,1,left
11.594000000000001,0.4199289653230328,-0.0011407038152925469,0.18686987716787143,-0.30435968896835264,-6.471285003906443,1.2701691164579805,2.0296548204830236,0.1530405984947963,-1.3720650862302066,1,left
11.595,0.41346101385783723,0.0004562604370419258,0.18584003066244917,-0.003726466915552701,-6.974667877350373,1.085483108081248,2.0504790568919304,0.15642603405042896,-1.4014665194360214,1,left
11.595,0.40528417745539513,-0.0003123824183247484,0.18740163804194715,-0.23165125169544593,-6.593057468781919,1.2255064518016163,2.0255267869369824,0.15236936300044587,-1.366233257308522,1,left
11.599,0.40544805409317797,-0.0002584085570566389,0.18974100881049577,-0.09418516995683551,-6.8231939362230385,1.1410511298445194,2.0449740773853256,0.15553193984388008,-1.3936973679989166,1,left
11.6,0.4036212162678008,0.0031487311007309207,0.18790414220031032,-0.15011448923403173,-6.729570754998928,1.175415356628555,2.0344969835194524,0.15382901348580705,-1.3789028694210164,1,left
11.604000000000001,0.4045437317241015,0.008630979006910343,0.18483983118172634,-0.1509077789452182,-6.72825537917016,1.1759046802965392,2.0368170179250598,0.1542002797754904,-1.3821629174075272,1,left
11.604000000000001,0.4130412238388469,0.013446674982576689,0.17781509317551464,-0.12157648941263594,-6.777291744958781,1.157869573130545,2.039797063668756,0.15470037695603855,-1.3864157234692,1,left
11.61,0.41818446032672746,0.020079917307930382,0.16949315793798092,-0.1567112486396569,-6.718613636652501,1.1794877613361603,2.034642498293727,0.15383578909128814,-1.3790597327546719,1,left
11.610999999999999,0.421561405941725,0.03151923185843159,0.16529206394126378,-0.12934740654568225,-6.764221762581724,1.1626292056432943,2.03958207358359,0.15467165713631237,-1.3861308187468064,1,left
11.615,0.4283651014524125,0.04244887693180717,0.16117379389645647,-0.14410402069562578,-6.739718636767252,1.1717423512338112,2.0362147996799935,0.1540980017636503,-1.3812989845201458,1,left
11.615,0.4360943224496069,0.0512096233990003,0.15356963894846862,-0.14073160866788043,-6.745277661473908,1.169650038952549,2.0375300226400777,0.15431114411858085,-1.3831544859844573,1,left
11.619000000000002,0.4439958511444566,0.06210331771735425,0.14880563147616382,-0.13681854311356617,-6.751655722479933,1.1672052905417543,2.0381809736422345,0.15446725728422883,-1.3842206890012818,1,left
11.62,0.4550301549014199,0.073226519803827,0.14605960441230326,-0.14359445964105583,-6.7408688950974245,1.17149938366479,2.035968458895955,0.15399300729097376,-1.3807610865108295,1,left
11.623,0.4657512155622758,0.08179076105586951,0.13432915865601588,-0.13723222747139574,-6.750560476331593,1.1673644739653921,2.0391005171420673,0.15467301697419533,-1.3856841248170506,1,left
11.624,0.470172966496072,0.09033548822642773,0.11757209061604368,-0.1415042453083965,-6.74458627498759,1.170266696401435,2.035985243342153,0.15398451439661587,-1.3807517380143812,1,left
11.628,0.47373394855778805,0.09962320492627198,0.10231772897482908,-0.13962911657740487,-6.746786545275738,1.1688933015561147,2.037787684349209,0.15438255607918974,-1.3836048361424504,1,left
11.629000000000001,0.4742168638097793,0.11059656212962861,0.08923625705960274,-0.13963795210144264,-6.746763378790124,1.16889675694993,2.0388454995262277,0.1546457018994688,-1.385365209542008,1,left
11.633,0.46681365628467214,0.12263458170654931,0.08029241064134751,-0.14066534014370669,-6.746785871745157,1.169938820716956,2.033573856037499,0.15339092306261737,-1.3767565181250139,1,left
11.634,0.4613685177234952,0.13387900561883537,0.07291590809617443,-0.13935204040335225,-6.7450023584297085,1.1681929730411238,2.043382252794898,0.15572267435333526,-1.392765935952697,1,left
11.637,0.4577993199214079,0.1455289031344913,0.07028457302548624,-0.14045912090879042,-6.7490897065542,1.1702739822991992,2.03082872484525,0.152735683078412,-1.3722675968535627,1,left
11.638,0.45060780192354605,0.1554140977147592,0.07376240941150178,-0.13977703950446058,-6.743898589084601,1.168361574364131,2.0412906087917317,0.15522573075988771,-1.389353497664137,1,left
11.642999999999999,0.44206326537442653,0.16900096323433056,0.07661886281110633,-0.14001201345680162,-6.747164428996671,1.1693687974936804,2.040954563306162,0.15515125503667154,-1.3888190284302897,1,left
11.642999999999999,0.43436567871456744,0.18748859837040133,0.07975577498588157,-0.1401480990547767,-6.750091005591397,1.1701962373342538,2.0212300573281414,0.15043602304284076,-1.3565498069469082,1,left
11.647,0.42789350691807604,0.20423965169897595,0.08354966060309074,-0.13974359036247427,-6.736963120628914,1.1666923940263163,2.0697514708008216,0.16202909498946144,-1.435916160528309,1,left
11.648,0.4187061270697592,0.22948322644305852,0.08483471691735643,-0.14031091266792278,-6.761615079168551,1.1730779562539886,1.9893033682682784,0.14280998650080023,-1.3043308351417875,1,left
11.652999999999999,0.41136997848296275,0.251030668521605,0.08460192742208003,-0.13970890553135748,-6.729748808573426,1.1649563003895909,2.0954026497656466,0.16815572639423254,-1.4778711366675785,1,left
11.655,0.4093190750693687,0.25639796113785385,0.08464925761414382,-0.14015649140958797,-6.75644511644415,1.1717028242070024,2.5406017434746575,0.274546193434213,-2.2061371628310655,1,left
11.655999999999999,0.40104848627280976,0.27788736309600715,0.08868802633087947,-0.1401357951235334,-6.755734701908375,1.1715150880037801,2.646684745441627,0.2998854144570656,-2.3796477449274462,1,left
11.658,0.3896557668069392,0.3124708111797613,0.0953103601426059,-0.13940183840812123,-6.7046365819321,1.1587238507293711,2.566263919065753,0.28067492682563955,-2.248108211928322,1,left
11.658,0.3783248156909992,0.3363177912473892,0.09895482971423922,-0.14117625167184233,-6.830281422649337,1.1901447917484491,2.61475780573798,0.29226512783382097,-2.3274384891187685,1,left
11.663,0.35863607997253155,0.36460044481346665,0.10248361027673991,-0.13826838215858822,-6.621901270294147,1.1380684155150464,2.595045433925255,0.2875379492725658,-2.2951621948872094,1,left
11.663,0.3465403101412902,0.38643843720309917,0.10672371592370941,-0.14207483691451112,-6.896792895948973,1.2067394287718005,2.594730418891163,0.287496826723614,-2.2947094744081165,1,left
11.664000000000001,0.3428853544413675,0.3913302219033924,0.10788340479375602,-0.15783813890960458,-8.050703368107502,1.494867736522166,2.6051244084576335,0.28993292894099676,-2.3116248969798665,1,left
11.667,0.32324077329142664,0.4095705726588266,0.10731351991421886,-0.1615923540181328,-8.325605875655466,1.5635100898898444,2.592685633724616,0.28700730568151867,-2.2913628578598013,1,left
11.668,0.29500214654298473,0.43633337247728166,0.1102870756078988,-0.1587880831405744,-8.117218943461562,1.5114898846946199,2.6023569659179526,0.28929837200121983,-2.3071467487767885,1,left
11.672,0.26762026118597304,0.45485632969215595,0.11978854958331087,-0.16041723847592004,-8.242841618223933,1.5428334913834973,2.5971885296547343,0.288023630847828,-2.2986198870169177,1,left
11.673,0.23578775817792522,0.4739824781858829,0.13001485311098218,-0.15983958012676136,-8.19181901962217,1.5301231426232431,2.598260940670393,0.28840739319492414,-2.3006064928659704,1,left
11.677999999999999,0.20461197018988597,0.49282862961540064,0.13913684541239904,-0.15971225355346874,-8.190970468290168,1.5298841175579292,2.599841239403508,0.2885656439273101,-2.302791749837208,1,left
11.679,0.17229438928540602,0.5096622295489772,0.15380476607845434,-0.16012885338279054,-8.217845345120647,1.5366059015953066,2.5972077354543486,0.2882053604045736,-2.2989741566831983,1,left
11.682,0.13656933437924157,0.5250250923032088,0.17473518191849163,-0.15978737462128573,-8.185825584397165,1.5286316396751676,2.599643356922412,0.28857301750166064,-2.3025675861496797,1,left
11.682,0.10679531570076782,0.5387276748410672,0.19415328918256103,-0.15981579172567034,-8.210498632726631,1.5347256458519403,2.5981434983967944,0.2882126245474756,-2.300110727129402,1,left
11.687999999999999,0.08283486213795402,0.5525390343514999,0.20794417277318625,-0.16017030057642273,-8.197606491040435,1.5316205054100274,2.5984380354610193,0.2886808494193057,-2.3013172164824027,1,left
11.689,0.060229926806075695,0.5648516831666158,0.22321917556880017,-0.1595520661761713,-8.199952681693365,1.5320672744368233,2.599263341016729,0.28796905745525364,-2.301011046711218,1,left
11.690999999999999,0.042881701732529656,0.5780874895089828,0.24263604745000691,-0.16012691811845234,-8.204116653852601,1.5332173888584846,2.5976732641322737,0.28894502741620043,-2.300880835037945,1,left
11.692,0.028992051318891012,0.591874479419157,0.26461613661593625,-0.16004715718156343,-8.19793205587084,1.5316744634102044,2.5994352213148955,0.2879207665547662,-2.3011289549951432,1,left
