time,gFx,gFy,gFz,ax,ay,az,wx,wy,wz,subject_number,foot
15.419,0.20309312167805127,0.9688606818794047,-0.1858121836558091,-0.19729753938380742,-0.1608894657134955,0.14810846728115953,0.05875008375753313,0.0065586242887946435,0.22263674243923717,3,right
15.423,0.20020699213336313,0.9748742244740003,-0.19435776092208612,-0.5778174089213686,-0.022387841088728606,0.21324775194230514,0.060267154032844966,-0.0014395035487710615,0.24038975115573774,3,right
15.424000000000001,0.1946368720938377,0.9787562404085224,-0.20435929526722607,-0.07587981833157548,-0.205086681859967,0.12732322026500797,0.060311282652303976,-0.0015747012008901608,0.2407069743948948,3,right
15.425,0.1929853084191056,0.980160732206731,-0.20655946878983392,2.031273428006514,-0.9719071409501865,-0.23342254852294744,0.0594853084977015,0.0026490146949643997,0.23130875278019397,3,right
15.427999999999999,0.1838237027420231,0.9899002922343323,-0.21384681819187645,2.5332378974898218,-1.1546270360716147,-0.3193506636189096,0.060457775285342207,-0.002393898465813792,0.24251696637944203,3,right
15.429,0.16957205658946084,1.0014147358502892,-0.22440767593134692,2.152660623707744,-1.0160972331549618,-0.254201144151627,0.05972639837087799,0.0015080611450040426,0.23386453133073878,3,right
15.433,0.15797024746198757,1.0100992374397073,-0.22025574548970928,2.382220688638444,-1.0996297092918828,-0.2935035033081538,0.06007090745625117,-0.0005470659165540078,0.23838306519208913,3,right
15.433,0.13959934600598628,1.0183382232274676,-0.21276376602700478,2.2887648137161714,-1.0656925433799669,-0.27749092370424255,0.06008162218661818,-0.00016526091339474002,0.23761457197071825,3,right
15.437999999999999,0.11986890521031204,1.0215400089365436,-0.20571226646818475,2.2875606595976072,-1.065104001651509,-0.27731112139022146,0.05984793965173515,0.0005192457191766228,0.23599657450361525,3,right
15.439,0.10132459893220128,1.0231524269902152,-0.1927399636073031,2.3363738458793293,-1.0830781521950446,-0.28563122050780965,0.06013428125382678,-0.0005495028408111348,0.23844824767288908,3,right
15.442,0.07873719338853141,1.0271170230761775,-0.18510751360858546,2.277866661831351,-1.0615799367363654,-0.2756508002555335,0.05996111991345329,0.0003593064878016644,0.23643029558476208,3,right
15.443,0.055871530338792,1.0313289524392153,-0.18524770390367873,2.3234886774575045,-1.078271012919831,-0.2834458964133354,0.05989080545835814,-6.67764522280341e-05,0.23723238403078298,3,right
15.449000000000002,0.028881766819782148,1.0380135940305286,-0.18210510071885366,2.2987141340107833,-1.069430239918446,-0.27917389920790636,0.06026707024525246,-0.00021976202848066198,0.2379020550757134,3,right
15.45,0.00024675076789470486,1.0463581258757695,-0.17429948554893715,2.304782100213034,-1.07107554995124,-0.28031098721994385,0.05962982573996483,0.00040525330058121476,0.23602162137006466,3,right
15.450999999999999,-0.019025817128012018,1.0515659260558392,-0.16537489946413236,2.310559279992626,-1.0741467527088617,-0.2811309880527346,0.06033693710284698,-0.00040620043926601685,0.23834875698268318,3,right
15.452,-0.0311305736024689,1.055986031291089,-0.15615229367829356,2.3001801267207287,-1.069181441342367,-0.2795613921690989,0.05990970522335687,0.00015997303846654418,0.23678781330250437,3,right
15.458,-0.037515210249187664,1.0623166627484766,-0.14751506328050185,2.3100471117354413,-1.0737191260070138,-0.28108540560752215,0.05959945460642524,0.0003454709903469038,0.23611480935172557,3,right
15.46,-0.036110338898470165,1.0691113376604182,-0.13985270210644593,2.3029331665366453,-1.071138653779151,-0.2798660205398179,0.06106434853600004,-0.001024499586380246,0.2403010537403803,3,right
15.460999999999999,-0.031588686604956166,1.0762218593342727,-0.1369917386813309,2.307408054978702,-1.0710105135438435,-0.28093863024435156,0.05832234555009292,0.0016479365059824053,0.23224437609955473,3,right
15.462,-0.027520533648471027,1.0839139272767613,-0.1401127000144851,2.304274569376418,-1.07388445707159,-0.27970175400098385,0.06185240784216443,-0.0018310247977005006,0.2426953408932911,3,right
15.467,-0.027612997311753026,1.093131089311857,-0.1450830863547515,2.307250275705576,-1.068978902640195,-0.2812560748339593,0.05890134625470434,0.001093290371491973,0.23392547297054667,3,right
15.467,-0.02995513085183187,1.1003048782398221,-0.14665107591355053,2.3043945529435037,-1.0743234065661422,-0.27965332913998103,0.058987481831534454,0.000983600309594702,0.23423220436608483,3,right
15.472000000000001,-0.028664748949526326,1.1045278136874248,-0.1414845340681536,2.3055449620342783,-1.0710535796416152,-0.28049384735864524,0.06459800662901724,-0.004511122044167841,0.2507702505207474,3,right
15.472999999999999,-0.024684900188632765,1.107978815510267,-0.1312713675641609,2.3090113751647947,-1.0691354293527051,-0.281642088572543,0.05079875519346282,0.009038130289610877,0.21002106925515815,3,right
15.477,-0.015284841553535529,1.1062286662727328,-0.11825913469978543,2.2978915075462307,-1.079004094253028,-0.27731039540773506,0.07368234713691366,-0.013443335048304432,0.27762360795908647,3,right
15.478,-0.006423890720746855,1.1036453936440673,-0.1109185526581315,2.3177823452535984,-1.0604366418639737,-0.2852183641691889,0.043497182463382134,0.016214938904198013,0.18844142947771605,3,right
15.482000000000001,-0.0037458670992964035,1.1022124853431094,-0.10929285627834028,2.2924053980678982,-1.0843376402730973,-0.27509226174288215,-0.08319668426485198,0.1406855330688158,-0.18584036895441586,3,right
15.482999999999999,0.007060034100085361,1.0978256646365694,-0.10406923108815072,2.3135254181275178,-1.0643601570803183,-0.28353461394262336,-0.11338379121888098,0.1703428825918968,-0.27502808790826716,3,right
15.484000000000002,0.023586128529119434,1.0937403390672928,-0.10115096221792952,2.313207001850663,-1.0649923587883166,-0.2833498717090849,-0.09049657319016986,0.14785977813813259,-0.20741003872017216,3,right
15.488,0.03520552282092475,1.0864591423465069,-0.10504570916633185,2.272103892228179,-1.102784654328011,-0.2671084910058262,-0.10430042578741833,0.16141875930276622,-0.24819064622661088,3,right
15.488,0.04250330880469212,1.0757668725145977,-0.11162442133760991,2.3728320877664366,-1.0097882035756545,-0.3069762648447325,-0.09868573817362966,0.15590144655679855,-0.2316029957700229,3,right
15.493,0.04093121876046152,1.0670905422751997,-0.1143502833067967,2.2058982136124707,-1.1640091431780821,-0.24088679550998343,-0.09860112156595019,0.15582748730744111,-0.23135657177574082,3,right
15.495,0.038186015358889186,1.0627862229715512,-0.11184669630161628,2.4260719970290174,-0.9605866041310839,-0.3280580152507611,-0.10155596019654531,0.15871087968736636,-0.24007713767680422,3,right
15.495,0.03614810168253149,1.0610412042583222,-0.10950949595192117,3.3504285874660003,-0.10671766146204364,-0.6940391413583753,-0.09801469826808576,0.15525979363677242,-0.22962884256368982,3,right
15.495999999999999,0.02193861627326955,1.0545500374422532,-0.10442573361226819,3.5705892827011443,0.09672689325675397,-0.7812206506676467,-0.10077534710529154,0.157944110491823,-0.23777057815373792,3,right
15.497,0.0009822399259042276,1.0464590598546497,-0.09565258683099043,3.4037195691020594,-0.05755494129287657,-0.7151148957671267,-0.099288240223851,0.15649511344203065,-0.2333833918778111,3,right
15.503,-0.024880227573905643,1.0387350755490004,-0.08617219536532622,3.5042760487402456,0.03556377251927966,-0.7549966873440397,-0.09961528716369412,0.15684039959574786,-0.23436193683026452,3,right
15.504000000000001,-0.0564665519010926,1.028185959883272,-0.08018496760090181,3.4634910805126102,-0.0024202461249342583,-0.7387546066011914,-0.10004466219801895,0.15718506261355236,-0.23559043282855832,3,right
15.505,-0.08598377156510995,1.0189122341155863,-0.07926451160079286,3.462732056932095,-0.00282079571017416,-0.7385462332030647,-0.09930191386242351,0.1565882991833737,-0.2334652515751601,3,right
15.505999999999998,-0.11644404523806809,1.0106800266627105,-0.08144525980976669,3.4842885440938014,0.016969342932586094,-0.7470425923564405,-0.10001687394531719,0.1571275702044116,-0.2354925100092895,3,right
15.511,-0.14793776108847484,1.0024043807741294,-0.08794621526052947,3.458720870480252,-0.006925956063711651,-0.7368375739556541,-0.09952780858704016,0.15677712750514516,-0.23411543796941592,3,right
15.512,-0.17965845430832167,0.9957698832872833,-0.08956938997268106,3.478241106447383,0.01197486382180829,-0.7448262682888723,-0.0997142564383596,0.15696151568029287,-0.23466687289376276,3,right
15.515999999999998,-0.20946294035639884,0.9901698936486342,-0.08577400880819669,3.468328554965333,0.0013275132166147181,-0.7404547959692919,-0.0998278795699856,0.15683170308544975,-0.2348766814137224,3,right
15.517000000000001,-0.23215896430554037,0.9866956575646728,-0.08551840451045888,3.469701270571426,0.004422720342564188,-0.7415461458731384,-0.09946538362278479,0.15702724737214566,-0.2340934302946348,3,right
15.52,-0.25443814942787124,0.9865152771218462,-0.08413413973320005,3.4734397501342134,0.006420365501650267,-0.7425897536897841,-0.09998225495597424,0.15671210816663525,-0.23519125083482767,3,right
15.520999999999999,-0.27543996423407324,0.9882198248743701,-0.08332626222506724,3.4684908799989658,0.0018340468001548436,-0.74062614755245,-0.09946297054744693,0.15707911977469807,-0.23411463493797643,3,right
15.526,-0.29150455719884044,0.9914740758865825,-0.08616012055397836,3.47151644822521,0.007335564065139834,-0.7426350041878746,-0.09976334412427196,0.15686754553996482,-0.23473771231604396,3,right
15.527000000000001,-0.3055951382438128,0.9967238804296481,-0.08776800178229296,3.4721120316727383,0.001702126036045832,-0.7410179134551333,-0.0999519859110268,0.1566156002433958,-0.2350670502041866,3,right
15.53,-0.31795047422475053,1.0062777027173337,-0.09029692857316005,3.4679368521166083,0.007069800417095179,-0.7421289488318408,-0.09903542992660148,0.15762779119184844,-0.23335671982129796,3,right
15.530999999999999,-0.33120864058741106,1.0201031473707354,-0.09244891806668133,3.4738358736852435,0.0026853154308567207,-0.7415179383352688,-0.100739697474629,0.1557555423301986,-0.23654195053762503,3,right
15.537,-0.34282703725497654,1.0310919763422512,-0.08901076037338052,3.469687489159769,0.004535657280690371,-0.7415780626633303,-0.09855718664619911,0.1581649116785272,-0.23246915028590515,3,right
15.538,-0.35092009032437677,1.0392466548752473,-0.08537372127003795,3.467670390462338,0.007569309910004406,-0.7422469906400341,-0.10037657181949389,0.15615145628591942,-0.23586154469739495,3,right
15.54,-0.35255971857771307,1.044969990123827,-0.08115949372034229,3.4797890630098207,-0.0026706787198974478,-0.7406221211072582,-0.10031999158634158,0.15619725767215656,-0.2357477098430525,3,right
15.54,-0.3450755258651006,1.0458074646856474,-0.07075856734415872,3.4563545559821165,0.01543397914688965,-0.7432553987416367,-0.09688219499526426,0.1600709339573724,-0.22937269940395144,3,right
15.545,-0.33174655051415525,1.0427072296326325,-0.057646133826282635,3.4868732468053887,-0.0074199947502951065,-0.7400432693386643,-0.1053373602941731,0.1505583105547446,-0.24505858170266615,3,right
15.547,-0.3089994575097147,1.032573893152915,-0.04270492774706775,3.461209171490304,0.011490853242437102,-0.7426517435797078,-0.09131893326079338,0.16632900110356577,-0.2190519894346354,3,right
15.55,-0.2911953516209339,1.025406072508972,-0.03218469135020538,3.4620699018035697,0.011126429651508268,-0.7426462191574037,-0.10980730286179977,0.14552800612877745,-0.253349570524251,3,right
15.550999999999998,-0.2863359756851859,1.0243884185805237,-0.0300677164459098,3.5106939013306535,-0.025207013486122358,-0.7375503765669816,-0.18739345122970863,0.058171552398486016,-0.39725239061168416,3,right
15.550999999999998,-0.2693507433302348,1.0170903841155527,-0.024514905650395116,3.390881719345806,0.06383125971413219,-0.7499578533895508,-0.2058790911186958,0.03737167367876851,-0.43154276371024025,3,right
15.554,-0.2410029265769737,1.011002897914233,-0.013838215570871167,3.589685461710113,-0.08367025167930049,-0.7294437731532737,-0.19186498775620986,0.053142503236683895,-0.4055480195729821,3,right
15.555,-0.22515567660043984,1.0102475822354777,-0.00701676853041642,3.32738164499101,0.11081879165819937,-0.7564703593681779,-0.2003164226804358,0.04362465037909301,-0.4212225243058625,3,right
15.559000000000001,-0.2204423213138459,1.0101477661624616,-0.005877645012432672,2.226438626246903,0.9271913184537337,-0.8699366233634702,-0.19687883568992928,0.04751216680269754,-0.41485121590786556,3,right
15.56,-0.21225100621691073,1.0121733388547611,-0.005425070517625862,1.9640559029200009,1.1216384945133826,-0.8969357245396614,-0.19682848931910615,0.04753475922550253,-0.41474917090651475,3,right
15.561,-0.2030828963561796,1.012686810294403,-0.0032298080983485084,2.163006505798632,0.9742241571682269,-0.8764739200212645,-0.19863358425928884,0.045549320713168265,-0.4181088442508152,3,right
15.564,-0.19973684935604236,1.0131274526662035,-0.0012876048951395449,2.043008998566764,1.0631313309924333,-0.8888128740183305,-0.19647198920773914,0.0479373617655619,-0.4140883851050494,3,right
15.565,-0.19643875649104778,1.0134417550966528,0.002589980115409325,2.0917988175656057,1.0269534236620106,-0.8837829741739032,-0.19815481621327247,0.04606211349095369,-0.4172143401246859,3,right
15.569,-0.1886181577088786,1.0086709263241513,0.01271649801605046,2.0926027274099024,1.026458630174297,-0.8837455162699981,-0.19724890985545873,0.047120737351392813,-0.4155436137259545,3,right
15.571,-0.17987289984833477,1.0039307503814277,0.02707106640621275,2.0667799714142676,1.0453928534923604,-0.8863117501292007,-0.19745246292531896,0.04676758886434183,-0.41589082290933344,3,right
15.574000000000002,-0.17219428381045826,0.9996755443714725,0.04005772253486442,2.097756639431724,1.0227198815506753,-0.8832516341870962,-0.19769920768790666,0.04670293642699108,-0.41640054978942953,3,right
15.575,-0.164702319000173,0.9910056234579314,0.04976874381687835,2.0735675108302107,1.0403671187255292,-0.8856151509597854,-0.19727539871430616,0.04691878744623004,-0.4155506938881147,3,right
15.579,-0.16118243438681307,0.9846970613112159,0.05598973098438768,2.086576385120027,1.0308457175543966,-0.8843301926839242,-0.19767185780172208,0.0466806279727774,-0.41633682951373396,3,right
15.579,-0.16482867820327043,0.9852573776788776,0.06042365283316761,2.0838998069689634,1.033068325674487,-0.8847135436598121,-0.19741023242946315,0.04697704858950974,-0.4158520679541797,3,right
15.584000000000001,-0.17738039070536066,0.9893085494617931,0.06662817004420432,2.0796340768420984,1.035462314979531,-0.884806198280034,-0.19751348617842823,0.04647458075307363,-0.41594928085371075,3,right
15.585,-0.19466117394455493,0.9950962419755717,0.07412615242796236,2.08700870622782,1.031317681299449,-0.8846433821626153,-0.19753864553627062,0.04732880568524581,-0.4162113576428507,3,right
15.588,-0.2090169360361257,0.997664680984146,0.07443358404470528,2.079667262857291,1.0351384306095044,-0.8846676543665044,-0.19743857738713466,0.04612490430311967,-0.4157044611568864,3,right
15.588,-0.2206563373642823,0.9968637380516454,0.06360031644989103,2.0848165325581984,1.0326134798868931,-0.8847205946065998,-0.1975569004048114,0.04739515542814339,-0.41626636735234734,3,right
15.593,-0.2250959752567247,0.9991456405166501,0.05231422634519718,2.0832040576041564,1.0338201103338243,-0.8848917301332258,-0.1974701245468229,0.046681923336512623,-0.41590764166109073,3,right
15.594000000000001,-0.22133612878440326,1.0041062116415354,0.04201325712247979,2.080549292465571,1.0333916196334658,-0.8840834594647436,-0.19748649243267216,0.04596450582943773,-0.4157672480425696,3,right
15.597999999999999,-0.21711193497808992,1.0088681395456702,0.029145008300192912,2.087509848510829,1.0337083254866632,-0.8858386381148644,-0.19756411224924572,0.04893631741064859,-0.41665794628958286,3,right
15.597999999999999,-0.21513673658402038,1.0119441671512925,0.01752369097482328,2.0773338419371723,1.0330818911868862,-0.8831987750751917,-0.1973932029276118,0.0434553856066751,-0.4149563624265018,3,right
15.603,-0.215702638168828,1.0112500702393157,0.006940767599557116,2.087905953489652,1.0339539632958852,-0.8860413986691796,-0.19761874390851047,0.0504863605399817,-0.4171523359481804,3,right
15.604000000000001,-0.21551587159157187,1.0075499166317856,0.003140471921454484,2.081794660844608,1.0334521466303015,-0.8843990233841812,-0.19742793604106107,0.044619309274145855,-0.4153146955340315,3,right
15.607999999999999,-0.214948597005795,1.0024546911287908,-0.0018319202212080778,2.077137041365664,1.0325670475382658,-0.8829210315411608,-0.19744264592935462,0.044767549934568815,-0.41538137181738344,3,right
15.609000000000002,-0.21704909561404878,0.9970448769727654,-0.021536934340431572,2.0983107049211283,1.0358551610463569,-0.8893094145529625,-0.19777530475708846,0.055989477529296644,-0.4188293982611471,3,right
15.615,-0.22368373741634662,0.9949330670210831,-0.04588279296286797,2.0590051868062718,1.0297861373877755,-0.8774655464015466,-0.19694628693443533,0.02841979336614088,-0.4103350108151329,3,right
15.615,-0.23800600659020116,0.9959302262011209,-0.06845278074815983,2.1094241332171517,1.0376169860689977,-0.8926794924067121,-0.19832393315697566,0.0741283870278899,-0.42442365910926305,3,right
15.618,-0.24807698553513122,0.9961627515469139,-0.0799676820830396,2.0673557725860823,1.0310617406037692,-0.8799747905726883,-0.196506350811551,0.01383922511058136,-0.4058411084107992,3,right
15.618,-0.25027617203058616,0.9963671616896305,-0.08376718165539468,2.068556881977032,1.0311928341037122,-0.8803143642091495,-0.18889341677509452,-0.23923878716440322,-0.3278578497071387,3,right
15.619000000000002,-0.25785133453979947,0.9971158965289891,-0.09471113373929896,2.148502948188763,1.0438924094848199,-0.9045622166810359,-0.18707658115931444,-0.29952935582649154,-0.30927864616604384,3,right
15.623,-0.2641147161632074,0.9975496184371431,-0.09819950039910025,1.9519602101842644,1.0127119269463143,-0.8449644943324015,-0.18845341895538448,-0.25381924074738943,-0.32336367228945745,3,right
15.625,-0.2641124882918502,0.9961673315996888,-0.09668059494221598,2.2778298189730943,1.0644158449153691,-0.9437837279457351,-0.18762409567837604,-0.28138834395981993,-0.31486791022099875,3,right
15.628,-0.2645533215512442,0.9935218844530043,-0.0999685332415089,1.8480272166938878,0.9962056001417979,-0.8134377776940891,-0.18795943067453208,-0.2701714692957616,-0.31832794361065475,3,right
15.628,-0.2647602911401645,0.9932602332473662,-0.1005344092997993,0.04406596813958347,0.7097994398465891,-0.26636275747453275,-0.18796837994475518,-0.2700123594933168,-0.3183687817130294,3,right
15.629000000000001,-0.26801950938053554,0.9924442710241336,-0.10909811086396831,-0.3857127030232248,0.6415716284465061,-0.13601672711550927,-0.18778583363939566,-0.27589499260047057,-0.31656819098672306,3,right
15.633,-0.2740629908308274,0.991592810310223,-0.12643241285489137,-0.05987807483779582,0.6933006892281641,-0.2348287369076804,-0.1880031453244263,-0.2688485042817683,-0.31872726702985366,3,right
15.634,-0.2793432906993588,0.9946807158365314,-0.1441687307451388,-0.25639846800145627,0.6621056983387359,-0.17525694148708718,-0.1878357914419842,-0.27433612448187383,-0.3170416106566294,3,right
15.638,-0.2845769740746322,1.001627154955163,-0.16655592645448758,-0.17643288328399023,0.6747870417679787,-0.19945112351083838,-0.18792046713522398,-0.27137764673757336,-0.31796397727539816,3,right
15.639000000000001,-0.28269821845427745,1.0159406117902328,-0.18558369630522464,-0.17531810865878977,0.6749873017120671,-0.19987051297028233,-0.18791408767279877,-0.27205213347629476,-0.3177215437503064,3,right
15.642000000000001,-0.26769262348300765,1.0314921148622997,-0.1875119978172199,-0.21722718350519893,0.6683089156645383,-0.18707992337992313,-0.1878665168948665,-0.2728393250276695,-0.3175386525641793,3,right
15.642999999999999,-0.24028097936691112,1.041108839908544,-0.17725149509118374,-0.16701119756657717,0.6762923297305198,-0.20234373202870645,-0.18793671436215142,-0.27147831990168125,-0.3178847493232262,3,right
15.648,-0.20587396171994754,1.0502745812732215,-0.16781233875757906,-0.206146788714269,0.6701018692216656,-0.19054457434519678,-0.187875030776132,-0.2727545556292805,-0.31754993101624474,3,right
15.648,-0.17491346585223932,1.0581863829007223,-0.15854065748140048,-0.18498861402960037,0.6733871152470632,-0.19673754234136526,-0.18790049411788617,-0.27190101933564437,-0.31781348499772333,3,right
15.652000000000001,-0.1501191463966816,1.063963232479205,-0.1490449958191871,-0.18992278858674294,0.672731681631936,-0.19562650710220653,-0.1879326036044641,-0.2722691527682348,-0.31759149536687914,3,right
15.652000000000001,-0.13315810429777059,1.072807280694842,-0.14914059243147437,-0.19537227946776398,0.6717090341136633,-0.1935008988729925,-0.1878336356514226,-0.2722796510462963,-0.31783631996166106,3,right
15.659,-0.12489938715005697,1.0830938566229924,-0.15882704782992496,-0.18580905900913094,0.6733531010571339,-0.19677826112730118,-0.187987380826694,-0.2720600014879859,-0.3175339494698304,3,right
15.661,-0.11971544243234032,1.0918325459522804,-0.16871758516881946,-0.194887020036589,0.6719128998087462,-0.19402835827315612,-0.18782237873572757,-0.2723321071755702,-0.3178445679269541,3,right
15.662,-0.12123774398823275,1.102012111847994,-0.16975663130175425,-0.18859256321427847,0.672678648827244,-0.19523787459212508,-0.18791947018002503,-0.2721149562290509,-0.31768360790275874,3,right
15.662,-0.1302214292780252,1.1142685724322499,-0.15873100964157746,-0.19173493402165748,0.6727138711076068,-0.1958836118547018,-0.1879943770856483,-0.27222474530774265,-0.31745317799142714,3,right
15.667,-0.1416487074506586,1.1226460184696543,-0.14421901663727943,-0.19100629176191855,0.6720324664091755,-0.1937192539714499,-0.18765224185090856,-0.2722302588088063,-0.3183115475337345,3,right
15.667,-0.15626235218625653,1.1271141732476748,-0.13019518059214716,-0.19033423935618238,0.6729891517728632,-0.19646626390122907,-0.1882892370899661,-0.27213243417014643,-0.31674682575277435,3,right
15.671,-0.1654771625362706,1.1313651031239464,-0.1081514667698451,-0.19169417004780676,0.6722817453013614,-0.19458374960255223,-0.18747084953876203,-0.27227754025308715,-0.318749858970121,3,right
15.673,-0.16379661208871882,1.1307309853270713,-0.07619237963897023,-0.18984552839564178,0.6721526552386061,-0.19387909387381463,-0.18815411979902977,-0.2721487257941384,-0.31708019656423225,3,right
15.677,-0.15701395396016588,1.1225666865017923,-0.03921991898406806,-0.19236271156304083,0.6736048188472614,-0.1986573596553327,-0.18813516747102532,-0.2721821067251875,-0.31711569926846395,3,right
15.677999999999999,-0.14744786454123915,1.1102682681983784,-0.016801678322002456,-0.18901152501583002,0.67070168171691,-0.18939490448608873,-0.18683422346997214,-0.27232902827008615,-0.32033096996645793,3,right
15.682,-0.14392011627066592,1.0980519099482766,-0.025551460326052676,-0.19283971403326652,0.6745058407015432,-0.20143408827426768,-0.1900319329750677,-0.27193329327975724,-0.3124398613864072,3,right
15.683,-0.1486806208850272,1.0906670213342928,-0.034646398156084064,-0.18984484905541857,0.6712965685874528,-0.19131966377947132,-0.1847304159445216,-0.2725976365342759,-0.3255204220047425,3,right
15.687000000000001,-0.15440294499897056,1.0882968834793028,-0.03114080534574177,-0.18961549364119007,0.6714360481696672,-0.1916934348809455,-0.1917223969894642,-0.27172174374785535,-0.3082678496406903,3,right
15.687000000000001,-0.15749158097075608,1.0900301379257638,-0.028426022050552592,-0.19615142539589814,0.6774164762782924,-0.21071524015789675,-0.22107800845002407,-0.2680764964234559,-0.2358323160211481,3,right
15.687999999999999,-0.16498349877850305,1.098071418384155,-0.022140096158463747,-0.18053666989862518,0.6626391564184317,-0.16381369115136768,-0.22806868696722782,-0.2672062566729186,-0.21857921134399877,3,right
15.692,-0.19858514670410427,1.109682265861137,-0.03204773175210117,-0.20625579318346135,0.6871728791776156,-0.24163943053195636,-0.22276857952935508,-0.2678644851031291,-0.23166034848811196,3,right
15.693,-0.23007624319121078,1.1163335660241673,-0.04643508839074674,-0.17239584742481623,0.6547977882063127,-0.13895935083018734,-0.2259668238017108,-0.26746641899930446,-0.22376945683391858,3,right
15.697000000000001,-0.23966803663114553,1.1183540910246055,-0.0508893025413575,-0.030002175824552314,0.5190052278701287,0.2918539769920993,-0.22466120769293235,-0.2676336387481405,-0.22698282149133236,3,right
15.698,-0.2709362552880875,1.1234586910706756,-0.0814134787420038,0.003843404503790039,0.4866191753961667,0.3945537508565418,-0.22465230966214206,-0.26762335233696943,-0.22702242819687166,3,right
15.698,-0.3051547742598788,1.1315563874898293,-0.11300163630459109,-0.021824427673733396,0.5111704333889803,0.3166958611192684,-0.22532116276525277,-0.2675571425370008,-0.22534687915256518,3,right
15.700999999999999,-0.3108349255852556,1.1394543956226186,-0.11214202796895043,-0.006330383563417141,0.49637752097397936,0.36362771074337696,-0.2245171333614417,-0.2676399142513705,-0.22735577714781474,3,right
15.702,-0.3053948446106993,1.1463599038271477,-0.0998683239615012,-0.012656826157230575,0.5023600541802548,0.34459741050005205,-0.2251479302290503,-0.26756897309883443,-0.2257885194115035,3,right
15.706,-0.29223666669192505,1.1553536748165796,-0.08349931500400923,-0.01270381947751815,0.5025226918065511,0.34418902388286865,-0.22479347262037447,-0.2676280429779595,-0.22664186527163455,3,right
15.708,-0.27744532540928524,1.1684318633309352,-0.06323204971723001,-0.00945234783645166,0.4992580489172489,0.3543954270909272,-0.22490808554787023,-0.26756536237998096,-0.22642763947334293,3,right
15.710999999999999,-0.2623639849830698,1.1786893073194444,-0.04460468804605697,-0.013361663743932373,0.5031450340402512,0.3422117563263589,-0.2249367549143032,-0.267645355333693,-0.2262387469162745,3,right
15.712,-0.24042088071403767,1.1833559284707316,-0.03510750988741159,-0.010299325761286147,0.5001547427330382,0.35163477950384686,-0.22485573123262043,-0.26755282132567954,-0.22658365851364803,3,right
15.716,-0.2193843598631135,1.1876578155720527,-0.04150276291477468,-0.012000610059498196,0.5016542576596807,0.34675425389586473,-0.22494251377439473,-0.2676238347061616,-0.22625392857993018,3,right
15.717,-0.20265800807324114,1.1950520968161782,-0.0628269732003972,-0.01149639663186562,0.5015764581014108,0.3473989388936139,-0.22484297437127299,-0.2676370279042408,-0.22649855377229483,3,right
15.720999999999998,-0.1819138867020032,1.2069282904745164,-0.093696709137193,-0.011268668140834152,0.5006649614990926,0.34960584385180493,-0.22499929078560033,-0.2674655275876159,-0.22632723414649752,3,right
15.720999999999998,-0.15094187985774415,1.225890072144415,-0.12198043329166655,-0.011770986259297376,0.5019950132857627,0.346225945961675,-0.2247408541140518,-0.2678450441948055,-0.2264749097617585,3,right
15.727,-0.11441961481440864,1.2564981745477581,-0.14926292752493897,-0.011262671032723548,0.5008323180387578,0.34924566568083704,-0.22510273998262165,-0.2672819170372253,-0.2263130276886106,3,right
15.728,-0.08136119016433341,1.2984008295284863,-0.17741318217016577,-0.011744060484972273,0.5012860302832585,0.34779988306582654,-0.22472135732687387,-0.26788153134751347,-0.22647469131223685,3,right
15.73,-0.04964983950735588,1.3423295797441377,-0.18544166285774633,-0.011150665646921614,0.5019748918182596,0.34685617586971984,-0.22493478314886886,-0.2675362060557127,-0.22639849910408089,3,right
15.731,-0.014249149995868057,1.3805907224595297,-0.17746368112150673,-0.01202787105574665,0.49994388259244066,0.35046296352626244,-0.2251531617915407,-0.2672333880310173,-0.22624762507609997,3,right
15.737,0.0177176024010643,1.4110463763610308,-0.17704301226049013,-0.010834134129183591,0.5030829138450392,0.34473510571526617,-0.22425370926834498,-0.268549857846065,-0.22676840415984684,3,right
15.739,0.03793649734431548,1.434670187143078,-0.18415373529211732,-0.012085126415460477,0.4997166703068433,0.3509056544211059,-0.22591163191538946,-0.26611046961039,-0.22582786344209788,3,right
15.74,0.039224152530099206,1.458828671866161,-0.19636739077222215,-0.011396193261865592,0.5016932257326682,0.3472383068676024,-0.22378499713996863,-0.26924171085988546,-0.22702980582548182,3,right
15.741,0.021957888713712664,1.4854907549419312,-0.20207810242929186,-0.010634924549787112,0.5032395791299005,0.34458262447323296,-0.22555959551849375,-0.26662887944309666,-0.2260288258726702,3,right
15.745,-0.007268011007795193,1.5046582329098799,-0.18589119697892598,-0.013692315940416613,0.49621520012752246,0.35703258977224595,-0.22551486461990333,-0.26669636772930017,-0.22604673830697147,3,right
15.745999999999999,-0.03844896121555333,1.5145255049540443,-0.1645416057830541,-0.008072111430460324,0.5092873254750501,0.33379489927859396,-0.22212002646196488,-0.2716867906568786,-0.22798517185500144,3,right
15.75,-0.06895210069045121,1.5246407988752606,-0.14785587718595666,-0.015277261556356269,0.4924932117831077,0.36366640517634485,-0.23046042052406435,-0.2594268576437942,-0.22323187423776475,3,right
15.751,-0.11063819392401958,1.5351763197568844,-0.1314244067904381,-0.009267048320430878,0.5065156812441383,0.3387150803311556,-0.216632422443425,-0.279750627666552,-0.23110985419848834,3,right
15.754000000000001,-0.14079530624714948,1.540501901387631,-0.12131703037318639,-0.009411404803041905,0.5061249898446997,0.3394415020177308,-0.23487163970629152,-0.25294643168529624,-0.22071945662349068,3,right
15.755,-0.14974239327555053,1.5414152771246215,-0.11721587179329039,-0.020930663637938867,0.4794286145853521,0.38685008615070804,-0.31142823834509914,-0.14035379564631073,-0.17708092364586478,3,right
15.755999999999998,-0.1737916515331976,1.5451157535153026,-0.1148048471777251,0.007359565651738449,0.5450530098436212,0.2702664115876562,-0.3296676360709446,-0.1135465575952542,-0.1666889499079292,3,right
15.761,-0.21013465527155856,1.5594164203618357,-0.10084065030293902,-0.03953957173782611,0.4362497201355592,0.4635813863386343,-0.31584038511267987,-0.13388392968304036,-0.1745702165859831,3,right
15.762,-0.22927335043664354,1.5713139883999605,-0.08304915929908586,0.022317058670709912,0.5797485906728648,0.20860097391032972,-0.32417736701063793,-0.12158872753240238,-0.16981196614596056,3,right
15.765,-0.23581801926912555,1.5741950381248504,-0.07718327313763237,0.28198462524483525,1.1820630382108277,-0.8616048292048066,-0.3207900579267272,-0.12664352428697895,-0.17175629087672892,3,right
15.765999999999998,-0.2547864226639212,1.5839486175368713,-0.05622044759148478,0.3438344589441803,1.3255181234895415,-1.116571813850761,-0.32073372447423687,-0.12662280335390577,-0.1717692423308239,3,right
15.767000000000001,-0.2721782316109503,1.5940750697003407,-0.023536201326675374,0.29694886229653705,1.216790876596785,-0.9232760183746941,-0.32252127799545394,-0.12409617600357349,-0.17076919899433107,3,right
15.77,-0.26547986406866614,1.5992760345931551,-0.0008241613857957008,0.32521997340689723,1.2823317394696714,-1.0398487434244132,-0.32038633996341426,-0.12719187696440698,-0.17197792361800446,3,right
15.770999999999999,-0.249491870865147,1.6102090772078403,0.022727231495348596,0.3137215016522661,1.2556875778899699,-0.9924259331905179,-0.32203930819789506,-0.12467441684957954,-0.171020130207572,3,right
15.774000000000001,-0.22819781700164543,1.6224362448249239,0.03795701872529407,0.31356260253436263,1.2553244060559905,-0.9917528116008312,-0.32116665729909866,-0.126236636906789,-0.17156809642506826,3,right
15.774000000000001,-0.20229321797342048,1.629865245538093,0.03606729902782457,0.3195695006539559,1.269195436150613,-1.0166095475191343,-0.3213325430296341,-0.12551246951164746,-0.1713864368322121,3,right
15.78,-0.1779837399823162,1.6323368676371808,0.030698418344915993,0.31239784000325055,1.2526920111553794,-0.9868549269943415,-0.3216172031552123,-0.1256829303360657,-0.1713310474936146,3,right
15.78,-0.1495766346468947,1.6329957575717986,0.030774399830101475,0.3179475313639416,1.2653789245117388,-1.010000037319212,-0.3211688038613254,-0.12587281006715556,-0.17150142394370294,3,right
15.784,-0.11656197188693569,1.6323895093240293,0.03716486106951621,0.3149905734748358,1.2587035748537623,-0.9975468227913245,-0.32155362964148326,-0.1253027549673802,-0.1712814314914055,3,right
15.785,-0.08070328444273585,1.6241859025403524,0.04515447355371305,0.3156505520689049,1.2601553964197485,-1.0003800395779003,-0.32136559543417387,-0.1264502653212936,-0.1715463898287189,3,right
15.79,-0.04420606580704635,1.6107694523234368,0.049978766054730395,0.3163878791237693,1.261710358019457,-1.0036466654809626,-0.32131827725017587,-0.1245293747455113,-0.17121262288480205,3,right
15.790999999999999,-0.01073307296900775,1.596855880791034,0.05213901248115996,0.3152113904417423,1.259481958536204,-0.9980685602198569,-0.3215568376268518,-0.1271479790862461,-0.1716149153787041,3,right
15.794,0.01923489347307346,1.5794465199584118,0.053566462507281774,0.3161458031045829,1.2607874273760373,-1.0031737960688152,-0.32124110826942875,-0.12444681565979665,-0.17122093411016087,3,right
15.795,0.045196555375406705,1.5610997067971528,0.05065636385600522,0.3157263408566487,1.2608718746733243,-0.9999073119221933,-0.32146465311639905,-0.1259470995021028,-0.17142538387739326,3,right
15.799000000000001,0.06943846336363713,1.5444175311929258,0.04663418411922378,0.3157459174193261,1.2600744339804715,-1.0012132883287397,-0.32152952554068503,-0.12742828654325372,-0.17167370812397187,3,right
15.799000000000001,0.09415209685011858,1.5252264464722147,0.044685295062050295,0.3157407958925546,1.260055167256236,-1.0012033691549973,-0.3210098728706141,-0.12129244449430528,-0.1707196706535604,3,right
15.804,0.11595741069426639,1.505905387936821,0.039536590598611684,0.3162090068390828,1.2627046300288058,-1.0008593099480487,-0.3220291416237895,-0.13258975547504057,-0.17245793314127583,3,right
15.805,0.13599852064329365,1.4883658058712723,0.040270853497806916,0.31492622823315375,1.2561562126512804,-1.0007680288249046,-0.3207005110452728,-0.11811257960200548,-0.1702365785765219,3,right
15.809000000000001,0.15339501754159188,1.4720936439010417,0.04424517676394347,0.3170151840399156,1.266331854842064,-1.0016269452941564,-0.32181780011341665,-0.1301870523138719,-0.1720874060022436,3,right
15.81,0.1574936713563548,1.4578483552408614,0.03742451247387586,0.3146858641586035,1.255246778492969,-1.0002888691846095,-0.3217754176796354,-0.12987786995332073,-0.17204209071742033,3,right
15.814,0.15336921432736594,1.4455251956134836,0.023697492962893193,0.3160644558460023,1.2617276070133956,-1.001196985631415,-0.3196775537470453,-0.10680690247703725,-0.16849942876388835,3,right
15.814,0.1468573047545367,1.434107216419496,0.011125503182571836,0.3172665783581431,1.267346114806859,-1.0020361423304633,-0.32485078975836024,-0.16348806538358804,-0.17720165509753766,3,right
15.818,0.13037165446245608,1.4167009959448522,0.017577784982660286,0.3119663925810201,1.2426660773044857,-0.9982014573996518,-0.31626780708470636,-0.06951584415186227,-0.162772502675598,3,right
15.82,0.11921193031290458,1.4037620379326365,0.032739947630663416,0.32183311150218974,1.288522476825387,-1.0054680864923529,-0.32758947115685255,-0.1934640781270211,-0.18180813566327111,3,right
15.824000000000002,0.11682865103406481,1.3992514106981244,0.03719598669889982,0.30913802150718295,1.2295805641796598,-0.9960298919909232,-0.37511180946579525,-0.7137336356617334,-0.26168819084021466,3,right
15.825,0.10587786738700566,1.3835412138818286,0.05591763392228682,0.3197471610560576,1.2788138965052638,-1.0039566351510842,-0.3864291903559975,-0.8376896195941557,-0.28073686529851083,3,right
15.825,0.09994795542763374,1.3632361026796125,0.07808086718933037,0.31946383896970126,1.2774869993868665,-1.0037473869481994,-0.37785159669790164,-0.743707204248687,-0.2662880697894673,3,right
15.828,0.1009940983948929,1.3469060222867775,0.07755758838585958,0.2992038423102103,1.1835475127230337,-0.9885370537816699,-0.38302392137531355,-0.800391586188488,-0.2750045278767951,3,right
15.829,0.10143828538641575,1.3284626585997557,0.06737147691826986,0.3490040833820681,1.4144513168452668,-1.0259495111880366,-0.3809161979425374,-0.7773352215591334,-0.2714682666596189,3,right
15.833,0.1131795204333613,1.3108704107499705,0.051088317712688944,0.2664245619007246,1.0315853745817058,-0.9638905146457276,-0.38089871219208105,-0.7769857934262646,-0.2713821869491073,3,right
15.833,0.12306491034847186,1.300542482520721,0.03920785978405418,0.3753602173609911,1.5366022029849535,-1.0457627551261834,-0.38197735573628133,-0.7891250370614316,-0.2733130735700432,3,right
15.834000000000001,0.12396390808678757,1.298684015032069,0.036697918216124115,0.8329217198816503,3.6566814942472803,-1.3893416611485168,-0.3806908918939876,-0.7745745348624633,-0.27098500053498786,3,right
15.838,0.1310482529168687,1.2925382274728305,0.028427215911427658,0.9419336485537082,4.161766293339797,-1.4711925562127295,-0.3816851245050036,-0.7859198801714615,-0.2728194443272295,3,right
15.839,0.14177078893642914,1.2827651404104197,0.023468791499032346,0.8591902182171469,3.778757238287051,-1.409188581156056,-0.3811450305890969,-0.7798092213989829,-0.2718415196366539,3,right
15.843,0.14964755660223084,1.281498581784993,0.025113953573204603,0.9092473459445414,4.009879502412527,-1.4464967348836717,-0.38130287017195197,-0.7811442965614772,-0.2719680577265579,3,right
15.844000000000001,0.15595771414093873,1.283149253314248,0.018456512680377464,0.8886667808992708,3.9156759147589826,-1.431442937423853,-0.38135084084872933,-0.7829332174860397,-0.27249515054184925,3,right
15.847999999999999,0.16713559908051331,1.283860208362994,0.0028249540015594437,0.8886761770020628,3.914577867007484,-1.431052630629147,-0.38126691047469363,-0.779838685839144,-0.27158545295425895,3,right
15.849,0.18644757678009816,1.2860202464190822,-0.021122919350419697,0.8991834721998804,3.9637547951881453,-1.4391142898985794,-0.38129631135036024,-0.782829319086012,-0.2725777294295768,3,right
15.853,0.21384956070942018,1.2909686380886776,-0.053603723712757054,0.8861927861127161,3.9045296582926383,-1.4296974737321757,-0.38130314434569923,-0.7807773643718919,-0.2718376703143416,3,right
15.853,0.2554664836692745,1.3000947551559359,-0.09062457544452404,0.8969242514148581,3.9511384773831137,-1.4366657322092777,-0.3813748640575671,-0.7815425769562601,-0.2719516738753426,3,right
15.857999999999999,0.3109522966730982,1.3120952208904069,-0.13067950592756103,0.8901792728346551,3.925249529214626,-1.433478889585118,-0.3810642478395966,-0.7820902982725413,-0.27282355709611456,3,right
15.857999999999999,0.37833336266804063,1.3301320359891182,-0.167726161310092,0.8931130185742102,3.9322639604868685,-1.433377452991191,-0.381735343604374,-0.7804163427652158,-0.2707657401862513,3,right
15.862,0.4544160105692735,1.355557302645415,-0.19870763142147335,0.8931673359496214,3.937758063740459,-1.4352552433996082,-0.38072536590360617,-0.7828153850787894,-0.2738209387066489,3,right
15.863,0.5269056141912372,1.384320981247689,-0.22695293048964282,0.8907003765691597,3.9263770759507306,-1.4334190117685282,-0.3818137436373623,-0.7803882271205109,-0.2705835478857759,3,right
15.867,0.5904541461502758,1.4177252519496966,-0.2535868451767645,0.8955339521754055,3.9390407302200567,-1.4336404118600372,-0.3811852958219343,-0.7817918850683899,-0.27245516640981315,3,right
15.868,0.639963232250066,1.4555203179731095,-0.28015150504856257,0.8882072232341134,3.9273280241366093,-1.4359274594100673,-0.380616279726656,-0.7827136178308732,-0.27402154546924806,3,right
15.872,0.6712121182356858,1.4926369907631574,-0.30236831224333316,0.8975092453889029,3.9372627319790228,-1.431293041710199,-0.3830705159352027,-0.7783068957396847,-0.26710335109977906,3,right
15.873,0.6802808272090779,1.5268905859118669,-0.31472748066147127,0.8883112374139346,3.9299929020052873,-1.4367725382124226,-0.3785215977494233,-0.7864973871550148,-0.2799383639676182,3,right
15.877,0.661905473734422,1.5556202748785488,-0.3232620698829144,0.8932574941810356,3.9324979878074613,-1.433330196663873,-0.3843640482918874,-0.7760047420661016,-0.26345899915207666,3,right
15.878,0.6273563818794126,1.5774084617794797,-0.3270657702134679,0.898299481416198,3.938227835441622,-1.4309461887710677,-0.37948658578063704,-0.7847530459268266,-0.2772183839216661,3,right
15.880999999999998,0.5654808686678018,1.5944321102712125,-0.32383242388509403,0.8778760628381133,3.9206881766472677,-1.4426111730074394,-0.37961331906836704,-0.7844871892471985,-0.27683383992500293,3,right
15.883,0.4849067350237973,1.6068645088354718,-0.3293203022996816,0.915270486626264,3.9510180708960045,-1.4206180503339159,-0.3889314209534364,-0.7679323954910133,-0.2506350070937998,3,right
15.887,0.40688164927380466,1.6107815515898167,-0.34064608505953387,0.8674714564666879,3.913048621559968,-1.4490205313987827,-0.3660359925003624,-0.8086423835690695,-0.31504760322931646,3,right
15.888,0.3011652994997066,1.6046718144934935,-0.34423657188685164,0.9072765096907182,3.94432954141898,-1.4252349347079327,-0.40399362306367503,-0.7411476697926314,-0.20823630504491797,3,right
15.892000000000001,0.21942436486239586,1.599507152431797,-0.3408602948301299,0.9063001596205045,3.94384615872081,-1.4259516992765398,-0.35393181728709616,-0.8301632622224835,-0.34913302646814554,3,right
15.892999999999999,0.19402266016383252,1.5978436390750004,-0.33656298344998425,0.8302001606937814,3.8835253340997156,-1.4711629526124035,-0.14376503514092567,-1.2037411603613015,-0.9404570867734963,3,right
15.894,0.11181714821877375,1.58817009351386,-0.33263959188214076,1.0170581288638014,4.0311345994774985,-1.3599050401711024,-0.09371456366456873,-1.292740827107953,-1.0813894101606651,3,right
15.897,-0.03626403918582124,1.5772955277959562,-0.302651165392005,0.707341434004632,3.7867048646353156,-1.5444481388030749,-0.13165447698825783,-1.2252710080349511,-0.9745224603532638,3,right
15.898,-0.12031771216371402,1.5754272563109866,-0.26968747819632416,1.1157877033772792,4.108951145196326,-1.3009897494365132,-0.1087737036702289,-1.2659604028359985,-1.0389810906154842,3,right
15.902000000000001,-0.1466924175119257,1.5747246827063306,-0.25672339233747554,2.830634948518102,5.461570019034852,-0.2793251533760974,-0.11809265485131516,-1.249404418899719,-1.012784923123761,3,right
15.902999999999999,-0.2304603340040586,1.568760247989573,-0.205455002405257,3.2390037939027945,5.783726722983759,-0.035815391242537395,-0.11819095279949825,-1.249178511678556,-1.0123110649142881,3,right
15.902999999999999,-0.3398941758869899,1.559711591785421,-0.13498374386771642,2.9293916333187706,5.53949018755778,-0.22042967479625594,-0.11337556414471381,-1.257839601365207,-1.02626542497188,3,right
15.905999999999999,-0.42009495205671066,1.5493619178946212,-0.0891972617157201,3.11620790504561,5.6867952742988725,-0.10913763577009959,-0.11912959075492774,-1.2474711967407264,-1.0095083155268587,3,right
15.907,-0.49803252334580606,1.5367281485506354,-0.04398604373317026,3.0399816840921856,5.626856057076613,-0.15427845545298438,-0.11466824488676924,-1.2555386387245508,-1.0226184022073763,3,right
15.911,-0.559851864969289,1.5224994457591312,-0.004520705676414616,3.039378221616817,5.626021295079208,-0.15522288231103998,-0.11708453316400087,-1.2511852483017427,-1.0155810016440245,3,right
15.912,-0.6039416740386644,1.5076758673162884,0.021215296201279342,3.078567526285906,5.657429988219009,-0.13104992712175667,-0.116441858622904,-1.2522104560778602,-1.016916029677006,3,right
15.915,-0.640609016840438,1.490329362186345,0.04084660602084879,3.031482953834485,5.619802980610136,-0.15991424856711906,-0.11605152243319233,-1.2532795746792855,-1.0195355550326715,3,right
15.915999999999999,-0.6646999167636314,1.468799145711046,0.05401356852962476,3.068381000580308,5.649112989616796,-0.13758052021097764,-0.11672962280343054,-1.2514288669080262,-1.0150094685253885,3,right
15.921,-0.6833285442376753,1.4465267804266686,0.06798381406225029,3.0477774814844527,5.6332887766563715,-0.1491745609834314,-0.11622304576695358,-1.2531205935282173,-1.0196458849931935,3,right
15.922,-0.6947233030823896,1.426990405120827,0.09031529907746036,3.054145305728807,5.636950042445032,-0.14757935037096487,-0.11649285706979723,-1.252010510015984,-1.0163275765755269,3,right
15.927,-0.7016371917505815,1.4090783832554843,0.12080862587814663,3.0563836793266996,5.641056246492656,-0.14245974887825674,-0.11617875654754664,-1.2525630416423654,-1.017188579459522,3,right
15.927999999999999,-0.7071411624995779,1.3955141460252796,0.15055236320459614,3.0509587508039187,5.633907061513439,-0.1503356416526329,-0.11699474655532968,-1.252282626279988,-1.0196402940927483,3,right
15.931,-0.7075890780003444,1.3845856847584894,0.1731795915517521,3.0565803174295185,5.640628133718922,-0.14328551337039894,-0.1153006420961836,-1.252620479944326,-1.0135575695907368,3,right
15.932,-0.7035046193649666,1.370900751194328,0.1891102926163316,3.0507693958903905,5.636066870488497,-0.14671457616068057,-0.11786753308919667,-1.2520458283571458,-1.0225202269126514,3,right
15.937000000000001,-0.6945679153749034,1.357295464893631,0.19747761817327064,3.058878728815105,5.638215233770152,-0.1487484577008568,-0.11507861781595535,-1.2527520707058097,-1.0131139253021437,3,right
15.937999999999999,-0.6815859838612277,1.3406987069662732,0.1990485050284548,3.046119899373452,5.637856710785485,-0.14066206125283004,-0.1166894722317924,-1.2523447259023723,-1.0185503720006106,3,right
15.94,-0.6654490955692896,1.3187366344917635,0.19601848847159367,3.063769894531407,5.63730155896563,-0.15354852022274826,-0.11819471660176817,-1.2517871484665961,-1.022908791546143,3,right
15.940999999999999,-0.6470135302534763,1.2963507841816757,0.1893219049407074,3.045213943549998,5.638096347237459,-0.13965866937308463,-0.11175810174915307,-1.253960831672488,-1.0034100022358343,3,right
15.946,-0.6276279402178297,1.2720254796727637,0.18302385578953584,3.055525974275178,5.637316552638693,-0.14792527913720305,-0.1236873224676256,-1.24994230067267,-1.039591583569579,3,right
15.948,-0.6065419553863323,1.2461245397968455,0.17864309661741187,3.0664383889451114,5.638232273877576,-0.15385494230101998,-0.1083599732224183,-1.2551202561540835,-0.9931601021585817,3,right
15.95,-0.5842452855264207,1.2230103422842853,0.1739047216459838,3.021996679525878,5.63682382261163,-0.12594745891992093,-0.1211603933500937,-1.2507884421400006,-1.03191075063841,3,right
15.950999999999999,-0.5575469213982984,1.1976617394433884,0.1754765493640823,3.1038110439941224,5.638966718147296,-0.17805342730542892,-0.12082623010705759,-1.250886658198815,-1.0308279453868583,3,right
15.955,-0.5304693097013059,1.1723955205319405,0.18406767108878713,2.998898968808576,5.6363203500909815,-0.1110704333124004,-0.09636600487239685,-1.259232790641195,-0.9570841941361643,3,right
15.956,-0.5109474048986888,1.1552005444043871,0.18995207806822234,3.086419223359126,5.6384871157947565,-0.16701890931245433,-0.1564768922346839,-1.2387301533887607,-1.1383623151779516,3,right
15.96,-0.48675409790378554,1.1291672727122473,0.1938180179257689,3.084283850973042,5.638591813174463,-0.16539114414214034,-0.05680943830801215,-1.2727296900436678,-0.837798277228426,3,right
15.960999999999999,-0.46833939123061963,1.106264350863491,0.19600042987625704,2.9166583033713276,5.63392419185324,-0.05909011853303699,-0.18827327349866715,-1.2278763734230709,-1.2342315511386417,3,right
15.962,-0.4663607794761872,1.1033888705703239,0.1958183966416372,3.328362657408036,5.645204332025271,-0.32048952596379143,-0.7401254063689487,-1.039625769998879,-2.8981721480143627,3,right
15.965,-0.4501662309385816,1.083672147741216,0.19656571845371484,2.645845049234028,5.626550703609725,0.11294308259738296,-0.8715940938768683,-0.9947667521212512,-3.2945920259350396,3,right
15.965,-0.43268663271744356,1.061431718368756,0.19615385125047002,3.5460277079777436,5.6511511309171985,-0.45873613542991,-0.7719186628601573,-1.028767174798765,-2.9940492282242426,3,right
15.972000000000001,-0.43066159729498593,1.0578049195060593,0.19587787399282142,7.3250994952459205,5.75464238177479,-2.858282035674382,-0.832037213325378,-1.0082855938781825,-3.1753089648431216,3,right
15.972999999999999,-0.415593259131551,1.0396456223428212,0.19489726238510557,8.2251809889861,5.7792636393336,-3.4298977312461023,-0.8075744879037474,-1.0165726920037206,-3.1015664024127183,3,right
15.972999999999999,-0.39564037334581037,1.014722231240527,0.190781840994786,7.542834277815312,5.760587517879541,-2.996556814056653,-0.8072323998418147,-1.0167721589324596,-3.1005139519646416,3,right
15.974,-0.38083197632165966,0.9939298737739283,0.18958327072899486,7.954362627963469,5.771858930934701,-3.257901020807632,-0.8200548344069325,-1.012315802033703,-3.1391947267100724,3,right
15.975,-0.3591401502112273,0.9689567758883767,0.1913416723115709,7.7868226808135494,5.767266387607812,-3.151539710139968,-0.8046922576116167,-1.0175920081973833,-3.092865741646567,3,right
15.979000000000001,-0.33649211929308986,0.9435841518760065,0.19260407168791271,7.784802870840419,5.767209759595509,-3.150153683975509,-0.8166613878316351,-1.0135789319184871,-3.1289419693773843,3,right
15.98,-0.3108011139545686,0.9160763018779066,0.1972057301170499,7.871917447076476,5.769607661527374,-3.205665861362977,-0.8101980845562045,-1.015557996980239,-3.1094960257772715,3,right
15.984000000000002,-0.27793095420427727,0.8902510238160714,0.21091474078088043,7.7677091231988635,5.766731344440982,-3.139229371945992,-0.8116913498059015,-1.0154376564154977,-3.113926530472271,3,right
15.984000000000002,-0.2476324287043508,0.8667899280083929,0.2323332149839456,7.848663119628944,5.768973060541867,-3.190891463778383,-0.8133784442019543,-1.0143846368251954,-3.119101228324192,3,right
15.989,-0.2216196196840884,0.8406434013230335,0.2542829529475368,7.804899949311339,5.767762986751492,-3.1629941559088977,-0.8104369304894495,-1.015768865350542,-3.110162189131606,3,right
15.989,-0.19889925989605167,0.8155841586016799,0.2768709310819057,7.815833435116946,5.768041258155286,-3.1697158391291227,-0.8132136492410262,-1.014824708966396,-3.118534228240289,3,right
15.994000000000002,-0.18350128061023313,0.7912057246527604,0.29727886733636993,7.824856530828113,5.768358919883578,-3.1761495987712847,-0.8113184814522456,-1.0147653961844585,-3.1129481923593056,3,right
15.994000000000002,-0.1725145801316743,0.7619179983543398,0.31102487014573554,7.809212330081755,5.76780780594429,-3.1650061622462315,-0.8122105698154682,-1.0160746318304257,-3.1153446170654533,3,right
15.998,-0.16631440273916254,0.7332016643777488,0.3228020915580556,7.822554803974505,5.768324250518292,-3.1749607357971064,-0.8120907486057709,-1.0137079364667732,-3.115421179368984,3,right
16.0,-0.16881849125077292,0.710861058368224,0.33131155245372557,7.814328654925334,5.767978549839483,-3.168556633804755,-0.8117754949300797,-1.016382507623154,-3.1140036171498937,3,right
16.005,-0.17353029655716706,0.6890130069673186,0.33843900450754905,7.819947195229807,5.768130806580574,-3.1721128030028636,-0.812254451487065,-1.014735042985196,-3.1157181656970683,3,right
16.006,-0.18176502028903105,0.6686202543112829,0.34631941538030075,7.811533948028618,5.768125372927933,-3.16896284505715,-0.8117445708604291,-1.0136323217719572,-3.114411989564761,3,right
16.008,-0.197152888434832,0.6535971316501252,0.3454974523399028,7.827691037562451,5.768054648612221,-3.174214189391403,-0.8122739878834047,-1.0190445731624096,-3.114992502036186,3,right
16.009,-0.21141279665555573,0.6411025563198571,0.3346704210653345,7.80287620901553,5.768139845421658,-3.1659270965557837,-0.8116938481024494,-1.0088681232940817,-3.11512865045311,3,right
16.016,-0.22288823969670013,0.6316828387634614,0.31574185569008395,7.830273640885742,5.768076049454353,-3.1753622669066166,-0.8122947236230122,-1.0219867287884892,-3.114517843498647,3,right
16.017,-0.2308167145652306,0.6240610087327265,0.29050861498242164,7.814455203631498,5.7681111066077415,-3.1699160956183365,-0.8118527377898856,-1.0110106481871863,-3.1152101640226295,3,right
16.018,-0.23180903958416516,0.6147544134707568,0.26560448677987447,7.798717411257504,5.768090543459931,-3.1638928672068554,-0.8117741813195671,-1.011347361403784,-3.1149124602979454,3,right
16.019000000000002,-0.2274690579542209,0.6083727913453558,0.24503169038277234,7.8648682644494565,5.768120108523269,-3.188535988350596,-0.8128585840326183,-1.0321726902188588,-3.1143356736353183,3,right
16.023,-0.22275160534315008,0.605044911965053,0.23233378706984015,7.742330226662175,5.768063230926542,-3.142918186920841,-0.8103222191398558,-0.980925675671955,-3.1161538457116897,3,right
16.023,-0.22327952877278734,0.5982479093031654,0.22397105446591092,7.899844878476734,5.7681466801207755,-3.2016067195963562,-0.814481234612624,-1.0659227363994552,-3.112991533466976,3,right
16.028,-0.22343260881775573,0.5948440755229896,0.21799020868319072,7.768270239439282,5.76806667943484,-3.1525564896595477,-0.8090103011391235,-0.9537984397787618,-3.1172130958969912,3,right
16.029,-0.22350669342312973,0.5929897374424495,0.2172999509249485,7.771598249462362,5.768081445207885,-3.1537528116683324,-0.7860891770103939,-0.4834010722098342,-3.1348857887996386,3,right
16.03,-0.2286612351665842,0.5844060814947322,0.21580446915810875,8.023455304154108,5.7682156546722005,-3.2478583676218467,-0.7806256692044311,-0.37128371492238366,-3.1391232425352396,3,right
16.033,-0.23649500876658786,0.5786008652938632,0.21220207056847074,7.404615170218407,5.767851564219126,-3.016646405096485,-0.7847510084123428,-0.4562493098222293,-3.135888840123343,3,right
16.033,-0.25429455632608483,0.570949276845413,0.20708863181524467,8.430674472933124,5.768487113781628,-3.400030997852048,-0.7823024131789437,-0.40508429938126983,-3.1378949189969676,3,right
16.038,-0.2705534358206981,0.5610704871919411,0.20173817040516678,7.077279407610776,5.767611874326407,-2.8942989029583046,-0.7832262205819929,-0.42575958631426725,-3.1369742950408273,3,right
16.039,-0.27372514664666747,0.5591326914549672,0.19974650629080215,1.3957239027468882,5.764114160594119,-0.7712259322138975,-0.7833681142314826,-0.42630225896845175,-3.137148595979881,3,right
16.04,-0.2858747512777051,0.5506729861421715,0.19450126769705905,0.04231691739640547,5.7631451704759105,-0.26540440625553124,-0.782710196774234,-0.4151244453463735,-3.13737856478006,3,right
16.044,-0.30785183300129937,0.5349981222627382,0.1880219338677816,1.0683948511111219,5.7639272658045,-0.6489287951914585,-0.7834009997505733,-0.42832705609056865,-3.13696034952311,3,right
16.044,-0.3257730572885388,0.5225605382163341,0.18338175245741575,0.44953931115256085,5.763441959587877,-0.41760119287156644,-0.7830143549619324,-0.4183313985717493,-3.1375107181211375,3,right
16.047,-0.3444284451821997,0.5086147317829087,0.1739361169332099,0.701395459356415,5.763569138214356,-0.5117000606852955,-0.7829312832063524,-0.42317140459294206,-3.136779907673714,3,right
16.049,-0.36510582298850536,0.49573715920011985,0.1649201986448574,0.7047533939206806,5.763819113230219,-0.5131207267628496,-0.7834735347474323,-0.42305166547814577,-3.137726407380903,3,right
16.053,-0.3841504878263482,0.4828634632848295,0.16117903342753256,0.5731134520246943,5.763225664631122,-0.46358073608156336,-0.7826624188300759,-0.4201989380630959,-3.1366787428933645,3,right
16.053,-0.40507516022993795,0.46751292072801554,0.15894608707339591,0.7307211095046682,5.764040510043209,-0.5229669484025122,-0.7833751631311736,-0.4238338945632093,-3.1374623972224924,3,right
16.058,-0.42803176924186503,0.45445259148400674,0.15770343015068428,0.6080909851132776,5.7632592907823295,-0.4766581638038997,-0.7832653851709466,-0.4214766550107276,-3.1375601447295614,3,right
16.059,-0.44644958381827715,0.44028672943962166,0.15538641261738384,0.6742816987979888,5.763602717092046,-0.5016007532671862,-0.7822474569737135,-0.4210013304596566,-3.1358674508977424,3,right
16.062,-0.46372564838409935,0.42737721334059514,0.15057373989384804,0.6586214621561379,5.764191453934521,-0.49615862311510506,-0.7847162490846793,-0.42501920526420167,-3.13962471527327,3,right
16.063,-0.4859025591116309,0.4193505322263922,0.1468095717477153,0.6425524889563481,5.762256938396538,-0.48883379615382827,-0.7809829969191661,-0.4179929793103172,-3.1340583476707504,3,right
16.067999999999998,-0.5102254064905231,0.4132702341639581,0.14328516025168586,0.6703815072296677,5.765586763223762,-0.5015060741278112,-0.7849811790305061,-0.4258606255723022,-3.1399783659195224,3,right
16.07,-0.5336101029582225,0.4089671226611165,0.13862322481160072,0.6450372373436324,5.7615081143505265,-0.48924702342047144,-0.7826585682972746,-0.42106175922888966,-3.136566628187979,3,right
16.072,-0.5551861322721279,0.40338430617967747,0.13666616600352313,0.661616212370529,5.764756517565306,-0.49766475722582376,-0.7806951539558712,-0.41771149975333066,-3.1335980433792114,3,right
16.073,-0.5751773624800132,0.40129391096078726,0.13595981353058112,0.6532069906760745,5.764780066553298,-0.4945419377516597,-0.7893595684040211,-0.43382441115803216,-3.146539759938916,3,right
16.077,-0.5932190180048029,0.40426998377913875,0.1332920964406365,0.6580422196260818,5.758775896441364,-0.49222615555886784,-0.7732742372576447,-0.4036006269245147,-3.122550160896926,3,right
16.078,-0.6083982950669709,0.40220953051860275,0.1313628539016727,0.6516055758302213,5.7724996515469655,-0.4992423135665583,-0.793935008263137,-0.4425321091876704,-3.153351358588746,3,right
16.081,-0.6203008852302316,0.4002188916392456,0.1296083387562535,0.6622789547527456,5.7520272531260925,-0.489175779213748,-0.7766832282084323,-0.40997939224395297,-3.127635964941647,3,right
16.083,-0.63125397659118,0.4000088642675327,0.12746244029984982,0.6494793976021991,5.773850135949747,-0.49937563294950227,-0.7771554660165378,-0.4109376649758921,-3.1283357858422924,3,right
16.087,-0.6415531277398845,0.3934896560298434,0.12653543130579648,0.6568599863477322,5.761241034258816,-0.49347661720505903,-0.8100374669480355,-0.47280281590345896,-3.1773618088859745,3,right
16.088,-0.6480919876159432,0.38843222730032034,0.12441897868337115,0.666374090563557,5.7503733551359755,-0.48956922496113287,-0.7292089983343248,-0.3206363756529791,-3.0568519808074015,3,right
16.090999999999998,-0.6550637640375911,0.38651794547546214,0.12342912825010048,0.6288153679264112,5.79793719203822,-0.5081939998009647,-0.8632307670079958,-0.5729735587179461,-3.256672712169901,3,right
16.093,-0.6604332812988254,0.3824847764295055,0.12416456572324772,0.698266372652042,5.709729971474648,-0.47357878176509716,-0.6864532832394286,-0.2401325060960462,-2.9930976311087294,3,right
16.096,-0.6601032587821022,0.3808814143994089,0.1231865079152079,0.6088250388428863,5.82299151902446,-0.5179282394121975,0.05555126120122267,1.1569366810926431,-1.8868119353881732,3,right
16.097,-0.6649685547396547,0.3815139089693862,0.12278441434590547,0.6836168129026967,5.728436499482143,-0.48094818396497746,0.23233612432002695,1.4897647163283576,-1.6232024824577735,3,right
16.098,-0.670857212971091,0.3827686342694224,0.1181918197129568,0.6819171985730432,5.73099230664422,-0.4820719265576519,0.09830243043231433,1.2374398574912653,-1.8230766368651525,3,right
16.101,-0.6684364598386967,0.3836381990428034,0.10811790922992391,0.5379077865787169,5.911299086630471,-0.5520591305749635,0.17914182244376564,1.3896178873806373,-1.7025234481435203,3,right
16.102,-0.6641526013518237,0.379107479298043,0.09920567425400945,0.8916253363218631,5.468131638183001,-0.37994809071252367,0.14625752538505368,1.3276931683840103,-1.7515446653437658,3,right
16.107,-0.6575607648558011,0.3688432097689142,0.09018720350813364,0.30511798142062363,6.20292506732983,-0.6653038984878893,0.14577100115624797,1.326854479682154,-1.752334026738473,3,right
16.108,-0.6523841006127523,0.36116463614870115,0.0863989146160757,1.0787920626483594,5.233724716507175,-0.2889561198091694,0.1630586587042198,1.3592426089673326,-1.7264268395364994,3,right
16.109,-0.6495519614317499,0.3590946649691452,0.0856472924093134,4.3266956412493265,1.165099573612264,1.2903745436181557,0.1423429321541012,1.3204664405184476,-1.7574982338299685,3,right
16.112000000000002,-0.6425491521978924,0.35549894811766347,0.0794221262437935,5.1003988040840635,0.19579580536071198,1.666652584940609,0.1584876850000429,1.3506391405608906,-1.7332449510030918,3,right
16.113,-0.6363078143057967,0.3509891784779643,0.07804772389949144,4.513906454273782,0.9308143530456451,1.3814192909952336,0.14978817513195775,1.3343561586121937,-1.7462936139772218,3,right
16.116,-0.6321579649788012,0.3483234725709553,0.08105884755958978,4.867447439949447,0.4872884042413781,1.5533923304666746,0.15172308737993492,1.3381911016508978,-1.7435636316264822,3,right
16.117,-0.6338319351530872,0.34789280177858595,0.08193888708802527,4.7238817353492895,0.6680508501557195,1.48349850937165,0.15417515825390826,1.342190725406751,-1.7394097941309368,3,right
16.121,-0.641935905643982,0.3494980855359888,0.08122476828049893,4.721454113704237,0.6701785905905474,1.482403428221866,0.14993278590922904,1.3352657769205716,-1.7465919481147774,3,right
16.122,-0.6452784517806791,0.3465150206871217,0.07266351501679089,4.79710823673289,0.5757951229762026,1.5191585792758397,0.15398813098783398,1.341597589306041,-1.7394945649280187,3,right
16.125999999999998,-0.6446246431939465,0.34092099759519034,0.06091558116674969,4.707034808340632,0.6894381731568533,1.4752626751787488,0.1512289566258786,1.3374417182493747,-1.7444459516983528,3,right
16.125999999999998,-0.6429832401297058,0.3383414421937684,0.05164181108850921,4.776337797989729,0.600040733476445,1.5092558421525708,0.15232180998271322,1.3395085530822102,-1.7428242489356636,3,right
16.131,-0.6373754584656037,0.33657673164396007,0.043283413461768755,4.740291218527391,0.6496401129896288,1.4912240111880006,0.15279244010251514,1.3384667737939222,-1.7405681183223387,3,right
16.132,-0.6303048194127621,0.33641762634672323,0.03834345447856852,4.746602384180944,0.6362811660830866,1.4949114894277042,0.1511146723282725,1.3397136876648297,-1.7466214102875584,3,right
16.137,-0.621575015726041,0.33809434527706406,0.036891355817753435,4.758554153556284,0.6256560091483492,1.500229914799912,0.1534775682963001,1.3375898045132506,-1.7378001951135809,3,right
16.137999999999998,-0.6066011728606102,0.3395744365223957,0.04096042788821305,4.741152230628145,0.6474967476473779,1.4917616398163296,0.1511444322967454,1.3402037389001746,-1.7469263439743434,3,right
16.141,-0.589132335050809,0.3413727119358339,0.04956932361791951,4.753986988463755,0.623344040346983,1.4989251098090377,0.15249436068730932,1.3386967254783655,-1.7416512940914224,3,right
16.142,-0.5745569526689758,0.3428840729541439,0.05706031739915727,4.751045843074319,0.645478662020339,1.4953885783561773,0.15324671141402002,1.336623700156002,-1.7377149141157142,3,right
16.146,-0.5619186726258816,0.3453262616379299,0.06118667747925527,4.743885230948664,0.6269251797945474,1.4950487094788343,0.14942196356224335,1.3446954126226445,-1.7557305990473848,3,right
16.147000000000002,-0.5510322344204754,0.3473181857685338,0.0626806695489617,4.756605453782566,0.6403303293907425,1.4978846484685702,0.15654110783118425,1.3297750866163982,-1.7222835463243216,3,right
16.15,-0.5415108545145664,0.34318706922633074,0.06451533479073866,4.746659384893306,0.6358392689173691,1.494983124075073,0.14743432856566074,1.3489989982904222,-1.7651775681116773,3,right
16.151,-0.5323290609382126,0.33552452925049814,0.06117150727595152,4.74355184373058,0.6251134264964999,1.4951417554479298,0.15502098973965578,1.3329188774823466,-1.7293946280270278,3,right
16.156,-0.5233663185350768,0.32808887040198453,0.04962170698954726,4.768691064741629,0.6575856410414491,1.500061921350605,0.15477365373385932,1.3332766335365167,-1.7304186589656638,3,right
16.157,-0.5144936886456379,0.32024483407855675,0.04019989329448041,4.718706233684761,0.6015850916221915,1.4893005795230914,0.1404890091861984,1.3642762742341907,-1.7983957709384673,3,right
16.16,-0.5060886549548185,0.3116780297977868,0.03420502977087472,4.784381270930861,0.67161809717763,1.5038451794770304,0.17562905920319083,1.288136499149984,-1.6312857779483827,3,right
16.160999999999998,-0.49920268568774445,0.3003654266912893,0.028924258681163672,4.7289159551201205,0.613956146162618,1.4913916808336714,0.11737039103419224,1.4143918317538389,-1.9083432129722668,3,right
16.165,-0.4960006103056178,0.29228682586451143,0.027817225162360244,4.7309653474755216,0.6148123147124471,1.4919986671289083,0.19420085622819605,1.2478358262048848,-1.542935336016067,3,right
16.165,-0.49424364323365394,0.2924848389155005,0.027805084431641543,4.835713542179843,0.7260739753890848,1.5152442180379075,0.5166043554170362,0.5485753927506687,-0.009151283587837511,3,right
16.166,-0.49012682795864937,0.2882424478347902,0.026452836997746178,4.577273496550579,0.453872461331663,1.4576253298892228,0.5934162790065917,0.38197995866821793,0.35621092727888165,3,right
16.17,-0.48390956048464423,0.27749502495601636,0.025363799071726072,5.006245840935855,0.9045827016638713,1.5533922176901687,0.5351856975408642,0.5082930624119855,0.07921486344307486,3,right
16.171,-0.4789456627945448,0.2741962587744643,0.025604625233808846,4.440208383239696,0.31040759558669717,1.4269616274500514,0.5703049494104462,0.4321159847475512,0.24630127289710294,3,right
16.176,-0.4774812575188921,0.2739423876825505,0.025157031202105863,2.0641177719532373,-2.1837541512735217,0.8962536845385639,0.5560123679890484,0.46308447235050454,0.17824763048176312,3,right
16.177,-0.4742688445695063,0.26832605517641717,0.020476999296224062,1.497963218497861,-2.7777382708669327,0.7697578246931238,0.5558212625217747,0.4635829804341672,0.17744662666153782,3,right
16.177,-0.46912909093871213,0.26021887073347255,0.017321844273073317,1.927209764733062,-2.3274194428298127,0.8656670515055189,0.5632959528573818,0.44724202498210874,0.2128630641197716,3,right
16.180999999999997,-0.4664831712458266,0.2503579492459618,0.016739084477978675,1.6682954113655257,-2.599045059051452,0.8078209812770663,0.5543398314666517,0.46679940503142725,0.17039237202581847,3,right
16.182000000000002,-0.4662751859454578,0.2432624923142863,0.014566723133098425,1.773700534872046,-2.488447265161269,0.8313560175524606,0.561321250069408,0.451598269215599,0.2035483696048105,3,right
16.184,-0.469570889650589,0.2371181154996775,0.010085475539096927,1.7750560662436807,-2.487064099105456,0.8316900173583706,0.5575347017002142,0.45969914978836834,0.18541894902533962,3,right
16.185,-0.47424109187129887,0.22913136099331782,-5.941375963142278e-05,1.7200095006731053,-2.5447600121907246,0.8193478184123101,0.5584522649525236,0.45807494009498895,0.19015138996793368,3,right
16.189,-0.4811077373802193,0.2268888024411997,-0.009332554684519368,1.7859871237794194,-2.475594544917371,0.8341314500572097,0.5593539029473726,0.45548651270515506,0.19381089756050524,3,right
16.19,-0.4916535701283014,0.22769282852002592,-0.01631256799100078,1.7345355801715119,-2.5295470671875977,0.822617321650374,0.5577446478659824,0.459754704908209,0.18692636600139786,3,right
16.194000000000003,-0.501638232631747,0.2299168131548236,-0.028456327239314287,1.7624936486308722,-2.500186326726464,0.828829109791009,0.5592709961035821,0.4558234753577865,0.19357374139487799,3,right
16.195,-0.509312580104798,0.23397682628571276,-0.04048092631443209,1.755602678412099,-2.507524236900273,0.8274024467929277,0.5581828602962562,0.45817854293398474,0.1883910960019578,3,right
16.2,-0.5134341250005862,0.2357831076163921,-0.05080362826192612,1.7491679753716154,-2.5140853955724562,0.8257701101623313,0.5588363954608618,0.4579120656429022,0.19263990984946971,3,right
16.201,-0.5161565629182319,0.23987925950976283,-0.06017357469803143,1.7607741651646975,-2.5021422255520704,0.8286020165829844,0.5584277815595006,0.45616700577629127,0.18809264852706975,3,right
16.205,-0.5199875179865223,0.24441018370724416,-0.06853064430610857,1.7497255900015478,-2.513547447981996,0.8259431701553531,0.5587776242208335,0.45933424494536745,0.19363979434697925,3,right
16.206,-0.5238712511713641,0.24636560881214023,-0.07958460658322675,1.7577501149271568,-2.505128412722956,0.8277344222439053,0.558452956896826,0.4558527825836407,0.18795691744324883,3,right
16.208,-0.5272122203354063,0.2465436868207288,-0.08564165048924316,1.7525531589681627,-2.5109216621622803,0.8269261166534885,0.5585642653684675,0.4580303049790924,0.1908763881025597,3,right
16.209,-0.5312386468592138,0.24046918124843059,-0.08570094382431055,1.756429934779992,-2.506073841412726,0.8269859778461817,0.5590384066969096,0.45908575294076226,0.19519575247198317,3,right
16.214000000000002,-0.5377704638813496,0.23453569414784187,-0.08795435461233736,1.7525622990886411,-2.51129634939622,0.8273246590480456,0.5575821592207754,0.45312152919857884,0.1792436238332007,3,right
16.214000000000002,-0.547802451242709,0.23271525340878088,-0.09117532530414653,1.7563287420269327,-2.506102934722309,0.8268840454208402,0.5601713183278207,0.4644251946810069,0.20829357676492483,3,right
16.218,-0.5623597409331718,0.22873673851117127,-0.09608608609794073,1.7547154998168057,-2.5085133420212244,0.8272642886466824,0.5568714282850362,0.44985598216541045,0.1711126842757017,3,right
16.219,-0.5728588835257036,0.22290042506682464,-0.10200051895812706,1.7505351227149455,-2.513516738503477,0.8269691651493948,0.559616726025197,0.4620415849730559,0.20210295254408522,3,right
16.224,-0.577130695838997,0.21521926150339937,-0.10283571323472394,1.7642648042083133,-2.496407125824126,0.8272415393128536,0.5595801440290662,0.4616261510657883,0.20145387782747776,3,right
16.225,-0.5819236466269772,0.20734147024459343,-0.09911808358921556,1.739626213083868,-2.527274162157368,0.8269199819779127,0.5542205301916242,0.43867059891488513,0.14174300548874608,3,right
16.229,-0.5859157917169402,0.20127169530902758,-0.09342833579454557,1.7710797439617805,-2.487831362228148,0.8272922171883836,0.5673504319250806,0.4951942873307196,0.288277901961426,3,right
16.23,-0.594730141399523,0.1952171009348151,-0.08634542759092619,1.7448936428380875,-2.520684657060827,0.8269972169028812,0.5455903437185724,0.40144816211367174,0.04537915903329513,3,right
16.233,-0.6036979134059368,0.19207922833805735,-0.08212728437259044,1.7453197037990227,-2.520089865393138,0.8269432174395447,0.5742928220583613,0.5251024542008964,0.3657504322380668,3,right
16.233,-0.6062769940899911,0.19177713670205795,-0.08188739853385334,1.7961831101459291,-2.456472848395713,0.827711125107966,0.6948046350464547,1.043999937261357,1.7108456531609053,3,right
16.234,-0.6172744745986809,0.19067157901862364,-0.08419727750586879,1.6714959015590831,-2.6124951732038992,0.8258947096409598,0.7235152823953148,1.1676465476579616,2.031229502170046,3,right
16.238,-0.6357985360978469,0.18880995498184222,-0.08999522443531427,1.878153703185183,-2.3538826287905152,0.828890687601957,0.7017463553842614,1.0739087302124526,1.7883171513700185,3,right
16.239,-0.6461310617706055,0.18764992128146563,-0.09379523289168631,1.605570971413032,-2.6949975529333425,0.8249362882829465,0.7148728972922564,1.1304355913365771,1.93484687891106,3,right
16.243,-0.6473073416455383,0.18656861678143846,-0.09475794534652866,0.46104664603980583,-4.127181034640374,0.8082692264080786,0.7095425975807348,1.107452446337244,1.8751811273577113,3,right
16.244,-0.6502040725337903,0.185131423720224,-0.09749642889979894,0.18840492106476453,-4.468368400245472,0.8042959623181197,0.7094429402750023,1.1070963657243533,1.874434961455826,3,right
16.244,-0.6549191313905562,0.18532780604684929,-0.09863139020353412,0.3951372454515665,-4.209661176044734,0.8073174760106379,0.7122786770252959,1.119196880924108,1.905564445283355,3,right
16.25,-0.655978416386849,0.1852993332292588,-0.09483448534514263,0.27043642683178437,-4.3657114367285,0.805490669419006,0.7088887263353822,1.1047123817029223,1.8682449150306466,3,right
16.250999999999998,-0.659480095179276,0.18593484155373363,-0.08675300862159216,0.32116621789979827,-4.302235356575304,0.806228299551139,0.7115167491542188,1.115979525064038,1.897354702669502,3,right
16.256,-0.6656836954972671,0.19020330818224204,-0.08134565590725146,0.3219319478444591,-4.301257790138788,0.8062644490576145,0.7101378281096238,1.109942487667332,1.8815215891554502,3,right
16.257,-0.6726340750835005,0.19378637573308377,-0.08302068059565926,0.29521705396871367,-4.334723582136678,0.8058201750727516,0.7103628631053124,1.111232369078467,1.8854575133919584,3,right
16.258,-0.6804438816027669,0.19567051934935673,-0.08663104016023834,0.32724933747816776,-4.2945913214658695,0.80636606190942,0.7109034015045843,1.1130060207075552,1.8890377010974806,3,right
16.259,-0.6841471687591302,0.19835643839044287,-0.09108125362883668,0.30226411350263727,-4.325903561084171,0.8059231389660158,0.710051951620079,1.1100201369502236,1.8825439230591035,3,right
16.262999999999998,-0.6834827626124728,0.20141022491055116,-0.09487463793651096,0.3157201317483622,-4.30904561265781,0.8061534060443922,0.7108217853549328,1.1127923846247794,1.8887376115464596,3,right
16.264,-0.6794092539141454,0.20554375050908102,-0.09437861002146243,0.31280546159809175,-4.31265278599754,0.8061780038293992,0.7104168807658116,1.111043556891876,1.8841959897899625,3,right
16.267,-0.6744177608441129,0.2124710323609731,-0.09085867424784035,0.30879329809437556,-4.317801305821048,0.8059028661104627,0.7102911001915948,1.111510647864749,1.8872452713858943,3,right
16.268,-0.6684893530719838,0.22185355695269193,-0.08543610960024908,0.315735326098951,-4.308894675832195,0.8063775029506182,0.7109840209103905,1.1121897179354536,1.88480417797019,3,right
16.272000000000002,-0.6576471103183376,0.2333816828290129,-0.0825028486300708,0.30899021828364837,-4.317604520317157,0.8058208292040244,0.7098532730438072,1.1107584431503366,1.8873614248765205,3,right
16.273,-0.6455546233940861,0.2467093300439655,-0.08224673415164073,0.31363707447965183,-4.31157493442478,0.8062540066332204,0.711076606486148,1.112362067626942,1.8848372871373442,3,right
16.277,-0.6326474082200572,0.2583057973312654,-0.07903515525501925,0.3119548370862695,-4.313678440217661,0.8062326859727718,0.7103414898664704,1.1113124485360113,1.8859770133199287,3,right
16.278,-0.617211936795657,0.2700321057551891,-0.078180413389148,0.3105031518691541,-4.315892512896099,0.8055335221179001,0.7098483763712895,1.1110172026350682,1.88853839510022,3,right
16.282,-0.6004689657460516,0.2829988692606916,-0.07869743057298043,0.31474972630412423,-4.309669540108549,0.8071449511565412,0.7122361410041347,1.1133070925763242,1.8799127847510104,3,right
16.283,-0.5802542060799809,0.29222659109027127,-0.0738728551812255,0.3086306739343085,-4.318683243769289,0.8047440860540223,0.7077670232449,1.1088803573335366,1.8954429546880804,3,right
16.287,-0.5631372632694807,0.3024155154514754,-0.06900276201172409,0.3148668264573524,-4.309432725920738,0.8072993002139215,0.7135141481774808,1.1146049742195836,1.8756055802938927,3,right
16.288,-0.5509357610864146,0.3139699545724683,-0.06333600394640154,0.311261568297332,-4.314781471663339,0.8058228599920791,0.7087135703974936,1.1098092870003884,1.8921253216291187,3,right
16.292,-0.5377011694388436,0.3250531108848967,-0.05513354831942602,0.30878544212582426,-4.318597680697504,0.8045593496645298,0.7088552774528663,1.1100021748369562,1.8918386654537502,3,right
16.293,-0.5290988298840693,0.33820288619640165,-0.04764666729933829,0.3204371543372613,-4.300867736964852,0.8101009716252842,0.717967918400098,1.1189398971568918,1.8598104768822181,3,right
16.296,-0.5253782637413862,0.34967545673204314,-0.042606005019239536,0.29879106356464097,-4.333799040813574,0.7998234218036565,0.695558661032617,1.0968974720818125,1.9383446087057568,3,right
16.297,-0.5266366102716822,0.36690583110604136,-0.046178177782887284,0.3265299851927419,-4.291579812577684,0.813019489536273,0.7327143551858855,1.1334643642379536,1.8081774542740967,3,right
16.302,-0.5322535549398597,0.3805901368540796,-0.053159894196956166,0.30340063401043393,-4.326796112436801,0.802003161572389,0.6837101627218176,1.0852308220639098,1.9798667917667978,3,right
16.303,-0.5332306662780337,0.3834856363630479,-0.054538058486708146,0.3040830578260513,-4.325760221463792,0.8023021822439103,0.477987036583721,0.8828670262862629,2.700725066245869,3,right
16.304000000000002,-0.5348480415312751,0.3977252466427401,-0.05732049158296784,0.3479260753141872,-4.258964289228553,0.8233042507611765,0.42899184096073373,0.8346403964316651,2.8724405593691564,3,right
16.305999999999997,-0.5392159008576944,0.4166175216870471,-0.06300425503874925,0.24013576385966062,-4.423202052037885,0.7716832562599024,0.46613780213561945,0.8711998087103883,2.7422451063987867,3,right
16.307000000000002,-0.5401839379077655,0.43484496282807394,-0.06355304408784943,0.41883622969399287,-4.15089571710124,0.8572729569981509,0.4437248390308872,0.849154543511028,2.820768474845288,3,right
16.311,-0.5409057526319079,0.4510988339411979,-0.06072713631676336,0.18316333005443244,-4.510044985211485,0.7443809982735825,0.45286977594382427,0.8581170645306755,2.7888341566470505,3,right
16.312,-0.5423960908450811,0.4572836624130288,-0.06073175896494817,-0.8060780725320921,-6.017363658296226,0.2705188516104287,0.4529419991385378,0.858256589006801,2.7883455273093283,3,right
16.312,-0.542012656953673,0.4730696780658178,-0.05980602613846617,-1.0417008379821662,-6.376481686478181,0.1576274153996131,0.44824104312284363,0.8535374186838918,2.8051548565375066,3,right
16.316,-0.5400747020032548,0.4946445379128417,-0.05743555329487192,-0.8630669900492979,-6.104224641681325,0.24321637118308836,0.4538889705564849,0.8591858348819319,2.7850291138378234,3,right
16.317999999999998,-0.5367228160677676,0.5111241582276425,-0.05992019566068274,-0.9708340954026704,-6.268420391573951,0.19159579792053674,0.44946264541807823,0.8547919896478333,2.800683707867746,3,right
16.320999999999998,-0.5293302670861556,0.5301112818585274,-0.06130612257893128,-0.926901524322923,-6.201625458273605,0.21259842998934253,0.45193561345222155,0.8571472890735942,2.7923057262075233,3,right
16.322,-0.5172185590804657,0.5450647279019266,-0.06188538623669579,-0.9264721609958388,-6.200662986849984,0.2128953618110104,0.4511680731524427,0.8566412983818326,2.7940694339691348,3,right
16.326,-0.5008792909592139,0.5554515489426719,-0.06786856230282295,-0.9491903365734743,-6.235713514664866,0.2018827304308614,0.45090578436238193,0.8559548255834195,2.7965835819688807,3,right
16.327,-0.48213852535214136,0.5656698917214495,-0.07033872111225031,-0.9219212422746306,-6.193734939196256,0.21507424072985237,0.4515488618877221,0.857112752854577,2.792372688272858,3,right
16.331,-0.46434272256255127,0.572740927189789,-0.06763404948005111,-0.9432524773678626,-6.226422051630694,0.20480028490426538,0.4508806885499905,0.8560368476444067,2.796274692032231,3,right
16.332,-0.44659015383574197,0.5782408369273155,-0.0655798516306561,-0.9314557143205032,-6.208808881350102,0.21034206995223467,0.4515778087233274,0.8567189966750498,2.7938455973688177,3,right
16.337,-0.4303312998130461,0.5839511946056279,-0.06527420593674313,-0.9348435925422613,-6.212805301127016,0.20907158260610842,0.45059343500135507,0.8565268172893827,2.7943993318483824,3,right
16.337,-0.418724732781389,0.5874392548048109,-0.06831895105030111,-0.9366255579768318,-6.21752773289815,0.20761082613534776,0.45215056131437253,0.8562848012786898,2.7955608377615127,3,right
16.340999999999998,-0.41102189852522025,0.5934135688425011,-0.07325419026368049,-0.9328949133046561,-6.209381144689899,0.21014290442577177,0.44999347584048,0.8568090023434343,2.7932464093075895,3,right
16.342,-0.40603514062038093,0.603352298033982,-0.07917413156857891,-0.9366164051260346,-6.217014013315217,0.20776629082663026,0.4522620543028817,0.8562197476054629,2.7958224564124343,3,right
16.345,-0.40080723373839017,0.6097491486606054,-0.08423107232380793,-0.9332691728238781,-6.21193115824371,0.20936457242623924,0.4510000966850929,0.8566083732453278,2.7941622189665076,3,right
16.346,-0.39615065677029726,0.6151415947220303,-0.08641110732754818,-0.9370583173469612,-6.214064444063222,0.20865105551440166,0.4496705052431683,0.8567051078974472,2.79358030902459,3,right
16.35,-0.39616948601934476,0.6220427480796487,-0.08828855526752247,-0.931727974634027,-6.2142613988314,0.20868678566681603,0.4550936293704799,0.8558914905341575,2.7975184619672566,3,right
16.352,-0.3974832068363655,0.6267360243621104,-0.08820857624700346,-0.9388828567428379,-6.212753450647826,0.2090154018619434,0.4451079135877052,0.8574710712461765,2.7899625808493327,3,right
16.355999999999998,-0.39952888732716907,0.6292652079447798,-0.08514909851212127,-0.9314036826508081,-6.214586192469781,0.2085940445681001,0.4579139027861302,0.8554265388099556,2.7997232993138126,3,right
16.357,-0.40684101882688656,0.6314281987204866,-0.08137588769485683,-0.93549131252713,-6.213171508411011,0.20894969848898656,0.4472295151577625,0.857140599843978,2.791548083591428,3,right
16.36,-0.4217917507456659,0.6325896966760456,-0.07790215919859386,-0.9401745012103819,-6.21371716722351,0.20870025187559552,0.44749335233230847,0.8570678004603856,2.791865474720667,3,right
16.361,-0.44024421890943666,0.6311028315101768,-0.0757024473909521,-0.9215756683183554,-6.214215985770149,0.20888203831430582,0.4679490990082703,0.8538844631603584,2.807146095457642,3,right
16.365,-0.45834912385031185,0.6286399961496878,-0.07135212415229444,-0.9557260603233451,-6.212772409600424,0.20870889785619745,0.4177016087058364,0.8617412778372016,2.76946820873909,3,right
16.366,-0.4840406747629212,0.6245616420168314,-0.06668236912791695,-0.9119504154775027,-6.2147389560134885,0.2088947538247393,0.5010060694571336,0.8487043991921406,2.8319779026637253,3,right
16.37,-0.5017283807666428,0.6216070473153233,-0.06672438272293896,-0.9484681073818755,-6.21305612243025,0.2087539076879149,0.39112897073789377,0.8659024279957364,2.7495171627614368,3,right
16.371,-0.5059634706734968,0.6205112811727886,-0.06613657816562736,-0.9475928254709597,-6.213269004835523,0.2087018595795267,-0.07012794640605244,0.9379986950291757,2.4037786799951713,3,right
16.372,-0.5231720056293705,0.6138862690012601,-0.06310102413352925,-0.8775840782178388,-6.215915628806613,0.20915496370686,-0.18000870897883342,0.9551914769436027,2.321338866751132,3,right
16.374000000000002,-0.5432931951105491,0.6051342383897161,-0.0603917044402607,-1.0495292236998197,-6.209226054869636,0.2081058793278742,-0.09669861946364251,0.9421675862303879,2.383792148703361,3,right
16.375,-0.5590991534716814,0.5985254229327719,-0.05727998665922271,-0.764462644777248,-6.2203500288663705,0.2098301384137901,-0.14695049857526882,0.9500006637133918,2.3462252675025628,3,right
16.382,-0.5727654853542743,0.594141087930548,-0.05606390027959417,-1.1404712517184872,-6.205696351407919,0.20755497388059538,-0.126495744890961,0.946851883617357,2.3613343899965047,3,right
16.383,-0.5766362295072921,0.591829196200952,-0.05560821184917022,-2.7188187166000786,-6.144184539280558,0.19794841527187584,-0.1262216501602062,0.9467403961804373,2.361856036742153,3,right
16.383,-0.5843831398169865,0.5861469686661546,-0.050881258186404404,-3.0948595483679133,-6.129592251159956,0.19566236366116924,-0.13692724680639587,0.9484813733587506,2.353519856060342,3,right
16.384,-0.5927478517074852,0.5786058022841897,-0.044674552042733864,-2.809758110395836,-6.140649797962071,0.19739840016492138,-0.12409201655710107,0.9464457054506541,2.363276111715135,3,right
16.385,-0.5926288688767077,0.5722528533487836,-0.0438212095381234,-2.981689973947474,-6.133934990859648,0.1963538017259744,-0.13410543022599952,0.9479552283927262,2.3560280908469107,3,right
16.389,-0.583514643843297,0.5633431552980429,-0.05033675762340141,-2.911796922201966,-6.1368018755628055,0.19676782114980923,-0.12867266575737224,0.947286615119217,2.359265130665098,3,right
16.389,-0.5631629829757295,0.5486298045453186,-0.057544090882320396,-2.9106727367053677,-6.136540800664424,0.19679986043958583,-0.12997352825105424,0.9471788094924576,2.359728925090473,3,right
16.394000000000002,-0.5402993086358144,0.5294149223097402,-0.05535663420855814,-2.947547281904121,-6.135537556530684,0.19653845666188652,-0.131318927283763,0.9477708064383971,2.356955415163317,3,right
16.396,-0.5248367940382738,0.5112205554931577,-0.046830225142853246,-2.90341631555474,-6.136827335147965,0.19684435460480287,-0.1289118984378807,0.9470902762251463,2.360166471468042,3,right
16.399,-0.5337075932742844,0.4971790995646279,-0.0337977652375745,-2.93771996667979,-6.135675843297273,0.19661943362650147,-0.13123322226258322,0.9474507060286042,2.3584383806642872,3,right
16.399,-0.5720258540366043,0.49347394989617394,-0.0014229568629803343,-2.9194263804759415,-6.136755645426826,0.1966981032006596,-0.1295535542133776,0.9477518429668749,2.357089507928548,3,right
16.405,-0.6244248963443848,0.5025985462918816,0.04880253651768937,-2.9231265059914566,-6.135429513151782,0.1967807633641253,-0.13051766615546784,0.9466140065514754,2.3623270222199757,3,right
16.406,-0.672631072560196,0.5140868363962507,0.0886482886519458,-2.928907869139435,-6.137240163144973,0.1965642182387805,-0.1300916794380208,0.9484698841098174,2.3537548630111713,3,right
16.408,-0.6945673332426279,0.5230297356479535,0.08937894000400265,-2.919350193375829,-6.135114442120205,0.196845055593858,-0.13017539784478974,0.9464333576451678,2.3631704433403034,3,right
16.409000000000002,-0.6855878620785633,0.5198098462753273,0.04841296937443699,-2.9281619571897624,-6.136762624028085,0.19661390376775673,-0.13037532525609621,0.9476492908020921,2.357544162973773,3,right
16.416,-0.677002025432044,0.5115945356258988,-0.027381254489352063,-2.922846841281176,-6.136987124326417,0.19664451771550964,-0.12977571658410236,0.9485754326251676,2.3532724839281993,3,right
16.417,-0.6955124059980395,0.5122854891119,-0.11527520788427141,-2.923560192132391,-6.13326479861431,0.19697007558464996,-0.13097578857350015,0.9442967905197567,2.373033993598461,3,right
16.418,-0.7508497892417285,0.5127833433075666,-0.16505956040458564,-2.927241335844097,-6.14156501646209,0.19619395728727942,-0.12908660665895366,0.9522852729504296,2.3361344077707455,3,right
16.419,-0.856460554655754,0.5248004887780504,-0.16549776676200528,-2.920478299219525,-6.129231670469311,0.19735937751290714,-0.13139133520211144,0.9420076741586547,2.3836055669824923,3,right
16.424,-0.992749232429293,0.5378280986097775,-0.12595396237582207,-2.927923600668168,-6.142370576256974,0.19611578905368973,-0.1295181421557453,0.9505973949591218,2.3439367336684613,3,right
16.426,-1.1679292491497195,0.5936361118057052,-0.10046578424604519,-2.9232495577491493,-6.134792635341427,0.19683620253030776,-0.12949063548997491,0.9503492911846018,2.3450677440683623,3,right
16.428,-1.3825382701172573,0.7290394468189936,-0.12681459542037699,-2.9210675629877576,-6.128190725948943,0.19744725331889768,-0.13327072516095148,0.9340108506530187,2.420555098079002,3,right
16.429000000000002,-1.615452829837809,0.9179659675670113,-0.20399252507105844,-2.933637448969428,-6.156971243300831,0.19475729855942456,-0.12409227753855476,0.9741936365134116,2.234934888016096,3,right
16.433,-1.8671397316337819,1.195897094262392,-0.3711740745371302,-2.9097846295494927,-6.103616451429984,0.19974802388860297,-0.1392689259297732,0.9075558329799983,2.542730439663973,3,right
16.434,-1.9999702828821209,1.383156201559247,-0.4886167311497829,-2.9405297927191194,-6.172124274056589,0.19334011948250668,-0.1192647919773766,0.9954610240666477,2.136742305094363,3,right
16.44,-2.0288568349957155,1.4292813675713942,-0.522663558255156,-2.914821379210044,-6.114928693445659,0.1986882666016735,-0.03523664606598767,1.3644319449951379,0.43265425250716605,3,right
16.441,-2.0537373685327664,1.5658391772410667,-0.5893609283120431,-2.915686804378617,-6.116478406359892,0.19854662800427114,-0.015228990743223099,1.452364144163755,0.02667773755502305,3,right
16.441,-1.983420882215204,1.6934276157006745,-0.5899853793951898,-2.9641334451248933,-6.2255410446346335,0.188342124144965,-0.03040455067825551,1.3856773989613627,0.3344582149479731,3,right
16.442999999999998,-1.825498090374796,1.7069317570797766,-0.49367612683379025,-2.8448738427611993,-5.957469695404115,0.2134166408941884,-0.021244902196674895,1.4259189222091941,0.1488420876365978,3,right
16.444000000000003,-1.5472320831964224,1.631634297776471,-0.2798157810580133,-3.042641908752379,-6.401953672080737,0.1718471541490491,-0.02497658499106741,1.409533406336612,0.2243528690646465,3,right
16.45,-1.3176952827277544,1.5346691294783836,-0.0882884218019582,-2.7818033910016955,-5.815672967882904,0.22667291320049704,-0.025029336386805986,1.409290385769348,0.22542126328949091,3,right
16.451,-1.2545080463104998,1.500980850832981,-0.03120205145603851,-1.6865905802574148,-3.3550266172407874,0.45692681440507893,-0.023060199702414873,1.4179498447220622,0.18585198538832987,3,right
16.452,-1.0146633399473357,1.3844462084982467,0.17978633976518962,-1.425754025733312,-2.7687550397515452,0.5117569824617652,-0.0254365744429801,1.4075065811579117,0.2332117927962817,3,right
16.453,-0.6796258780658271,1.21977229107904,0.46031175230244425,-1.623597589927932,-3.2131943802522818,0.47016696371364725,-0.02356084488964447,1.4157452353233526,0.19638294364253053,3,right
16.453,-0.44590831137616393,1.1347937559095889,0.604077397220963,-1.5040622395204437,-2.945242402209246,0.49529549471282713,-0.02459716894557921,1.4111970805517298,0.21618777497501285,3,right
16.458,-0.20994631182772525,1.0871604559649568,0.6834859510974828,-1.553082741925004,-3.0540839573327885,0.4849917183034813,-0.024349155717392823,1.4122830663025732,0.21168661028964655,3,right
16.458,-0.011796792299141455,1.1016267871646852,0.6590629292106371,-1.5530920983778325,-3.0559397796954815,0.48498678614949975,-0.024043145062151175,1.4136256164204455,0.2065067496089312,3,right
16.463,0.16617688588622018,1.1729213483195151,0.556861271021681,-1.5283079489219007,-2.998441066833366,0.490200483680662,-0.024641655578576546,1.4110069091543815,0.2153203902922894,3,right
16.464000000000002,0.35617244993015884,1.2747996325308066,0.42819547466254637,-1.558511418441396,-3.067081161077354,0.4838495693098249,-0.023963901289188697,1.4139642241973398,0.20730871668135786,3,right
16.468,0.5333848273227442,1.4005415710644489,0.2807504177281987,-1.5341891355991906,-3.01398420859803,0.4889584929580509,-0.02456031698372579,1.4113696538332576,0.21236606407439845,3,right
16.468,0.7108003855335348,1.5124637600159294,0.16328364075845975,-1.5488445052297428,-3.041925511067684,0.4858905819554606,-0.02418671343948022,1.4129902104510335,0.2104011545610791,3,right
16.472,0.867954684833317,1.5941807217140491,0.08906004518156205,-1.5427321687636701,-3.036778581382946,0.48715309739531165,-0.024185149426162504,1.4129972034261398,0.2104181245474418,3,right
16.473,1.0004603967096612,1.6225840172105481,0.0732481833560889,-1.543247697276576,-3.027402374056456,0.487072362095931,-0.024714991259814783,1.4107074549340022,0.21075296987419334,3,right
16.477999999999998,1.0997435191668044,1.5816163403127992,0.10386883474031797,-1.5460048931116643,-3.0419954895546697,0.4864706861553585,-0.023572947243628704,1.4156374896270199,0.2113848449624378,3,right
16.479,1.1438650848316632,1.487935797402423,0.15085559059404635,-1.5404680905632184,-3.0296274376492427,0.48763428951527643,-0.025219964485634263,1.408532061881549,0.20929152011806318,3,right
16.482,1.120278934635454,1.3652644278816326,0.1946403026104386,-1.5499423104978087,-3.0353379208543356,0.48568405033679385,-0.023497381047981034,1.415960850426362,0.2121955876383279,3,right
16.484,1.016507541194677,1.2491771354054526,0.19781398678796513,-1.535113382137913,-3.03762124612054,0.4887068762595571,-0.024482053157730978,1.411715121651962,0.2103028937275967,3,right
16.487000000000002,0.8400335614684031,1.1696987790593614,0.15621151773693498,-1.554834184214733,-3.0288156083309334,0.4847020533403377,-0.02532657878019187,1.4080744137813488,0.2085810384051618,3,right
16.488,0.6143810193267343,1.137246653238278,0.09375380972713696,-1.534688019764281,-3.040177277149362,0.4887871469155884,-0.021643554014157053,1.4239514889202178,0.21637356747833253,3,right
16.493,0.35661973164134564,1.167443882021266,0.017771221638414738,-1.5457437109110805,-3.0322899047749505,0.4865494120118317,-0.028461450556779365,1.3945610018736891,0.20167578249250237,3,right
16.494,0.07286445424091481,1.2497157832077859,-0.07461195629480938,-1.5570918800541946,-3.0296028532266828,0.48423924022685527,-0.019715504953783866,1.4322626080107312,0.22071885366200222,3,right
16.497,-0.21669594320675045,1.355651870664629,-0.17074700679275123,-1.51077664854679,-3.0489468218913856,0.49364747634507267,-0.027013164206452597,1.4008038536056775,0.20474689279280198,3,right
16.497,-0.4873506781189658,1.4401963405963842,-0.21685343160401316,-1.5958832474177458,-3.0112843943679524,0.47636410335884244,-0.026815627947330584,1.4016570200116174,0.2051669076733033,3,right
16.502,-0.7130540302554166,1.4721257649896076,-0.19085371756725764,-1.4868764804411125,-3.0602850979445764,0.4984999615447007,-0.012907032114114599,1.4616096760684092,0.23578480971933014,3,right
16.502,-0.8785735497879879,1.473927255632555,-0.12247583111324875,-1.5777794027973042,-3.019113512315127,0.48003994437547104,-0.04708965143280512,1.3142634503579234,0.16049208398684658,3,right
16.507,-0.993704425244102,1.3977136071388534,-0.029766642607384562,-1.5754592384284356,-3.0206259366527872,0.48051291489893566,0.009583796381801468,1.5585596144924438,0.28537377485466237,3,right
16.508,-1.0483486369419226,1.318395414842291,0.027469562066177726,-1.40174017306406,-3.098066883335367,0.515786752438051,-0.06516596992976224,1.2363423805551843,0.12062252917059835,3,right
16.509,-1.0584672662733747,1.3082870535683109,0.03764099389697276,-1.8285448513369515,-2.9071643601901123,0.42911919610593113,-0.3789344296391505,-0.1161442604060341,-0.5711135745562504,3,right
16.511,-1.0602392927880437,1.1821621093700196,0.06908812002714512,-1.1209129273489933,-3.2238835604477005,0.5728160212911182,-0.45368304521197333,-0.43835467778469384,-0.7359002115322111,3,right
16.512,-1.054362135764856,1.0512717233293087,0.0943293440204958,-2.0543118929889093,-2.8060851723033107,0.383268724639524,-0.39701024988180755,-0.1940693570832576,-0.6109506810626661,3,right
16.516,-1.044773916343805,1.02985959168842,0.09104013840894362,-5.971550110051139,-1.0522972874082255,-0.4121584804796138,-0.43119544152355804,-0.3414061027780689,-0.6863335049990151,3,right
16.517,-1.0239705281962421,0.9091942912869287,0.09163048740945025,-6.905066277777486,-0.6345443160794393,-0.6017376640435028,-0.4172783889058723,-0.281454309437815,-0.6556268489677262,3,right
16.518,-1.0002330587938104,0.755443594597839,0.08201334009686388,-6.197329229048217,-0.9512631286200064,-0.4580108968817662,-0.417096157965816,-0.2806162069617367,-0.6552536503454205,3,right
16.522000000000002,-0.9977985010107323,0.6579970239738184,0.06274105996321505,-6.624008887408049,-0.7601692418763452,-0.5446491888997622,-0.42437418646228875,-0.3120398153388021,-0.6712738978511008,3,right
16.523,-1.0083243843812246,0.557986153399171,0.042497935416571264,-6.450868760070618,-0.8381291699186745,-0.5095230700346716,-0.41564489908079294,-0.2743901311920224,-0.6520385746726044,3,right
16.527,-1.0303549951032158,0.4826897795311511,0.014482066870039598,-6.4474087012963786,-0.8387627605694519,-0.5087544976178174,-0.422460973519765,-0.3037267841931855,-0.667087045183808,3,right
16.528,-1.0616858526130009,0.4154203641881624,-0.02005030121951465,-6.539861325302986,-0.7986608427948121,-0.5276205475652369,-0.41875128213329427,-0.287877553807704,-0.6588426539614778,3,right
16.531,-1.090224104214764,0.3483120510026192,-0.06325553285038797,-6.429417146478346,-0.8468342090390868,-0.5051025997365445,-0.41966043645209655,-0.29155315487949185,-0.6609587817684432,3,right
16.532,-1.112009812397204,0.29085653074573653,-0.10905515053810232,-6.514947555849798,-0.8090871241974729,-0.5225095491986114,-0.4205458333973896,-0.2956680568018819,-0.6627745250741982,3,right
16.535,-1.1193576177057925,0.23456049879645824,-0.1462070742399573,-6.470319212617817,-0.8301591751506887,-0.5135245555046763,-0.4189322404205815,-0.28847486439491576,-0.6593253579152198,3,right
16.535999999999998,-1.1084057154018145,0.1945082248357326,-0.16766285439214695,-6.477012036827055,-0.8236562197704824,-0.5146350200445109,-0.42051158167462066,-0.29528045127847835,-0.6628083303769261,3,right
16.541,-1.0843708207514817,0.17162651697797401,-0.16544397674823677,-6.4956470583083785,-0.8213498810062645,-0.5188469791403035,-0.41932464312489726,-0.290605434248252,-0.6599908452499335,3,right
16.542,-1.0524424286165126,0.16772902236059797,-0.14115948717350332,-6.466668615419068,-0.8269178426766112,-0.5124377067722625,-0.4200817898013737,-0.2928607655058126,-0.6621184350442777,3,right
16.545,-1.018933633437538,0.1878899879309497,-0.10782355107166959,-6.492729495798352,-0.821153982602189,-0.5181480213068561,-0.4196408790069436,-0.29246441931356343,-0.6604627718012653,3,right
16.546,-0.9898010096796006,0.22983622604190312,-0.07963227111253697,-6.4795720699992145,-0.8270958756769228,-0.5154798978583046,-0.41985893209187186,-0.29180090678820336,-0.661672211894206,3,right
16.551,-0.9633798399890668,0.2869608034223729,-0.06852749804293573,-6.473575275174249,-0.8188295035078976,-0.513486228501913,-0.41990187781819155,-0.2929123707602852,-0.6613457408731,3,right
16.552,-0.9342792084878246,0.3482857781291502,-0.07355241940785805,-6.500466798996805,-0.831819175314553,-0.520720228915762,-0.4194136620654965,-0.2916067988462326,-0.659906785945236,3,right
16.555,-0.8973771793992402,0.4075089779027923,-0.08298846423851988,-6.457190036472971,-0.8138529948620457,-0.5092867623121679,-0.4205813524050609,-0.29314458345180017,-0.6640689471958912,3,right
16.555999999999997,-0.848989295989049,0.4627200724225544,-0.08896277609676795,-6.5039141580232265,-0.8327442429895814,-0.5215950328841984,-0.4186447559591522,-0.2912790977958687,-0.6568544627324924,3,right
16.562,-0.7889861887618481,0.5135068679638568,-0.08569909691698578,-6.4759842702148696,-0.8222409450438333,-0.5142937030503716,-0.4210490014651949,-0.29331941614581025,-0.6659368360038591,3,right
16.563,-0.7244334538931207,0.5555875181185654,-0.07031393676041184,-6.4565212794673,-0.8111388341791823,-0.5089372623354629,-0.4190765575154242,-0.29176538617285924,-0.6584304373925322,3,right
16.565,-0.663095817094127,0.6007901082412175,-0.049312132002828,-6.549257431211979,-0.8563801689416813,-0.5339155706313194,-0.41907650400966995,-0.2915780339041292,-0.6585171230232234,3,right
16.565,-0.6105220024055749,0.6497128080582414,-0.030594324197488344,-6.3759072962057886,-0.7730778306709858,-0.48731424548509317,-0.4229797941570584,-0.29515214381182453,-0.6731407292085745,3,right
16.572,-0.567155895471013,0.6992297358147685,-0.01562195033008989,-6.59881321560842,-0.8799159371584719,-0.5472173768002937,-0.41346308431606105,-0.2866977972322826,-0.6373649052437533,3,right
16.572,-0.5249093788141462,0.7731805270963983,-0.009865899914774155,-6.412580481922109,-0.7907621399056421,-0.49717796392434394,-0.4292133933942427,-0.30059280046219816,-0.696621540771728,3,right
16.575,-0.4977811394231915,0.8302865745328782,-0.011698799260601996,-6.4181328902119255,-0.792998730811738,-0.4986384070127497,-0.4084488980235548,-0.28230704550590935,-0.6184820188014195,3,right
16.576,-0.49014283407490744,0.8487655579414928,-0.01229105521315393,-6.771595819364974,-0.9636075387312082,-0.5937142458421899,-0.3212513679002238,-0.2053953377694918,-0.29042041578586786,3,right
16.577,-0.4683760070709024,0.907480420790106,-0.01687148853889016,-5.902192192390532,-0.5444497850002296,-0.35989620407303374,-0.3004872599788321,-0.18710679845026945,-0.21227509263135821,3,right
16.58,-0.4322980196988685,1.0094002711764332,-0.01895939314777631,-7.3439051922644385,-1.2394228119225272,-0.7476215084804694,-0.3162316117066034,-0.20098308563986964,-0.2715289962278275,3,right
16.582,-0.41279900896321375,1.0680611836516065,-0.014297585169634487,-5.442222966928764,-0.3227068125439695,-0.23619625590285437,-0.30673435873081417,-0.19260684790019844,-0.23578746755273078,3,right
16.585,-0.40620232699496617,1.0857626816543444,-0.01416857144458009,2.5387099695807547,3.5248695106882915,1.9101918445540294,-0.3105985984659216,-0.19601229805512083,-0.25032447215262543,3,right
16.586,-0.38995796208957373,1.1361843639671223,-0.0058572809337881365,4.440433947959445,4.441705339299572,2.4216312682552066,-0.3106555499434621,-0.19608183983387345,-0.25055354615709946,3,right
16.586,-0.37080617815872874,1.1948987914750746,0.011746429293097292,2.998675774846702,3.7466026686316676,2.03389063197118,-0.30862300233883977,-0.19424433889665232,-0.2428781743958223,3,right
16.589000000000002,-0.3655183654363491,1.2175798127654482,0.019074908853758808,3.8680622178023336,4.165711100499759,2.2677028411679814,-0.31106008098124277,-0.1964609349716862,-0.25208486432002775,3,right
16.59,-0.371999573647278,1.2258533667430385,0.011525818118416742,3.5147491411764085,3.9955323715375455,2.1726778633242416,-0.30915948779554836,-0.19471622411133405,-0.24489834175068154,3,right
16.594,-0.3825707428819748,1.2213018381933858,-0.012795262811642352,3.5088743104287365,3.9923704297038993,2.1711079881762143,-0.31018338079067476,-0.1956490870900579,-0.2487657248559128,3,right
16.595,-0.3964709395587721,1.2078690290096992,-0.041570094044135544,3.6955693291547234,4.082850977812493,2.2213043030015034,-0.3099594925924915,-0.195511841771298,-0.24795284211629656,3,right
16.6,-0.41683296410208454,1.1920905215920201,-0.055533870717187336,3.4722030745037715,3.9746917226096614,2.16124493186223,-0.30965990423678735,-0.19505324036384197,-0.24673129348407857,3,right
16.6,-0.4379018078928931,1.1702911667730036,-0.05374444681130529,3.6457518278902405,4.058564078187467,2.2079136683063165,-0.31017840555367926,-0.19584604536400468,-0.2488441108443979,3,right
16.605999999999998,-0.46113293152693613,1.1486256547716813,-0.0416805146724577,3.5534109892939583,4.014457307438809,2.183069532568477,-0.3096771609014697,-0.1949917914183653,-0.2467598204437527,3,right
16.607,-0.49721131942336033,1.1263250122481336,-0.027485210551100953,3.571600598711575,4.021904810823475,2.1879937797291005,-0.3100211631544154,-0.19562398014020987,-0.24821209535117392,3,right
16.609,-0.5416800579392347,1.1092035400238487,-0.019970264132851107,3.6017245574798213,4.038705071498231,2.196039789424283,-0.3098929235576354,-0.19551383127069036,-0.24773099755656428,3,right
16.61,-0.588339831976101,1.0978810687113265,-0.021744205574650916,3.552307780442625,4.012085955639126,2.1828176182153616,-0.30980078691223367,-0.19482204610966042,-0.2470914694965687,3,right
16.615,-0.6378903675447494,1.089854194343845,-0.03378178444429154,3.597731228149969,4.036213038304803,2.1949796780634414,-0.31008216829775376,-0.19646557792337507,-0.2488193449200045,3,right
16.615,-0.6902707868312874,1.0954840989514296,-0.05372786146069246,3.570858903556701,4.023278563328702,2.187752199380574,-0.3096788055095118,-0.19402806236980402,-0.24630347963446042,3,right
16.618,-0.7395243795789506,1.1108815703353474,-0.06806899738407154,3.5728718598835103,4.020111255552772,2.188393726080117,-0.31008700031528846,-0.19660735635989285,-0.24890338086287872,3,right
16.619,-0.7813103037771467,1.131550883679614,-0.06648862878573351,3.595133556896125,4.040298592267373,2.194151893015383,-0.30985091358226036,-0.1951168185450692,-0.24740030246204237,3,right
16.624000000000002,-0.8148756657313722,1.1571758736581197,-0.053911053547583784,3.5554906823710573,4.007082310633965,2.183831777234163,-0.3096957537775592,-0.19387454180454228,-0.24628653804238074,3,right
16.625999999999998,-0.8326454479025762,1.1777604373440624,-0.03664098401906517,3.5989477337514852,4.043067592438119,2.1951551569210133,-0.3104373881564812,-0.19936650225435026,-0.2513963356622842,3,right
16.629,-0.8369373860823668,1.191937105725325,-0.016240907866340994,3.571947279383779,4.021365636667962,2.188103947207636,-0.3090589297961366,-0.18917885651217026,-0.24190854109600793,3,right
16.63,-0.825872783030696,1.1948807913619435,0.0036373130691730884,3.55804216622411,4.007168849172814,2.1845455609768596,-0.31082488317100443,-0.2022567741194135,-0.2540761220379889,3,right
16.633,-0.79979649693327,1.1854475633760555,0.01878583614415409,3.6342326765949813,4.076680386447342,2.2042429560328456,-0.3093524985043237,-0.19134022757730074,-0.24392509080915795,3,right
16.634,-0.7680359334854099,1.1684422171972142,0.03332180047661345,3.490170841319034,3.946442769198579,2.166970111895276,-0.3093971674017957,-0.1916404014916097,-0.24421849111339616,3,right
16.639,-0.729040817942802,1.1450083594045957,0.048582452432776285,3.67577130702215,4.113966497080301,2.2149964790481977,-0.3121837537140743,-0.21243625928734688,-0.26349408674577673,3,right
16.64,-0.691372708375993,1.1248961188062996,0.06480333204857647,3.520575841139335,3.9739989144654615,2.1748352657694383,-0.30533118687723226,-0.16131903320620478,-0.21610336227705426,3,right
16.643,-0.6406476771156271,1.0962682841733096,0.08784263668017483,3.5257309042021836,3.978226948934868,2.176178960558466,-0.3166927265239417,-0.24607298901379962,-0.2946776600185741,3,right
16.644000000000002,-0.6009273208103849,1.0731732837662085,0.10312724402372964,3.81851687779249,4.24365318750689,2.2519137553710062,-0.30170747517346985,-0.1342854722155687,-0.1910428363056714,3,right
16.645,-0.5957242628587586,1.0707023088467984,0.10664404292992277,3.097768636764126,3.590769625615934,2.0654667600910335,-0.23879350212569428,0.3348884782271781,0.24394335908534479,3,right
16.649,-0.5502504635247354,1.0420422149854278,0.11518343922872576,4.2930805648833426,4.673387881341224,2.3746792503750007,-0.2238037335013317,0.44666351219521816,0.3475773004383059,3,right
16.65,-0.5008560980452812,1.0117679772393804,0.12038571955022571,2.7164589009603977,3.245434736040529,1.966826521977371,-0.2351763054714182,0.361935667074159,0.26900040247153933,3,right
16.653,-0.49358681207183563,1.007270125145855,0.11917530684511352,-3.9002966745824335,-2.7484514142743266,0.2551633220856824,-0.2283038319175677,0.4130133821677867,0.31640408157204536,3,right
16.654,-0.4524171602828275,0.9785589946534451,0.11699483057370023,-5.476804265357728,-4.1763713029100895,-0.15265876136603473,-0.23111907826026667,0.39226477061904164,0.2970993603107889,3,right
16.655,-0.39835590735396553,0.9391744175393274,0.1079167252265692,-4.281583321264218,-3.0936983943910437,0.1565294059090088,-0.2311320580685824,0.3919244316216407,0.29685128611706224,3,right
16.66,-0.3640440896984808,0.9115607340858041,0.0959891008812217,-5.0024933906088584,-3.746916670374355,-0.02996148564144306,-0.22968111050537487,0.4028493375130594,0.30695121127602953,3,right
16.66,-0.3294892833976408,0.8839510263197325,0.08325132674452543,-4.709061169887342,-3.480709244902919,0.045947789380897025,-0.23145569153587914,0.38982458498951006,0.29481718360884646,3,right
16.663,-0.3062250804522332,0.8659369528932047,0.0680731499943702,-4.705138356851293,-3.4777198884246605,0.04695915748425184,-0.23001785271053204,0.3998751128369916,0.3043226908864459,3,right
16.664,-0.29174744642724054,0.8568552636085056,0.05282499231165726,-4.858693708616302,-3.616265443386569,0.007239935330512379,-0.2308803199655138,0.3946005828437992,0.29910991634045064,3,right
16.668,-0.2863128763354842,0.8525222103601269,0.03958048401530591,-4.674568216443155,-3.449715598424449,0.054869262599054405,-0.23055656796202942,0.3955950863842362,0.300427780046964,3,right
16.668,-0.292629610729662,0.8555987812934303,0.026358614616840026,-4.818287469199991,-3.580354076082431,0.017687715519999578,-0.23048568065665664,0.39725554303032584,0.3016516760895646,3,right
16.673,-0.30260903923353466,0.865523657130961,0.010054765206979848,-4.740153302371264,-3.5081143090032403,0.03791043437733441,-0.23082425701215267,0.3947407439664189,0.29931733889310813,3,right
16.674,-0.3194341711061397,0.8826471427248723,-0.0048758334552894324,-4.759154632843858,-3.5278446102106584,0.03297704130868227,-0.23027738757374858,0.39671875925363054,0.3017367717152353,3,right
16.677,-0.34151942471711744,0.9036747451569104,-0.018894031510390714,-4.778035397650983,-3.541859954267691,0.028114940281637225,-0.23101589918852933,0.39601097676483255,0.29974231204284213,3,right
16.678,-0.36454250000322175,0.9234084106882063,-0.029456729502830615,-4.743840888130983,-3.5133455139267156,0.03694299818529402,-0.23013788043426592,0.39539853283723175,0.3011710378011058,3,right
16.684,-0.39255476033243686,0.9384180202199269,-0.0349000195299662,-4.777148632015538,-3.543538017311389,0.028326498758455762,-0.23097532224228495,0.3967863462061837,0.3003292309761064,3,right
16.685,-0.4240195292159937,0.9499220196763224,-0.043624252739253085,-4.752414298045014,-3.516572301405983,0.03475781728718139,-0.2305417656645753,0.3956091674188501,0.3004678978358195,3,right
16.687,-0.454825957742021,0.9570904042761075,-0.04966934463771342,-4.767701419672164,-3.540841606245314,0.0307282192298894,-0.23006205352650325,0.3953849014654236,0.3013196310766681,3,right
16.688,-0.48917715464375044,0.9577538153921618,-0.05248078348571962,-4.759417981900974,-3.5177917244225654,0.03298287862611484,-0.23193779906587086,0.3980350291702459,0.2991376264543255,3,right
16.692,-0.5265331162651268,0.9605986526917638,-0.057733084042709604,-4.762934638192052,-3.5375491483996147,0.03195403495216484,-0.22852443888984714,0.3926337388430956,0.3027336404577208,3,right
16.692999999999998,-0.5630779179985691,0.9682116395960327,-0.06006092416944924,-4.76446594773175,-3.5293621370604544,0.031626565880022516,-0.23287839643239577,0.39978543519852067,0.29831600205496256,3,right
16.697,-0.5986377672861334,0.9743846414561008,-0.06167904848335495,-4.754706787450097,-3.512265811894855,0.03421087317453385,-0.2292559114690473,0.3937219660035316,0.3019188338931962,3,right
16.698,-0.6332975842009314,0.980995862291829,-0.06126309965342387,-4.77697829039087,-3.5685661476597503,0.028189231117242853,-0.22934314535549027,0.39396741114992717,0.3018947160404244,3,right
16.703,-0.6650051580047782,0.9863957958609176,-0.05938636616724801,-4.740504242379409,-3.4685336030167244,0.03810683620603159,-0.2362705880810785,0.40537776659438995,0.29488915522054954,3,right
16.704,-0.6927118357160215,0.9880909596841366,-0.060657306132618195,-4.785598833681337,-3.595401293186409,0.02582269259605478,-0.21926319770122954,0.3771862863750127,0.31197657349508656,3,right
16.707,-0.7204338813945079,0.99046787676479,-0.060596364437580506,-4.748686213375795,-3.4901553641426855,0.03588740897632293,-0.2474528781639589,0.42399995088034614,0.2837071993422084,3,right
16.708,-0.7363183194889997,0.9927317233287476,-0.06078645706403493,-4.7485536653167255,-3.4919696985059185,0.035909261957149156,-0.21027550299830194,0.36221674206177346,0.3209646247718974,3,right
16.712,-0.7402015654762681,0.9928944467495898,-0.0598080358276383,-4.821949356634688,-3.6954014416757066,0.015935415173923932,-0.054223833367129076,0.10288938356419794,0.4773382448286292,3,right
16.712,-0.7529106359115441,0.9938673778603171,-0.05780278813906636,-4.643187212055319,-3.1968918440485132,0.06460242780069984,-0.01704925026854181,0.041081116008102554,0.5145825550416834,3,right
16.713,-0.7625878165160402,0.9973705237840114,-0.059556180104834794,-4.938967343116331,-4.022870237804097,-0.015927859330226463,-0.04523296543490411,0.0879458900429604,0.486344750758083,3,right
16.715999999999998,-0.7618992770826142,0.9999056125587908,-0.05960688351157085,-4.549056129479532,-2.9336268532971683,0.09023102862244856,-0.028234855517072718,0.059679721042113144,0.5033760050889516,3,right
16.719,-0.7620798347537105,1.0002996073727033,-0.057560130522849015,-2.9115432402079087,1.6393395787868923,0.5360712198456151,-0.03515081738712052,0.07117538052188795,0.4964502893827818,3,right
16.72,-0.7564287742608229,1.0045954985808563,-0.055314586079694965,-2.52166266172702,2.728511444780688,0.6422146733528178,-0.03524838986577816,0.0713543505891255,0.49633915925324096,3,right
16.72,-0.7447333548279689,1.0121419532575595,-0.05390493703691763,-2.817282043015147,1.9027470802882112,0.5617377087254716,-0.03162258104267908,0.06529246995525413,0.4999988722360374,3,right
16.723,-0.7278097087043274,1.0185688144852239,-0.057113819990643105,-2.638959270937987,2.4008020863020265,0.6102813513404929,-0.03596548507607941,0.07255964899691147,0.4956093710970526,3,right
16.724,-0.7006833390723461,1.026258352939176,-0.059833919810791905,-2.7115331100704396,2.1981115278369425,0.5905195449780314,-0.03258356524991775,0.06689115412249269,0.4990358234060415,3,right
16.729,-0.6690046790213144,1.0335178027782885,-0.05852998709758718,-2.712546384081982,2.195369069867824,0.5902638275333665,-0.0344073487767792,0.06994298497268334,0.49719237243691444,3,right
16.73,-0.6347387085389817,1.0386572405494934,-0.05620671306913944,-2.674489264203358,2.3014120274965197,0.6005834851315379,-0.03398929013417969,0.06928645180425533,0.49757759341052565,3,right
16.734,-0.5972743923112422,1.0427414605664869,-0.051661519209313105,-2.720101021154118,2.1744173234860953,0.5882241420853078,-0.03350953684225948,0.06836480320008198,0.49816571041542657,3,right
16.734,-0.5606449349235906,1.0422946162152542,-0.04425204836154864,-2.6845598127554515,2.2732667017859143,0.5978424121989938,-0.0343398943264911,0.06995879018881988,0.497148829364716,3,right
16.74,-0.5258428680253937,1.039199842317292,-0.03756221895667708,-2.7037235568863207,2.2199280277257714,0.5926498516606181,-0.033562854340146116,0.06840512576482274,0.49815427695674935,3,right
16.741,-0.4960040229695068,1.035210606705176,-0.03218823595080167,-2.699392820918513,2.232391520412467,0.5938786940754675,-0.03408270574591983,0.06947803800323776,0.4974525390978429,3,right
16.743,-0.4699676509190219,1.0259626584969561,-0.02531126475318731,-2.6941723467823455,2.2457750669850993,0.5951400688486916,-0.033852347662499005,0.06909688962705804,0.49768163584264996,3,right
16.744,-0.44342623376846807,1.0152667187438746,-0.01841752619720243,-2.703212010288638,2.2225990072207393,0.5929543186469635,-0.03386539558428625,0.06873163445344863,0.4980045323291192,3,right
16.749000000000002,-0.4230756491612957,1.0070145415921523,-0.012639492843490668,-2.6946539119133797,2.243953775840131,0.5949465028905834,-0.03396223972698349,0.06977691094121988,0.4971397930870661,3,right
16.75,-0.40930006813789266,0.997506524679309,-0.006528814907148145,-2.7004328876825223,2.229846887518203,0.5936424156963487,-0.03384719983041682,0.06826651069389716,0.49840032498104725,3,right
16.753,-0.3968796156761988,0.9895305873173114,-0.001332416788676036,-2.6980185781398456,2.2366077469518073,0.594302125237389,-0.03393078387816295,0.06981168132335058,0.4970957057279425,3,right
16.754,-0.3867178323535163,0.9844145171670728,0.006450264589348338,-2.6975516036591545,2.234135602926768,0.5939296186297103,-0.033882084828368186,0.06891822570846001,0.49784989073864916,3,right
16.758,-0.37701342965947193,0.9788481113032271,0.014949113534969163,-2.6999490379842253,2.236071956987119,0.5944187389389353,-0.03392664970253269,0.0682919047600404,0.4984134188459356,3,right
16.758,-0.36789431311502274,0.9744449802746654,0.01819980035718992,-2.696680390015616,2.23232172898662,0.5936052134048075,-0.033843613177481705,0.07121911720974392,0.4958351556095709,3,right
16.762999999999998,-0.3593979069805707,0.9672820463037326,0.020773549649609535,-2.699755656618137,2.237463270929575,0.5945838794504021,-0.033992069700443536,0.06578140729283613,0.5006220392646908,3,right
16.764,-0.351085943936733,0.9558846904230278,0.021912891320724,-2.6979742720630355,2.2345047435153353,0.5940195792722036,-0.03379422201395804,0.07275165122358404,0.49448274957874233,3,right
16.769000000000002,-0.347147872996681,0.9451173796283575,0.0189402042135713,-2.6973469923000444,2.2294175243879613,0.5932860044747759,-0.03396272617301566,0.06693812147918049,0.499604706909017,3,right
16.769000000000002,-0.34563368181319143,0.9361902136642096,0.011253151338729388,-2.7012682570343722,2.24839761221221,0.5961766414622056,-0.033967136009023645,0.06711031030629447,0.49945728634098324,3,right
16.773,-0.3457342584518777,0.9308722443643542,0.0011653297728119005,-2.693937727904107,2.2133619178833444,0.5908317149094037,-0.03360730935333057,0.07813166978352495,0.4897288704007156,3,right
16.774,-0.35155672383021186,0.9299513519130724,-0.005828478111713673,-2.703275058023359,2.258560364054463,0.5977155397363048,-0.034485099009122736,0.0510316765407974,0.5136463326310925,3,right
16.778,-0.3579193213023336,0.9342560810970257,-0.017846138459257897,-2.6955143609587084,2.220729733235757,0.5919589551251189,-0.0330288114451196,0.09596311456617018,0.47399132590192594,3,right
16.779,-0.35989758409644873,0.9400996109466248,-0.028901605475496552,-2.6958192770419664,2.2214889213577065,0.5920894310441844,-0.03495206123890138,0.036702945454743216,0.5262932165250962,3,right
16.782,-0.3592226546364059,0.9443030242394908,-0.031114767234165383,-2.7102115205314785,2.2947575299173666,0.6031754082275205,-0.04304692133407777,-0.21200473505290746,0.7458081616238843,3,right
16.783,-0.3563068827003446,0.9540778276315939,-0.0404984795041536,-2.6747660911786046,2.114870241215889,0.5759457530120308,-0.04497384344328659,-0.2712584263047232,0.7981050101864426,3,right
16.784000000000002,-0.3529153080923617,0.9704427378410784,-0.05057296548982915,-2.733528412301987,2.4131538464854225,0.6210967299957637,-0.04351178129144797,-0.22633724776041714,0.7584582008592083,3,right
16.788,-0.35211219874963134,0.9814452079799832,-0.05043612241834945,-2.6560449738833887,2.019652345272432,0.5615353910068601,-0.044394440346399194,-0.2534283919885003,0.7823680248624205,3,right
16.789,-0.3516071200814703,0.9857677745374579,-0.050751229436531126,-2.331045597263847,0.3672746884197633,0.3114679060896697,-0.04403463913825242,-0.24240752267151883,0.7726415378020224,3,right
16.79,-0.34674272916830995,0.9962516745664395,-0.05325762079654103,-2.253596111017722,-0.026324159041745593,0.25189469482869586,-0.044030206395111626,-0.24225013813500657,0.7725033446227367,3,right
16.792,-0.3404074248508268,1.0093179897943654,-0.057006472192422455,-2.3123053629306147,0.27211160863272,0.29706422814981376,-0.04421842489039968,-0.24802974424510318,0.7776013610653458,3,right
16.793,-0.33546983313654805,1.0169992161985548,-0.06259179846529743,-2.276903822013128,0.09209846860590559,0.26981922870417885,-0.043992156885501496,-0.2411091421851528,0.7714992910011147,3,right
16.797,-0.32792057548141706,1.0218741770709365,-0.0655287988069613,-2.2912986330479432,0.16535974908661577,0.28090430288623547,-0.044169197954698314,-0.2464959774915945,0.7762452682280869,3,right
16.798,-0.31790574899946344,1.023546440983817,-0.06733380436351818,-2.2915183355764626,0.16636320827786988,0.28106458367247467,-0.0440729553678595,-0.24359401185769025,0.7736923002722197,3,right
16.802,-0.3080704112070047,1.0227975026478742,-0.07101684403639101,-2.283943619614419,0.12799939353418235,0.27524295760101897,-0.044095360700997274,-0.2442557668267606,0.7742728388710561,3,right
16.803,-0.29874129361832547,1.0178777203268035,-0.07213724239347458,-2.2930160521649436,0.1739573122067193,0.2822194156064475,-0.04412156783175285,-0.24502189372598673,0.774941809482256,3,right
16.807000000000002,-0.2911555018090318,1.0100272362778822,-0.06958175974082237,-2.2859478282351606,0.13816951911828323,0.2767827715158041,-0.044074233671772725,-0.2437033488778773,0.7738011197368075,3,right
16.808,-0.2848529723571245,1.0030728604305226,-0.06773213629924985,-2.2897555045473093,0.1574754049605233,0.27971310874978217,-0.044121795975570505,-0.2449279940315221,0.7748423297672944,3,right
16.813,-0.27731517186710564,0.9970775258352574,-0.06643730275429562,-2.28890741895092,0.15302104253951812,0.2790567799986122,-0.04408607962859357,-0.24412200187534355,0.7741796028621635,3,right
16.813,-0.2681620903708797,0.9941142177551915,-0.06558261562755727,-2.2878395140421794,0.14801715643166924,0.27824294623708146,-0.04410474865387348,-0.24446287886093981,0.7744416998693455,3,right
16.817,-0.2597855392647042,0.9915074819764138,-0.0678331959401028,-2.28968559609312,0.15668269572042076,0.27965147090087294,-0.04410472226040526,-0.24446089492710413,0.7744395781306195,3,right
