time,gFx,gFy,gFz,ax,ay,az,wx,wy,wz,subject_number,foot
12.008,-1.1036119517223013,0.5723656710187345,-0.3441187905738895,-0.2847463532603344,-5.061257817164037,-6.646392528182035,-2.2289301241697927,3.667940665227113,4.744197299608451,1,right
12.009,-1.074812427714872,0.581008730972097,-0.32390846530228434,-0.5346995142842833,-5.507829067899301,-6.407164598513153,-2.2480057656669814,3.613038377668234,4.71783618703437,1,right
12.01,-1.0303244027191791,0.5894379481684795,-0.2967995676452435,-0.34517355384943127,-5.169256437178832,-6.588526569937359,-2.2484143014822364,3.6123630228498467,4.7174508433071525,1,right
12.012,-0.9903240347376873,0.5951450991799339,-0.2848042132299844,-0.45959370710258624,-5.373443720766656,-6.479137878271832,-2.238225182560635,3.6410163642246935,4.731291343438706,1,right
12.013,-0.9452439729608448,0.6021973398069793,-0.27649034425155344,-0.41276245647795606,-5.290408657923786,-6.523672940952541,-2.2503268742011224,3.6066171821129123,4.7147222414744885,1,right
12.017000000000001,-0.897278388795791,0.6099090440486665,-0.27640104134958793,-0.41269792357750623,-5.289140384284609,-6.524233194666294,-2.2410605056485418,3.633525636723893,4.727609289847456,1,right
12.017999999999999,-0.8509769134894989,0.6195175603711199,-0.2833074868568749,-0.4362762776757242,-5.33283641706401,-6.50099954353975,-2.2457532487572642,3.6187879415634976,4.7206936712638825,1,right
12.022,-0.8070676623969394,0.6259817676038679,-0.2883869492187069,-0.40785221916457215,-5.280522263647796,-6.528848850811309,-2.2452260366986305,3.622564094048702,4.72221335722489,1,right
12.022,-0.7650546664206316,0.6306209897966086,-0.2930883298912649,-0.4302730548801221,-5.321219812557802,-6.507123237486216,-2.2431144840707313,3.6258201143570155,4.724143013580622,1,right
12.027000000000001,-0.7280577298978699,0.6379129012805932,-0.29181274501036364,-0.41731119460269717,-5.299412813966956,-6.518957215630225,-2.2460492546736526,3.61964527867198,4.72088337822852,1,right
12.029000000000002,-0.6928950037702513,0.6390417931162571,-0.2801808092047897,-0.4223176881478732,-5.304070231231135,-6.5159720426669585,-2.243877886254528,3.625873773414643,4.723876004903692,1,right
12.032,-0.6527306798647755,0.634741242538206,-0.2648089466524952,-0.4217845826413198,-5.310482780282463,-6.5133821304425465,-2.244197538544081,3.6208472238225364,4.721997549920563,1,right
12.033,-0.6169536573599929,0.632614578152312,-0.24629362572273308,-0.4207966329122262,-5.299688349695497,-6.518126911978985,-2.246163198431632,3.6246249392544065,4.722582917926468,1,right
12.038,-0.590508461586053,0.6329432591208768,-0.2272091909132239,-0.4223790824813286,-5.309709990077947,-6.513585787816731,-2.2422811744986157,3.621704320927324,4.723015333315228,1,right
12.039000000000001,-0.5713259680004434,0.6352961038248425,-0.21217526607359977,-0.4188046527215551,-5.303393240795941,-6.516977338993344,-2.24676715756111,3.6238243070050866,4.722076661153007,1,right
12.042,-0.5626737260239137,0.6368909244091188,-0.19879548390399596,-0.42721927381655034,-5.305064118892195,-6.514545676215368,-2.243941728286412,3.6232654326656424,4.722939183080774,1,right
12.043,-0.563589159456338,0.6417524968944632,-0.18779800649891468,-0.4115244000289192,-5.307554512039171,-6.5167227691064715,-2.2422319468512097,3.6207129116010606,4.722687394815528,1,right
12.047,-0.572075262378043,0.6559050449068431,-0.18105154970547072,-0.43409125811867266,-5.30232844846455,-6.51428454461891,-2.2510541530712587,3.6280637443312562,4.721953271626116,1,right
12.049000000000001,-0.5893437990964229,0.6765410107621548,-0.1756285126280719,-0.4101925838176046,-5.308180668743386,-6.516732700480119,-2.2343762636019564,3.6153339608593686,4.723748239324044,1,right
12.050999999999998,-0.6135425468210257,0.7021692616885159,-0.16741373485031244,-0.4237520066720052,-5.304355335193341,-6.515556889369254,-2.255906623155953,3.6313546777254913,4.721287594607678,1,right
12.052,-0.6401846552857466,0.7315260440186744,-0.16024715198172235,-0.4366741863915238,-5.303257608987472,-6.513361832885522,-2.2378818474646645,3.6181165811232914,4.723406961679578,1,right
12.056,-0.6691479963467937,0.7671084551359562,-0.15766356678889296,-0.3821403616431739,-5.311661822031662,-6.5210335848995395,-2.2384488067165984,3.618264672720646,4.7232501468784065,1,right
12.058,-0.6975769477996452,0.8054598587194601,-0.15460159210696928,-0.48290895246451004,-5.295427122307391,-6.507156480526862,-2.2726090870471576,3.64406656649917,4.719473982335498,1,right
12.061,-0.7201576792229263,0.8400178875355528,-0.14668593575990851,-0.3535994160976247,-5.316417896024337,-6.524895416473779,-2.188530494623081,3.580951891287791,4.7288979758580005,1,right
12.062000000000001,-0.7400834500847454,0.8799973179221181,-0.1371682114502859,-0.4615198013810542,-5.298836472888931,-6.510120224337808,-2.3279835373455455,3.685485411130702,4.713220123958848,1,right
12.065999999999999,-0.751991751408756,0.9077258313049581,-0.1324062176972864,-0.45872681130390613,-5.299534975817185,-6.510393121621204,-2.1440261536591736,3.5476465676277664,4.733916902240107,1,right
12.067,-0.7536511344715704,0.9137443405582604,-0.1297594489202281,-0.25252539743633595,-5.332324956188838,-6.538977798177159,-1.3720736344086968,2.9689528105398595,4.820782678931362,1,right
12.067,-0.7566719002579094,0.9345673381266724,-0.12084172651116377,-0.7591913569876445,-5.251472813975621,-6.468875283175418,-1.188119273998244,2.8311228272408506,4.841485430728527,1,right
12.071,-0.7561434488559163,0.9618359551233824,-0.10230203300552002,0.08084351407262513,-5.385590636111324,-6.585061039832721,-1.3275585981715468,2.9356161531031346,4.82578047434708,1,right
12.072000000000001,-0.7521645237323036,0.9695370467989493,-0.08908737651491638,-1.0271530818967098,-5.20869386415378,-6.431828859166671,-1.2435157672311519,2.872606245681215,4.835275122647259,1,right
12.075999999999999,-0.7514987579539746,0.9727112679784459,-0.0850632879937159,-5.678143240080414,-4.4664893294997645,-5.788464007400985,-1.2776106072099265,2.898216432263427,4.831369667100045,1,right
12.077,-0.7422618240502367,0.9767268726337954,-0.06829740899772645,-6.7861508445036325,-4.289651104782717,-5.635261752781275,-1.2782674030011236,2.8986276911036515,4.831390342062786,1,right
12.078,-0.7255899914372972,0.9774009432312942,-0.04465877805960357,-5.946107662217873,-4.4236852543675385,-5.75138386488346,-1.2601546243581478,2.8851318091971105,4.833335843207548,1,right
12.081,-0.7131168495159033,0.9763450348612712,-0.024865788560884484,-6.4527563434288435,-4.342881023412533,-5.681379782093211,-1.2817216480491542,2.901259906167736,4.830947632961953,1,right
12.082,-0.7034759100743404,0.9715217654530934,0.0001021195668340193,-6.2466207195434835,-4.37573268205086,-5.709843545862709,-1.2651225849958663,2.8887610718124748,4.832898341785128,1,right
12.085999999999999,-0.696852307251211,0.9652878514091102,0.025209213224650185,-6.243703732423727,-4.376199307080636,-5.710224071542019,-1.2736952199130827,2.8953807738216057,4.831671137179319,1,right
12.087,-0.69797734223829,0.9603448315617115,0.04100922715431481,-6.351787846181165,-4.359029749625586,-5.695416685713408,-1.2724141831296598,2.89408423700912,4.832266420591284,1,right
12.092,-0.7047617223248717,0.957371854731427,0.04450237838696691,-6.222332831695525,-4.3795112055908465,-5.713035124260087,-1.2690630148194346,2.891985284512155,4.832090244111715,1,right
12.093,-0.7146144580620102,0.9591493734901104,0.03997298422755047,-6.323131580389248,-4.3636804655657055,-5.699493325062663,-1.2739679845843535,2.895332564406618,4.831979352781882,1,right
12.095,-0.7297825009896464,0.9639232476048862,0.035151246601217864,-6.268797833124296,-4.3720975700006015,-5.706615685688462,-1.270089938912746,2.892423756720914,4.832419645922942,1,right
12.095999999999998,-0.743881657738753,0.9703751268665756,0.034551060110598275,-6.28120478714818,-4.370228154950914,-5.7050673189209755,-1.2712773870049325,2.893921576665919,4.8314674804597475,1,right
12.100999999999999,-0.749866408534248,0.9797750775930946,0.035868605359145544,-6.2955785903652295,-4.368146890876348,-5.703414644243358,-1.2733752876773363,2.8941044033134133,4.833102324657897,1,right
12.100999999999999,-0.7516664303193434,0.9888301692194272,0.032186104056519824,-6.270758357586296,-4.371418781669604,-5.705771397368,-1.2685510358432652,2.8925615091335297,4.830853655548209,1,right
12.105,-0.7468520602551144,0.9956889539100325,0.027439717866926713,-6.293943623814059,-4.368906749032057,-5.7044163640849135,-1.2743140132028885,2.8946713750177624,4.833181668633845,1,right
12.106,-0.7330566370182061,0.999789179760256,0.02291757116811919,-6.278521887499174,-4.369909799427409,-5.704278244325294,-1.270567991081999,2.8931400056924432,4.831882184642687,1,right
12.11,-0.714181836896876,0.9986234291006618,0.015303621906572744,-6.285175150891835,-4.370010585895491,-5.7051681452750795,-1.2686328473841424,2.8927907844611456,4.8306201048338995,1,right
12.110999999999999,-0.6867182566328434,0.9917730725145684,0.01308770158434859,-6.285140209455008,-4.37002577201895,-5.70518895515986,-1.2794895533110098,2.8961108972094154,4.835882747492864,1,right
12.115,-0.6521149232089443,0.9790291739052542,0.019447589338295646,-6.2818323137498115,-4.368398524568906,-5.702288529555805,-1.2587911080419716,2.8895295136362913,4.826183369779978,1,right
12.116,-0.6147545888919259,0.9617625209152298,0.029355260512821918,-6.285578703056863,-4.372726803718702,-5.709444382849233,-1.2855731114442932,2.8981344559939277,4.838618122013834,1,right
12.120999999999999,-0.5775612639550916,0.9435494709944224,0.039015602984058345,-6.283130529992285,-4.365767968200608,-5.698334498668717,-1.2631267148257534,2.8908835201287184,4.828242104460683,1,right
12.122,-0.5374934763574241,0.9256499828164962,0.04666068957049462,-6.283904350221493,-4.373479812189803,-5.71043223437144,-1.2638702801549437,2.891185248928595,4.828518386176647,1,right
12.125,-0.49322752351165994,0.9095164200416377,0.05595600949745087,-6.2840440752395725,-4.368929312704759,-5.703360123159715,-1.3063103340434623,2.9047326786451064,4.848318546235708,1,right
12.126,-0.44807519772957954,0.8972740012281024,0.06662435381344323,-6.284408510432597,-4.364970721717041,-5.697232886426631,-1.2017987510951456,2.871278143515637,4.7996522023487795,1,right
12.13,-0.38957757323567027,0.8901612709735456,0.07970396583368114,-6.28210719737776,-4.382414358559405,-5.724152213697266,-1.3751623110809756,2.926812173615237,4.880352535047765,1,right
12.130999999999998,-0.3493262079543742,0.8876857072575528,0.09151820299937857,-6.287049951089581,-4.349954675921192,-5.674134202772756,-1.1464631617334038,2.8535312140375932,4.773892436463511,1,right
12.134,-0.3371924436221051,0.8880925439979553,0.09443232159321711,-6.28023581050001,-4.391711694480698,-5.738427030750968,-0.18664256164520612,2.546077869517468,4.327121725059088,1,right
12.134,-0.29553768196630975,0.8905772378914577,0.10272120241592245,-6.286129709029945,-4.35681413896098,-5.684719746647968,0.04208050688592313,2.4727617202604324,4.2206110033424515,1,right
12.135,-0.23984013781781188,0.8931496590129673,0.11779092096879172,-6.2859953252674154,-4.357764216534013,-5.686179706289154,-0.13133361046803485,2.5283606252123336,4.301388987451753,1,right
12.139000000000001,-0.19997675076525695,0.8959718022092613,0.12650776896167595,-6.2743336306849,-4.424351003742103,-5.7886232638635065,-0.026744458709983265,2.494825637396116,4.252662431508803,1,right
12.14,-0.16366485485316362,0.8987088248681769,0.13430844175201972,-6.3031157327273615,-4.260651419523501,-5.5367942159113746,-0.06927887643262731,2.5084424889057666,4.2724479890531875,1,right
12.145,-0.13114164450920027,0.8997795328071192,0.1404161043703739,-6.255265603801224,-4.532105567862423,-5.954368602877581,-0.06993979572946388,2.5087255972569507,4.272867309654257,1,right
12.145,-0.10985110048104649,0.9010599459064442,0.1413312879067191,-6.318477895119251,-4.174033982205467,-5.403567053917996,-0.047515510280112846,2.5013966780375156,4.262196836152068,1,right
12.145999999999999,-0.10423610245986965,0.9021062777476874,0.14112661520027592,-6.58409828046303,-2.671269085909089,-3.0918354807997663,-0.07439589364398247,2.5102100362436,4.275036439619735,1,right
12.149000000000001,-0.09109353498093162,0.9032701066958999,0.13835722606789197,-6.647398355058366,-2.313193924747372,-2.5410326034951733,-0.053431419972470445,2.50329589969866,4.2649550622764165,1,right
12.15,-0.0689718198862576,0.9069663584161666,0.13125318436107392,-6.599403080230914,-2.5846239293366775,-2.958578035293008,-0.0647188346405131,2.5069965856983414,4.2703477791900974,1,right
12.154000000000002,-0.05980657748530443,0.9147345338236322,0.12672029349059796,-6.628326763390115,-2.421025036503738,-2.7068571845372125,-0.0622825537557653,2.506384015893863,4.269488493579468,1,right
12.155,-0.056058626890683125,0.926164105956091,0.1270066122734248,-6.6166137617578915,-2.487394439453221,-2.8090740423832474,-0.05889687904199907,2.5047599869594794,4.267028520686601,1,right
12.158,-0.05524527212158886,0.9375206235839146,0.11704366054228685,-6.616345020625609,-2.48867559466518,-2.810873511875972,-0.06475190909847946,2.5075637869632916,4.271275964947029,1,right
12.159,-0.06450754564899291,0.9471096267263595,0.09731882119336982,-6.622627522401649,-2.4534127441217315,-2.7567981389652836,-0.059056107291433416,2.5046009605792836,4.266757476196908,1,right
12.164000000000001,-0.0831540755517027,0.9576609962355653,0.07607132174913189,-6.615181615278086,-2.4953968696895323,-2.8213092435333573,-0.06298365457596256,2.506766162376202,4.270074123811703,1,right
12.165,-0.10889410578007117,0.9700317839937189,0.040617853736156964,-6.620851592704003,-2.463092941719919,-2.771472362274947,-0.06157320340871277,2.5063224431609843,4.269430385424804,1,right
12.17,-0.13612655095172388,0.9788756086650706,-0.0026874875527128335,-6.618045125008617,-2.4797568803074723,-2.797569881700557,-0.060299817057396767,2.504231849255295,4.266077134005512,1,right
12.17,-0.15740789266022073,0.9847367415466017,-0.037077376809324616,-6.618234676560471,-2.477304002630012,-2.7929985203770418,-0.06398863351219763,2.5092586777134374,4.2741034752051466,1,right
12.174000000000001,-0.1682745319723612,0.989296589254422,-0.06583260975911767,-6.619698494821453,-2.47073022979699,-2.7838652285282945,-0.0586669609817243,2.5018178620929254,4.262213486016519,1,right
12.175,-0.16685368137659456,0.9901041967875905,-0.08614189438654171,-6.617761760143083,-2.4803184454358,-2.7978343362852662,-0.06409947538336981,2.5096727046239558,4.2747772226817045,1,right
12.177999999999999,-0.15448629528226543,0.9928259337229608,-0.10032204300265837,-6.619095213308286,-2.47277037237785,-2.786216151972407,-0.06095841807994027,2.505133691351651,4.267515640202024,1,right
12.177999999999999,-0.1340118155345938,0.9985837889851888,-0.11931031412163795,-6.61914654968984,-2.4750053979848725,-2.791102355428364,-0.05878219477861945,2.501390651346324,4.261507341781545,1,right
12.183,-0.10877000730984844,1.0018918983987204,-0.13689425527635554,-6.617371170209696,-2.479263207239503,-2.7943430615529223,-0.06899330536949155,2.5179908095874617,4.288130616109127,1,right
12.184000000000001,-0.08542100512271819,1.0033111899129847,-0.14138149993002036,-6.6206044660417565,-2.4696131324351023,-2.784434734058483,-0.05002353368423499,2.4871955591313224,4.238738542911055,1,right
12.189,-0.0631805145223624,1.0073504688797832,-0.12927863174126408,-6.616942699729243,-2.481107059851153,-2.7968537921940078,-0.0743363380100327,2.526723131195677,4.302142899579713,1,right
12.19,-0.04157479548831246,1.0116644955442153,-0.11558776099710796,-6.6192039945821435,-2.4736568512170862,-2.7884331479530355,-0.054060583097367214,2.4937312648294316,4.249214377562074,1,right
12.193,-0.02521259856802413,1.013044811257552,-0.10842422000134332,-6.620700970517293,-2.4697499289088225,-2.785044932707474,-0.05466151854321348,2.4946392287255965,4.250684529102571,1,right
12.194,-0.011925679821230804,1.0137516950227838,-0.10569324171644277,-6.6133130083703655,-2.491488702861206,-2.8070140665734495,-0.09309375308525202,2.55747870476856,4.351469151694154,1,right
12.198,-0.0006805411952840222,1.0124936141447407,-0.10767802127731296,-6.627214520039994,-2.4500779719997228,-2.764585064488819,0.0014028258949905295,2.403019136970576,4.10371099571659,1,right
12.199000000000002,0.013862151765823939,1.015408764226331,-0.09123396421884498,-6.609287945188934,-2.5036458630994267,-2.8196739194180767,-0.15526754153181727,2.6591149152877884,4.514518207169402,1,right
12.203,0.02474112756643705,1.0171645295347207,-0.07379824681487429,-6.6242929147321,-2.4587588228622606,-2.7734262054788346,0.05136216852853392,2.3213333026825467,3.97266088121093,1,right
12.204,0.026403037078494215,1.0172416890531104,-0.0664784056854768,-6.6238194123135585,-2.460228608709822,-2.7750736811358205,0.9186435923261361,0.9034649703324941,1.6986354160620378,1,right
12.204,0.036406031709556766,1.0283381718455402,-0.03132751607831124,-6.595381381473986,-2.54514057524806,-2.8622060995840024,1.1252550122626257,0.5656875249678479,1.156801138479953,1,right
12.207,0.04969300920967269,1.0474663015406476,0.01650648103930138,-6.665388655178196,-2.3360702585471724,-2.647473131640023,0.9686034688743815,0.8217849522000558,1.5675336671476798,1,right
12.208,0.06626781599767644,1.0925587719210599,0.06998969689420134,-6.5492549802813524,-2.6828549666731893,-3.0037259428856835,1.0631109911092467,0.6673018592172308,1.3199422283488413,1,right
12.213,0.08438227581500565,1.134945605293746,0.10981844689914558,-6.702477532142237,-2.225400599061202,-2.5337521726889416,1.024606070844238,0.7302012553007124,1.420446312488368,1,right
12.213,0.08977444885538977,1.1481684081684644,0.11943732303484769,-7.345204677123711,-0.3053982290678942,-0.5613488918779054,1.024156822383546,0.7310103322841592,1.422277400620735,1,right
12.214,0.11170708627460244,1.1952099922950734,0.15671837865467625,-7.498485566376161,0.15205904977809567,-0.09136143038446737,1.0442188548347984,0.6981362009042344,1.3690256593701644,1,right
12.217,0.1559691318806176,1.2631871042775824,0.20934961731407542,-7.382283485958804,-0.1947585827784567,-0.4476748662385279,1.0201141723849187,0.7375765716987048,1.4325091869335829,1,right
12.218,0.1972257289234254,1.3081034866384518,0.25399856659193537,-7.452285485429503,0.014415998621552975,-0.2327852665561842,1.0390028675904062,0.706763169007326,1.3835336172609374,1,right
12.222000000000001,0.22835577481697023,1.3431654027208948,0.32274509736552315,-7.424018204057471,-0.07070294135036419,-0.3202030749473512,1.0285929480861369,0.7235667301973199,1.4090504650989915,1,right
12.222999999999999,0.23447289348873157,1.3594099465959784,0.4134568770415542,-7.423151514859881,-0.07187264834284457,-0.32145998175057394,1.0313749942234243,0.7193895896861753,1.4048197702955336,1,right
12.227,0.21271134405213102,1.3564842324370545,0.5157551028554495,-7.438740888401028,-0.02729957115138734,-0.2755933409909529,1.033491874956478,0.7154730037132209,1.3955095214484676,1,right
12.228,0.1781989722567531,1.3410142981356867,0.6074849922239626,-7.4202065704753455,-0.0807000763261366,-0.3305262180874058,1.029295298804822,0.7226973360385116,1.409510352540544,1,right
12.232000000000001,0.15299796688266423,1.314550462670839,0.674736196231837,-7.434418219080225,-0.0390918353800331,-0.28774950288091994,1.0336631305768385,0.7155598785538956,1.398083956475865,1,right
12.232999999999999,0.16936380149318397,1.293390511112421,0.7364890187983637,-7.427441743908643,-0.061595876245613225,-0.3108088682214127,1.029892960116363,0.7210484132051875,1.4024092766992018,1,right
12.238,0.25408268170015047,1.283772946806066,0.8012301470854655,-7.427423296309413,-0.05629308763135984,-0.3055539022123757,1.033104182664493,0.7173415257227836,1.406696637499532,1,right
12.239,0.40335087897715605,1.29240716585169,0.8663478708622834,-7.432403545109161,-0.05064096600371765,-0.2994157378370309,1.030216935867702,0.7197597571942724,1.3953097587172345,1,right
12.242,0.5808310617132084,1.3304178699408828,0.9232789607288581,-7.425290433178057,-0.060572917482525045,-0.3100256032709504,1.0325983888275139,0.7183204945843269,1.4092746459420904,1,right
12.243,0.7697165648578552,1.4004317795908037,0.9681742731362983,-7.431446397859728,-0.05120481202168107,-0.3000774911068568,1.031689331140308,0.718388664856835,1.3999811135179336,1,right
12.247,0.9569162322967977,1.4988280676301886,0.986359182749093,-7.42930314713086,-0.05768307264627596,-0.3067303783452749,1.029453874575227,0.7208210082374786,1.3957774495399393,1,right
12.248,1.123517209838307,1.6197639105503903,0.9600910406476493,-7.424834595023709,-0.05430594159883142,-0.3038606005241169,1.0365589432495832,0.7145548036458935,1.4211991295617246,1,right
12.251,1.264302265812921,1.7595763822316783,0.9018087648941671,-7.437211691091214,-0.05556226574922947,-0.30378029478539437,1.024015208066674,0.7251410982270612,1.372394788681635,1,right
12.252,1.3505511532826953,1.9043107616779653,0.8025626083614005,-7.418227943089831,-0.05523463187092481,-0.30548935239475844,1.0398941161963964,0.7119203951324962,1.4356600575582392,1,right
12.257,1.3880529933837222,2.039708351037005,0.660754221735417,-7.43856302881445,-0.0552971703222689,-0.30337235232674065,1.0267336306594026,0.7228005895131311,1.382590309498307,1,right
12.258,1.3603622871238552,2.1461843184966707,0.49004074979307455,-7.426658222806045,-0.05571380570082654,-0.30506172103189544,1.0269421318556775,0.722747868885715,1.3844163351769514,1,right
12.262,1.2622609754564,2.210315752637769,0.3146382810790342,-7.417159881096201,-0.05382554824165421,-0.30420587559885587,1.052429674966619,0.7013581246573533,1.48457331590365,1,right
12.263,1.1332418939475364,2.238792955302509,0.15678264824454016,-7.4599835681902285,-0.0584144741153932,-0.30416915936190836,0.9899975003952998,0.7535825196998669,1.2378361562702986,1,right
12.267000000000001,0.9076684633832784,2.206275618412633,-0.025741596097713756,-7.380335762075042,-0.05056360196123387,-0.3049174767148022,1.0934332323256652,0.6671228335623023,1.6471504829893528,1,right
12.267999999999999,0.7283832091964707,2.1547895757660083,-0.14745535325384954,-7.482665522740042,-0.060502049238057506,-0.30380731522894877,0.9570298533322164,0.7811166384290771,1.1071893665166188,1,right
12.270999999999999,0.6820140938849821,2.14013859812912,-0.17520776178228797,-7.397202916291764,-0.05225481335379767,-0.30478985998706,0.3843709518489875,1.259782523688672,-1.1589876883404662,1,right
12.272,0.4966972583602173,2.050889302692828,-0.27646402677795706,-7.399623450983596,-0.0522712186015076,-0.3045400604807206,0.24796839110498536,1.3737732676004195,-1.698964596289403,1,right
12.272,0.249789997194566,1.8967382458489657,-0.4095459367264216,-7.562255806496525,-0.0686967364290538,-0.30341166231074496,0.3513880518187982,1.287342550339728,-1.2895867973771884,1,right
12.275,0.09987035477535455,1.7603727614350189,-0.49459483630833345,-7.162376596369587,-0.028549278604778204,-0.30643645638615563,0.28900932950120334,1.3394773267186926,-1.5364817623566527,1,right
12.276,-0.05268041531409471,1.5600889676962146,-0.565849266790831,-7.825456482666484,-0.09507816335151864,-0.30136883932299763,0.3143889179989603,1.31826395144788,-1.4360427278471897,1,right
12.280999999999999,-0.13198972805908876,1.4156589781595939,-0.5907087102898863,-6.950826818227426,-0.007307333291121071,-0.30804340189291535,0.3147556153464691,1.3179569144984624,-1.4345972861495697,1,right
12.282,-0.1448241445035106,1.3803624668267633,-0.5872822563925197,-3.280567819088497,0.36069997875445076,-0.33616496836925736,0.30142761903482573,1.3291015398155506,-1.487302524562906,1,right
12.283,-0.20742130594016958,1.2365257010080197,-0.5726290591162657,-2.405980479621716,0.4484735022179619,-0.34282517301656046,0.31739924938186914,1.3157426857845926,-1.4241739323139335,1,right
12.286,-0.2710668527555463,1.047209639553105,-0.5267822091155107,-3.068902635277725,0.38203506472471627,-0.33771720064992244,0.30495307536900984,1.3261561610341257,-1.4733395283174526,1,right
12.287,-0.3181919958109779,0.9127804767071399,-0.46443131854056185,-2.669402495308579,0.4218507258995758,-0.340945865486601,0.3116615328547277,1.3205441566928433,-1.4468321756352007,1,right
12.290999999999999,-0.37622371799811005,0.772331462585013,-0.40063770617538585,-2.8313693543064105,0.40611662045014163,-0.33935781945551136,0.3101583219627153,1.3217905291585479,-1.4528672378791754,1,right
12.290999999999999,-0.4346726578299385,0.6548211583063783,-0.354366164936865,-2.834675719517734,0.4050680015619732,-0.33982436223771256,0.308297189082709,1.323379073769405,-1.4599509324152065,1,right
12.295,-0.4982736850440139,0.563699045097602,-0.33710375139757787,-2.748380200522531,0.41443058648837106,-0.33999810240130823,0.3115182295098099,1.3206295208959076,-1.4476936419966047,1,right
12.296,-0.5657037313627493,0.4992304414078489,-0.35034924001838763,-2.850993279738315,0.4038369477886804,-0.33942068375852663,0.3084529975345318,1.3232622124705145,-1.4592198787817399,1,right
12.3,-0.6310713769088373,0.4768393848320961,-0.38629303132387893,-2.772237291072204,0.41112474580744746,-0.34044544676960764,0.3105312308597324,1.321468689385655,-1.4514784931722584,1,right
12.300999999999998,-0.6976322818133589,0.4838670763057415,-0.43288331537695013,-2.812481046703528,0.4090473100102559,-0.3387845906105482,0.3096873909221525,1.322173412621153,-1.4548223395607949,1,right
12.305,-0.7686692177682516,0.5273609660474048,-0.48743892742429573,-2.8072734610042906,0.40619816340978954,-0.34115343517905405,0.3094186525323166,1.3225032628773667,-1.4549868810906244,1,right
12.306,-0.848113652111635,0.5940650018507254,-0.5373901249975164,-2.790257701217808,0.4120408120875505,-0.33842601268115013,0.3104977181216284,1.3213608953260885,-1.4527718891250925,1,right
12.311,-0.9360614497263289,0.6701518028259671,-0.5749543001079924,-2.8144413577651957,0.40631816919347036,-0.3405193120329314,0.30899589239526554,1.322974855217585,-1.4556482434255769,1,right
12.312000000000001,-1.0289314076878258,0.7476062323945661,-0.6040775166835748,-2.7960109156288873,0.4081377484493003,-0.3406799401149905,0.31045357688483555,1.3213741975101145,-1.4531495695667733,1,right
12.315,-1.1182117699451821,0.8078023568962274,-0.624414044581306,-2.800054611230983,0.413849284068586,-0.3364225677678834,0.3096099002756706,1.3223000229344044,-1.4545987496546593,1,right
12.315999999999999,-1.1880755693658942,0.8510024511215962,-0.6409283745254784,-2.8136909553525005,0.39850102458259884,-0.34597857607560334,0.30919998911215657,1.322833621836748,-1.4545921214137116,1,right
12.32,-1.2204778082236634,0.8776405385003019,-0.6522495698496671,-2.7852898563511106,0.4222074952708899,-0.33178264691580217,0.31140449692226757,1.3201567907395244,-1.4529969124549558,1,right
12.32,-1.206718353518804,0.8881253508478799,-0.6433224514674163,-2.8185169011592612,0.3966379971155266,-0.34689545857302007,0.3072960935796709,1.3251371575033757,-1.4560345620430528,1,right
12.325999999999999,-1.1489731191252512,0.8921774629570545,-0.6099617233789425,-2.797336044164159,0.4116142416430165,-0.3381746586253083,0.3125447761672927,1.318765127834836,-1.4522400442360182,1,right
12.327,-1.0599920931198548,0.8860492574925949,-0.5529782850454874,-2.785241192469152,0.42389536874031286,-0.33062176335899474,0.308175463105963,1.3240732781973787,-1.4553579288710559,1,right
12.329,-0.949235316417723,0.8706584945837745,-0.4753311303451002,-2.8495494558188774,0.3689841180524246,-0.3636146912743756,0.30832585641774035,1.3239052632787345,-1.4551469957815821,1,right
12.33,-0.8361585470355057,0.8548174284404507,-0.40126778237634714,-2.7275948522633797,0.47109714942119735,-0.3024391606875715,0.3165178339644731,1.313894059182659,-1.449752158884177,1,right
12.334000000000001,-0.7371614022259823,0.8455630950862254,-0.3345788775076173,-2.885171498032938,0.33987123867724855,-0.38099447588443647,0.29636016788733277,1.3385145625244093,-1.4631009630977534,1,right
12.335,-0.6418960685437117,0.8517767572296179,-0.264976951490685,-2.7531877319005074,0.4494823112124666,-0.31540046443737146,0.3297783159497784,1.2976994017170824,-1.4409854141552714,1,right
12.339,-0.5858895201479477,0.8639659860405008,-0.21985448869446367,-2.7574423254702403,0.44641469380288956,-0.3172064661879539,0.2857094827455937,1.3515239545831566,-1.4701173713913789,1,right
12.341,-0.5725343652291747,0.8702717970728386,-0.20833270384310593,-3.007308019128317,0.23766674482996497,-0.4422089509182998,0.10078700750508683,1.577478789551315,-1.5921964722389919,1,right
12.341,-0.5295625786335589,0.8898552407991009,-0.17283528391975359,-2.3921510977516665,0.7509113026872196,-0.13490341706831788,0.05673013959012941,1.6312960351780603,-1.6212818044717332,1,right
12.345,-0.46678748541320964,0.9397462276287023,-0.08017680848594907,-3.412534770338339,-0.10016405551466215,-0.6444818010190825,0.09013226265425614,1.5904820539081856,-1.5992263039046155,1,right
12.345,-0.43833843932457006,0.9766151440083083,-0.016802781651520507,-2.0664463897673597,1.022471026108208,0.027703366225799303,0.06998057999409883,1.6151293893143501,-1.6125602794790173,1,right
12.349,-0.4289674997937538,0.9885377692195494,0.004508452254744805,3.5823009878079373,5.733997896769783,2.8485678351344363,0.07819301369696563,1.6050428423748948,-1.6070682347950327,1,right
12.35,-0.39681841723992195,1.031731540725548,0.08763028148174333,4.928551527720803,6.8567344475381935,3.5208453898297565,0.07828437068797582,1.6050041236702601,-1.607113305127701,1,right
12.350999999999999,-0.34892460628974126,1.0925390538184951,0.19348765130284812,3.9079196734154755,6.005542011028531,3.011167612952337,0.07401173158615086,1.6101531595691003,-1.6098266220380275,1,right
12.354000000000001,-0.30663250484770566,1.1444068610573281,0.26824498471817604,4.523267499822387,6.51877065524352,3.318433131374647,0.07914912149585393,1.603906762407998,-1.6064818303584583,1,right
12.354000000000001,-0.26553044828366557,1.202235488674678,0.34374375396731505,4.273452641547688,6.31033359433245,3.193766334100554,0.07511664406003504,1.6088938494297023,-1.6092383993422061,1,right
12.359000000000002,-0.23481138285093003,1.2542440801351336,0.4050334700973507,4.268733840086762,6.306561473377525,3.191240811368144,0.07735241382868244,1.6059687481900884,-1.6074575725856743,1,right
12.359000000000002,-0.21770844606877787,1.29547274153374,0.44966390535000333,4.401667266009954,6.4172111536663765,3.257864265850736,0.07673118526490727,1.6070605582395243,-1.6083938535679567,1,right
12.364,-0.208435408300466,1.322277897262114,0.49604855045801,4.242790115623819,6.284915416474287,3.178286593301399,0.07631439114684577,1.6071617081219607,-1.6080226031957574,1,right
12.365,-0.20777878946089529,1.3240440650684389,0.5421083420097887,4.365964789328794,6.38755614708564,3.2398981397939632,0.07718156148400343,1.606427436126122,-1.607965773758559,1,right
12.37,-0.20950694111452006,1.3044661196814502,0.57469377370298,4.301254962847853,6.333411284458821,3.207794902237425,0.07624997154875468,1.607568442898587,-1.6085853801476562,1,right
12.370999999999999,-0.21297373148264848,1.267651873125133,0.5852454042339923,4.312031270607708,6.342961678381867,3.21250212702609,0.07710532925909083,1.6059203090526388,-1.607063277703301,1,right
12.374,-0.21395891306373296,1.2236895802647205,0.5828058533525053,4.336966975748467,6.362791824581066,3.2261146287822022,0.07630296568713504,1.6082789084312055,-1.6097812412598795,1,right
12.374,-0.2110172380458772,1.1796437806719653,0.5751905372806952,4.297556805630487,6.331107406597731,3.2050106945389585,0.07709415204847098,1.6052560151995663,-1.6059941594245277,1,right
12.378,-0.2122264536838977,1.1346268623970566,0.5623700524184436,4.3332406380170685,6.359925008483151,3.223964774058415,0.07639920412314091,1.6082972193943395,-1.6099334425937077,1,right
12.378,-0.21484616245953525,1.0934935433162818,0.5384626427546113,4.314251063258778,6.344078879360176,3.2144932145452207,0.07670117454129256,1.6066613785135644,-1.6077229029698605,1,right
12.383,-0.22099080999534848,1.0586133332296306,0.5009170729521081,4.3091240422952986,6.341552338976229,3.2098242466319915,0.07727109749636735,1.6048739018124447,-1.6056133085887438,1,right
12.384,-0.23562705045473542,1.0299433049033162,0.45200924482000526,4.339853616583815,6.36318390771901,3.2299870404523254,0.07534802387567782,1.6120008446919545,-1.6144696255979207,1,right
12.388,-0.2556826927796837,1.0107207182938986,0.3979328874012863,4.289458360069356,6.327116339147399,3.1976355248123602,0.0787794487975679,1.598947919590813,-1.5981342152393525,1,right
12.389000000000001,-0.2824408886948399,0.9998356740298011,0.33946213399631553,4.3440270702373525,6.366271318099386,3.232544328349677,0.07442194842500163,1.6156499054647364,-1.619077936874611,1,right
12.394,-0.3137839782815963,0.9995390071887923,0.269555152733608,4.311160077572853,6.342532034148521,3.211708442707283,0.07803928212136833,1.6017301760450402,-1.601606135659352,1,right
12.395,-0.3523508901105773,1.0129813989548735,0.19330186457176554,4.289456454681265,6.3275971689804145,3.1970505126525044,0.07797299212921453,1.6020709581844295,-1.6020592571637806,1,right
12.398,-0.39880618805554247,1.0319175082175491,0.12993187946910076,4.395288294750225,6.402006950062105,3.2666024385643677,0.07099133805860178,1.6287095780112604,-1.6354274376377858,1,right
12.399000000000001,-0.44368173725850535,1.0481189951235135,0.09281322309535744,4.197067843649839,6.262382697622179,3.1366477390284837,0.08810569922495018,1.5632854090220956,-1.5534404030441236,1,right
12.404000000000002,-0.48754458495784053,1.058768474108635,0.06797045337695015,4.452026784782072,6.442029826909117,3.303726982455162,0.05974649851233153,1.6717451475328344,-1.689369172514919,1,right
12.405,-0.5146197918626072,1.0649552456999003,0.051689851187195136,4.239003987602731,6.2919085234961685,3.164164100974644,0.0971459761505836,1.5286897511205104,-1.5100817453801787,1,right
12.409,-0.520258948336561,1.0659665402068497,0.04794782312492876,4.2454356939740645,6.296528997892926,3.1682552630069907,0.25415401411216587,0.9282139590923842,-0.7575198734686356,1,right
12.41,-0.5339383954823933,1.0632425871492472,0.043638615108573205,4.6494266197010905,6.580940446564806,3.433319262476062,0.29155273420908834,0.7851461707466054,-0.5782271398153098,1,right
12.411,-0.5507164649199254,1.0585760969640323,0.04155387514617531,3.6556973911612376,5.881246762829782,2.781479621832877,0.2631978713214643,0.8936214265300275,-0.7141621236273141,1,right
12.412,-0.5541077546364876,1.041903033907171,0.033386777279269954,5.303524225710511,7.041522702207079,3.86231683304651,0.28030008260026734,0.8281948830689143,-0.632175597147506,1,right
12.414000000000001,-0.5534080312316846,1.0255452063558628,0.020227881887137714,3.130064920279303,5.511134491227496,2.43674180893229,0.2733414006312569,0.8548044373019801,-0.6655281872777783,1,right
12.419,-0.5522758921492266,1.0217012416351552,0.017078724072222797,-5.99221309009821,-0.911972364928828,-3.546891384778244,0.27324284626232276,0.8552180513788101,-0.6660171611344394,1,right
12.419,-0.5459665050297497,1.0075757132777965,0.00842865810115356,-8.16550950487147,-2.442233008327955,-4.972293165621962,0.2768926996731208,0.8411856536575488,-0.6484921069164806,1,right
12.42,-0.5279595122719847,0.9855901715701519,-0.0029643018698975103,-6.517895247685941,-1.2821214054832386,-3.8917057609114134,0.27251997999235644,0.8580101305694825,-0.6694911665498944,1,right
12.422,-0.49313999079217685,0.9741443231161749,-0.016893206060386953,-7.511562786514235,-1.9817743679802335,-4.543395779158745,0.275926099844977,0.844885228408764,-0.6531275893993368,1,right
12.423,-0.4444470265600243,0.9686393338329392,-0.041867083360923096,-7.107252630326812,-1.6970972649765002,-4.278165458528244,0.2740895354769043,0.8519510606945352,-0.6619462738998872,1,right
12.427,-0.3874525716190104,0.9668831201474464,-0.05699136094611752,-7.101685070041864,-1.6931767621638285,-4.274736414878191,0.27450713388758335,0.8504362434068644,-0.6599749052635326,1,right
12.427999999999999,-0.3221084174300789,0.9712894082691323,-0.059168000842110026,-7.313326918844826,-1.8421916602699657,-4.413106352956069,0.274999835965307,0.8482875884274266,-0.6575165563829608,1,right
12.432,-0.25091627403448036,0.9786338407719885,-0.06046603630812834,-7.0599204178817345,-1.6637746786958911,-4.247519327950861,0.27414699567517997,0.8520037734228356,-0.6617701802351137,1,right
12.432,-0.1814131174591223,0.9847649075769105,-0.06610394840371842,-7.257141754716806,-1.8026296997058397,-4.376265065117023,0.27495023086639986,0.8483746759557411,-0.6577172695481963,1,right
12.436,-0.11758508419598838,0.9901886774290592,-0.07829005415099102,-7.150735557108332,-1.7277130375011402,-4.306733935163939,0.2744100632901202,0.8508844188162358,-0.6604678240969141,1,right
12.437000000000001,-0.06179090082121645,0.9971282961556391,-0.09233536842563658,-7.175594564029671,-1.7452259138305646,-4.32356494738086,0.27464171004145144,0.8500024392800501,-0.659358984423135,1,right
12.442,-0.016268305551112368,1.0044722445078755,-0.1063841220309435,-7.202283838518833,-1.7639866651784355,-4.339385027050225,0.2746603425255246,0.8491079502502998,-0.6589704334158724,1,right
12.443,0.01948270470154134,1.0115128187105307,-0.11211782572571409,-7.156083300484822,-1.7315112027124873,-4.311981808194446,0.2744902566386677,0.8516395725894939,-0.6604692574173812,1,right
12.449000000000002,0.04721278432468914,1.016213611752884,-0.10480607248126206,-7.198632361085234,-1.76140286171194,-4.336333464015542,0.2747144260471437,0.8479760973341888,-0.6583752516559249,1,right
12.45,0.06533231730560984,1.0156623155921118,-0.09644256922357075,-7.170536390884513,-1.741674079175203,-4.3207392872545265,0.2745147063856177,0.8517311882012324,-0.6604191528612082,1,right
12.452,0.07642955807663887,1.0123302666074014,-0.09008723994144754,-7.184022943525548,-1.7511709206327413,-4.329611570300092,0.2746305642853597,0.8495598823031837,-0.6592362537088766,1,right
12.453,0.08362923793075552,1.0074422204949194,-0.08354360393692255,-7.179002416203989,-1.7475349455286202,-4.321057621639467,0.2746432056297649,0.8480214105216995,-0.658633921235847,1,right
12.456,0.08531324031392007,1.0013012168875521,-0.0789031327035625,-7.183072787330431,-1.750631128826136,-4.33574815114844,0.2744748610307304,0.8551859073155892,-0.6618100856570961,1,right
12.456,0.08536492366410929,0.9974293260433452,-0.07256657468077546,-7.1752785800032495,-1.744800218815204,-4.3127044664002385,0.2747927661388265,0.8418778116239618,-0.6558932046462147,1,right
12.463,0.08305307786566792,0.9939048104634647,-0.062231359226756156,-7.185871223424952,-1.7526235121264169,-4.338766060065942,0.27439169120640117,0.8589384327252175,-0.6634558942786677,1,right
12.464,0.07901357858495703,0.9911490421607607,-0.05162785356385864,-7.1797734077647615,-1.748120347212167,-4.323724783674681,0.2747233730960587,0.844707932310954,-0.6571583061442018,1,right
12.467,0.0709081501730579,0.9938383132399042,-0.043921806277702986,-7.169460300167838,-1.7406742243001856,-4.307435131578628,0.2747049185424696,0.8451282480258924,-0.6573718983587447,1,right
12.467,0.053007946329824036,0.9998335907594376,-0.037666153740430065,-7.20805382358867,-1.7686479361635712,-4.374420880643775,0.27411230614391724,0.8721132022307669,-0.6691946432867354,1,right
12.470999999999998,0.03257931814284502,1.008115947017942,-0.03185665516541927,-7.136802774083844,-1.716999857362727,-4.250411953926006,0.27557645279220033,0.8057607399726362,-0.640104098341018,1,right
12.472000000000001,0.004205327178385943,1.0166284937106744,-0.026053297866883443,-7.228717443171347,-1.7836141525420912,-4.409917851042452,0.2731490073651013,0.915773780345247,-0.6883331834210641,1,right
12.475999999999999,-0.017769071157515547,1.0188427543308758,-0.02188336149582742,-7.151783778006238,-1.7278666292337461,-4.276633447038238,0.2763490826328472,0.7706753859127662,-0.6247310141916553,1,right
12.475999999999999,-0.02330000985883106,1.0195369511682904,-0.02271410862341699,-7.153351237896594,-1.7290002752680713,-4.2798809891201195,0.28975154827473093,0.16172136845893625,-0.3578641373096962,1,right
12.477,-0.045333226835525285,1.0243571917621614,-0.026722642900283068,-7.302276797910007,-1.8368998696264147,-4.53554374093403,0.29294921621735354,0.01663485641480999,-0.2942793684341085,1,right
12.481,-0.07764062744043752,1.0282895352183987,-0.0343967111136719,-6.93660481705348,-1.5719801581589175,-3.9074410626149274,0.2905260727367978,0.12662854696119955,-0.34248148856550475,1,right
12.482000000000001,-0.10636664888851212,1.0329715993899442,-0.037949771524989934,-7.542968285901548,-2.011256717193511,-4.948876009439418,0.2919851978364397,0.0602941965556162,-0.31341261164646583,1,right
12.485999999999999,-0.12730011425455043,1.0385142596031987,-0.03265854556679392,-6.743029273391892,-1.431760968042067,-3.5751531419692864,0.2913963404253886,0.08727437578427534,-0.32523837246436105,1,right
12.487,-0.13188271268753815,1.0389316551933385,-0.029361640913104045,-3.384326825778703,1.0017205057057186,2.1923146947759555,0.2913780869959316,0.08767328596883628,-0.3254057709775142,1,right
12.488,-0.14341932101930427,1.0387659963505738,-0.020200889698713333,-2.5841947237725194,1.5813658896378116,3.5661877032658524,0.2917028508696494,0.07349884054410372,-0.31920620426993956,1,right
12.49,-0.15544924895726034,1.0382385736054527,-0.0007159637652983377,-3.1908245225788123,1.1418397865826073,2.5244715343064046,0.2913169463349068,0.09047195908653051,-0.32663157537981374,1,right
12.491,-0.15191445100676018,1.0323288724778767,0.01722625460685104,-2.8250286151650146,1.4070083788390568,3.1529331498199076,0.29161292639720504,0.0772604575042439,-0.3208476882468689,1,right
12.495,-0.14329890734802003,1.0258150304299618,0.0333734734880152,-2.973680489164389,1.2990057749406168,2.896941883750684,0.29146699404689935,0.08436450972597952,-0.32397183911701766,1,right
12.497,-0.12692936862946075,1.0183758943789774,0.043575219927280445,-2.976116936197739,1.2976661831303034,2.89382173368907,0.29146840359423337,0.08278750865372465,-0.3232447342575852,1,right
12.5,-0.1052820387962147,1.0086578056461002,0.04405119750798958,-2.8977130418762407,1.3540513282312758,3.027387404023245,0.2915690102077263,0.08081497936766105,-0.3224427492883101,1,right
12.501,-0.08373332331822361,1.0021881430691555,0.03770030065844536,-2.991371923081904,1.286374465156378,2.8670219273637834,0.291424746586195,0.08418556533436553,-0.32384301111222097,1,right
12.505,-0.06035317707241212,0.9988248248825291,0.026565879104545713,-2.918847960645702,1.3392751498822397,2.992477883206459,0.29154983638701243,0.0810385483106843,-0.3225252335738537,1,right
12.505999999999998,-0.037117090089668583,0.9994379509665727,0.019298518081967895,-2.9571427430998596,1.3103839503338213,2.923750527885635,0.2915051442834611,0.08309166183694254,-0.3234254809010397,1,right
12.511,-0.015309033854479782,1.0027880427736007,0.014593666322775537,-2.9498544805105187,1.3176375781337388,2.9413844638536712,0.2914180081109744,0.08234684937934741,-0.3229852449735673,1,right
12.511,0.006492507651076822,1.0033622341123771,0.00768286046314911,-2.9373741795113957,1.3242593254982333,2.956531084031515,0.2916622308159782,0.0819994583494894,-0.32309324651026095,1,right
12.515999999999998,0.025891853636188823,1.001702596263484,0.0037944935960503067,-2.957042176992231,1.3119387202215487,2.927768799851909,0.29128710025355276,0.0830085039646951,-0.32314716302702196,1,right
12.517000000000001,0.03745927418805911,0.9972631403437855,0.004211213667047348,-2.940157766246399,1.3241888554846377,2.9568066688362706,0.2916890136970414,0.08184147943028805,-0.32304966475975183,1,right
12.520999999999999,0.04462069152993877,0.9914763727692438,0.010817879718362525,-2.948414924443919,1.3146274887450105,2.933327784638649,0.2914535844766193,0.08266012924424015,-0.3231692708296261,1,right
12.520999999999999,0.04870646741204019,0.9873389177402199,0.018516945712299955,-2.950476994333669,1.3213121886058117,2.9510411522330235,0.2912664750352313,0.08265072025433683,-0.3229589152509719,1,right
12.525,0.04404863927630577,0.984152002596335,0.01981194145331369,-2.940028437208608,1.316681386888765,2.9372745684667336,0.2921113129721016,0.08152142908022811,-0.3233664432808805,1,right
12.526,0.03288788987596207,0.9816629079564753,0.01780844883278448,-2.9538646150320687,1.3196630814937684,2.947317891876951,0.2905398242671119,0.08382692317060189,-0.3227033013140676,1,right
12.53,0.01742896281108431,0.9799320991663466,0.013671242811886525,-2.9440615235186582,1.3192509098041463,2.9446205125295304,0.2925588154919815,0.08081920956362715,-0.3235339917027803,1,right
12.530999999999999,-0.0009369118444789489,0.9797192011752258,0.00995297954896212,-2.94123317664938,1.314821330201446,2.93264029638796,0.2908727189504866,0.08334932495173254,-0.32284897601767043,1,right
12.536,-0.017253787062846013,0.9769482614193059,0.008939964807295834,-2.9639836919599,1.3266902997253274,2.9672589367249986,0.29092025408332567,0.08320735167386387,-0.32283506705585663,1,right
12.537,-0.031234347106041803,0.9718030927011713,0.007721479454273957,-2.919342274870311,1.306455400321342,2.9072665348722158,0.29412932433001665,0.07862417958457253,-0.32424755660826654,1,right
12.54,-0.04444629655792606,0.9693525947128815,-0.0009123581536630136,-2.9775466117456384,1.331797691670841,2.9827836503788685,0.28623933550995095,0.08997550802041115,-0.3208142216368548,1,right
12.540999999999999,-0.05643801373994707,0.965812390858878,-0.010157445861297902,-2.928582820600503,1.3109113489739395,2.9203776266608514,0.29932225825795533,0.0711323797698098,-0.3264967506205357,1,right
12.544,-0.061792304944398226,0.9623360459703783,-0.01442760542745998,-2.9304800818178727,1.3110595310070834,2.921082709263734,0.2820653772314953,0.09598786768089536,-0.3190026400008579,1,right
12.545,-0.06319403537927493,0.9611700547323095,-0.021236534843272856,-3.0223219877419956,1.3519949326385703,3.04269675053466,0.20963495282061861,0.20021512783971818,-0.28749835140811564,1,right
12.545,-0.0684176996992193,0.957730627837957,-0.011540616749564928,-2.795760422741804,1.2519842805703711,2.7452053708471804,0.19237685823098813,0.2250609680028826,-0.28000116980510814,1,right
12.549000000000001,-0.07123591984479027,0.9526634822037437,-0.003663693144497482,-3.171718878805665,1.4175784029705298,3.2379262063064194,0.20546177766038085,0.206228388645794,-0.2856865135644493,1,right
12.55,-0.07152544738615588,0.9482725724766654,-0.021694373585474755,-2.675722544640342,1.1992437822363107,2.588219861751973,0.1975698665863776,0.21758329510241953,-0.2822562410174607,1,right
12.554,-0.07082326269368035,0.9477235526122065,-0.033859597085565456,-0.5941766018281978,0.2824548743919466,-0.13961924260981595,0.20077957390623735,0.21296630650626164,-0.28365400093655957,1,right
12.555,-0.06913978264862325,0.9531834093892766,-0.04567901167882066,-0.09816807972491536,0.06413538579504158,-0.7893019454656015,0.20082907357116808,0.2128976335237327,-0.2836693072514155,1,right
12.556,-0.07658181097554931,0.9602844250646554,-0.0638567694777174,-0.4742063108315731,0.22966489306884375,-0.29672100377929334,0.1991374899415492,0.21532221896837167,-0.28294438627904717,1,right
12.56,-0.08788857176527043,0.9638844403835785,-0.08237000510606615,-0.2474139028932391,0.12981889271412791,-0.5938172051159042,0.20116528085680851,0.21242013104092447,-0.283812336304764,1,right
12.561,-0.09214960482487342,0.9627052676444485,-0.10126278636598851,-0.33969831236912507,0.17045631913135034,-0.47295307127574276,0.19958380063628922,0.21467904701445706,-0.28313771875258026,1,right
12.565,-0.08818247153613429,0.9603439901664811,-0.10114856771551525,-0.34096831187992394,0.1710102865669892,-0.47119213430650486,0.20043535671254667,0.21346136415066025,-0.2835026485997172,1,right
12.565,-0.07817496428814985,0.9590693621589035,-0.09587345658344898,-0.29264381604692274,0.14973055028899673,-0.5346655656738224,0.20025116200892085,0.21374066335348046,-0.28341127386669623,1,right
12.57,-0.07087305197199036,0.9552639926811861,-0.10080603225190413,-0.3505364002300531,0.17522922534642846,-0.4586432207379191,0.1999967724114734,0.214059601198684,-0.2833362240914859,1,right
12.571,-0.06951252749062065,0.9491425243615758,-0.10928160293964262,-0.3054262616646328,0.1553638924429197,-0.5178180198499516,0.2004367530055413,0.2135082433179341,-0.2834666255075998,1,right
12.574000000000002,-0.07111987382304935,0.9428080996510165,-0.11723222682512749,-0.3298344826926295,0.16609152309102482,-0.48601949183471793,0.20000917350474917,0.21402287337932147,-0.2833552651116862,1,right
12.575,-0.07166979828903171,0.9332180518357762,-0.11947255664456995,-0.32405753794219694,0.16360600073170758,-0.4930206345717413,0.200303791677029,0.2136793072273154,-0.2834240130995207,1,right
12.578,-0.06689940554161632,0.9243222135752874,-0.12208835556589127,-0.3179773909498844,0.16082772300234385,-0.5019664998019431,0.2001973254064307,0.21383312064181115,-0.2833771430064081,1,right
12.579,-0.06036645139746481,0.91911913424305,-0.1255688612850434,-0.3286864603151953,0.1656685874182455,-0.48673004442383294,0.2001045137380286,0.21381763937825948,-0.28344697492690407,1,right
12.584000000000001,-0.056650436411715424,0.912050718792854,-0.12745427658912967,-0.3185766178438311,0.16111639728475613,-0.500938358962324,0.20037542195520663,0.2137686102167357,-0.28331305204633417,1,right
12.585,-0.05613561637184257,0.9077334919145601,-0.12961644806574657,-0.32560193466524356,0.16420812949469382,-0.4917443429481905,0.1999849286832978,0.21382197551033785,-0.2835187296605878,1,right
12.588,-0.05938226320932569,0.911472765133732,-0.12979851482291682,-0.3218496507491195,0.16274628632028165,-0.49486550028855214,0.20038309182112596,0.21379124408001454,-0.28329162251130635,1,right
12.588,-0.06659467490243712,0.9177058708754069,-0.13126235595775104,-0.32341763614575464,0.16300183900247556,-0.4969128839609735,0.20015281271861735,0.21380921150310908,-0.28342273647850247,1,right
12.594000000000001,-0.07633012173589862,0.9232348276079774,-0.12877566793465844,-0.322756406706897,0.16335973302688103,-0.4916593855858117,0.19999458715935636,0.21376703428931565,-0.2835532966654144,1,right
12.595,-0.08635309073315375,0.9278069554875925,-0.11862738829663451,-0.3231489982159361,0.16284041456307013,-0.49766961405755655,0.2007392703673243,0.21387712915944365,-0.28300465954572984,1,right
12.597999999999999,-0.09734140445819316,0.9326729082383178,-0.11473000700156304,-0.3234156309087845,0.16335789806128312,-0.49354999751043993,0.19935558512743667,0.2136765210787279,-0.2840209344677523,1,right
12.597999999999999,-0.11009581407697847,0.940004531984791,-0.11869874424459859,-0.3212005910394088,0.16272741546645747,-0.4932022265833426,0.2011290486402828,0.2139390606040787,-0.28271458520716974,1,right
12.603,-0.12143855267308429,0.9451011846263746,-0.12244024709903195,-0.3268929701719887,0.16372431637512158,-0.4999683037280384,0.19964987002337053,0.2137174789730531,-0.28380578696071845,1,right
12.604000000000001,-0.1273401226043285,0.9491717898024182,-0.12516700005571574,-0.3170584698062372,0.16219380257423066,-0.4864736585849817,0.19969442829169054,0.21371789212456954,-0.28377823757270126,1,right
12.607000000000001,-0.1261951351164221,0.9575735552179213,-0.12369787203634203,-0.3295246280874409,0.16408747570880003,-0.5040143595106786,0.20249616541385035,0.21416514265945624,-0.28168933523309625,1,right
12.607999999999999,-0.1228184156559303,0.9660316018873139,-0.11763173174637664,-0.3191825729923875,0.16253571990172808,-0.4892837588503358,0.19560607239364544,0.21306949027706418,-0.28682192489214003,1,right
12.615,-0.12105204699955088,0.9768887305038447,-0.11217258551476203,-0.31921139780408975,0.16246630339541146,-0.4900138957944853,0.20703022442218377,0.21488723693020761,-0.2783119118170164,1,right
12.617,-0.12058476822532779,0.9855989841723723,-0.11017315593186022,-0.339756065717273,0.1657901149597964,-0.5170165186090706,0.19196258530168508,0.21248764496637387,-0.2895368835516706,1,right
12.617,-0.12144508695119886,0.9880323358656589,-0.1094335022534873,-0.2895549727370575,0.15775246531325987,-0.4502552035209259,0.12873693574823694,0.20241297424919935,-0.33666290764465584,1,right
12.618,-0.12011999284112415,0.9986722801233064,-0.10532599612139815,-0.37271548288041,0.17104445873071641,-0.5610518748985259,0.11367130770254508,0.2000114896953409,-0.34788876281523184,1,right
12.618,-0.1184370584820763,1.0084364296759656,-0.10171108114753824,-0.263031729736946,0.15351652640126595,-0.41489947712211017,0.12509117659856533,0.2018308531424402,-0.3393768454105533,1,right
12.623,-0.11655509738270896,1.008379277129357,-0.10228591829274004,0.1977207977811585,0.07978637396007755,0.19810812450083126,0.11820772007439602,0.2007375056900168,-0.3445124311855445,1,right
12.624,-0.1094808700404094,1.0131643447402026,-0.10148376705671053,0.30744020079879264,0.06225001037435774,0.3442353693513339,0.1210012868732904,0.20117481763428477,-0.3424197731651095,1,right
12.626,-0.10261435725014305,1.0194423855131896,-0.09895063180371447,0.22423874884724126,0.07554717428951291,0.23345419838960918,0.12105314457689711,0.20119451307309438,-0.3423956774406902,1,right
12.628,-0.09784328307162675,1.0198479561889733,-0.09504330965016433,0.2744335701749383,0.06752699057875536,0.300267352822349,0.11957173046762065,0.20094696716179547,-0.3434856319373423,1,right
12.629000000000001,-0.09515699876734961,1.0194124135878335,-0.08672453376328382,0.25399953197815894,0.07079168834814487,0.27308892592881984,0.12133713930780284,0.20123326027263366,-0.34217589721283037,1,right
12.633,-0.09734455201541115,1.020243862359889,-0.07852514882693343,0.25372110691646627,0.07083018523801975,0.2726799108115123,0.11997602087026171,0.2010263046127257,-0.3432022261053741,1,right
12.633,-0.10134065751749478,1.020607314332751,-0.07104047495629431,0.2644302987867203,0.06913913794657325,0.28699583929438083,0.1206836289383888,0.201107012818218,-0.3426366950110694,1,right
12.638,-0.1097552892480578,1.0215207499626466,-0.06076538192898844,0.25158698057094675,0.07115223579411076,0.2698109131657197,0.12056915221983579,0.2011440301578039,-0.34278761085237774,1,right
12.639000000000001,-0.12301551117206527,1.025362811864104,-0.052634060678519765,0.26160570212671425,0.06960599854441962,0.28325818598740593,0.12030645446760066,0.20103432803758564,-0.3429029890412607,1,right
12.642999999999999,-0.1340138373584266,1.027877449969684,-0.04470488708305144,0.2561876878746705,0.07041783673492599,0.27594201742940133,0.12069878041350636,0.20115093911631354,-0.3426746581176025,1,right
12.642999999999999,-0.14106589376797374,1.0289148667498598,-0.032492696275890964,0.2574337620539884,0.07024155666290527,0.27764105340831696,0.12038109612810997,0.20110080825173554,-0.34291198918732774,1,right
12.648,-0.1445498164534486,1.0315801745313085,-0.02365275560569204,0.25888503205265423,0.070056988704422,0.27967117849661316,0.12049575521119539,0.20101865316128156,-0.34270772567426666,1,right
12.649000000000001,-0.14423169425520788,1.0318617578148745,-0.017810591884399308,0.2563328346694079,0.07031374747667465,0.2759717901939806,0.12062777467786544,0.20126918776260994,-0.34288083605919095,1,right
12.651,-0.14109409431207035,1.0306965303666171,-0.00897470954963339,0.2587924178419749,0.07018060419894905,0.27976147583579325,0.12029204879679188,0.20087332438123923,-0.3427260220344337,1,right
12.652000000000001,-0.13487169805591748,1.0285198371543895,-0.002501047662834388,0.2570641660262276,0.07013795340306161,0.276830072120893,0.1207007336267031,0.20130340513439737,-0.34285320378237105,1,right
12.655999999999999,-0.12507216609019395,1.0243339137083902,-0.0016730817799572072,0.2578834783119498,0.07026118938988524,0.27842279795285874,0.12043050952428742,0.20104950273236638,-0.34280510277195386,1,right
12.657,-0.11427211712990276,1.0231559319838903,-0.0030938639893365425,0.257880984862339,0.07026384826698409,0.27842502949058734,0.1203035564928162,0.20084742065306743,-0.3426847201639548,1,right
12.662,-0.10489177460005586,1.0252388349739805,-0.005098006182638179,0.25725701866305073,0.06989187810327499,0.2766601476950539,0.12105472211338908,0.20176278089518718,-0.3430659690750653,1,right
12.663,-0.09415040206200158,1.029527989819886,-0.006856852255789848,0.25830588988655057,0.07080229249725667,0.2801901017548579,0.11961542993669856,0.20005795357252792,-0.3423933480694454,1,right
12.667,-0.08208722585032874,1.0340029726892788,-0.00823517601386629,0.2570519896769585,0.06939429666989896,0.27533825604565787,0.12148028950140231,0.20224961369265304,-0.3432446147338201,1,right
12.667,-0.07259044321586874,1.0337206130545884,-0.009728633265937113,0.2582069728578549,0.07092450114586432,0.2802684697458945,0.11991621794750176,0.20041889528458356,-0.3425391955427629,1,right
12.671,-0.06284579744260652,1.0302332896793418,-0.012457222528922087,0.25759757607169537,0.07003071643419129,0.2774968352777569,0.1199697837901987,0.20046991435311357,-0.3425501634870114,1,right
12.672,-0.05316923986865067,1.0290087048424912,-0.016486993530387323,0.25709695807987865,0.06925746210031611,0.27514086127770115,0.12292235975195825,0.20395676636930032,-0.3439168562221361,1,right
12.677,-0.047675376809155026,1.0275738858682673,-0.02108254755267676,0.25921902010477327,0.0726550445440382,0.28536087155745427,0.11564885134169013,0.19538451417897074,-0.34056947078120964,1,right
12.677999999999999,-0.04324902342889826,1.0221270274235792,-0.030764784705931292,0.2553500791605658,0.06634254361043865,0.26649574178126434,0.1277150900478874,0.2095983049624067,-0.3461151125081491,1,right
12.681,-0.04039931176854265,1.0194356746786655,-0.040843743193477666,0.2602720640082814,0.07445648250113159,0.2906589400319828,0.11179724808976763,0.19085030211760173,-0.3388020916193095,1,right
12.682,-0.03913979634857599,1.0191170488720647,-0.044463260206863545,0.2561827334412775,0.06767786146420268,0.2705116964629865,0.0450027460286739,0.1121497207488974,-0.30809789342904054,1,right
12.682,-0.035800284346870735,1.0152509795372349,-0.05236616766179214,0.25629713805828624,0.06786431613310127,0.27106419619269173,0.02908498749129587,0.0934013937361699,-0.30078508520362646,1,right
12.687000000000001,-0.03207265658357794,1.0108826318058521,-0.06246611637598412,0.26404977978299415,0.08078838458753602,0.3094158290171749,0.041150848147460645,0.10761665343967151,-0.3063297625688223,1,right
12.687000000000001,-0.028786706619541965,1.0061963876014168,-0.06726270823367568,0.24500407877056046,0.049013873452148415,0.21516011357936946,0.03387832478492718,0.099040573978214,-0.3029848904355835,1,right
12.692,-0.028853172121500036,1.0016834406987623,-0.076450382851519,0.27657182906290345,0.10170470001554546,0.3714293565503343,0.03682909859330988,0.10253442788914616,-0.30434698455624587,1,right
12.693,-0.03157472414203424,1.000897760343469,-0.0847544827385831,0.23494215923842302,0.032198944336916904,0.16531820019893828,0.036885138041690316,0.10257583640280453,-0.30436426497126956,1,right
12.694,-0.032094635124991285,1.000456663305997,-0.08576530895350973,0.06025618146177957,-0.25949576433407806,-0.6997185185785192,0.03531864385987729,0.10075453032659543,-0.30365266278718833,1,right
12.697000000000001,-0.03442704266138917,0.9983537643463636,-0.09028506895079147,0.018633238436729337,-0.3290119588352296,-0.905826792233105,0.03718451185200736,0.10294227282671381,-0.3045065042670574,1,right
12.698,-0.04030480137262881,0.9972537848486718,-0.09586475512085227,0.050187482739830105,-0.276308842446485,-0.7495689635459855,0.035747391736568546,0.10122900598909865,-0.3038394241926117,1,right
12.7,-0.048959111003538114,0.9943583210411574,-0.09699484582535878,0.031161073489863637,-0.30808258486859424,-0.8437964827660397,0.03649168385455377,0.10217107200100325,-0.3042031344984957,1,right
12.700999999999999,-0.06261814571414326,0.9889688856712656,-0.09720355019109758,0.038892378686673855,-0.29518870926868745,-0.805495078719489,0.0363765369898644,0.10192311982141872,-0.30411287929877273,1,right
12.705,-0.08144783524917665,0.9867881299075354,-0.10071448644728492,0.039022308690344024,-0.2949324334616125,-0.8048749737278584,0.036091837945655875,0.10172545572102576,-0.30402783795089694,1,right
12.706,-0.10523760766151306,0.9891677797357229,-0.11072365122050319,0.03493504386706438,-0.30181505291539884,-0.8250867486203902,0.03651205538938204,0.10211073080200056,-0.30418445511379155,1,right
12.71,-0.13134699531446165,0.9918535453346571,-0.11846266353662789,0.03982458386582195,-0.29359269511502895,-0.8008997655351956,0.03617644628623447,0.10171441132032946,-0.3040299300442714,1,right
12.710999999999999,-0.15536875154900925,0.9923726071379207,-0.11982487109644237,0.03602607580701283,-0.29996099900052475,-0.8196999916224779,0.03628702877870921,0.10204823680499853,-0.30414834637012195,1,right
12.717,-0.17334672317377595,0.9947088072692735,-0.11918928829955568,0.03804595357987468,-0.2966357264565078,-0.8096736185849589,0.03645065909401743,0.1017758140142349,-0.30406904402536833,1,right
12.718,-0.18457989903934957,0.9981541621554666,-0.11376978040068417,0.03765079680269125,-0.2971402868069152,-0.8117037932147801,0.03605992757902536,0.10200948970988168,-0.3041199653162049,1,right
12.720999999999998,-0.19096223998521633,0.9978064906115711,-0.10528036652630626,0.036986652639901946,-0.29851734085406895,-0.8148676807798878,0.03653011527028267,0.10182359294366435,-0.30409034666146234,1,right
12.720999999999998,-0.19123677398658973,0.9951061325395525,-0.0993982718801654,0.0380740447520799,-0.29637249631145635,-0.8096355936345738,0.036222442173293644,0.10188862131138546,-0.30409091459610843,1,right
12.725999999999999,-0.18509901274250046,0.9913412648662843,-0.09965148766418822,0.03707527886745808,-0.298302686514618,-0.8144600567795377,0.03606915353340054,0.1020764472700988,-0.3041428416963857,1,right
12.727,-0.17435847621143916,0.989602669644396,-0.10570753716797496,0.03766332972737249,-0.2973228903959646,-0.8115466744208009,0.03694653376572187,0.10149753297838965,-0.3040104942488616,1,right
12.73,-0.16096506562203278,0.9926063567838258,-0.11070242643772246,0.03762792849199799,-0.29689559318045555,-0.8119478103372246,0.03527060599639123,0.10251369835288254,-0.3042334924945074,1,right
12.731,-0.14654904051552792,0.9981085904307279,-0.11263312099754572,0.037120984311186184,-0.29885391601983646,-0.8139425363660513,0.03744021229428999,0.10122959260146075,-0.3039552636614249,1,right
12.735999999999999,-0.13099103197390172,1.0038486649843608,-0.11415818149894501,0.03801801447771411,-0.29569732691637196,-0.8102695280514517,0.03562140097631712,0.10229288310729469,-0.30418407821555415,1,right
12.737,-0.11521386206028582,1.007452321869191,-0.11027104195518833,0.03703556759662276,-0.2991060809007594,-0.8143148325413676,0.03568228405314687,0.10227757825309913,-0.304183262667124,1,right
12.74,-0.10194229229209478,1.0105365946271472,-0.10544017151753365,0.03764462315967119,-0.2970673630884695,-0.8117724040246327,0.03911945212962203,0.1002142544709159,-0.3037326915109584,1,right
12.741,-0.0911269196285994,1.0142425511314719,-0.11048695873137997,0.0379645291099437,-0.2956524865663571,-0.8105966023849629,0.030654324406654873,0.10526616674922751,-0.3048322859027491,1,right
12.744000000000002,-0.0803078808626434,1.0184658133659996,-0.11525247223332419,0.03622875078509031,-0.3024053186534119,-0.8174051813766561,0.04469649690798305,0.09689721520056802,-0.30301218131581487,1,right
12.745,-0.07441101021435646,1.0226513926037952,-0.11479250130553732,0.03950834359954232,-0.28978096243539925,-0.8044785375403267,0.02617226571718985,0.10793315841102745,-0.30541161844912323,1,right
12.749,-0.0742436809529219,1.0237385521620603,-0.11170364206344245,0.03528361139357848,-0.3060139320930245,-0.8211443172656376,-0.051571929869697004,0.15426686684961038,-0.315488559866267,1,right
12.75,-0.07225227814640964,1.0267862950106799,-0.10270620674862896,0.038816111051613464,-0.2924526464053637,-0.8072035132123149,-0.07009765681329211,0.16530238174188783,-0.31788722329159813,1,right
12.751,-0.07361870532470952,1.029966832988404,-0.09444347315382778,0.038699420778259254,-0.2928550397111146,-0.8076859058369841,-0.05605200676376239,0.15693544201378248,-0.31606885174878385,1,right
12.754000000000001,-0.0776438895129195,1.0276464963081198,-0.08694585901580894,0.03203285087525009,-0.31859771111232027,-0.8339235993574314,-0.06452310447319146,0.16198204603904987,-0.31716559106556397,1,right
12.755,-0.08210840025827132,1.026956048327108,-0.0733055770613244,0.04844325660576164,-0.25528384776029894,-0.7693109677970278,-0.06107772787904485,0.15992849191160463,-0.31671878553616656,1,right
12.761,-0.0975715755189712,1.0247058136760985,-0.0554206427955252,0.021227715001112535,-0.3602715222157259,-0.8764726080835799,-0.06102543644814602,0.15989972005534492,-0.3167142384827155,1,right
12.762,-0.10926716122131733,1.0192768051776069,-0.04416400056667395,0.05712531061274277,-0.22179331606689,-0.7351273037834498,-0.06283919070961527,0.16097627198618225,-0.31694490397871133,1,right
12.762,-0.11131763746642409,1.0185415879820396,-0.041518662404362666,0.20777552782797237,0.35939604709205614,-0.1420635275351,-0.06066554961122174,0.15968651452806265,-0.31666920299154044,1,right
12.764000000000001,-0.1252287030938808,1.016959313218512,-0.034326543531910544,0.24367043308081995,0.4978640945770296,-0.0007529046853560137,-0.06236006229065618,0.1606910912212195,-0.3168829936020337,1,right
12.765,-0.14306344369364574,1.0119604371532287,-0.021531239550016186,0.21645778851597006,0.3928935901627527,-0.10785370635595165,-0.06144733377832459,0.16014935227820026,-0.31676717904045576,1,right
12.770999999999999,-0.15529040400831032,1.0077581164084657,-0.007912290696758365,0.23286935002312084,0.45618974741127105,-0.04330938805002623,-0.06164771732697449,0.16027303264506992,-0.3167980256216655,1,right
12.772,-0.17018281228307458,1.0042504722184502,0.004660708664145335,0.2261930243304926,0.43045573874591414,-0.06950129264430935,-0.061912149626607245,0.1604170174348555,-0.3168166499789732,1,right
12.774000000000001,-0.1818141745506094,1.0015189977293613,0.01490600401235417,0.22609725777163597,0.43006484949215806,-0.06996846619051256,-0.06145477491471564,0.16016774999451372,-0.31678426930163994,1,right
12.775,-0.18858263274239295,0.9984556689833314,0.02605302560595205,0.22959981078697628,0.44358550860109036,-0.05614054172814217,-0.061895428789557304,0.1604018511801994,-0.31680841402199994,1,right
12.779000000000002,-0.19645193067138947,0.9955828270513661,0.0365604158229323,0.22540483209166118,0.4274231362780202,-0.07258018203207202,-0.06159379829147238,0.1602447754165791,-0.3167955850411166,1,right
12.780999999999999,-0.2027945569159732,0.9916144651465492,0.04283051041223929,0.22867171140528186,0.4399610618643768,-0.05996230371543356,-0.06170819402270749,0.1603131641003549,-0.3168106425282683,1,right
12.784,-0.20793374014460803,0.984316566606249,0.04330979743430223,0.22691009632351147,0.4332765678378605,-0.06647845878341958,-0.061780722878985964,0.1603143335591021,-0.316771341437836,1,right
12.785,-0.21261668689831026,0.9762333143377745,0.04148182269476345,0.227312735654864,0.4346931849906762,-0.06540742115118911,-0.0615518856012323,0.16027401297167454,-0.316852972070103,1,right
12.788,-0.21611444437922364,0.9674516429009826,0.04291450305519248,0.22777951864303525,0.43660291868594,-0.06315986336025242,-0.06187858573685908,0.16032545565708553,-0.3167292970961636,1,right
12.789000000000001,-0.21998231747564556,0.9579007064021803,0.043706395207011445,0.22697137786605714,0.4334863059219992,-0.06633824408607986,-0.061549787971491236,0.16028218051851562,-0.3168636578032608,1,right
12.794,-0.22271960862319348,0.9505377573091556,0.04064273455025104,0.22772988827062857,0.4362099222947229,-0.06411129627543426,-0.06173995565874371,0.16030734957728743,-0.3167860470224142,1,right
12.795,-0.2241228033108102,0.9462066236033565,0.03713600781958644,0.22722068361382064,0.4347085254646286,-0.06438021547316466,-0.061860795032274,0.16030321552615934,-0.3167135707657419,1,right
12.798,-0.2236651450581097,0.9432943203923182,0.0353805296318056,0.22744469332708894,0.43488176264315437,-0.06608830686891459,-0.06127621204714168,0.16028776817946103,-0.3170235569684654,1,right
12.799000000000001,-0.22053874848266158,0.9427320982971332,0.036967199655527416,0.22744176281356973,0.4356073469347622,-0.06333816568030881,-0.06236305301247682,0.16031817852159982,-0.3164490312009789,1,right
12.802999999999999,-0.2139320653689873,0.9433265128991688,0.0390695975544122,0.2273231597820462,0.4347234681635821,-0.06540202249005228,-0.060971125183394335,0.16028115662879633,-0.3171872280911353,1,right
12.804,-0.20408237245505934,0.9417519209748046,0.03606730524729443,0.22747408753705772,0.43493992860665887,-0.06618050589747561,-0.06213147433417761,0.16031124681690728,-0.31657071121338803,1,right
12.807,-0.1912137226012199,0.9437697201262176,0.02474569447910807,0.2273479515422887,0.4360578421210425,-0.06066142522105353,-0.06209569202626079,0.1603073727424413,-0.3165868629056319,1,right
12.808,-0.17264371458377242,0.9496882759045373,0.009797477961767312,0.22742622114373034,0.4333826370580138,-0.07151279321798298,-0.05990211018612163,0.1602623829255156,-0.3177648175254769,1,right
12.812999999999999,-0.1512191382843882,0.9549192831053719,0.0018471210586428564,0.22739453006871935,0.43708475561159466,-0.0573048219919209,-0.06529677469539788,0.16037573105142622,-0.31486988828459406,1,right
12.814,-0.12576711008152572,0.9612083300203645,-0.0025743875989149914,0.22739205326922624,0.4338801121717921,-0.06928524255825458,-0.056352750709777646,0.1601874427849867,-0.3196699362048826,1,right
12.818,-0.1062328826247699,0.9646841376981821,-0.00722909395128494,0.22741617772251482,0.4340650144100606,-0.06885466871725818,-0.06814853387418666,0.16043569514614836,-0.3133384743981209,1,right
12.819,-0.10055961000973405,0.9660161954773377,-0.010264972915365716,0.22737718415647074,0.4399941456046478,-0.04621033104173873,-0.11765203023522124,0.16146427950256048,-0.2867616275153113,1,right
12.82,-0.0860255260087926,0.9714748342551319,-0.01844707555205191,0.22743026073282785,0.42524524290171256,-0.10205916207620802,-0.1294458126146683,0.16171250102661136,-0.28042981386514454,1,right
12.822000000000001,-0.06512933148928311,0.9813815459312661,-0.028686985025051508,0.22736180541713286,0.44978324408017833,-0.009364492993749425,-0.12050479459109474,0.16152474688703913,-0.28523035151673193,1,right
12.823,-0.056657612960953355,0.9891454287596182,-0.03256393815720775,0.22744378527828543,0.41737738338195457,-0.13167894193154595,-0.12589730270890664,0.1616363339893091,-0.28233518076532804,1,right
12.828,-0.05520815660907119,0.9907637778908158,-0.033861855086086495,0.22775630805025027,0.2813273114318924,-0.6450113037201588,-0.12370268321995524,0.1615948901699258,-0.28351266903775124,1,right
12.829,-0.056604335656564767,0.9969041958542372,-0.040875343203068654,0.22783645443039474,0.24890045105665937,-0.7673631274438544,-0.12367323744617373,0.16158582934888097,-0.28353035616933775,1,right
12.829,-0.06122064792406341,1.0066761122590848,-0.05358311035558509,0.2277768231273294,0.2734875667235792,-0.6746010845164385,-0.12482121555376954,0.16162140038903,-0.2829112118166188,1,right
12.833,-0.06917266312776699,1.0122956409717823,-0.06412168016060334,0.22780642558521122,0.2586538161058286,-0.7305299469792934,-0.12344571112076641,0.16158136393427786,-0.2836525572244407,1,right
12.834000000000001,-0.07857383955615452,1.0190077191970575,-0.06302474365716379,0.22781080161310582,0.2647003195895541,-0.7078230433448647,-0.12451784351214118,0.1616085377741221,-0.2830756847826674,1,right
12.837,-0.08668587454801989,1.0250587836388207,-0.05020449158276763,0.22777497984860895,0.2647614388711852,-0.7073956830241718,-0.12393672171909532,0.1616061344204906,-0.28338524435035617,1,right
12.838,-0.09288214081615004,1.029120354648268,-0.04020097813612908,0.22783173903262338,0.2616311928566366,-0.719476697183626,-0.12407662630188153,0.16157796786342277,-0.2833180594602056,1,right
12.843,-0.09431549106065268,1.032640281110718,-0.03229132803701873,0.2277744288014691,0.2653879799742751,-0.7050371562712268,-0.12421679358526254,0.1616343369427321,-0.2832291080592503,1,right
12.843,-0.09460855362969195,1.0349029956701967,-0.025015445655991154,0.22780179356071373,0.26245010953332315,-0.7162324335673806,-0.12396756710785607,0.16156361034823497,-0.28337974708672026,1,right
12.849,-0.10105615982575561,1.0392601495136926,-0.03098065515201082,0.22784041929383803,0.26407194506084686,-0.7103500145623034,-0.12420363621000473,0.16162075155660965,-0.2832395689255003,1,right
12.85,-0.11249273200071047,1.04370438186709,-0.039029521925454336,0.22770622588598471,0.2636128968486537,-0.7113316662286284,-0.12403657560960209,0.16161773621442013,-0.283329165994358,1,right
12.852,-0.12343820719364633,1.0458433689362407,-0.03959820175609699,0.22793943045181686,0.2633547924858322,-0.7135946726116715,-0.12413374532435932,0.1615228821561948,-0.2833018809279761,1,right
12.853,-0.13055590909685807,1.0449606638389533,-0.03685867528213012,0.2276529136187354,0.26388412649518755,-0.7100166414033744,-0.12407826356272221,0.16174311488934023,-0.28327475513816636,1,right
12.857999999999999,-0.13612407331768905,1.0415343564258412,-0.02955381586831376,0.22788153704471442,0.2633592350176791,-0.713256921083617,-0.1241211553436296,0.16141373713277243,-0.283336666047065,1,right
12.859000000000002,-0.14320651977377696,1.0374877657410622,-0.023728265961300204,0.2278824724379292,0.2638198967625548,-0.711530758073893,-0.12408283519324238,0.16176502160210413,-0.2832666548562832,1,right
12.862,-0.14619048858093597,1.0314018792445006,-0.019888759307356996,0.22746169677429434,0.2633216711494547,-0.7110707087820758,-0.12409328123938132,0.1615617869066736,-0.28331344726006913,1,right
12.863,-0.1436434561066287,1.0267258513124151,-0.01568654012711608,0.2284244482002321,0.2640020186369738,-0.7138504565195551,-0.12416029783790494,0.16138786693923293,-0.2833224495362409,1,right
12.867,-0.14100481657907593,1.0220175454952907,-0.013832716385902716,0.22698780795752865,0.26309674705157937,-0.7092895814141822,-0.12396189737712233,0.16215113371294226,-0.28323170511338,1,right
12.868,-0.13639147226962184,1.0139010476736514,-0.014206253607138692,0.2285195420433211,0.2640414606117251,-0.7142287476212636,-0.124312769713656,0.16073523639740792,-0.2834093202707394,1,right
12.870999999999999,-0.1307178850886054,1.0084342616677566,-0.016398409069978873,0.22763407772015104,0.2635276814651647,-0.7112529501948572,-0.12386597261681771,0.16255345507357802,-0.28317907494840966,1,right
12.872,-0.12640955916822616,1.006410322684534,-0.016996299717174212,0.22687226833978835,0.26292552928788226,-0.7092914775250869,-0.12423759194487674,0.16103539293204605,-0.28337230012453507,1,right
12.877,-0.1194135621606683,1.0049021287128896,-0.016633740541082798,0.23020925882944368,0.26530045020525433,-0.7188643270728967,-0.1242331121454189,0.16107682443107252,-0.2833634575485253,1,right
12.877,-0.11219779503393171,1.00170372336094,-0.01459358922527796,0.22401968229339314,0.26094280340062587,-0.7009326520097425,-0.12350586629715407,0.16397051844035337,-0.2830065362596902,1,right
12.883,-0.10837506587692597,0.9977991979295572,-0.009867586478768273,0.23196841728248135,0.2665282139994039,-0.7239983526776808,-0.12528708379983816,0.15685760525715775,-0.2838883619883296,1,right
12.884,-0.10446589891499843,0.9943384661813826,-0.009182825594811705,0.22533093958803707,0.2618686698386107,-0.7047248908309959,-0.12233502958550384,0.1686514589044991,-0.28242476307465636,1,right
12.887,-0.10186782161094246,0.9899790689791462,-0.011407355190204683,0.22551404438323902,0.261980316361043,-0.7053107196540759,-0.12622903589575984,0.1530952123824226,-0.28435570722671344,1,right
12.887,-0.10242611569532176,0.9889983626699518,-0.012983917282723766,0.23816206951728325,0.2709143664455276,-0.7418526404113576,-0.1425707559950477,0.08780476542771885,-0.2924444512956875,1,right
12.888,-0.10167894634658624,0.988116977944768,-0.014121475151765638,0.20706781723763829,0.2489709258704597,-0.6519597354287575,-0.14646509604740365,0.07224877885634398,-0.29437455021621073,1,right
12.890999999999998,-0.10186473397235299,0.9848907881487773,-0.016714059773592208,0.25862876348521746,0.2853522211417514,-0.8010282883813833,-0.14351417396855887,0.08404150978219371,-0.29291336432181675,1,right
12.892000000000001,-0.10389254986253743,0.9846155687537973,-0.02003768603881605,0.19061485055583563,0.23736277729428598,-0.6044029472695966,-0.14528996510459086,0.07693147014645636,-0.2937902300105305,1,right
12.895999999999999,-0.10453634704939112,0.9842898912610111,-0.020953070010848278,-0.09481207246021,0.03593949020681518,0.22080361410843294,-0.14457482087232332,0.07981995246484419,-0.29344121793207967,1,right
12.897,-0.10680578389357472,0.9848206763895904,-0.02531529464491153,-0.16283490971285808,-0.012057237754528636,0.41742681277546545,-0.14455158735129958,0.07986849259895235,-0.29342266803091055,1,right
12.897,-0.10556917009775071,0.9870350904429405,-0.028898926011385113,-0.11126430859123974,0.02433193799643159,0.26836057898372934,-0.14494426371857844,0.07834352460315816,-0.2936239588084075,1,right
12.901,-0.09974694676518717,0.9881868298677239,-0.028079513234503927,-0.1423548862323336,0.0023914963986625785,0.35825436140363265,-0.14448378289507313,0.08016451494814174,-0.2933929924278208,1,right
12.901,-0.09689089166197119,0.9895195774596252,-0.030496889941062928,-0.12973889421280055,0.011299401374106087,0.3217047602625661,-0.1448270321338858,0.07875504475123765,-0.2935573432265798,1,right
12.905,-0.09153879830948713,0.9883950537612601,-0.02991979244377898,-0.12948686938151996,0.011467300151199634,0.3211354624824202,-0.14467155229905804,0.0794983661762503,-0.2934984990903915,1,right
12.907,-0.08220175601748422,0.9881800084274154,-0.02626203214916994,-0.13622316181750205,0.006727103472138381,0.34038521758277207,-0.14465393443549102,0.07935847670095847,-0.29345855715289226,1,right
12.912,-0.07615029329279699,0.9916495308391511,-0.02887189042867414,-0.12817603122313545,0.012392824896786024,0.31734312961303024,-0.14477976520082952,0.07911376205387335,-0.2935591302397177,1,right
12.912,-0.07535953847443222,0.9976557240537974,-0.04028998954014958,-0.13440805759457317,0.008000529640004993,0.33526460560239923,-0.14463217269158973,0.07949773196811295,-0.2934555652416072,1,right
12.915999999999999,-0.07849785597627738,1.009205848726225,-0.056102262495707295,-0.1311555744993874,0.010306477067974093,0.3256715040485349,-0.14471387070230277,0.07916952030125224,-0.2934957441571844,1,right
12.918,-0.08066124688783448,1.0213246161440792,-0.06605413053919942,-0.1316451863510112,0.009926490843567944,0.32769825613351017,-0.14476996627721012,0.07932708155968818,-0.2935800515980043,1,right
12.921,-0.07477213417225637,1.0326599625950958,-0.06948800063841601,-0.13299964461379804,0.009029920013045391,0.3305615505009471,-0.1445399093547864,0.07937388244914094,-0.2933369756904284,1,right
12.921,-0.061705047950828665,1.0453271137737952,-0.06794469973745709,-0.13089235205211086,0.01044440480328589,0.32576047914663897,-0.144919001570456,0.07916078419623648,-0.2937173407958312,1,right
12.925999999999998,-0.04897393893388872,1.055262783013209,-0.06078697209351095,-0.13278783332183197,0.00916462405999255,0.33021122039998174,-0.14450172873742673,0.07944036513494676,-0.2933053873116383,1,right
12.927,-0.03615698038442212,1.0618799953880842,-0.054748521836161704,-0.13182922151428478,0.009841599279133056,0.3274305786894126,-0.14475167653721466,0.07924369882582925,-0.29354773967833026,1,right
12.932,-0.026231212224217315,1.066469781211863,-0.05694377618078136,-0.1313983934305929,0.010038443293173103,0.32809480638178845,-0.14493963010479916,0.07918337295422737,-0.2937431990637494,1,right
12.932,-0.023894158934583527,1.0707347785357162,-0.06921902142986786,-0.1333435638864792,0.0089107033472582,0.3293541955562185,-0.1440662691951028,0.07964882791453173,-0.2928629837433212,1,right
12.935,-0.025405771639476132,1.0724769637460296,-0.08490083235328513,-0.13021174059871654,0.01075539732716196,0.32681039263440675,-0.1456979804639308,0.0787380868506801,-0.2945011711047297,1,right
12.937000000000001,-0.03385527116457541,1.0713289906314754,-0.0967529897145221,-0.13359304670425037,0.008758761949689312,0.3296458103183729,-0.14359835792239328,0.07992459875641451,-0.2923956138845057,1,right
12.94,-0.04427913974950476,1.0703817269481974,-0.1004491254664737,-0.13157185100740781,0.009960030155084967,0.3278121383644679,-0.14535322807219225,0.07892692252685121,-0.2941542191824303,1,right
12.940999999999999,-0.055655648422446705,1.0678033665682944,-0.0922904824234348,-0.13016416549631385,0.010759440707849333,0.3271998034549606,-0.14530250901919003,0.07896479273291704,-0.2941055001768591,1,right
12.945,-0.07097682053410698,1.0670630665856895,-0.07980519646780602,-0.1368723129808842,0.006874575607269476,0.33146426067054263,-0.14196476752950443,0.08083816221620341,-0.2907552522934768,1,right
12.945,-0.08605043816069659,1.0678824655083665,-0.07178601998903761,-0.12433348847763996,0.014148585217678837,0.3232702258307629,-0.15017345464528942,0.07621813415464396,-0.2989912013725141,1,right
12.95,-0.11675284376454367,1.0651244045428334,-0.06663864406759433,-0.14045564641625286,0.004793113269421507,0.33385525894825424,-0.13656083492942045,0.08388392336341619,-0.2853353138465964,1,right
12.950999999999999,-0.14172562331868493,1.0643049677891259,-0.06489736462800214,-0.12698782184758303,0.012609308630081802,0.3249934091008786,-0.1545171759029214,0.07377116877586301,-0.30334713137784863,1,right
12.955,-0.14880155766376113,1.064969075684326,-0.06552670576727292,-0.12738513743243618,0.012374703114403019,0.32533058805379694,-0.22988222572007483,0.03132843866378561,-0.37895321644452484,1,right
12.956,-0.17847280457793785,1.061224379222403,-0.06639936773207561,-0.15295645882893127,-0.002452431080976994,0.3419068695147939,-0.24784079150594804,0.02121681778267008,-0.396963816176847,1,right
12.957,-0.21547651894374564,1.0559103500229572,-0.07196339649403885,-0.09006811811371437,0.034016894711000896,0.30105184272299723,-0.23422441524164728,0.02888194848202564,-0.38330969419880434,1,right
12.960999999999999,-0.24355782043991245,1.0501583314161729,-0.07428530806737653,-0.19434767334423267,-0.02645629103668572,0.36881781622706616,-0.24243696663165587,0.024259441724398177,-0.3915445576798545,1,right
12.962,-0.26297541325237217,1.0451311615562457,-0.07006876270032399,-0.05680531758412917,0.05330609075653279,0.2794363037249723,-0.23909735578630822,0.026141028270352876,-0.3881932104159049,1,right
12.964,-0.2669745149331525,1.043445575463813,-0.0681805879361794,0.5205079942282725,0.38809587751023583,-0.0956421379375071,-0.23904407579355205,0.026163989707836934,-0.38814904223582464,1,right
12.965,-0.28395643708493135,1.0422120306254423,-0.0580589820310767,0.6580417520071982,0.46785193642759304,-0.1850049081044208,-0.24080788844238085,0.025185471010131813,-0.38989937286243137,1,right
12.966,-0.3062026752243906,1.0411772735681528,-0.04127698022582747,0.5537714966294367,0.40738559131874225,-0.1172592137648975,-0.2386927772572781,0.026355677067728178,-0.38780424120373835,1,right
12.97,-0.3183097804522784,1.041805966295016,-0.03820564453922656,0.6166633845688095,0.4438575199929246,-0.15812194871232377,-0.24034339794332674,0.025446826321388852,-0.38943387102208415,1,right
12.970999999999998,-0.33385410715320624,1.0402283357955326,-0.04626812366948034,0.5910611870894933,0.42900769159087526,-0.1414784119672355,-0.2394551638764291,0.02593813867587888,-0.38855405690222455,1,right
12.975,-0.3469058920886282,1.0349272892667782,-0.050891973278013466,0.5907302925757365,0.4288219140418128,-0.14128594695224495,-0.23964256183228583,0.025814916803437844,-0.388764314213867,1,right
12.975999999999999,-0.35689047100034754,1.0295092539728823,-0.04743714578227393,0.6041028929898647,0.43656810119449135,-0.1499403018109425,-0.2399209782945645,0.025715039778195704,-0.3889720366900387,1,right
12.98,-0.3676370815877562,1.0233890335257199,-0.03910125435043987,0.5880755457145916,0.4272823413264242,-0.13956189610191846,-0.23943955627472743,0.02588814370175852,-0.3886122773567149,1,right
12.981,-0.37711868482097755,1.0157587266592585,-0.028655860223898103,0.6005734847989136,0.4345262742226111,-0.14766676445234095,-0.2399134211306335,0.025741533653524964,-0.38893655488581236,1,right
12.984000000000002,-0.384720067626371,1.0104427803225184,-0.01941999123985979,0.5937838678397307,0.4305815401865797,-0.14322489825612983,-0.2395837855918494,0.025831313785433317,-0.38872629049680085,1,right
12.985,-0.387197859548722,1.006634253457062,-0.012135089439248814,0.5954538952175463,0.4315737940697961,-0.14440875812529377,-0.23969436232240396,0.02576819518664568,-0.3888382864972364,1,right
12.989,-0.3842444906954257,1.0048778657433308,-0.008146147389957064,0.597023118240363,0.4324427914882415,-0.14525764523386275,-0.23983374272431232,0.025867543779781954,-0.38875472306639625,1,right
12.989,-0.37696223470761875,1.009134431284397,-0.01221393995046745,0.5941964392682278,0.43085392891392504,-0.14363083025509576,-0.23945403151947778,0.0256749505290504,-0.38888429731027896,1,right
12.994000000000002,-0.3666522060378842,1.0165427826376638,-0.017364940577963388,0.5968861716932303,0.4323735368777931,-0.14521103987134643,-0.2400062824080145,0.025970277023877525,-0.388676749795111,1,right
12.995,-0.35205462308435725,1.025461819342019,-0.01941107195284559,0.5949368666318309,0.43124287649424775,-0.14394314831342578,-0.23943641953646094,0.025644827499680094,-0.38891690284572367,1,right
12.999,-0.3328772906085275,1.0351726180898404,-0.020845420850644752,0.5961885454313647,0.43204304794126136,-0.14506690072984119,-0.2397659123722548,0.025832763340683372,-0.38877836815532746,1,right
13.0,-0.3119728750597092,1.0398566962917672,-0.02022443332400206,0.5952715941203119,0.43134126177684884,-0.14376125947963042,-0.24000803786271793,0.026018309303193935,-0.38861692164853645,1,right
13.005,-0.2889999184521589,1.0414301582773655,-0.020569131669441562,0.5961738642908603,0.4321183350177744,-0.1454067118529319,-0.23889407163967047,0.02523673547923265,-0.3892690247055497,1,right
13.005999999999998,-0.2606744890528758,1.0488819466505506,-0.02152151554379311,0.5952990360051298,0.4313402060808641,-0.14370894446389398,-0.24096269316871272,0.026684667263813047,-0.388062456391151,1,right
13.008,-0.23016824638398753,1.0628016229647383,-0.016338272097587824,0.5956670282893355,0.43171044089747357,-0.14460089136181714,-0.23830988425819452,0.024823486104140417,-0.3896151698215651,1,right
13.009,-0.21335962137037998,1.0751278344370006,0.0011733974160464972,0.5966641833947374,0.43242276212112635,-0.14581063607925443,-0.2405230996057429,0.026378201668346608,-0.3883173849815085,1,right
13.013,-0.20867263172103254,1.0734098563146632,0.02849155826159975,0.5934140009256297,0.42994885657788595,-0.14123798013549593,-0.24045856924328401,0.026338554088272802,-0.38834791189514617,1,right
13.013,-0.20395882756822953,1.051731880429566,0.05038199044928419,0.5992395291532848,0.4344205972150684,-0.14958759530253368,-0.23625771517354985,0.02336356224493244,-0.39084178952679777,1,right
13.017999999999999,-0.19671026911974293,1.0294672145649444,0.04865522612558987,0.5918058349569779,0.42870470833023355,-0.13889575616556166,-0.2465867095151736,0.030673941908032902,-0.3847158786259506,1,right
13.019,-0.17567963819507368,1.0237577285713142,0.02687540157833063,0.5979913164340738,0.4334660910743229,-0.1478096105702714,-0.2294606881876672,0.018552749361921198,-0.39487291314809814,1,right
13.024000000000001,-0.15513806969407629,1.0271974507893402,0.012377202356409357,0.5978990381637741,0.43337763666113044,-0.14761462323847183,-0.2520492273100835,0.03454121221329624,-0.3814751504876671,1,right
13.025,-0.1501243673788858,1.0295917592421195,0.01199416930249783,0.5858629309254888,0.42416597202341705,-0.130466701487052,-0.34685083886887863,0.10165849474947383,-0.32522499768887314,1,right
13.026,-0.1338894020179592,1.0305129242188076,0.00710328688614279,0.6153528673316659,0.4467595553020884,-0.17255884275955738,-0.36943913971740705,0.11764801280124612,-0.3118267015235795,1,right
13.029000000000002,-0.1067527640401229,1.0438865768758594,-0.010072131286457089,0.5664873830190962,0.4093105378361228,-0.10278346246256378,-0.3523134907117833,0.10552517088267226,-0.32198456970135614,1,right
13.03,-0.0948133551505527,1.0595254837930719,-0.024494206519377025,0.6309288928562753,0.45870476680896066,-0.19481401700672535,-0.3626421774513139,0.11283691467303046,-0.3158579700248797,1,right
13.033,-0.08979753917741705,1.0655427730683353,-0.028018724185248582,0.9015756791010507,0.6660935612890366,-0.5811854425015632,-0.35844130453032685,0.10986200238424682,-0.3183518055346353,1,right
13.034,-0.07623661079324523,1.0877076334234328,-0.025996263304330476,0.9659996460227076,0.7154931847552648,-0.673217241978105,-0.35837737342534837,0.10981970680942234,-0.3183836740811814,1,right
13.034,-0.06730809899056617,1.112698354877312,-0.014454732229801695,0.9171658789544155,0.678038225519759,-0.6034427062780341,-0.36058928224558673,0.111380202099099,-0.31708296401192654,1,right
13.038,-0.07276523699014173,1.118851753870099,-0.001963149997016941,0.9466179196017541,0.7006299619053304,-0.6455265728181323,-0.3579383331306916,0.10951078840377215,-0.3186398415202363,1,right
13.039000000000001,-0.08017455405475887,1.1190947439080918,-0.0002198160975757994,0.9346118607010284,0.6914368886602416,-0.6283991219635767,-0.36000511452411377,0.1109668725825076,-0.3174291529944795,1,right
13.044,-0.07621152417630188,1.1089798456529825,-0.009082167344033875,0.9345170653414623,0.6913079189402739,-0.6281707800540428,-0.35889194242075395,0.11018176765826257,-0.31808303443417574,1,right
13.044,-0.059158763789000736,1.0958963105402713,-0.028961666800787343,0.9406564076189724,0.6961278036037428,-0.637123898422815,-0.35913562319509995,0.11036045284425766,-0.3179250696779535,1,right
13.048,-0.03920535984234323,1.0937148296545842,-0.0485001748025595,0.9333308019693757,0.6903531453724189,-0.6264036530605923,-0.3594601014117497,0.11057056076426441,-0.31777530783183183,1,right
13.049000000000001,-0.02512203763423768,1.0971155080120645,-0.06533866752821148,0.9389942872564485,0.694851197766343,-0.6347456683143227,-0.3588988715689714,0.11020691133007082,-0.31803478988390105,1,right
13.052,-0.016733498196034428,1.1097036849608568,-0.08559242448494511,0.9359172204562844,0.69242556009615,-0.6302431617987667,-0.35944053779914886,0.11054910437493573,-0.31780354306353176,1,right
13.052999999999999,-0.012253582220319234,1.1305813167640046,-0.09599195842671546,0.936814191815788,0.6929786160751916,-0.631305648671501,-0.35906925236209186,0.11031915732588116,-0.31795198382875867,1,right
13.059000000000001,-0.011085440297284609,1.1509783483781977,-0.08909619015545729,0.9370951388210205,0.6936254177066088,-0.6324066484589077,-0.35920873301284484,0.11041816835394991,-0.3178686425079173,1,right
13.06,-0.009283539005762547,1.168839678287965,-0.07834030315833063,0.936602821935382,0.6925055934558653,-0.63049975556383,-0.3593036201479789,0.11042436093852581,-0.3179455126379734,1,right
13.062000000000001,-0.0028146353563342536,1.1835738740231836,-0.07711528995745154,0.9367884160687746,0.6935584854138254,-0.6322410917402066,-0.3590097921295872,0.11035576293283969,-0.31781541839930305,1,right
13.062999999999999,0.006473276884721251,1.2001482423546184,-0.08761881659051951,0.9368126466212585,0.6928513260133526,-0.6310993452438509,-0.359430277929647,0.11044540516118326,-0.3180201811125057,1,right
13.068,0.014698796275504428,1.2217285793677446,-0.10187898408523635,0.9372208989660105,0.6931576127278918,-0.6316712058171982,-0.35900571049033364,0.11036668565440984,-0.3177877224072796,1,right
13.07,0.019019172464390752,1.2408791324964779,-0.11037333787964354,0.9354796551706642,0.6931698539219929,-0.6313687193902358,-0.3592513590781701,0.11041226714371527,-0.3179220686558206,1,right
13.072000000000001,0.02364715311979561,1.2525327553830905,-0.11093185531566221,0.9392381974598256,0.6929730392084417,-0.6317460094566882,-0.3594102515875152,0.11041457371819788,-0.318068516777972,1,right
13.073,0.03351122698123823,1.2586285304773241,-0.10469959988954433,0.9335808525504417,0.6932279036992768,-0.631110529389949,-0.3586462246640182,0.11035681068861616,-0.31746678585079946,1,right
13.075999999999999,0.0424284650590766,1.2617498749455742,-0.09384691884498206,0.9396785863577064,0.6930076944362942,-0.6318843995882553,-0.3600667326072384,0.11046609912263813,-0.3185812042591771,1,right
13.077,0.04529235885486063,1.2637168089316488,-0.08860556655337604,0.9361573387532252,0.6931361556559295,-0.6314386544863271,-0.3582468618961151,0.11032909410942393,-0.31714712205267254,1,right
13.082,0.04366544308121445,1.263284656149017,-0.09465085279065802,0.9329677736998288,0.6931297253884927,-0.6308389033487811,-0.3597645508957475,0.11044170458640062,-0.31834634611556134,1,right
13.083,0.04147051087577461,1.2602463432142263,-0.10391858156841761,0.9467239822211535,0.6930045036937037,-0.6331838080038977,-0.35971707977181,0.11043559826409216,-0.31831525810958294,1,right
13.087,0.04190806341493063,1.2597641273782387,-0.1093092578663003,0.9212261173300504,0.6932459440670424,-0.6288499254555086,-0.35684886425550866,0.11023548331089228,-0.3160192540524339,1,right
13.088,0.04982410787518432,1.2606281375071626,-0.10406602818069122,0.9539756903809495,0.6929437082614824,-0.634431697712889,-0.3639044328221873,0.11072864346063366,-0.32166376421789533,1,right
13.093,0.0682530656054511,1.259240332921678,-0.09216317736540754,0.9266338640682197,0.6931942046995105,-0.6297649725944598,-0.3522052793091399,0.10991237067450055,-0.3123021813701692,1,right
13.093,0.08019866938476176,1.259140018865292,-0.08664176665958725,0.9273471689732895,0.6931695739448703,-0.6298657462528858,-0.3676358755907686,0.11098721857554106,-0.32465274731339655,1,right
13.094000000000001,0.08338270844606803,1.2611447073088544,-0.0871555029673546,0.9795757699829117,0.6927571433536892,-0.6388674968898622,-0.4323647870387219,0.11551313926247991,-0.37644704321159694,1,right
13.097000000000001,0.09374511746266634,1.2655858763980357,-0.09025090111533834,0.8512390295140793,0.6937919892423182,-0.6167656163296884,-0.4477922432239122,0.11658734782947416,-0.38879685623061433,1,right
13.097999999999999,0.10040947669142808,1.2731741957545841,-0.09006234963862002,1.0640098571805592,0.6920673197142518,-0.6534080842733537,-0.4361009981895772,0.11576949122327385,-0.37944244741826705,1,right
13.100999999999999,0.09978278196445026,1.2781930882597328,-0.0844871820051852,0.7833832926728574,0.6943502535787833,-0.605077229341173,-0.44314188045772707,0.11627097447425239,-0.3850647421671504,1,right
13.102,0.0995376614356285,1.2805821776571777,-0.08177780999585042,-0.3946966521050414,0.7038429697746615,-0.4021207361341126,-0.4402953365751743,0.11605194849870226,-0.3828124739420622,1,right
13.103,0.09734137127606309,1.2868171033546416,-0.0818103184263298,-0.6752751092261416,0.7061503066098982,-0.35379720751225524,-0.4402232428700259,0.11607543084327457,-0.38271830608445945,1,right
13.106,0.09968283025454132,1.2969137207264056,-0.07345008611736378,-0.4625794828226409,0.7043874895451033,-0.3904282230942754,-0.4417586167464119,0.11615450448137672,-0.3839831363527969,1,right
13.107000000000001,0.10714603185937284,1.30600734743748,-0.05578386099985894,-0.5908540135555753,0.7054538952128366,-0.368335816163176,-0.43994314349409785,0.11603979430523978,-0.38251474819506426,1,right
13.112,0.1148006274769887,1.3113490212732417,-0.04637130825511976,-0.5386218229893547,0.7050432787705954,-0.3773381141547173,-0.4413208856896112,0.11616007638337102,-0.3835863587467553,1,right
13.113,0.12493435476831007,1.3162749802165248,-0.045251632886475435,-0.5380291866945793,0.7049574475384125,-0.3774205100631603,-0.4406472538969125,0.11603567100277912,-0.38314683367630864,1,right
13.117,0.1378096207275104,1.3219628711301636,-0.04440583301081403,-0.565107570482398,0.7053415672754025,-0.37279390591827666,-0.4406769663357877,0.1161709351154734,-0.3829991489911698,1,right
13.118,0.1490934262253642,1.3270172177184405,-0.048408760164413325,-0.5327332906691971,0.7048489662218647,-0.3783185238433173,-0.44105322617936094,0.1160338200385577,-0.3835106410809307,1,right
13.122,0.15434791085309502,1.3357711541614377,-0.04724812625868801,-0.557859450131573,0.7052789636810433,-0.3740412480071206,-0.4405660380147356,0.11613003493457232,-0.38295303949047477,1,right
13.122,0.15595647458520925,1.3480093471183716,-0.03423002807965883,-0.5442643635265126,0.7050719868236539,-0.3763616178280462,-0.4408905279020168,0.11615385334468174,-0.3832112551498023,1,right
13.126,0.1555057845007124,1.359202649858547,-0.018547854156995183,-0.5477664612086883,0.7049070668305568,-0.3757142660953059,-0.4409317816040265,0.1159150926610972,-0.3835554137818609,1,right
13.127,0.1464668365321872,1.369020077780808,-0.007446118406602574,-0.5502772025292308,0.7055480577942392,-0.375422418019694,-0.4404340881355465,0.11643255877303402,-0.38244600877944285,1,right
13.130999999999998,0.13022135056733897,1.3787062514900916,-0.0004388119752318587,-0.545920730576299,0.7044446292551584,-0.3759311045252671,-0.4413186225660759,0.11567050776266982,-0.38421478691453803,1,right
13.130999999999998,0.11690778611600605,1.3875228763896714,0.007619252914474536,-0.5494414682992288,0.7057832965939326,-0.37562101134651205,-0.44032370365598766,0.11647924908873487,-0.3822875634065832,1,right
13.136,0.10529809428351138,1.3952075093310072,0.014424504237194683,-0.5473862958807074,0.7047223615159809,-0.37573890110827723,-0.44093344352804476,0.11601437502510217,-0.3834291327781262,1,right
13.137,0.09330994961855321,1.404960977436658,0.018273066995643523,-0.5491419170087875,0.7047274908384824,-0.3754342061383823,-0.44135060494817013,0.1156061305108068,-0.38432606162443816,1,right
13.14,0.08628347304630475,1.414032485246578,0.02341254729856162,-0.5455753376898695,0.706635581330975,-0.3764870812136986,-0.439324828641167,0.11737895731653952,-0.38023983663284244,1,right
13.140999999999998,0.08305016876846343,1.4224608716571312,0.02910966192647098,-0.5527698202896343,0.702266988826008,-0.37424595618184564,-0.44312893928329455,0.1140944824582199,-0.3878559228697917,1,right
13.145999999999999,0.08173163332141523,1.4349637300996125,0.035868390557880436,-0.5418146165776525,0.7087826422060393,-0.37762742961419443,-0.4382272021581315,0.11831077004767984,-0.3780625383949052,1,right
13.148,0.08273931807488535,1.444150269816204,0.04692594203773939,-0.5537881560377769,0.7018387772573751,-0.37397205859695226,-0.4423266840501464,0.11479122945910347,-0.386244787227264,1,right
13.151,0.08827220785905035,1.450207260752838,0.055657554474771616,-0.5468723516312318,0.7058517677314913,-0.3760834273683239,-0.4422044635187996,0.11488589378501296,-0.38601333082439265,1,right
13.152000000000001,0.09757600854772062,1.4588332277507057,0.06103746471425686,-0.5402591984342715,0.7093032087940773,-0.37801655610642065,-0.43441748495458554,0.12159858955895973,-0.37043767961107077,1,right
13.154000000000002,0.10762186086858988,1.4648157658265506,0.06887994438370909,-0.5683596937136743,0.694185845325395,-0.3697030500542707,-0.4535733230188325,0.10510035573991752,-0.4087358858278833,1,right
13.155,0.12216466964870075,1.4700049472192567,0.07017118103709238,-0.5162872670360834,0.7222237453732929,-0.38511285955511637,-0.4218057204776657,0.13245505935817503,-0.34522897487784643,1,right
13.16,0.13227967765431886,1.4748639229491636,0.0658917981660925,-0.5832069895838227,0.6862198142564667,-0.3653169767136849,-0.4637095676350306,0.09637415092918256,-0.42899818094682907,1,right
13.161,0.1347465126720917,1.4758415375039822,0.06321568741771079,-0.5273113117125181,0.716281089585596,-0.3818472332058951,-0.6395901325526621,-0.05507388583533953,-0.7806002044317727,1,right
13.161,0.1461711789535216,1.4800702579486897,0.051199641098379274,-0.5287628173495971,0.7154582449568694,-0.3814130371952038,-0.6814953368143462,-0.09115572928040361,-0.8643754468532427,1,right
13.165,0.16294072733183984,1.4875366255224138,0.029508437698587364,-0.6356198948369967,0.6581609787042468,-0.3498392814442356,-0.6497245088139205,-0.06379964198734188,-0.8008582162359162,1,right
13.165999999999999,0.17882048119704447,1.494416237933223,0.009924982757676056,-0.37301609319593604,0.7990077406937479,-0.427432077574561,-0.6688860123466754,-0.08029880885617494,-0.8391673582919742,1,right
13.169,0.1957942473083014,1.504946529322938,-0.0024504646206610107,-0.8084398209572016,0.5654662520241829,-0.29878059874746843,-0.6610910730843746,-0.07358675197332044,-0.8235857047402007,1,right
13.17,0.20374965443373555,1.5127417708617443,-0.0066961778496201175,-0.23409404218492924,0.8735145571883782,-0.4684727873238972,-0.6609774089682657,-0.07348889799534873,-0.8233486803313842,1,right
13.171,0.20734976633298655,1.5150529737053202,-0.0071098895905539715,2.1766872028138757,2.1662861684684938,-1.1808258382830208,-0.6650714856177034,-0.0770144650653394,-0.8315537104416506,1,right
13.174000000000001,0.21420333954361556,1.5221857307731796,-0.008506953590909909,2.7510521681373357,2.474324790726877,-1.3505241305275382,-0.6601665584419643,-0.07279036109220174,-0.8217191558984269,1,right
13.175,0.21875802222525909,1.5312816671581093,-0.006281580382679789,2.3156201010614312,2.2408265678965655,-1.2218585170301144,-0.6639879646477023,-0.07608157969419958,-0.8293873329951442,1,right
13.179,0.22432052830977342,1.5362851628265797,-0.00011577495941643423,2.5781720180635093,2.38156117282115,-1.299475476175518,-0.6619282458043307,-0.07430769658922806,-0.8252573615428984,1,right
13.18,0.22895853754334555,1.5395595810629419,-0.0023604279689137075,2.4714744876955272,2.3244685928207365,-1.267868633445877,-0.6623916400448471,-0.07470598056812962,-0.8261591360069558,1,right
13.184000000000001,0.2312053614059578,1.5407593909674335,-0.012669671972742038,2.469740280997767,2.323365298164738,-1.267468889935756,-0.6629575433897752,-0.07519560181102963,-0.8273695975490039,1,right
13.185,0.2385423337220146,1.538869809884626,-0.023120603909202106,2.5259927917956073,2.3537006176600235,-1.283979161898472,-0.6619783784119335,-0.07434843751989789,-0.8252758117396137,1,right
13.189,0.2477022707493252,1.5351465379165106,-0.02899634119572886,2.4587783193279584,2.317583759720331,-1.2641664388987288,-0.6629071896487271,-0.07515314495464175,-0.8272998805043642,1,right
13.19,0.25712271614299925,1.5301925460434065,-0.019112734608567425,2.5108654350321284,2.3453733389573674,-1.2796517415341409,-0.6622790438406043,-0.07460838903335615,-0.82591078956621,1,right
13.194,0.2678171645368736,1.5230192785928176,-0.0010840856898033909,2.483277235735934,2.331037412561073,-1.271195483222716,-0.6625383225873491,-0.07483145051206765,-0.8264279747530956,1,right
13.195,0.2722710528911431,1.5136064209963704,0.00444639401289211,2.488686084987831,2.3331491702974088,-1.2733179961346837,-0.662601839649068,-0.07489372993713737,-0.8268022935575391,1,right
13.199000000000002,0.27050042838282884,1.504143504189727,-0.0030918122604766487,2.4974237333672376,2.338801974357719,-1.2752565859366811,-0.6623139342207073,-0.07462876853078357,-0.8256614084861282,1,right
13.2,0.2684708890234708,1.4966155581619005,-0.020031234719368997,2.4834833720434073,2.3305556568913985,-1.2716502071987061,-0.6627102424592264,-0.07499523308382333,-0.8272971140632848,1,right
13.206,0.26403646166576245,1.4891331977919346,-0.0439170351493675,2.4956044487340048,2.3370488356819994,-1.2752362092028773,-0.6623317999764277,-0.07464276997082761,-0.8256413545139405,1,right
13.207,0.25474355833895623,1.4791008707683782,-0.066156621939636,2.489346697509261,2.335122553803611,-1.2724361341992838,-0.6625509086487437,-0.07484631909008106,-0.8265990843040518,1,right
13.208,0.24171942961291742,1.4687780936231398,-0.08051578740864435,2.488623563264502,2.3314681959938155,-1.2743959825144264,-0.6626422589910212,-0.07493933643489968,-0.8272292561154928,1,right
13.209000000000001,0.2266557305798863,1.4588394808229883,-0.08022884551374806,2.494993310226188,2.339756949358028,-1.2730355147159171,-0.6621162802084031,-0.07442681819376781,-0.824218120551361,1,right
13.215,0.20562659328311095,1.4452433684451633,-0.06974014554055404,2.4862671398729903,2.3298830239169694,-1.273913910655654,-0.6630979257496894,-0.07538127886082345,-0.829815119344709,1,right
13.216,0.17298471378211627,1.4300743408133234,-0.06120999383947689,2.4926068949896294,2.3362839000473308,-1.2737896127069843,-0.6618456120048276,-0.07416412543952844,-0.8226442172526685,1,right
13.218,0.13610171074417793,1.4188881028920395,-0.05214515544314434,2.494037107552338,2.339638495034234,-1.2724909901480084,-0.6628873138483669,-0.07517488915192802,-0.8286238887127926,1,right
13.219000000000001,0.09384840212332721,1.4077150883937208,-0.04594271488279573,2.4803344672141634,2.320966941136702,-1.2759765383223953,-0.6628490939914655,-0.07514393494333149,-0.8284405026300662,1,right
13.224,0.047575180143325936,1.3952652583427247,-0.04974876561117099,2.50750414476118,2.356535690398378,-1.2700313815572914,-0.6609059875809409,-0.07324149316091352,-0.8171285190412856,1,right
13.224,0.007797621857789384,1.3845928603108844,-0.050918769015602605,2.471984255850332,2.310524943609172,-1.2774789337369028,-0.6656892031349402,-0.07791401001479697,-0.8449494713993311,1,right
13.229000000000001,-0.03568504051212589,1.3720362653259097,-0.0453852418725091,2.5019038971200276,2.3490788097884066,-1.271338964505662,-0.6577594980067226,-0.07017423508983892,-0.7988212921134319,1,right
13.23,-0.06688834906469907,1.3611845007228434,-0.0411808175364647,2.500685921709241,2.3478181579595008,-1.2713867506609495,-0.6682159618881154,-0.08037562558731012,-0.8596600352026794,1,right
13.23,-0.07435789045375504,1.357311317813516,-0.04020255451120287,2.4447221112165445,2.2748824151460383,-1.2834103171699707,-0.712085128118741,-0.1233249338020396,-1.1149422589289908,1,right
13.232999999999999,-0.09861010242163697,1.3482237469224994,-0.04147602689040816,2.582861857615681,2.454461081632224,-1.254027021510875,-0.7225377502224757,-0.133528424689645,-1.1757716883194238,1,right
13.234000000000002,-0.13782255679411676,1.3252786012978286,-0.03493800593860259,2.353601766966912,2.1565971923272103,-1.302684804648519,-0.7146137189379822,-0.12576899454592824,-1.129662255957519,1,right
13.239,-0.15503690397999118,1.3091734870342617,-0.02597417614617242,2.656069168184572,2.5495154170914422,-1.2385240392764076,-0.719393141084187,-0.13050221721710611,-1.1574563311046047,1,right
13.24,-0.16094361922505504,1.3035070909842403,-0.021310377167396144,3.925433416882512,4.198687281424716,-0.9691785601992347,-0.7174473265455583,-0.12848038066741613,-1.14617423280359,1,right
13.24,-0.17810685458689285,1.2819140174880195,-0.009822448922622391,4.227903229731172,4.591602583034273,-0.9050126099033531,-0.7174223355057701,-0.12862152076867867,-1.1459688405817463,1,right
13.243,-0.19920260322672428,1.2517971010809048,-0.004369125344148388,3.998592735504566,4.293716230184501,-0.9536618833034041,-0.7184391435867177,-0.1294534265784087,-1.1519462013912873,1,right
13.244000000000002,-0.22089918081195314,1.226159514686429,-0.010137795620370723,4.1369007783869876,4.473386868231881,-0.9243307327990579,-0.7172190218752639,-0.12832957742889983,-1.144819899231407,1,right
13.249,-0.24709444880843995,1.1986839784199819,-0.013873219770109566,4.0805966175399355,4.400253506088956,-0.9362325875052699,-0.7181730289999463,-0.12940124993432311,-1.1503191044393688,1,right
13.25,-0.2717681058784294,1.174700855316917,-0.014787112002699367,4.079877792306382,4.399293044106097,-0.9364733724464671,-0.7176510874423658,-0.12844576185395012,-1.1474506708722836,1,right
13.254000000000001,-0.2937047226980124,1.1517378599289079,-0.010488241963241308,4.10926842106581,4.437516585727014,-0.9301118277749071,-0.7177839306279489,-0.12934146524124612,-1.1479325392440545,1,right
13.255,-0.3171343429035356,1.1241193965820364,-0.0042204099103167435,4.0740421534085645,4.39170975576006,-0.9377111408970529,-0.7179006131865837,-0.12851635576460008,-1.1489690399443446,1,right
13.257,-0.34523816884433944,1.0963951388770035,0.0014985261137955466,4.10151811637072,4.427422671098208,-0.931828413081174,-0.7176807106827988,-0.12904990172662573,-1.14740431290399,1,right
13.257,-0.3758765424990313,1.071475042181473,0.0077595329393490165,4.08656565784149,4.40804107764438,-0.9348889053374382,-0.7179015882146277,-0.12927243544181247,-1.1486870441882024,1,right
13.263,-0.4087208484216395,1.0518931711982655,0.011680316239573219,4.090305486040645,4.412762615884137,-0.9344524450758428,-0.7177249615400028,-0.12771118114649072,-1.1481884929201809,1,right
13.264000000000001,-0.4440419919857749,1.0416943317650122,0.017299038635367824,4.093640113177082,4.417330661635524,-0.9331304752452586,-0.7178552340429146,-0.1310119585917298,-1.1477370544639567,1,right
13.267999999999999,-0.47851765106342736,1.045050427181538,0.027721116506801948,4.087567070017659,4.409151179560865,-0.9351729773416924,-0.7177571481090146,-0.12618171392576033,-1.1489706453084279,1,right
13.269,-0.5170545964632056,1.059697079043011,0.04202325349218998,4.093367928842579,4.416918137833756,-0.9333412426586973,-0.7178264975384785,-0.1312967454468985,-1.1474507688454125,1,right
13.273,-0.5609298003194897,1.0791418440895275,0.060412204522438055,4.089079483741097,4.41135021162631,-0.9342451179284633,-0.7178100357304414,-0.12836374728402103,-1.1484661677630559,1,right
13.274000000000001,-0.6102345470250216,1.1004417135717155,0.08402232203248286,4.092046149563113,4.414772116123877,-0.9347328060479414,-0.7177224304718318,-0.12576563394889118,-1.1489148211667062,1,right
13.277000000000001,-0.6700205735882288,1.1221533433609765,0.11052170255913439,4.089541280903241,4.41250388560013,-0.9327120995172327,-0.7179704101326895,-0.13700794958251988,-1.1461644252008498,1,right
13.277999999999999,-0.7378736475360153,1.1444668433062861,0.13482232939063285,4.09225350247922,4.41455776860181,-0.9359435881067468,-0.7175425055797646,-0.11618850107538178,-1.151450656529513,1,right
13.282,-0.8123909327730205,1.1690035601607165,0.15275382652798747,4.089554309678821,4.412616381109597,-0.9324585001178017,-0.7180804566008061,-0.142912190695274,-1.1445964385871883,1,right
13.283,-0.8951789907002832,1.194530470246007,0.1597708939367375,4.090810158268553,4.413346144623267,-0.9345357015620617,-0.7176361682990524,-0.1206040378661832,-1.1503460246101342,1,right
13.288,-0.9734205629763132,1.2175403594995053,0.156056501266736,4.093392508327462,4.4159151980525735,-0.9360111002278986,-0.7176408054283663,-0.12120668009108347,-1.1501490483874344,1,right
13.288,-1.0394539563567875,1.2383716811624326,0.1442248669003095,4.08454985478565,4.407848638453582,-0.9290386032022331,-0.7185076616196105,-0.16374854019955326,-1.1392963801842413,1,right
13.292,-1.0956442460716191,1.2576359050786916,0.1278232639987291,4.10050047017801,4.422233280565625,-0.9420616741676815,-0.7163876465081682,-0.059183964166818814,-1.1660293462165852,1,right
13.293,-1.122566644385124,1.270854797812349,0.11215141660707154,4.080125767866836,4.403893775669684,-0.9253193879344233,-0.7198988213666669,-0.2325622946882738,-1.121684645111381,1,right
13.296,-1.1280791742181489,1.2764229190057157,0.10321629919832516,4.097083637231659,4.419148430156513,-0.939303757871707,-0.7152688928233537,-0.003869031127867628,-1.180180082927027,1,right
13.298,-1.1261459929743967,1.2770669203825746,0.10037534399987319,4.096806635814235,4.418944736390861,-0.9388960453262921,-0.6958311903171122,0.955963972344783,-1.4257216847745422,1,right
13.298,-1.1044823957461065,1.279047057036815,0.09252462451695552,4.063898017621168,4.38917896815461,-0.9123292841746081,-0.6912011897520834,1.1846732959249242,-1.4842125782574622,1,right
13.300999999999998,-1.0632968059719308,1.27973271310904,0.0838952481506683,4.144547491446835,4.462085777261372,-0.9776589913779093,-0.6947115725386047,1.0112784415136853,-1.439867734717072,1,right
13.302,-0.9855510621801045,1.2677657929200472,0.08573587080803344,4.010910472862964,4.341276087022569,-0.8693338591213122,-0.6925946686080747,1.1158333911426408,-1.466620490199685,1,right
13.307,-0.9233987418071924,1.2572172864137563,0.08976273707526664,4.187145542827601,4.500609278428032,-1.0122115817868598,-0.6934549134193237,1.0733553899725026,-1.4557145701855938,1,right
13.308,-0.9067050767597844,1.254645876246078,0.09009987858074692,4.927946187884659,5.1699820299682075,-1.6119894689069172,-0.6934695316460917,1.0726195035830561,-1.4556074919542135,1,right
13.309000000000001,-0.8430647074271829,1.241928186761289,0.09387709677176473,5.1042315836364995,5.329351388086561,-1.7548665187082828,-0.693014330363011,1.0951153738477757,-1.4612479415635988,1,right
13.312000000000001,-0.7492215559406827,1.2263459174149371,0.1015146547440241,4.9704341388767785,5.208465792439814,-1.6465300613752163,-0.6935589041653174,1.068208913387854,-1.45447771983959,1,right
13.312999999999999,-0.6790571715415996,1.2122050711744259,0.10602890065604012,5.051438277182909,5.2814879785841615,-1.7119027377555254,-0.6931360234422936,1.089099505582936,-1.4597735397324711,1,right
13.315999999999999,-0.6118730976762503,1.1923828698048826,0.10627076194687748,5.017936403723111,5.251583465815716,-1.6852455474623804,-0.6933601553573607,1.0780319227574835,-1.456845408949853,1,right
13.317,-0.553923834705274,1.1761356873506008,0.10361088555685596,5.018418875550626,5.251498896097312,-1.6849736057753946,-0.6933181269623905,1.080097771329478,-1.4576849121111732,1,right
13.321,-0.5053420458849869,1.1635748928014553,0.09771188979102591,5.034701722198957,5.266726382226215,-1.698810382821419,-0.6932408718641236,1.0839305126491463,-1.4581300063248657,1,right
13.322000000000001,-0.4588139940680337,1.1500133259707486,0.08875920354005881,5.014482193040554,5.248234522686969,-1.6821562673755457,-0.6933659913983752,1.0777297202838525,-1.4572004887992653,1,right
13.327,-0.4155679746334733,1.1372717031767698,0.07649547171254029,5.031325918010651,5.263018057577449,-1.6952504852129167,-0.6932515902235624,1.0833980194802146,-1.458127096995463,1,right
13.329,-0.3729546181867852,1.1255115211191538,0.07029755865336837,5.020137802229754,5.254314660157274,-1.6879506732871676,-0.6933169105947689,1.080168179722261,-1.457296064870703,1,right
13.331,-0.3345525007820361,1.1140790233731466,0.07795902271440452,5.026469684102166,5.257614465416772,-1.690047592871637,-0.6933192550264822,1.0800286005676407,-1.4582318651561852,1,right
13.332,-0.30450165017301456,1.101733321067979,0.09099868460252192,5.023425600635253,5.25783489229101,-1.6912996271427219,-0.6932486221863527,1.0835779637586525,-1.4569198904892176,1,right
13.338,-0.2834665110427215,1.0874545868916812,0.10881790415487255,5.023708725050093,5.255722271631496,-1.6885662340869492,-0.6933695525251662,1.0775094723938397,-1.458679112300315,1,right
13.339,-0.27179351654470946,1.070675154296066,0.126193295885756,5.027472018042639,5.2591024787622604,-1.691588393929523,-0.6932378536302078,1.0841223840798428,-1.4568406799388414,1,right
13.34,-0.27012203960356895,1.0529393501537148,0.13114401345070337,5.017082212074708,5.2541066445526745,-1.6886679783495686,-0.6933183279571922,1.0800743671619655,-1.457844581451002,1,right
13.341,-0.2735328135862337,1.0331518251761183,0.13248136036186967,5.036211265496932,5.261352646872024,-1.6916041612789656,-0.6933655949681523,1.077710648361896,-1.4589987521826502,1,right
13.345,-0.28096008651538706,1.0108073491437408,0.12879711815016892,5.009299203088691,5.252012112492317,-1.6885402520298467,-0.6931228897100332,1.089897374189037,-1.4544204350945367,1,right
13.345999999999998,-0.29298935405299475,0.9894035828664296,0.11745814318295543,5.037393876375458,5.26143148417003,-1.6913247735115609,-0.6935790931401031,1.066965309832359,-1.4628254221372479,1,right
13.35,-0.30774585531191734,0.9691233708710317,0.1100368531276847,5.021558136975153,5.256349721175127,-1.6900388449816282,-0.6929924445714117,1.096484543092676,-1.4520524743560872,1,right
13.350999999999999,-0.3257754501695189,0.9521853224905494,0.10323421764616854,5.0066723684308885,5.250847787671349,-1.6879262113482962,-0.6934818299675358,1.071812216625649,-1.4610380031575798,1,right
13.355,-0.34443983118050503,0.9399956590574529,0.09484308347359888,5.069542151498895,5.272857717083409,-1.69531961253475,-0.693468596083758,1.0725912213678088,-1.460825731196639,1,right
13.356,-0.3597873069744608,0.929528219635469,0.08653945570086916,4.953485884883648,5.232529393057559,-1.6820461220773626,-0.6925373653440392,1.1192674433552874,-1.4435916832822506,1,right
13.362,-0.37259054970225536,0.9228253761421774,0.07752311925895944,5.102317165337618,5.2841360310930785,-1.698932260066766,-0.694824417632826,1.0044156860516613,-1.4859134798813458,1,right
13.363,-0.3896486627399986,0.9201684062873166,0.07073004571506544,4.978141414352665,5.241127813479418,-1.6849013886687232,-0.6910347351849274,1.1948739808352213,-1.415752631219806,1,right
13.365,-0.4055846639590648,0.9186807284664334,0.0666808633738305,4.98139037646982,5.242174594685881,-1.6851787641191927,-0.6960310420165032,0.9436626194132478,-1.508292515504178,1,right
13.365,-0.4107577678411121,0.918508356600019,0.0654267228473855,5.21847033685379,5.324493852537125,-1.7122052507020014,-0.717068873813228,-0.11076689405833057,-1.8968062102597418,1,right
13.366,-0.42231548823623455,0.9174115524091329,0.06299271685774199,4.635910355025041,5.1223344206546155,-1.6459253453607015,-0.7220674126176712,-0.3619683491759397,-1.9893512087177432,1,right
13.372,-0.4485081991528166,0.9170980123789032,0.05800871895855873,5.601774850872811,5.457457276613091,-1.755764898639384,-0.718266566497126,-0.17150370920263244,-1.9191802741567505,1,right
13.373,-0.4640236060334808,0.9190123602333484,0.055502793548842536,4.327806686690083,5.015458785102437,-1.6109069117737538,-0.7205836889094319,-0.2864199810605344,-1.9615160920837507,1,right
13.376,-0.46990197166292724,0.9194456785551095,0.05566436280563554,-1.019494596084268,3.1600389189435476,-1.0027931428335215,-0.7195965825092807,-0.2395836074067672,-1.9442671534532585,1,right
13.377,-0.49003187786730784,0.9212957158076797,0.05818391595359919,-2.2934983096845576,2.7180507769182545,-0.8579376451638532,-0.7196608925261518,-0.23906594942494247,-1.9440647112065157,1,right
13.377,-0.5160726676372929,0.9255215724393601,0.06235639807581486,-1.3276100296348887,3.0531491717041552,-0.9677626208599257,-0.7200732654605531,-0.2634302002850103,-1.9530539273798222,1,right
13.379000000000001,-0.5375278141515535,0.9277422796494621,0.06422520003836227,-1.9101033934494323,2.851032461474416,-0.9015237862149594,-0.7195206240891746,-0.23413450332955324,-1.9422550974221335,1,right
13.38,-0.5546058794883814,0.9262645156247921,0.06494679026424818,-1.6732581972698537,2.9332920077008735,-0.928472423319862,-0.7200414111868763,-0.2571246942267801,-1.9507124958100923,1,right
13.384,-0.5638485097041859,0.9233171006348642,0.06855311125945437,-1.6695757143036778,2.9344025613173037,-0.9288593255690445,-0.7195868764376098,-0.24438983032900563,-1.946061368941205,1,right
13.385,-0.5690109269536909,0.9206338587068725,0.07886064395388556,-1.7943157193384498,2.891354710248392,-0.9147178312943086,-0.7200023164742401,-0.24790647927522239,-1.947286583525598,1,right
13.389000000000001,-0.5693775554872726,0.9155913334367403,0.09670373867216227,-1.6449941661100516,2.9429361079643193,-0.9316561483558766,-0.7196267851765945,-0.25031583533419677,-1.9482608942268413,1,right
13.39,-0.5685969683702519,0.9080717414816512,0.11559437962486527,-1.7611290059877023,2.902738832874398,-0.9184678068011881,-0.71986527632363,-0.24534449250795495,-1.9463601952429381,1,right
13.395,-0.5719319501167357,0.898125666792663,0.13197932893488773,-1.6989866209090487,2.9244935636644493,-0.92556831984048,-0.7199741279520047,-0.2506562992064931,-1.9483163542775075,1,right
13.395999999999999,-0.5719281944882895,0.8842689544937549,0.14054084260216326,-1.7120563565894273,2.9193373687638724,-0.9239723652673418,-0.7192516805466329,-0.24582914156391625,-1.9466670010077238,1,right
13.4,-0.5722797553125849,0.8680836048415579,0.13881532698140028,-1.7307219397417752,2.9139303052100742,-0.9220384781821901,-0.7207717334063789,-0.25028926078614955,-1.9480154550893887,1,right
