time,gFx,gFy,gFz,ax,ay,az,wx,wy,wz,subject_number,foot
4.365,1.7636321741208665,1.1701239647290107,-0.24617950198044414,5.075334614009005,1.4195148888309626,0.4520989784988632,0.08724710518090249,-1.1091107793500896,0.23823944717433604,4,left
4.3660000000000005,1.5355970688318223,1.2916008689191452,-0.18760143127438195,5.165296994386706,1.49977496341716,0.4405163405821843,0.08651314555377762,-1.1019027229699505,0.24030741321684423,4,left
4.37,1.2920262239579472,1.410191344137846,-0.1496889766220417,5.0575634103048515,1.4037390914605288,0.4544134388791419,0.08718194579438769,-1.1084558120241141,0.23827944835660728,4,left
4.371,1.0456450558489234,1.5095247286929654,-0.12439765614991542,5.141422205549844,1.4783575640603774,0.4435559280961382,0.08680956140396352,-1.1048651318113674,0.2399748957016839,4,left
4.375,0.8118749755786674,1.5918306067857535,-0.09213999006054463,5.096337205833175,1.4386648673793991,0.44951513987316416,0.08676547364919746,-1.104249846527745,0.23831769329661465,4,left
4.376,0.603304876485981,1.653378336234666,-0.050412164217176154,5.106323755099069,1.4464544196082438,0.44790889873420636,0.08723883091026577,-1.1092496617109746,0.24041700401507898,4,left
4.379,0.4247377206487083,1.6913139110687225,0.007707682934418714,5.118886622411834,1.4594631027059721,0.446803760932876,0.08644345688241939,-1.1009302395345997,0.23768963599815618,4,left
4.38,0.2791836474214311,1.699596664275033,0.08820469879655665,5.097438285643861,1.438143870730775,0.4489450302856385,0.08730788812891815,-1.1099589396572656,0.24052166057943214,4,left
4.3839999999999995,0.16830705742567356,1.6801637236479063,0.17936118451230385,5.117457249806586,1.457732918900105,0.4468580027823038,0.0867823266010746,-1.104489560218748,0.2390042076253833,4,left
4.385,0.08597235390786226,1.6385878134051735,0.27277327011479324,5.104426493149209,1.4461790707825943,0.4485570775024703,0.08645879255128676,-1.1010269912041544,0.23710742267584908,4,left
4.39,0.02653437220801755,1.5712647223022222,0.36272089593682566,5.109069733005975,1.446934041820862,0.44699574260547603,0.08808649734566922,-1.1182296354593042,0.24444497851563354,4,left
4.391,-0.01833208782107589,1.4848461677039497,0.44204335525744876,5.111467078896016,1.4567601465185003,0.4488722498753391,0.08502992738948023,-1.0859582606592688,0.23101133855764883,4,left
4.394,-0.05240336424878314,1.3828074680789704,0.5088200979806277,5.10477558905243,1.4393338217333376,0.44647780683506333,0.08896290104063617,-1.1274778788526403,0.24822180774664326,4,left
4.395,-0.0773085739510484,1.2763005986662481,0.5604254501382134,5.112488236765652,1.4584272940519885,0.44895525602096575,0.08567659022703222,-1.0927837558613307,0.23386933136537524,4,left
4.398,-0.09471284313572037,1.1676674240622362,0.5987776521249266,5.107116970181808,1.4465790975439252,0.44764219582520004,0.0857775077192825,-1.0938469623993328,0.23419751293368557,4,left
4.4,-0.10361857230118918,1.0609001593843481,0.6294942307073759,5.107021391104217,1.4404031313352927,0.44592247210321645,0.09200327829613446,-1.1595898056432365,0.2617628674397482,4,left
4.4030000000000005,-0.11033072311377076,0.9700195095104489,0.6495648227082768,5.114859964483942,1.474044370844752,0.45248771073912863,0.07668827568641474,-0.9978601335324522,0.19408133777784276,4,left
4.404,-0.1053604286837537,0.8738690641465425,0.6540212189657284,5.098986310572332,1.410459206168125,0.44048466503120953,0.10208292223441232,-1.2660461728686858,0.3062825681152552,4,left
4.408,-0.09121755989792675,0.8128343628645878,0.6503873051540721,5.119665691034963,1.4923793575074886,0.45586018331310807,0.06858988659608711,-0.9123164027814873,0.15829049947773738,4,left
4.409,-0.08848397423694188,0.7985400727707083,0.6490282481897678,5.102285608186954,1.4238704848801862,0.4430365873373544,-0.07199231559170989,0.5723278686637404,-0.4629876193320546,4,left
4.41,-0.06635017683095712,0.7469293276371699,0.6356601859669324,5.103209670462242,1.426162230776685,0.44333033352793005,-0.10547681167187035,0.9260183482146853,-0.6109891210095773,4,left
4.415,-0.022354348837729722,0.6860056951076693,0.6085437185878815,5.13484954041984,1.5553795671688777,0.4679639127629811,-0.0800946894426417,0.6578857773301012,-0.4987768786297551,4,left
4.416,0.021212981302794334,0.6546115725605115,0.5831299235843354,5.056559795489045,1.2372447710076855,0.4074741498375559,-0.09540157022282268,0.8195928014449494,-0.5664573819152068,4,left
4.419,0.09945871598766304,0.6278135601273652,0.5475343281260523,5.186488461877024,1.7648872390184462,0.5077619163331606,-0.08916914047403998,0.7537889715550948,-0.5389199950557921,4,left
4.42,0.15944621890963268,0.6181233357270841,0.5205318557100259,5.015123405405525,1.0688848632090577,0.3754727905901366,-0.08909857685810782,0.7529104458952184,-0.5385277050856464,4,left
4.4239999999999995,0.1748886818221514,0.6168355371151041,0.5134372338544569,4.296247427859944,-1.8515825805059727,-0.17976438193796646,-0.09232853548821107,0.7872969715535789,-0.5529752483992785,4,left
4.425,0.24436246436223852,0.6138207682856589,0.4853330197562592,4.124976069453544,-2.547592292497063,-0.31208051996377195,-0.08846770469926174,0.7461371232585591,-0.5356661794080173,4,left
4.426,0.3428584212611923,0.6205008310788844,0.4440395682437993,4.254803353437524,-2.0199418732561925,-0.21176352805723736,-0.09146338155008889,0.7781539719047861,-0.5491496671628882,4,left
4.428999999999999,0.42379268628397093,0.6364634597660002,0.40884622711592356,4.1764750779596955,-2.3380737000779037,-0.2722421752071097,-0.08984231526011097,0.7608711925029497,-0.5418799496135878,4,left
4.43,0.5133429890082837,0.6592555853530484,0.3681787899440254,4.208451165944398,-2.208882590388024,-0.2477055405413004,-0.09026245378925069,0.7649854969482377,-0.5435292562236291,4,left
4.433,0.5963227791071184,0.6844384284563473,0.32309292274953116,4.208651777793237,-2.206534346349736,-0.24720320652150135,-0.0905545896683399,0.7691084976250304,-0.5454895584108018,4,left
4.433,0.6738270970224727,0.7140036789089088,0.2730392685476784,4.192309003995636,-2.2751242803556844,-0.2603258745980004,-0.09004773381467862,0.7619693353756057,-0.5420965993778715,4,left
4.437,0.7525522672536233,0.7464906093525383,0.22005259172488512,4.211955406231836,-2.193123340712585,-0.24465254357056876,-0.09045184248140697,0.7684280922908024,-0.5452972279299577,4,left
4.438,0.8273570322871012,0.7757273690038966,0.17033512016488922,4.196527528087637,-2.256743490487689,-0.25678408875046177,-0.09021939130268782,0.7642269625648952,-0.5431421661746323,4,left
4.442,0.8993813899153404,0.8051479963274641,0.12709193066581176,4.205252982693006,-2.223171333480551,-0.2504745882090264,-0.09042901336395573,0.7664252167557677,-0.5440586683127775,4,left
4.444,0.9636888511361701,0.8351161979595041,0.09085323401937379,4.202300259107686,-2.229124264779938,-0.2513705141958076,-0.08997962355333292,0.7649189103620198,-0.5441647865928407,4,left
4.449,1.0238677506862413,0.8628306494072829,0.05868050934413255,4.201852115839666,-2.24135704412343,-0.25410300905021355,-0.09089249615719489,0.767156335463218,-0.5434178205548275,4,left
4.449,1.0759005841622238,0.8873613751406144,0.03391059870402757,4.203522704661944,-2.221791290357014,-0.24988356128677694,-0.08950414230247769,0.7635383410124503,-0.5444150393230383,4,left
4.453,1.1168170646666549,0.9099677285494068,0.01880169562464904,4.201648462483895,-2.2395945915421294,-0.2536668040453043,-0.09101932927994993,0.7677667852533843,-0.5435074291482644,4,left
4.454,1.149751466036987,0.9313981456184462,0.011941047344375825,4.204088216759484,-2.2297708086947843,-0.2518026863768808,-0.09014422921614806,0.7653274496897976,-0.5440334773004676,4,left
4.458,1.1649645116086407,0.9478612066046076,0.012405278174458863,4.199793112782865,-2.228318649134981,-0.25078674571390236,-0.08931187631205365,0.7624011632191778,-0.5441423162761002,4,left
4.459,1.1632453963828673,0.9610017629940987,0.01681507663121993,4.207190389728688,-2.241467687423292,-0.2549775788937081,-0.09285367959690025,0.7741421869621757,-0.5432199498701966,4,left
4.462,1.1495684005190765,0.9736768731064974,0.022847483262380258,4.196733288158864,-2.2194973652354992,-0.24827783972058207,-0.08629039469485676,0.7524210451801623,-0.5449525598504512,4,left
4.4639999999999995,1.1166315507195614,0.9845468594279493,0.035450084113341405,4.207774093522312,-2.2433569418948913,-0.25550344984570683,-0.09472443191354565,0.7803808147360884,-0.5427565449916039,4,left
4.467,1.0744374017959046,0.9918666113150424,0.05553794935022789,4.201563373625984,-2.2288773036829754,-0.25119651016604766,-0.08768036646125923,0.7570066747184181,-0.5445766211788816,4,left
4.468,1.0166404315230402,0.9978688449438086,0.07788332797039671,4.195370641173209,-2.219829610796542,-0.2481369997676874,-0.08786269174908981,0.7575548599309965,-0.5444916881049049,4,left
4.473,0.9443701019738633,1.0066180079619453,0.09913303975995053,4.221102395180457,-2.265049270271117,-0.2625965026282231,-0.10132970496961,0.8024884674957131,-0.5411743721131357,4,left
4.475,0.8762796112276181,1.0166550292398522,0.11763197543306347,4.173627238444833,-2.1801723619564797,-0.23558764077467734,-0.06823574049580627,0.6921094255869855,-0.5493543060008046,4,left
4.477,0.7837553793573904,1.0301850725816624,0.14083769564878126,4.234536464548455,-2.2893891472311925,-0.27031249247716294,-0.12310788564370423,0.8751297907821849,-0.5357948496300742,4,left
4.478,0.719036073300938,1.0405992713523269,0.15636290149643672,4.183702079487096,-2.1981123841569463,-0.241303560428798,-0.05072896303804593,0.6337091144340471,-0.553670729549028,4,left
4.478,0.7024456804549781,1.0440061495355732,0.15894994784833855,4.185007258252897,-2.20094811736391,-0.2421591389745971,0.2531265798088784,-0.37970893110313136,-0.6286322427196767,4,left
4.481,0.639357001845446,1.0556760305410853,0.17854297099615096,4.282184595398654,-2.3738069148804053,-0.2972452114253821,0.3255150722191186,-0.6211243084526524,-0.6464980133256458,4,left
4.482,0.5612542153976041,1.0731791504046084,0.20732571482335244,4.043404200100785,-1.9485008102835106,-0.16176468338349556,0.27062403735980906,-0.4381359372328737,-0.6329519969856819,4,left
4.486000000000001,0.4978189187950064,1.0874635231994763,0.2285202568039762,4.439311527998543,-2.653803294854284,-0.3864229646539262,0.30374429801164404,-0.5484241428300608,-0.6411272272370465,4,left
4.488,0.45019524817744416,1.0959404124813137,0.2424657940672114,3.9170887178583094,-1.7234859644002622,-0.09009318124474239,0.2902492990101049,-0.5036632823783949,-0.6377919029708419,4,left
4.493,0.44038481734132007,1.0975238080894463,0.24662572215195172,1.725227936626297,2.180789649536189,1.153593040521633,0.2900855484581209,-0.5028715159210471,-0.6377579251057965,4,left
4.494,0.4063014667787377,1.101046651477763,0.2593115643152306,1.202951621155603,3.111095139779616,1.4499232763042214,0.2971363184826148,-0.5264923460807003,-0.6394951665180314,4,left
4.495,0.3603579907822726,1.1045166268740187,0.2781510035584549,1.5989168551069355,2.4058054741276056,1.2252645042191175,0.2886539652223471,-0.49841501196067206,-0.637393850944922,4,left
4.498,0.3325837189850437,1.1042930353456522,0.29413730541492467,1.3601584174481238,2.8311164204844017,1.3607448509869662,0.2953154184346532,-0.5199490553335007,-0.6390629151850942,4,left
4.499,0.2944130768410259,1.1065989837362573,0.314088870325004,1.4571438531371486,2.658215192605044,1.3056603919989413,0.2916369438514116,-0.508856938217157,-0.6381115108647806,4,left
4.501,0.2594880723464131,1.1112623190140845,0.32712766240577695,1.4588620137973685,2.6554707955177417,1.3048013351722436,0.29260303577353297,-0.5106357505264087,-0.6384038040619686,4,left
4.502,0.22875433810116963,1.1136489093573374,0.3304644858090877,1.407435431100227,2.746616567633848,1.333815259743517,0.2934217321141328,-0.514516759361228,-0.6385627465572605,4,left
4.507,0.19916099410313762,1.1128575088568018,0.33061466525939787,1.4689344441532923,2.63753026385659,1.2990854298173853,0.2917908958729252,-0.5090881321525966,-0.638159759721231,4,left
4.508,0.17570499499601583,1.1120060253837911,0.3258615170275039,1.4212046535630705,2.7223507941238956,1.3260964521480472,0.2935477414712917,-0.5128118475572441,-0.6386740025517506,4,left
4.512,0.15555223466683732,1.1104918608220309,0.31226344248392324,1.4464303001869268,2.677019267694326,1.311641195421406,0.2920018867331827,-0.5125365438037336,-0.6381081522044253,4,left
4.512,0.1445733440921949,1.1061133422854361,0.28908046947919835,1.4418684797951125,2.686427622723999,1.314686978442586,0.29322757884271056,-0.5093438455079281,-0.6386857131743348,4,left
4.5169999999999995,0.14110894276695918,1.1003067843535987,0.26460112021846915,1.4328472899969413,2.7002856503868466,1.3190175990080588,0.2923969211768123,-0.5143346253817485,-0.6381874562146688,4,left
4.518,0.14563673905570979,1.0940265898060437,0.23921538011878196,1.447337607469097,2.677189131053905,1.311762896727619,0.2926338592940317,-0.510640681698547,-0.6384153313043819,4,left
4.521,0.15698823149812133,1.0864035456917995,0.20836951620243827,1.434129849853901,2.6985508303637835,1.3184858740344614,0.2933498939665715,-0.5091625294717732,-0.6387382936408041,4,left
4.522,0.17082476397988144,1.0779922670206625,0.1807985593481421,1.4415038528179722,2.685397005213434,1.3142951456049607,0.29129654221208745,-0.5192331926779366,-0.6375918898872335,4,left
4.525,0.19038115675030126,1.0685813386067253,0.15364450439932112,1.4423103987028938,2.6879771469012987,1.31526819718061,0.294789472676023,-0.4995070015810101,-0.6396400180400472,4,left
4.526,0.2123696550945886,1.0575070996878981,0.119984502763431,1.4330889379398046,2.695221960068218,1.3172305163401838,0.29044427778523463,-0.5253023834624038,-0.6370447842727691,4,left
4.531000000000001,0.22923582992723412,1.0488782522311633,0.09293759403817256,1.4486131389459986,2.681266988666159,1.313300624063177,0.2940118703252399,-0.5035678642054598,-0.6391963990429315,4,left
4.532,0.24429462700766225,1.0404461061361423,0.0702358848285418,1.431734357101631,2.696729197163518,1.3176765860854411,0.29396760755292073,-0.5043286793409034,-0.6391515659084942,4,left
4.535,0.261417575527619,1.0310522185814806,0.04896131545945369,1.4420077038440806,2.6868693540681425,1.3148533467353352,0.28706772227712696,-0.5454523168612777,-0.6350236902735392,4,left
4.5360000000000005,0.2782061142987918,1.0234378001768976,0.03700497035785946,1.4482857928578183,2.6829559938395224,1.3138801712370998,0.30393286665271285,-0.44406609824329607,-0.6451452985743692,4,left
4.542,0.29929429062688334,1.0130536044218883,0.02266806422754354,1.416588876738199,2.7075894695859555,1.3205298025014853,0.276014980452549,-0.6123169885028406,-0.6283752132415352,4,left
4.543,0.3150462724010291,1.0062333453746621,0.011922023368854028,1.4761346100976036,2.6605514287783603,1.3077666282163418,0.3128157914321131,-0.39032257568801126,-0.6504883283540772,4,left
4.546,0.3190641624085827,1.004161441181267,0.009008183503866674,1.3995014507150558,2.721254894685304,1.3242518514125106,0.4672876190862967,0.5415135310419071,-0.7433131754197881,4,left
4.546,0.3304489252050642,0.9982460839294498,-0.007123965734813792,1.463551840858413,2.6704528987481613,1.3104501253830563,0.5040742057300501,0.7635469944640942,-0.7654203960863105,4,left
4.547,0.3441653457657661,0.9887792864248168,-0.0288402892911502,1.461543931364651,2.672301612232303,1.3109737430144393,0.47618628600069257,0.5952092744374864,-0.7486614321769296,4,left
4.551,0.3507063979098384,0.9776140181350302,-0.043897996905682635,1.3403037465784424,2.7676182047328943,1.3367982361475717,0.49300565257441764,0.6967373262513241,-0.7587686625548027,4,left
4.552,0.3571702229734345,0.9663360873658309,-0.05744888254866867,1.638629549900271,2.5327820588829,1.2731483263739283,0.4861611605675794,0.655428304623576,-0.7546542744626374,4,left
4.556,0.360354193009317,0.9470855747959351,-0.06478464314513314,1.1438936720886252,2.922297511130493,1.3787278410041701,0.4860688213227725,0.6548488953852676,-0.7546035639530131,4,left
4.5569999999999995,0.36050347612414946,0.9307816485001057,-0.0651072876786639,1.7964766583578062,2.4085130958458634,1.2394660558396067,0.48964841654334534,0.6764974197589508,-0.756745077553372,4,left
4.559,0.36100828637906923,0.926415087875424,-0.06536162701747286,4.535312982492744,0.25257307422005537,0.6551277475978825,0.4853623762452532,0.6505702098462385,-0.7541830453379363,4,left
4.56,0.3602479612252597,0.9102566778694636,-0.06344228138430832,5.187941496138247,-0.2611698237391502,0.5158859906466098,0.4886977460757932,0.6707570769154579,-0.7561738730545875,4,left
4.56,0.35629291311803146,0.8900983029066291,-0.05934809848117118,4.693101728240573,0.12831369070178333,0.6214432914165058,0.48689782961193595,0.6598692195632165,-0.7550979806927851,4,left
4.565,0.3510091494575175,0.8767748931378198,-0.05947051228459442,4.991602306388701,-0.10658551897318369,0.5577870693006397,0.4873209049367893,0.6623790297006664,-0.755364166188943,4,left
4.566,0.3456828584192906,0.8600458859856174,-0.06363675499010998,4.87012657808498,-0.011025134747192855,0.5836794641372773,0.487765420392007,0.6652043257947452,-0.755593146854333,4,left
4.571000000000001,0.3372354272300314,0.8477873811514155,-0.07287292614025652,4.868358951119535,-0.00963764209351542,0.5840543257648957,0.48699574916605815,0.6603139208145926,-0.7551962719528551,4,left
4.571000000000001,0.32958964869132107,0.83848137425255,-0.08595088228502668,4.932278213134228,-0.059829044329375324,0.5704680129174995,0.48770089956288437,0.6648700641258195,-0.7555394762244918,4,left
4.575,0.3229048081021221,0.8269525466662012,-0.09297367317765386,4.85550906746191,0.00032973585383516343,0.5867360721918736,0.4872372853110486,0.6618328569829314,-0.7553250725085611,4,left
4.5760000000000005,0.3140404027065268,0.8183902806792902,-0.0905390972293828,4.915608512778429,-0.046590909218019595,0.5740715351077013,0.48746571393026455,0.6632095082541845,-0.7554629678424932,4,left
4.581,0.3086684866159207,0.8116455510973162,-0.08103907195204699,4.882887611404524,-0.021218648784099993,0.5808962754255096,0.4873585067737593,0.6630052312933115,-0.7552792611394181,4,left
4.582,0.3045127510692308,0.8061585689166562,-0.06886445891501522,4.890501915652411,-0.0270455678976441,0.5793394633590698,0.48747810422117815,0.6627153936197878,-0.7556236610797925,4,left
4.585,0.2976698595993123,0.803489529406983,-0.05956538277995415,4.899586663022456,-0.03387291054235111,0.5775329567852108,0.4872706137808507,0.662972018183155,-0.7550924418829309,4,left
4.586,0.29019679582969393,0.8027151854977224,-0.0528727774267118,4.8829842984583145,-0.021851413491013126,0.5806493470923368,0.4875303827500796,0.662931639954946,-0.7556818774044527,4,left
4.59,0.27841910083558846,0.8036262494074471,-0.04701236712243133,4.900053474049312,-0.03348275196481998,0.5777412439178291,0.48738078923980277,0.6629575155998144,-0.7553416746459609,4,left
4.59,0.2636200121438399,0.8070786629675134,-0.043887089471797494,4.886783509669488,-0.025251985579073044,0.5796721745417667,0.48716588494923974,0.6624624487241656,-0.7549965267859018,4,left
4.595,0.24774698132419956,0.8138889522883757,-0.0420154333581219,4.894039114737939,-0.029197518404339144,0.5788419223112202,0.48799491942433737,0.6639592131199223,-0.7564395748543871,4,left
4.596,0.22845128234002332,0.8254398381975576,-0.03641346879338685,4.894048778345706,-0.02919013860888013,0.578845848708488,0.48646322040450773,0.6612168741992579,-0.753767082834238,4,left
4.599,0.20916789361080845,0.8378714960328157,-0.03157375401276405,4.885907693642896,-0.026056217790028643,0.5792520724791141,0.48843687022170523,0.6647809566861806,-0.7572026303714037,4,left
4.6,0.19085060792989192,0.8479555253604841,-0.031366299401591205,4.90226580748805,-0.031448696432033935,0.5788036397593295,0.4867862712757959,0.6617861037492024,-0.7543330050631769,4,left
4.605,0.1744210146334979,0.8591653630053224,-0.032163907246054266,4.879712545773691,-0.02486097207994596,0.5790775117762694,0.48682114968080187,0.6618123838236174,-0.7544041337929719,4,left
4.606,0.16188421702685268,0.8682120853709233,-0.03398646616228058,4.902673368630234,-0.031031851159473718,0.5790167050077167,0.4900088337870891,0.6677559329673102,-0.7599017332457377,4,left
4.609,0.15148723038804401,0.8737622145105102,-0.03387313801337996,4.889752202845074,-0.027739189040614013,0.5789773923833799,0.4821823143828248,0.6531893976303653,-0.7463956886523913,4,left
4.61,0.14388826286756184,0.8805310359489169,-0.03475378823042499,4.878757741338915,-0.025011468000728086,0.5789150586617237,0.4951584822707608,0.6773447093287723,-0.7687879883327704,4,left
4.614,0.1408821067113554,0.8850321813549362,-0.04100505021046454,4.926459073452591,-0.03661660100635914,0.5792812639481603,0.4780420338383524,0.6454715063631036,-0.7392530966201828,4,left
4.614,0.13839211145882113,0.8856967735053791,-0.043240712005904486,4.838393797856453,-0.015409770693971866,0.578515396596744,0.4061582108034629,0.5115334556768496,-0.6152465324103775,4,left
4.615,0.13213060724863174,0.8843346392115713,-0.0402681681286158,4.951198960516422,-0.04242165584776828,0.5795594775812609,0.3890406021590823,0.47964205225634277,-0.5857126075241332,4,left
4.618,0.12866737153539687,0.8818392501265293,-0.03731927193078333,4.857143736100509,-0.01996887470115498,0.578659123944615,0.4020196947930111,0.5038271362845123,-0.6081048641961284,4,left
4.619,0.12851309538998887,0.8800855774736547,-0.029658780004857555,4.859706014757543,-0.020581170697728725,0.5786873124487029,0.394187739503702,0.4892323845318862,-0.594594868992081,4,left
4.625,0.12845879260957496,0.8756196138358898,-0.016635930505271707,5.038796844018883,-0.06321520682060118,0.5804402035031351,0.39738345055997404,0.4951842251630054,-0.6001032626148814,4,left
4.626,0.13322044782567843,0.8685991875910528,-0.0037313084686401337,4.598680364670063,0.0415051365935634,0.5761033599584495,0.3974092022926202,0.49524184216198747,-0.6001560595163019,4,left
4.631,0.1359105074712128,0.8641968871285495,0.011359992305395424,5.3283402637998805,-0.13205738892224486,0.5833191918898103,0.39576516848882326,0.49216268538144026,-0.5973088006560934,4,left
4.632,0.13386472001252486,0.8623710976276985,0.02275861630820086,4.365978917175009,0.09681818927444404,0.5737823650181575,0.3977404261455245,0.49585990020630527,-0.6007269696868619,4,left
4.633,0.13390484778680437,0.8613055163237047,0.025615129769887373,0.32670688294185135,1.0575923316166653,0.533920102076832,0.39619290690556,0.4929687804340091,-0.5980528880382789,4,left
4.6339999999999995,0.13068572427812236,0.859369880665888,0.032282308137339816,-0.6356003438814015,1.2864346548163628,0.5243797381527051,0.3970554173431528,0.49456169402465283,-0.5995318014459392,4,left
4.6339999999999995,0.12412543374860917,0.8568076509991207,0.04227639988048963,0.09396307487825789,1.1129056882305015,0.5315798245093422,0.3967926397575611,0.4941189668604658,-0.5991071472360113,4,left
4.64,0.119489874620466,0.8576488476984758,0.05064168143435906,-0.3460413388598459,1.2176482906752821,0.527313762591629,0.396691498658833,0.49384914719488954,-0.5988834884722031,4,left
4.641,0.1120750927303743,0.8598744937214666,0.05591864734456363,-0.16703322472300333,1.1748772275766002,0.52891103671674,0.39692793930097464,0.4943898511757311,-0.5993516055703928,4,left
4.643,0.10365035047189775,0.8592309581397242,0.05853961600671628,-0.16447799359016066,1.174547955069372,0.5291785745044932,0.39668508193193797,0.4938573550618423,-0.5988846842285867,4,left
4.644,0.09985089812505873,0.8604890861524797,0.06419984285404376,-0.25837497771524376,1.1966043855297657,0.5280114834880754,0.39692856503492824,0.494310434759814,-0.5993042785222783,4,left
4.649,0.09653807162458827,0.863733352895399,0.0663432516580271,-0.1459124385353654,1.1699753933566754,0.5292257006083054,0.3966021167731356,0.4938504374129091,-0.5988300969545817,4,left
4.65,0.09544447551580959,0.86544369069115,0.06418614507506766,-0.23348622212676395,1.1910388835417205,0.5285637167140451,0.39710621046460143,0.4944506434730254,-0.599496416749697,4,left
4.6530000000000005,0.09982489521148027,0.8679054567574022,0.057962889680873216,-0.186282593088622,1.179054601272373,0.5283753081628214,0.39641212572229073,0.49366333190424966,-0.598602302403556,4,left
4.654,0.10337347265044083,0.8720287845831516,0.04501245584488288,-0.19703606993730782,1.182916922584985,0.529396704401928,0.397141279390665,0.4944824685302903,-0.5995369046227074,4,left
4.658,0.10830372718547443,0.8778148567666713,0.03679619946714631,-0.20959928367230166,1.1843040285893518,0.5278891385553924,0.39673693335295307,0.49404091110152937,-0.5990261471909886,4,left
4.659,0.11569855308811436,0.8832235105019073,0.033376588369261925,-0.1878985246740814,1.180418953991142,0.5292063330376942,0.3963042384832334,0.4935030961954625,-0.598440700242054,4,left
4.663,0.11790737662858687,0.8889900456953744,0.02908158891986291,-0.2082216502462908,1.1852638219227347,0.5290151503835371,0.3980603133196126,0.4955995673570945,-0.600765493026044,4,left
4.665,0.11693755040429842,0.8980954417868476,0.025295716526923827,-0.19466383829084627,1.179671561110204,0.5271035439406284,0.39482835853862946,0.4917580265394036,-0.5964967652017563,4,left
4.667,0.1135368604754775,0.909398568622797,0.020162314936529306,-0.20047580462679937,1.1864648930827735,0.5317210668496065,0.3989729864088837,0.4966804254200101,-0.6019687631637343,4,left
4.668,0.10540465784266584,0.9224185849793678,0.015640526710383573,-0.2006698605783917,1.1784386699571059,0.5247448051097113,0.3955147639550435,0.49257501749881744,-0.5974037981378162,4,left
4.673,0.09597488225586567,0.936187542399739,0.013815576320839129,-0.19721963680182847,1.1862234755601557,0.5322138797272169,0.39560047129825426,0.4926703402578205,-0.5975136854384178,4,left
4.673,0.08902087725869615,0.9499313383497163,0.010647458734155102,-0.20138759690295646,1.1822424681404993,0.5278764236378457,0.4022212325624223,0.5005507049973867,-0.6062642132282728,4,left
4.677,0.08477454145033968,0.9607824158925576,0.004898316816998576,-0.19821992239957814,1.1772031581617743,0.5242053329691698,0.3859567928735736,0.48119998513108353,-0.5847713964379769,4,left
4.678,0.0776152134682262,0.9668252281166869,0.0039054732300623043,-0.1996114193535172,1.196291998157907,0.540397280767752,0.4129226852533058,0.5132801217706012,-0.6204051535116377,4,left
4.683,0.0716060115314906,0.9698620824002717,0.0066774301914804155,-0.19997658888729158,1.1615918845080935,0.510339115853796,0.3773534900054544,0.4709661995356569,-0.5734022328423687,4,left
4.684,0.06954662701729562,0.9696768471274698,0.006564150964761624,-0.1984473736714678,1.2058966256022707,0.548946683519735,0.22804795802911437,0.29333499861564116,-0.3761001846660418,4,left
4.685,0.06150691706581791,0.9693042580160879,0.012090467839570882,-0.20016988969345612,1.169014414680394,0.5167093463812071,0.19247368295247047,0.2510170126417018,-0.329088790609703,4,left
4.687,0.0489844515196977,0.9683617950654537,0.02027095273749486,-0.19943848587049628,1.1698508903279845,0.5175919765278205,0.2194469807430711,0.2831025037718648,-0.36473486986679227,4,left
4.688,0.03686311164493064,0.9643727993055092,0.02177911978725341,-0.19797735132831112,1.2406089280046464,0.5790361165312216,0.20317786835006676,0.26375006359348496,-0.3432343664022456,4,left
4.692,0.024464460589898977,0.959607180840341,0.02363993379421996,-0.20255493380634126,1.0669267490889909,0.42799750009134435,0.2097943413085,0.271622838047225,-0.3519775192535083,4,left
4.6930000000000005,0.01340778009407762,0.953925519212685,0.021275597412086424,-0.19459828654765954,1.354814131864722,0.6784351268656934,0.20989859009592748,0.271739164720606,-0.35211866365625977,4,left
4.696000000000001,0.008461028078201696,0.950168626725382,0.013644470381217808,-0.20521928258782773,0.9751204744479831,0.3481027819764326,0.20640632534160597,0.26759990050302707,-0.34749656127988815,4,left
4.697,0.007855219345497514,0.9487821498061665,0.011789805074530129,-0.2493845132975237,-0.6187185522885928,-1.0384000170430983,0.2105941680258115,0.2725606862338664,-0.3530408470490495,4,left
4.698,0.0016771361970626267,0.94636563033574,0.01499937579281254,-0.2600112625238331,-0.9984141163549467,-1.3687414220043737,0.207326266807255,0.26869390404227944,-0.34871234637783216,4,left
4.7010000000000005,-0.004248252441982833,0.9439141688821917,0.020453983262395507,-0.2519683443779194,-0.7105437071525346,-1.1182931994469172,0.2090850978876721,0.2707774094554942,-0.35104092761801864,4,left
4.702,-0.003043860086381347,0.94168209701347,0.02391824774995252,-0.25682708562452305,-0.884157673908363,-1.2693308978913653,0.2087121025199682,0.2703157613746115,-0.350556577269164,4,left
4.707,-0.0013578876767555233,0.9396193085179958,0.020904309348423637,-0.2548020818492328,-0.8135454874739592,-1.2079134799405495,0.2081659658846418,0.2697234391115886,-0.3498073154265637,4,left
4.708,0.002263490247340889,0.9390247676684862,0.01135096121092641,-0.2548934215917068,-0.8124880605145968,-1.2069694836004001,0.20911045936592262,0.2707483327712256,-0.35110290043433556,4,left
4.712,0.011437889825812269,0.9425293951180276,0.0015656079787227293,-0.2557489224269368,-0.8496127212681478,-1.239297906029875,0.20818297560147725,0.26976602156552715,-0.3498190239114932,4,left
4.713,0.022143793140821197,0.9482770180856283,-0.0012499710668244304,-0.25469256734414275,-0.8051594200630847,-1.2005957659619704,0.20882703667650498,0.27043574446771484,-0.35071655157193526,4,left
4.716,0.03290233242409066,0.9528154816349907,-0.0048438295638821025,-0.25557886032281485,-0.8397511800998014,-1.2307019244058863,0.20860790892732706,0.270174182003158,-0.350427389719144,4,left
4.717,0.046400073107852685,0.9582995469648804,-0.012166258236390122,-0.25489338163116454,-0.8211872862794791,-1.214574625828475,0.20834837115382435,0.27004447414648136,-0.3499983019471863,4,left
4.721,0.061085513311431,0.964703652165869,-0.018359476415976916,-0.2555415907310178,-0.8252192377903644,-1.2180089720732477,0.20906269200224675,0.27048511464551456,-0.35113905969611114,4,left
4.7219999999999995,0.07470549810695282,0.970428717225993,-0.02779130499736545,-0.2547666166216407,-0.8305478488136835,-1.2227705238386068,0.20802522073214935,0.2698612517392077,-0.3494744752961585,4,left
4.726,0.08884839913247522,0.973258658195488,-0.038404738629766115,-0.25564932400312235,-0.8215214028404099,-1.2147637984644601,0.2090938162268946,0.27048185342341813,-0.3511995725755698,4,left
4.726,0.10394675696505361,0.9730832151268709,-0.04522818881252837,-0.2549787338935219,-0.8299216262994268,-1.2221943691056798,0.20847599814834228,0.2701228069839959,-0.35020230527081286,4,left
4.731,0.11930394998317415,0.971575362409965,-0.05030771910158412,-0.25482027771339444,-0.8245496688860803,-1.2175217973392962,0.20802623235496018,0.26991182791480867,-0.3494520633851147,4,left
4.732,0.13381215181636186,0.9671686859696677,-0.04951618055959964,-0.25654803573530116,-0.8261942915860112,-1.2187259211257953,0.21010177538991012,0.2709626827831494,-0.3528770745936721,4,left
4.737,0.14688846783852094,0.9616509855533261,-0.043373220997128994,-0.2527492879140123,-0.8278001018468403,-1.2206410843013988,0.20624737814854074,0.26900756294277295,-0.3465183781579132,4,left
4.738,0.1590101969834654,0.9560150147849212,-0.03861012430801429,-0.25838079967916383,-0.82411980407583,-1.2166662222464886,0.21118967758318843,0.2715097972952666,-0.3546740937787033,4,left
4.74,0.1712794313705922,0.9493866446157591,-0.02790198003504688,-0.25238391463185617,-0.8282822263254359,-1.221111755611818,0.20706684016985588,0.2694246379317191,-0.3478695654384163,4,left
4.7410000000000005,0.18444773082858368,0.9431756656778881,-0.011403813052237541,-0.2558384842646201,-0.8254995639054068,-1.2182141883550233,0.20718685541416904,0.2694911633094592,-0.34806491721811494,4,left
4.745,0.19591193903583276,0.9376849053635119,-0.0020226801162908665,-0.258868600664499,-0.8249717400788943,-1.217345458773842,0.21501187156785107,0.27342365448675165,-0.3609915433020314,4,left
4.746,0.20383624761705235,0.934129234950027,-0.0017256703505880507,-0.24569256478965698,-0.8303437740573127,-1.223814228374685,0.19577278965335465,0.26375066710651374,-0.32921130680289085,4,left
4.752,0.21090726005067195,0.933393115112421,-0.005798736758189408,-0.2701124615192964,-0.8198290287725802,-1.2113361929816158,0.22767135005241676,0.279788056477482,-0.3819033946609307,4,left
4.753,0.21545633248841795,0.9341340404933265,-0.007089702943743451,-0.23875931784427754,-0.8334538412846535,-1.2274671135723687,0.18559899826827153,0.2586370012530296,-0.3124052374013173,4,left
4.753,0.21449727058078044,0.9351050767146414,-0.006910099132740583,-0.2649334488009305,-0.8220299598733112,-1.2139556424764648,0.009001269325404473,0.16986293484682974,-0.020694722868186466,4,left
4.755,0.2154733569208841,0.9366720603351362,-0.006070800832923632,-0.2642295767523648,-0.8225295002234077,-1.2144910528931068,-0.03307283299037496,0.1487114242099697,0.04880407321826279,4,left
4.756,0.21830087314801064,0.9391498927629689,0.001925566645437637,-0.21430501840754335,-0.8436859893688906,-1.2396997437776907,-0.001168405117179059,0.1647522530430428,-0.003892124292829484,4,left
4.761,0.22175284094331332,0.9401184704421964,0.011443343952366462,-0.33700880479392825,-0.7914637090060077,-1.177538221420972,-0.02042084103137321,0.1550690156059486,0.027899957740413123,4,left
4.762,0.2338030649945443,0.9385340664399081,0.023706118458827474,-0.13356067285194861,-0.8781054406115162,-1.2806588543605526,-0.012573091550185517,0.15902139035294283,0.01495066148971733,4,left
4.765,0.24168381921985677,0.9376739107150021,0.03517808821077249,-0.4019089138147024,-0.763824565296936,-1.144636149651347,-0.012482606179585399,0.1590595085326115,0.014787411323196355,4,left
4.766,0.2437164681893085,0.9368771170476106,0.0380384488024145,-1.5282900924916154,-0.28436606820344,-0.5739590273100323,-0.016578621716266357,0.15700357152218386,0.021559262606066106,4,left
4.766,0.2535789598943994,0.9329101596044933,0.04877594479430574,-1.7966415285687216,-0.17011528201081644,-0.4379518166716392,-0.011643649673312103,0.159491079132688,0.013419412864272779,4,left
4.77,0.2613881247674654,0.9296421382581088,0.0633420111280638,-1.5931899266496128,-0.2567244601153162,-0.5410556845295587,-0.015530872742443587,0.15751562744831352,0.019802222119705632,4,left
4.77,0.2704179689076156,0.9301001727772918,0.06525070852829701,-1.715892444570072,-0.20448979487166222,-0.4788877918139832,-0.013366120494916972,0.158640613367063,0.016292257652904416,4,left
4.775,0.2840795881334871,0.931933421771481,0.059725955445294125,-1.6659792576385803,-0.22575427717967025,-0.5041520779769719,-0.013960586934447535,0.15829663239125802,0.017193425072604553,4,left
4.776,0.2930235595800037,0.9317755760868089,0.050427898256087456,-1.6652508547997418,-0.22602146140896245,-0.5045678608238893,-0.014410100028293642,0.1581066679131529,0.01800034629942701,4,left
4.78,0.3082474763626043,0.9291710994875793,0.04263595461363741,-1.6914602089771797,-0.2149307276817672,-0.49122791724074427,-0.013461958560673379,0.15858362586791758,0.01643476691209228,4,left
4.781000000000001,0.32901603895845694,0.9277024519987569,0.03944983451835773,-1.660071926566921,-0.22822379943025994,-0.507188024917014,-0.014532137826908164,0.15797877154941115,0.01808297261259657,4,left
4.785,0.3472736087333693,0.9254502207710065,0.035565260797651405,-1.684507103403094,-0.2178521852198786,-0.4947837057039196,-0.013521507723986465,0.15863966713789585,0.016686766026672226,4,left
4.7860000000000005,0.367537560418977,0.9221251783595728,0.035645851794102006,-1.6713609687735351,-0.2235091094427571,-0.5013991230900241,-0.014401247810621909,0.15796936085127078,0.017732421442801807,4,left
4.789,0.38436671595668104,0.9230895473056249,0.04938919937800293,-1.6742942957264906,-0.22206361137165798,-0.5000579469756987,-0.013740029803032235,0.1585449132444941,0.017074612953909732,4,left
4.79,0.39535692505233677,0.9279234871208261,0.07076203933357489,-1.6779159040343,-0.22086211934394187,-0.49797445507464566,-0.013980859729580733,0.1582832908962084,0.01722145800299181,4,left
4.794,0.40294549250106304,0.9361934184119594,0.08659340854355084,-1.671713737675509,-0.2230840712420737,-0.5014208818500098,-0.014485877111286391,0.15790843454270875,0.017839200744908693,4,left
4.795,0.40430373604214054,0.9476081808938962,0.0968094934369747,-1.6775093324864252,-0.22095077675538197,-0.4982426035287943,-0.012903490024089363,0.15923377003341888,0.01617244336227868,4,left
4.7989999999999995,0.40118046031527943,0.9627360554821869,0.10278524614422305,-1.6737110731190923,-0.22257045032071027,-0.5001647557407984,-0.015654997626972988,0.15686777389980247,0.01896120762426457,4,left
4.8,0.39424137228516654,0.9837778824603419,0.10227405286761271,-1.67513657100297,-0.22134406687381647,-0.4998908825408636,-0.012203182256569934,0.1598651477096364,0.015514413468984883,4,left
4.803999999999999,0.38398722795372897,1.0043836166122078,0.09954244974587048,-1.675670644594387,-0.22253317377146017,-0.49859622444880863,-0.015050138621888153,0.15738003646434634,0.01833465129556385,4,left
4.803999999999999,0.37326279287327374,1.0219286706302735,0.09794403012621838,-1.6739655012397388,-0.22114546659141518,-0.5009873374099795,-0.015003307404199497,0.157432669597655,0.018307895570569836,4,left
4.809,0.3631047263513575,1.0390200688159015,0.09068682868444917,-1.675952789331951,-0.22255305226895683,-0.49835298850113574,-0.009518637426485836,0.16219812523603952,0.012838445247303288,4,left
4.81,0.3505804502470582,1.0560739385877431,0.07606660616015834,-1.6745366667695607,-0.2218531836294599,-0.5000100879714584,-0.022945052780340293,0.1505113374221494,0.0261928103717008,4,left
4.815,0.33125888264550357,1.0751375553780649,0.06704436571325484,-1.6746413339842103,-0.22068740056575628,-0.500769194619131,-0.0007094724423736586,0.16987634867090307,0.00409312243613379,4,left
4.816,0.3184585317742565,1.0872351838860062,0.06566756888134362,-1.6763539426566332,-0.22486910619119355,-0.49635187601767344,-0.030025211699220847,0.14433959599981733,0.0332217647106459,4,left
4.819,0.31586681739338673,1.089925671014519,0.06652207674540052,-1.6727848243844328,-0.21727982371766197,-0.5047409698437628,-0.15307652030196636,0.03715999314011613,0.15548082278370634,4,left
4.82,0.30596415848922276,1.0964991076276642,0.07251710935145168,-1.6774577426013402,-0.22698814161873573,-0.4939254172088978,-0.1823848974246735,0.011625464375300877,0.1845981825249751,4,left
4.821000000000001,0.29473771975171004,1.1042414165676413,0.0807276310848153,-1.6735175303153156,-0.21889732888312352,-0.5029714752826042,-0.16016530248964755,0.030984037389877064,0.1625239496271379,4,left
4.824,0.28818297002794324,1.1062757124056177,0.08761250361729549,-1.6737687929299079,-0.21906055216208306,-0.5026606522255429,-0.17356634002001597,0.01931061632701501,0.17583603233410752,4,left
4.825,0.2806548226777001,1.1063120227805467,0.09508840176678016,-1.6808145301256667,-0.23467292945891874,-0.4856306651341827,-0.16811381282439603,0.024054609730764735,0.1704228313496488,4,left
4.829,0.27739051401011067,1.1031524334789569,0.10055385834892508,-1.6633202654766654,-0.19636363026388892,-0.5275636990520935,-0.16803694642111683,0.024133751793074563,0.1703396758797471,4,left
4.83,0.27590922193176837,1.09467216083178,0.10167892625333719,-1.692378748147278,-0.25986749922776675,-0.45801986140010476,-0.17089564493898668,0.021626379485994617,0.1731890393311129,4,left
4.835,0.2730856872216064,1.0889652144849082,0.1015805356282054,-1.6540393919924918,-0.17610538470574683,-0.5497464050072096,-0.16747125924168427,0.02462625172400922,0.1697778671963242,4,left
4.835,0.27398145555374126,1.0872683906147178,0.10021082332207387,-1.4935545339859893,0.17550324024065006,-0.9347561243998175,-0.17013828636013964,0.02229570016922073,0.1724312610948613,4,left
4.836,0.2806483372976558,1.0784474760845382,0.09751155598472669,-1.455241839049813,0.25927041859632227,-1.026476965519017,-0.16869972951184803,0.023534737052272214,0.17101041169036427,4,left
4.8389999999999995,0.29235160006582883,1.0647127050985645,0.09806391559041758,-1.4842395918496138,0.19576921116498197,-0.9569284904093248,-0.169029414065904,0.0232930871844252,0.17131172874284606,4,left
4.841,0.3084081521328427,1.050637019458704,0.10157458389145757,-1.4668472908776047,0.23404759357639054,-0.9989021501690247,-0.16940882779795613,0.022884155840476997,0.17173367167481432,4,left
4.843999999999999,0.3298637956582622,1.0326490366930585,0.10515202647046412,-1.473755886271075,0.21851283188263337,-0.9817727810496166,-0.1687512571540886,0.023553152632343286,0.1710252190317507,4,left
4.843999999999999,0.3546557970731046,1.014839649119152,0.1095766551590851,-1.4741466853743432,0.2182223197693826,-0.9816230699833316,-0.16936841700069186,0.022938899310085803,0.17168230578544502,4,left
4.848,0.38090933062217003,0.999412506226398,0.11401550402992858,-1.4701309341352595,0.22646384588173232,-0.9904803351211301,-0.1689535215701775,0.02329960995837494,0.17127057714317423,4,left
4.849,0.4097503583231068,0.9840786644592989,0.11290536269353925,-1.4747235264854064,0.2166451612448836,-0.9798000580017869,-0.16913834379470397,0.023280834673994354,0.17137244852097144,4,left
4.853,0.4381727986680614,0.971691467982532,0.10922963428489793,-1.4714779115951169,0.22420832073442903,-0.9882286871302499,-0.16912997917357048,0.022963170625922635,0.1715508612821362,4,left
4.854,0.4619051045695244,0.9628751133896843,0.11197648972788077,-1.472593931880859,0.22029131227892357,-0.9834696115806374,-0.16904331959335755,0.023523357389474597,0.17118625319076095,4,left
4.859,0.4810349340469291,0.9542360551186211,0.11211950357273809,-1.4734753495540158,0.22089676679332626,-0.9849415034121581,-0.1691541361171378,0.02291021569500528,0.1715932094048032,4,left
4.86,0.49908298996784,0.9491477501492915,0.10094265272499933,-1.4713709105387798,0.22239614006491404,-0.9855907823129632,-0.1690609953098593,0.023289701713759048,0.1713292129270549,4,left
4.865,0.5154647171791844,0.9518943106674161,0.08552620032348732,-1.4735125303998924,0.2201836279105856,-0.9839592676760052,-0.16912500283525184,0.02349158090438446,0.17124479250040603,4,left
4.8660000000000005,0.5278160543730868,0.9582384006840736,0.0667383028600648,-1.4727159080478591,0.2219496948990337,-0.9859005229127249,-0.16908098997121224,0.02240333702473661,0.17184840586785446,4,left
4.867,0.5399523082774758,0.9669416120404642,0.05128307059400739,-1.4708830036360936,0.22137033655571897,-0.9837968188868631,-0.1691200809660554,0.02445814365211052,0.1706869155942998,4,left
4.868,0.5518703035722807,0.979766854890605,0.04194406816296857,-1.476071959673436,0.22050329717391393,-0.9862048609448932,-0.16907931460590134,0.021811857936583932,0.17218752796495995,4,left
4.873,0.5585792238937362,0.9928593157251767,0.025752608293317977,-1.4679790889697206,0.2225683965435069,-0.9834575214271486,-0.16910968756521477,0.024023713938500287,0.1709313441290149,4,left
4.873,0.560425353440913,1.0060404949242163,0.019955529510134882,-1.476734618074878,0.22008463744565793,-0.9860770228220431,-0.16912323763725673,0.02395267838249502,0.17097906956276715,4,left
4.878,0.5633959906733624,1.0181649016746324,0.0372993205127967,-1.4715900346628552,0.22170897730432104,-0.9847708627427931,-0.1690177264080588,0.01977333846688862,0.17332840113417106,4,left
4.879,0.5692628632525087,1.0275319035695882,0.0635356000899557,-1.4674217153369145,0.22252092593966433,-0.9830000962829082,-0.16926055353099334,0.030057287054755542,0.1675387518638678,4,left
4.882,0.5732222246008973,1.0388003293387562,0.09822387787134054,-1.4861550189704142,0.21788224182642163,-0.9895601665534528,-0.16886167557738693,0.013004848848244249,0.17714112282459932,4,left
4.883,0.5753942494709228,1.0454625052422353,0.12285814441679105,-1.451298991233678,0.22674098867539166,-0.9776755674316646,-0.16938821996028108,0.035494468443937686,0.16447691989650942,4,left
4.888,0.5757531678484565,1.0475476001020922,0.12727394772871067,-1.4960958337640484,0.21527377148279225,-0.9928345905684539,-0.17161079635655252,0.12990746761306227,0.11132166400538164,4,left
4.888999999999999,0.5692787730440464,1.0550449725579985,0.13191626551796226,-1.4586825716250909,0.22488577663305392,-0.9802220286722609,-0.1721405009066525,0.15239086782678885,0.09866201042288988,4,left
4.888999999999999,0.552051192042911,1.065774727793055,0.13867516105698194,-1.4597153337040756,0.22456649055181382,-0.9804971043880699,-0.17173820322539568,0.13534515818790782,0.10825945834164093,4,left
4.8919999999999995,0.5302413494789568,1.079396107049696,0.1398434534193958,-1.5309993934155535,0.20639587938267692,-1.0047229910959976,-0.17197973220377852,0.14563166741655537,0.10246794040174634,4,left
4.8919999999999995,0.5085991979990521,1.095194540093678,0.13050863395584833,-1.355767101805037,0.2511418938790122,-0.945274819443434,-0.171885557799328,0.1414300040085159,0.10483359209361082,4,left
4.897,0.47806484467517046,1.1133780329509038,0.12184842356665826,-1.646313882648879,0.17691976745042023,-1.0438060644362128,-0.1718747121835446,0.14140699830503617,0.10484619812228606,4,left
4.898,0.4556638070140463,1.1278431700649498,0.12327526953406438,-1.2630901206628815,0.2748286280619777,-0.9138574565359578,-0.17194006607357065,0.14354999081333733,0.10364037207458002,4,left
4.9030000000000005,0.4511681876672111,1.132760999911735,0.12633237801480557,0.34559584908132607,0.6857720478039728,-0.3683421352410442,-0.17186446292793656,0.14097227680599173,0.10509083399090224,4,left
4.9030000000000005,0.4364527874445701,1.1418712726308198,0.13219413481466652,0.7288019208625871,0.7836803009302282,-0.23839654947157635,-0.17191859106852964,0.14299749965106404,0.10395099126519258,4,left
4.904,0.41669494933339796,1.154697665660755,0.13487039744243062,0.43827110404600944,0.7094518575431474,-0.3369168946731886,-0.17190447978386508,0.1418503640537796,0.10459764969973401,4,left
4.909,0.40341386475379226,1.164764051107332,0.13001994810151096,0.6135219231803019,0.7542228248796303,-0.2774945052486169,-0.17187214345609042,0.14224193518929262,0.10437453539368308,4,left
4.91,0.38986909684707616,1.1733797567027515,0.12145322349966492,0.5421511864159019,0.7359991061695728,-0.30167552167057676,-0.1719450199320507,0.14229458237648676,0.10434953341801834,4,left
4.9110000000000005,0.38358093003608673,1.1794008525701343,0.10636690311439517,0.5412894291849399,0.7357600651326779,-0.3020099196179992,-0.1718520780650837,0.1420825450010766,0.10446316316497853,4,left
4.912,0.3822248895125748,1.1876858885609791,0.09889320217370415,0.5784699079449398,0.7452842539645129,-0.2893421018786222,-0.1719278847198651,0.14232296534984626,0.10433243933449746,4,left
4.916,0.38716861347520776,1.1929297408781832,0.11100685314886483,0.5338893767585376,0.7338704597615751,-0.30451892513626333,-0.17192092147442822,0.14200242097166488,0.1045128668635199,4,left
4.917,0.40046231544243693,1.1898688826416906,0.12682657513118853,0.568680838765314,0.7427693362756129,-0.29269576749905946,-0.1718043557891204,0.14257711812134632,0.10418087018717173,4,left
4.921,0.4103432032573932,1.1856700089786179,0.13329721437153955,0.5496954963973703,0.7379391940174954,-0.29908127945295576,-0.17207831639303386,0.14158160251123444,0.10476080068953944,4,left
4.922,0.41835472665783907,1.184345773424611,0.13440897755580059,0.5545616582898241,0.7391174235727453,-0.2975988030273221,-0.1716677469749212,0.14299057399363152,0.10393839133986868,4,left
4.927,0.42156497943731464,1.1890563205855207,0.13208828643545115,0.5585685752642773,0.7402528372208457,-0.2959514692039243,-0.17210584405660018,0.14150281909651968,0.10480724239673131,4,left
4.928,0.41577855881976655,1.1973694366772427,0.12407837397528702,0.551140483857627,0.7382180964491596,-0.2988244587856747,-0.17185204435156687,0.14233995165009977,0.1043176139660704,4,left
4.9319999999999995,0.40797972961233997,1.2047396022240449,0.11581786005280612,0.5582778007551131,0.7401508568228529,-0.29612188434843484,-0.17163630579379896,0.14317279298129054,0.1038337696873127,4,left
4.933,0.4032712060801651,1.209620809312721,0.12820213205014053,0.5528437714620322,0.7387631229560501,-0.2979619576873539,-0.1725856671539852,0.13971008519400183,0.10585049388450934,4,left
4.937,0.40567570013389714,1.2084910482306992,0.1663305441826755,0.556992695684221,0.7396213397956581,-0.2970792590696778,-0.17082391404147879,0.14609865644725167,0.1021283300128675,4,left
4.937,0.4092487296789159,1.2048407103276781,0.1891142599945143,0.5529253346621408,0.7390439796743585,-0.2972605932848793,-0.17308664425556755,0.13790306172263847,0.10690420173740173,4,left
4.941,0.41224284578353865,1.2005861744763424,0.17449971364248223,0.5576966739606287,0.7395735104441943,-0.2974297265363155,-0.17119697607164613,0.14474175233516245,0.10291790287175734,4,left
4.942,0.4068442063511615,1.2012483407587315,0.14511284767848687,0.5528513417485232,0.7390713274012823,-0.29716765256298544,-0.17124968648096123,0.14456904548692923,0.10302131931223538,4,left
4.946000000000001,0.392202422052356,1.2124627502891008,0.12397090660488978,0.5552704418946,0.7392629806089823,-0.29744817434733917,-0.17484891825974092,0.131489247552363,0.11063880387604307,4,left
4.946000000000001,0.3758954965542153,1.2257845472625215,0.11892207859757527,0.559242250134571,0.739914231765454,-0.2970501361922959,-0.16599950902897628,0.16362236317723483,0.09191958731964725,4,left
4.9510000000000005,0.33434749864429575,1.2452046233697804,0.11053923132788146,0.5449463697409687,0.7378611894109197,-0.29774512542144504,-0.18067430435863863,0.11034915353811545,0.12295794589555262,4,left
4.952,0.2982122634286354,1.2625059780967158,0.0987791918441388,0.5709024859669827,0.7415230394847688,-0.29664486783547445,-0.161316313697007,0.18061447315329035,0.082015644576212,4,left
4.956,0.28808347692046576,1.268228261486957,0.09338821587110818,0.537696382957077,0.7368559647316094,-0.2980158372638242,-0.0800847269726728,0.4755858398958786,-0.08981380835550315,4,left
4.957,0.24747081021431544,1.2843808317170322,0.06708493550133823,0.565371357038293,0.7407350178009299,-0.2968875192451083,-0.06072339314855291,0.5458501540263029,-0.13076200830186824,4,left
4.958,0.18713854007701175,1.3085278548167674,0.017819811442781473,0.5648084927474941,0.7406896954915784,-0.2968543308326864,-0.07540180587995518,0.49257803150855045,-0.09971726835762001,4,left
4.96,0.13874824108524447,1.3270345868519042,-0.03177647097524595,0.5114196639781856,0.7331061680745132,-0.29921685050332547,-0.06655377121025624,0.5247115635310182,-0.11843405568297868,4,left
4.961,0.09642880942659268,1.3428106662998718,-0.06290757958617094,0.642430544589087,0.751666818361228,-0.29348325872071457,-0.07014100711785162,0.5116281515783592,-0.11083774465493333,4,left
4.965,0.06017726910984003,1.3550155554129943,-0.0669601241533754,0.42525475320203593,0.7209228025332142,-0.3029732310113036,-0.07021952969994434,0.5114632170965068,-0.11068877343499864,4,left
4.966,0.03890549927212304,1.361050085428634,-0.06480638510541217,0.7117168221059731,0.761457419234354,-0.2904541114256326,-0.06829285086378752,0.5182907666350152,-0.11474038640403211,4,left
4.971,0.03198080649502913,1.3626909417302029,-0.06539353485502777,1.9142687868806425,0.931848663634366,-0.2378502574811006,-0.07059243750499286,0.5101062624444737,-0.10989947822034848,4,left
4.9719999999999995,0.007823699049243162,1.3689927860650473,-0.06803925120384113,2.200777088840912,0.9723637376052147,-0.22531710131743565,-0.06881477866450314,0.5164900551173552,-0.11364969899846106,4,left
4.9719999999999995,-0.033045042147079415,1.3799228616476682,-0.08933891686880963,1.98355126400296,0.9416408740598436,-0.23482226793075334,-0.06973249757349256,0.5130178081349372,-0.11168883417466872,4,left
4.975,-0.0751706609252965,1.3946259061747597,-0.13327610130898432,2.1145431636080834,0.9602095365590457,-0.229094424964233,-0.06961869937553283,0.5138813509554492,-0.11199276039092756,4,left
4.976,-0.1221164967815397,1.4191651064693491,-0.18940619037462664,2.061320169697348,0.9525559334981574,-0.23140662504883674,-0.06918924579607943,0.5146655988320871,-0.11279238352787654,4,left
4.98,-0.16510924162733875,1.453051049205846,-0.25451425998540833,2.060400430906477,0.9526614283290822,-0.2314817429095538,-0.0698429209704233,0.5132427304767184,-0.1115431036212036,4,left
4.981,-0.20479374122225702,1.492628237256534,-0.3239510842213035,2.0885871385340304,0.9563242077614423,-0.2301981057849244,-0.06926047223592398,0.5145999954933969,-0.11266879070355679,4,left
4.985,-0.23782114522150563,1.533342843995238,-0.37463170489826103,2.0548713958451548,0.9518725369599829,-0.23172377795857968,-0.06953292424072785,0.5136039633684,-0.11209160549523928,4,left
4.986000000000001,-0.2561807134999404,1.5744463635831325,-0.3887177988156923,2.0810475233120007,0.9554413689314929,-0.23055669968517137,-0.06973526811456669,0.5142747418443727,-0.11186070118960142,4,left
4.99,-0.26373569379487827,1.6125189748087987,-0.3800720676355058,2.067189020365615,0.9532035301486353,-0.2311190035719542,-0.06899944852779077,0.5137347208667105,-0.11296661214701395,4,left
4.9910000000000005,-0.266843671288829,1.646952929995964,-0.37034923907962913,2.0697514752408357,0.954450359733981,-0.23114865608557916,-0.07016262405197174,0.5143024833644786,-0.11117839034996466,4,left
4.996,-0.2720077010023204,1.6833048859951036,-0.3686754582547315,2.074599199400244,0.9536156373563148,-0.2306920932353404,-0.06891047988543067,0.5137415913673264,-0.1131103252607143,4,left
4.997,-0.280149559040085,1.7229003061055561,-0.3708820248150573,2.066773072114888,0.9543732539576698,-0.2313347722588325,-0.06965320559045865,0.5139956329314244,-0.11195354743630218,4,left
5.0,-0.29549005956116353,1.7678787948421237,-0.36547961472542767,2.073921240049887,0.9538981435882978,-0.2307823457537807,-0.07019811009947541,0.5145613612160633,-0.11115745595471113,4,left
5.001,-0.3185936579077716,1.8170599558328555,-0.35320995974799085,2.06987415130083,0.9533124476332417,-0.23095781839543794,-0.06765732455676546,0.5126531850820375,-0.11497032223965109,4,left
5.005,-0.3415852977951035,1.8663477158447583,-0.34427988780507235,2.069614395665237,0.9560335968242345,-0.23141283905048946,-0.0723973608811724,0.5160892902893759,-0.10784033772953541,4,left
5.005,-0.359868306843372,1.9105533023392305,-0.34243113159541017,2.074257313674047,0.9503873245036657,-0.23019474830481174,-0.06630465520657658,0.5117003968055291,-0.11700835699673287,4,left
5.01,-0.3730689084348814,1.9469787579542235,-0.3476758338087663,2.0663601444158264,0.958674026961886,-0.2320552821473717,-0.07139363669013106,0.5153547917544885,-0.10934986342085212,4,left
5.011,-0.37544881317541334,1.9661861093299875,-0.36157414894680906,2.074960782194646,0.9498647406914693,-0.23006288353229032,-0.07124623014340614,0.5152923746115502,-0.10957606074628429,4,left
5.013999999999999,-0.3643971571234148,1.967510776320767,-0.37894130889009525,2.069703675530252,0.9549162963560498,-0.23122844808812903,-0.06157442978486648,0.5082052463192641,-0.12411543816578627,4,left
5.013999999999999,-0.3451722308273102,1.9573024328892932,-0.3941841899293246,2.066592110485857,0.9594647228507668,-0.23216554512506588,-0.08535776707046412,0.5255807309758003,-0.08835897922302643,4,left
5.019,-0.3114757921229171,1.920220966689303,-0.41359507330331946,2.0825382004534054,0.9398731369754745,-0.2279508420146828,-0.045921213702638124,0.4967837751230519,-0.14764761211165525,4,left
5.019,-0.28487393051972154,1.888720225130209,-0.4278953919725058,2.052541742649603,0.976152265661078,-0.23579053694800783,-0.09793771753668495,0.5347639832395334,-0.06945012118354983,4,left
5.023,-0.27866687517424005,1.879001310511121,-0.4284287501607604,2.091159474677854,0.9295757655334017,-0.2257145428808232,-0.316262927275718,0.6942363934483875,0.25875477353833803,4,left
5.024,-0.2568529577935159,1.840898559830694,-0.43111943961385096,2.058870599829586,0.9684633379471397,-0.2341362724990839,-0.36827721127558166,0.7322143387298318,0.33693507880264467,4,left
5.024,-0.23159606478228828,1.786554983692581,-0.41997705440938987,2.0599161238183203,0.9674109022199062,-0.23388257848896699,-0.3288437215510789,0.7034245264512891,0.27767503134212423,4,left
5.027,-0.2213918874276728,1.7433270553946296,-0.38830052717241703,2.1209433877482433,0.8932427274572242,-0.21789235092644624,-0.3526256277239146,0.7207843112940286,0.31340317142909174,4,left
5.031000000000001,-0.21563357498676888,1.7007727784386315,-0.3598299560806354,1.9707239735549062,1.0755543300037467,-0.25723934819808625,-0.3429506941679968,0.7137233481212888,0.29887507766087434,4,left
5.031000000000001,-0.2310374839558464,1.6579693942389682,-0.3214076557841171,2.2198726229930497,0.7732530801196187,-0.19197314196421483,-0.3428132582359431,0.7136275391628618,0.29867334546733476,4,left
5.0360000000000005,-0.24806692598128885,1.6324883082482848,-0.29175313840253886,1.8912178788566383,1.172006428246749,-0.27807809092161234,-0.34788535846947166,0.7173114717377591,0.3062577347046628,4,left
5.0360000000000005,-0.25398249187803046,1.6261885647478036,-0.28345188497613505,0.5126743298290529,2.8451943137366857,-0.6389236294898142,-0.3418126926677314,0.7129160744207718,0.29721225917213334,4,left
5.0360000000000005,-0.2822962342589058,1.6093687122142648,-0.25399605747024945,0.184066674461341,3.2439280762706515,-0.7250068702853921,-0.3465380842995226,0.7163124404528936,0.30419883176476614,4,left
5.04,-0.3231392070417825,1.5868848984686033,-0.21617501487101703,0.4330659890589032,2.941724739225721,-0.6598363215180926,-0.34399391170357385,0.7145078906857619,0.3004893675418321,4,left
5.041,-0.3610589814295928,1.5734680202916547,-0.18650781055186336,0.2831756905901815,3.123772647963602,-0.6989366211880632,-0.3445735023266717,0.7149084600342219,0.30131125917578966,4,left
5.045,-0.3958369223938232,1.5617078133678768,-0.15272441752385135,0.343653499304784,3.0500944284194103,-0.6833954925238319,-0.3452429681815921,0.7153513566203514,0.30221988916395676,4,left
5.046,-0.41704978435824586,1.5485533208097555,-0.11932259844236998,0.34540127728161624,3.048362069779639,-0.6825275776846484,-0.3440950568336823,0.7146603032236665,0.30080872151350213,4,left
5.051,-0.42857859798193265,1.531192122505669,-0.0832062112170081,0.31248978025850305,3.087924863183571,-0.6915481027487291,-0.34515374402132315,0.7151801154184763,0.3018589007511557,4,left
5.052,-0.42897505956696314,1.5149068714495373,-0.04401291873792239,0.35124752882723376,3.0410502746669774,-0.6812279179496116,-0.3444662116631069,0.7149887954454086,0.3014893552940562,4,left
5.055,-0.41745821268122596,1.4999756381756169,0.0017298194133858157,0.32208196946589246,3.0767629801896677,-0.6885191699601744,-0.3447495842879128,0.7149478911844376,0.30138606001295126,4,left
5.055,-0.40042619566806714,1.4850052727524155,0.05261610473621814,0.3358540306897683,3.0590289084695557,-0.6860206808080729,-0.34474751671243886,0.7149445468739244,0.30137840021915674,4,left
5.06,-0.3731246136025961,1.4729899927521704,0.09516856774749842,0.33621230272725044,3.0603490320208158,-0.6840211752478991,-0.34464632949654295,0.7153296489533002,0.3022078561379208,4,left
5.06,-0.3354880746655231,1.4617406705066736,0.13494935236519678,0.32698246259602365,3.0693988625263726,-0.6887752064921349,-0.3446988984070593,0.7143184011616047,0.30004349287377363,4,left
5.065,-0.28945448848147803,1.4519534625508215,0.18003365356119855,0.3383281936666147,3.0573440059737864,-0.6839416110686687,-0.3447676360140677,0.7159350724510076,0.3034937343926569,4,left
5.065,-0.23153682597836667,1.4466193313134061,0.2242786286406495,0.3314256890662664,3.0657359959536348,-0.6857323144843217,-0.34460852177431667,0.7141482070741003,0.29968642909265863,4,left
5.07,-0.1641376870469794,1.445505699256497,0.26221862726433415,0.3287484840228352,3.0658057823436957,-0.6898896510977031,-0.3447274073727426,0.7152016849022325,0.3019272397916657,4,left
5.071000000000001,-0.09241972509603817,1.445157791753287,0.29225416443047947,0.34345871425759156,3.0552186233745013,-0.6781393085310327,-0.3448432231721321,0.71611530324392,0.30387751073407804,4,left
5.075,-0.01770535142695048,1.4485565429386822,0.30803966007561223,0.31848809112368204,3.0746850053945307,-0.6964610185204426,-0.3443071562811625,0.7120866302135396,0.29529536746476015,4,left
5.075,0.05523277624442603,1.4609121516030747,0.3021607853233953,0.34621426770489144,3.05258976592469,-0.6766395733712454,-0.3453313320401647,0.7195834928012006,0.311257398484154,4,left
5.08,0.12313328254747033,1.4874705404883706,0.2702728063897959,0.32945176261079273,3.0662573842221077,-0.6882873716475137,-0.34399594206119977,0.7099386268851825,0.2907296428655727,4,left
5.08,0.18236646449718102,1.5281394788781697,0.2098489794001711,0.3173103783906299,3.075237797447281,-0.6977216787673745,-0.34511800518215596,0.718001362350607,0.3078798824717436,4,left
5.084,0.21416759504161031,1.583775113989681,0.12807056300855169,0.37470505965362966,3.03076716533899,-0.6553136093681386,-0.34509442274118163,0.7177754276041421,0.3074216832903426,4,left
5.085,0.21774833827332166,1.6505529790015332,0.0399704300765908,0.2672602168603795,3.1144592795681634,-0.7342248431481289,-0.34292155772369454,0.7024074390480368,0.2746796383075703,4,left
5.0889999999999995,0.2056317600199359,1.7191839796608035,-0.043468901830369375,0.4055869713307315,3.006554634823936,-0.6328024224030856,-0.3482564484245022,0.7402015048862811,0.3551554489509008,4,left
5.09,0.1754753600229945,1.8005026110355462,-0.10616183965611635,0.2899519820716512,3.0968245298414567,-0.7175173666539649,-0.33941351702274636,0.6775196431553515,0.22172027436080174,4,left
5.093999999999999,0.1494381562854214,1.855818873142951,-0.12964313924774776,0.29331744787554215,3.094095081404716,-0.7151572867031016,-0.3510733315769682,0.7602133837083318,0.3977211399807412,4,left
5.095,0.14132336810751095,1.870451632467135,-0.12900342147619676,0.5131831007664371,2.9227298897097485,-0.5537997646014577,-0.40012992103359313,1.1071787622083322,1.1365802971553103,4,left
5.095,0.11713847603038154,1.9153882328951182,-0.11717089214347232,-0.027560222021588754,3.3443381586165115,-0.950497737011379,-0.41177994882687563,1.189898217466128,1.3125775414407106,4,left
5.1,0.06921982622828948,1.9711428156197677,-0.08440786716271562,0.8691450234942022,2.6451365947332026,-0.29271044349813974,-0.40294465321109396,1.1271863757977965,1.179141845416124,4,left
5.101,0.04002104629061846,1.9895842331754787,-0.061031885089169874,-0.3136508474776605,3.5674362207061487,-1.1603539372521283,-0.408294030142524,1.164977504969241,1.259634870934565,4,left
5.104,0.030416100231594696,1.9958445336208108,-0.057456487087030404,-5.27824821705265,7.438562768915074,-4.802233660041185,-0.4060644794260326,1.1496860429676894,1.2268474115577783,4,left
5.105,-0.0007569651332937676,1.9991359744721318,-0.04054113165104563,-6.461053442706804,8.36087327266176,-5.669925780002722,-0.40614845818685624,1.1492849226687611,1.2264652695691467,4,left
5.105,-0.038155769568204864,1.9882078146542368,-0.020952043929807075,-5.564309756527182,7.661625900386876,-5.012046702192482,-0.4071278339091273,1.1576072687098509,1.2435237987389658,4,left
5.109,-0.057377814136665,1.9563489641790082,-0.010691879451061086,-6.105149538366046,8.08335026143644,-5.408863419999023,-0.4059201232156967,1.1476933541160683,1.2230657064345727,4,left
5.11,-0.06623761979761619,1.907330859540314,-0.0013232973117950184,-5.885110662725979,7.911775545560824,-5.247394356129938,-0.4069159642227303,1.1553258629528813,1.2390379061810608,4,left
5.114,-0.060354019449343564,1.8506204093744643,0.006185894838155078,-5.8819797555983655,7.909330859652844,-5.2450831668018,-0.4062086001563261,1.1514831588011836,1.2303032430364251,4,left
5.114,-0.040065232334422135,1.7874470050153235,0.016208084086758737,-5.99738904136482,7.9993254086548955,-5.329881018966725,-0.4067701485071984,1.1517201975967684,1.2325853620514826,4,left
5.119,-0.004159843582209891,1.7219067740800704,0.0265292219155784,-5.859148883035258,7.891528889475735,-5.22818490697105,-0.4061812165109764,1.1539834493997845,1.2343448896803741,4,left
5.12,0.04609276775357843,1.6629708970130075,0.03976575852543643,-5.966812914671674,7.975482719813555,-5.307569182101197,-0.40682686923286615,1.1506651814677222,1.2310321649227136,4,left
5.124,0.10055674719665375,1.610974382933441,0.06073214752665455,-5.908752711274168,7.930208680042938,-5.264578203705444,-0.40634942461487356,1.1535725008747968,1.234231557255095,4,left
5.125,0.1623386224596291,1.5625180409178951,0.08701497203511704,-5.922020907711412,7.940554662356783,-5.274483195148726,-0.4061775607598218,1.1524122748768089,1.2317348533506438,4,left
5.13,0.2312593064198445,1.5179570631628647,0.12276737902601784,-5.937419247391164,7.952563344093401,-5.286118609249339,-0.4075934790482941,1.1507703083771976,1.2337868586865404,4,left
5.131,0.3047831994959045,1.4729294640048534,0.15741711606340458,-5.910754038386181,7.931766973798177,-5.265464515820139,-0.4045228797674222,1.1556907957173346,1.2315844794788953,4,left
5.1339999999999995,0.3829955501261224,1.4273791354741863,0.179322313669603,-5.935795000421439,7.951299089648149,-5.285716173635226,-0.4090640426033766,1.1480704763307956,1.2342743049326477,4,left
5.135,0.46126550064358385,1.385643641551256,0.18997922176895599,-5.9189759888411,7.93817701622151,-5.271069240460402,-0.40423049268707545,1.1562461538109967,1.2315179132377942,4,left
5.141,0.5366478420607965,1.3459107530702217,0.18767902947107218,-5.926362463432538,7.943942264817389,-5.27832796539616,-0.40701164289672975,1.1514396262436437,1.2329352598044852,4,left
5.142,0.6064677839973478,1.3095191189414603,0.17914816354228194,-5.926327356171969,7.9439153736932635,-5.278318974211761,-0.4094667536364137,1.147704980512862,1.235025110409719,4,left
5.144,0.6663732704200771,1.2778156382589867,0.16961097102674033,-5.922269603769024,7.940739978831709,-5.271927297240106,-0.3988165387777124,1.1647190304710933,1.2273000088999857,4,left
5.144,0.7140544347737043,1.2502468768692199,0.15709680094341155,-5.9274731433800305,7.944822616637148,-5.283547888893871,-0.41855034112157663,1.1330449334136667,1.241369622971332,4,left
5.148,0.749107933988524,1.2274053354816103,0.1485339077344276,-5.923062184613441,7.941346186169776,-5.2686715906749075,-0.39321508714642417,1.1737440252337907,1.223361364580049,4,left
5.148,0.7706985612078683,1.2042455579023064,0.14641463916750586,-5.925805811094626,7.943524323721738,-5.28309237473769,-0.41436456558515766,1.1397539584594005,1.2383718538667905,4,left
5.153,0.7875618464268859,1.1797684200572858,0.14604741118351489,-5.924844603554877,7.94275342504942,-5.275219361415826,-0.41379826991785373,1.1407194393767752,1.23805584803522,4,left
5.154,0.8058418146284807,1.160576087729813,0.14837009755920819,-5.924283961108461,7.942294661830379,-5.26862448610174,-0.37345051319073364,1.2053855097249189,1.2091385264918384,4,left
5.159,0.8202351933920937,1.1419025791425903,0.15805776707639957,-5.9259993738283985,7.9437201264089055,-5.296935267541684,-0.47261292949396616,1.0463876600609252,1.2801066178783718,4,left
5.159,0.8388839456431396,1.114442906280083,0.17782940306123754,-5.92353190138448,7.941635962936996,-5.244960487584665,-0.3081992518024479,1.310031493409314,1.1624668186942726,4,left
5.162999999999999,0.8552427418303801,1.094804933071131,0.1929106306384819,-5.926208222065801,7.943925614257198,-5.31133340263811,-0.5250595966121103,0.9622801528504759,1.3176295803633917,4,left
5.164,0.8588293899056381,1.0900002156989967,0.19403460592672017,-5.924182305217737,7.942180928089065,-5.25608133903342,-1.4353402579906018,-0.49727880119676976,1.9690676307536918,4,left
5.165,0.8777003152162386,1.069712101862338,0.20731843120696955,-5.9242891551229135,7.942258414416709,-5.257599627947288,-1.6522010695337621,-0.8450344842258413,2.1242393510330366,4,left
5.167999999999999,0.9108607528981076,1.0386080545897292,0.23639672040408533,-5.927638772051046,7.945210049690661,-5.362615096041635,-1.4877868884141783,-0.5813859509985557,2.006589861513663,4,left
5.169,0.9410575456863333,1.014020467201569,0.2634267185541974,-5.9194842660518825,7.938036363561734,-5.104587187466375,-1.5869491071799382,-0.7403820194675248,2.0775542583615367,4,left
5.172999999999999,0.9799940331140848,0.9771073950083092,0.29145665372968876,-5.932900759670458,7.949836165658522,-5.532312911375868,-1.5466030367986074,-0.6757315219516977,2.048669104923529,4,left
5.172999999999999,1.0052062692309314,0.949547487787167,0.3066358367765621,-5.915284613723511,7.934344875716172,-4.968218827378145,-1.5460331202943396,-0.6747325262812647,2.0482838965823036,4,left
5.1739999999999995,1.0112929565694189,0.942550915925978,0.3089854767067965,-5.842388053362723,7.869834593592777,-2.6007622626393125,-1.5671877842346036,-0.708770652686542,2.0633935992343337,4,left
5.178,1.032806195951083,0.9137761526630966,0.32039017773636225,-5.824892723104657,7.854426425263677,-2.0367405946370596,-1.5418473741320529,-0.6680236956647936,2.0452865562687155,4,left
5.178999999999999,1.0577979047523418,0.8725623255684631,0.3307804807706878,-5.838031273385749,7.866059724708668,-2.464335925521517,-1.5615833872285552,-0.6997184602276907,2.059398773194905,4,left
5.183,1.0694954843783677,0.8413190282588363,0.33435667184954304,-5.83034853971084,7.859123048833847,-2.206462557775456,-1.5509376323060136,-0.6827454791346765,2.0517585472266737,4,left
5.184,1.0720899118814415,0.811565537130053,0.33555977992236924,-5.833056655269408,7.861813864750283,-2.311357885915711,-1.553378431947232,-0.6863477730808407,2.0535750731226208,4,left
5.188,1.0619490032828713,0.7851798328572784,0.3334548625422584,-5.833825541723236,7.862078997000525,-2.312880781500086,-1.5561842092213252,-0.6913823809725219,2.055463322473295,4,left
5.189,1.042099824642576,0.7615510112111907,0.3319373195255436,-5.831425437552406,7.860364334413011,-2.25782538881706,-1.5513204692272322,-0.6829267570923532,2.052129065068633,4,left
5.192,1.0137148159942178,0.7411695092694888,0.3267070695054908,-5.833756068889908,7.862250502852022,-2.3237485314140116,-1.5558856510113954,-0.6907703149868472,2.05527951811419,4,left
5.193,0.9791277463492113,0.7257574958979252,0.3198157730277383,-5.832771662150918,7.86103420704443,-2.2724393928528848,-1.5528153809418386,-0.6858516980479755,2.0530814161542326,4,left
5.1979999999999995,0.9420414799065644,0.7104730909266957,0.31819579094389444,-5.8317101905644915,7.861207457836119,-2.300049713956697,-1.554186462270657,-0.6870796658276291,2.054278223155695,4,left
5.199,0.9000482585570482,0.6943205506304315,0.3212856909411681,-5.8348069339154325,7.86203227270075,-2.2938418964133804,-1.5541168567891965,-0.6891862325448452,2.053735619154483,4,left
5.202000000000001,0.8579876511683272,0.6799894365491432,0.3277712000139952,-5.830545490321912,7.860610748808159,-2.2863629495954934,-1.5534870269544538,-0.6848669532817395,2.0540200627298,4,left
5.202000000000001,0.8194900321320628,0.6664542788784908,0.33424577697142294,-5.834152165044873,7.861930009879904,-2.2991738125572807,-1.5542949202893233,-0.6896906165402479,2.053814435172441,4,left
5.209,0.7829816256631106,0.6516227411380107,0.34161405814696844,-5.833813790175651,7.861613526216322,-2.287262827017412,-1.553612598706911,-0.6865571944567941,2.053779230277152,4,left
5.21,0.7461161518944573,0.6368585440779698,0.3511169014608554,-5.828095475171081,7.860027568544983,-2.2950396961316213,-1.5540925314881333,-0.6855711446008276,2.054512496554663,4,left
5.212000000000001,0.7064278160234374,0.6213721756310215,0.36239664346703415,-5.841617264372251,7.864054659798881,-2.2920209316723814,-1.5537400203509955,-0.6926941875780115,2.052552681169292,4,left
5.212999999999999,0.6677404377341101,0.6072751567125089,0.37719253363340655,-5.821285583068556,7.857904642318208,-2.2913284242029546,-1.554078751295792,-0.6789772975895785,2.0559623763441253,4,left
5.22,0.6303457680688922,0.5935262462414461,0.39619232996149933,-5.843018048889697,7.8645137694667,-2.2939683270538476,-1.5537138455174966,-0.6967048070950496,2.051633657423361,4,left
5.221,0.5939554710203815,0.579013522316931,0.4205469855619812,-5.830421367309,7.8606577260506665,-2.291167138956718,-1.553990998740625,-0.6818578898377521,2.0552287566243717,4,left
5.221,0.5627786218213737,0.5633627227033893,0.4476105505797693,-5.819686514433279,7.857450025567958,-2.2927194046998842,-1.5540907745956571,-0.682438826420001,2.055206017759044,4,left
5.222,0.5366748439047291,0.5440726337777375,0.4719066971299738,-5.866895853887017,7.871704987553955,-2.2932452372516012,-1.5532078746450027,-0.710163645384585,2.0481025462796643,4,left
5.226,0.5130178280122635,0.5257503385083049,0.4943347478053082,-5.779291177230174,7.845214826313641,-2.29053963923632,-1.555253916841699,-0.6418062787522762,2.0654777104030915,4,left
5.227,0.49025281872258514,0.5038885836696878,0.5149093722831187,-5.891800382478504,7.879253486751856,-2.294639118212695,-1.5518905837566526,-0.7552034194652809,2.0366863430001905,4,left
5.232,0.47896971129893656,0.48765843238835155,0.5232534608134691,-5.797861874601065,7.850818932002287,-2.290949671052825,-1.5563285297973082,-0.6056250028587251,2.0746666472922977,4,left
5.233,0.4754388614455083,0.48318802027268587,0.5253756439831812,-5.800421965787892,7.851622993497992,-2.2914639420943033,-1.5750649360506,0.021929725224034136,2.2341268910743537,4,left
5.234,0.46210139862642785,0.46926119682504724,0.536444817350168,-5.9794986155825685,7.905757214996352,-2.297399271880905,-1.579523872148103,0.171492971141514,2.272127951818139,4,left
5.237,0.4484879388175681,0.44872953728912646,0.549242832799568,-5.539321643641651,7.772637265884975,-2.282205939464829,-1.5761378315502488,0.058112245745767156,2.243314132515371,4,left
5.2379999999999995,0.437806285572456,0.4288024047207345,0.5573293479652319,-6.269170479296008,7.9934017236014006,-2.3076335949461537,-1.5781752281313093,0.1264758492655094,2.26068073699368,4,left
5.242000000000001,0.42910308252522045,0.4159763194429787,0.5590977913689466,-5.306491309210026,7.70216767944426,-2.2739971967831853,-1.5773676761070683,0.09869659642827863,2.2536517959991063,4,left
5.242999999999999,0.4266130429785927,0.4136138780049509,0.5600346772793752,-1.2657162561488988,6.479964548821801,-2.1332162373687087,-1.57730534295841,0.09823278905958324,2.2534687209463886,4,left
5.242999999999999,0.4166452590524734,0.3996021453811653,0.5667413734980906,-0.3030095320517055,6.18861417494746,-2.0995213149914145,-1.577814918333228,0.11291176049538312,2.25729368924141,4,left
5.246,0.40131472367855214,0.37846568626126054,0.5714225211712418,-1.0329026778860866,6.409561575187302,-2.1250808314717085,-1.5772185801719865,0.0953514978431599,2.2527360942393315,4,left
5.247000000000001,0.38744727616314606,0.36522707337484683,0.5809173462599548,-0.5926856901082669,6.27628731161591,-2.1096688052773924,-1.5776571484077888,0.10899620930795899,2.256244497730158,4,left
5.254,0.37136503406523413,0.3502184523555216,0.5958356690257349,-0.771769323141938,6.3304208593044695,-2.1158946048238185,-1.5775034205090748,0.10172958314637094,2.2544813303192113,4,left
5.255,0.35958821529622736,0.3308564859095877,0.6052672357313453,-0.7743851182819375,6.331504834963491,-2.1161182631012823,-1.5773431031733867,0.10317821170885581,2.2545813277300537,4,left
5.256,0.3514994637687702,0.3141964040298343,0.6123301767947242,-0.6803101139004093,6.302445991155139,-2.112577793026853,-1.5777639105110595,0.10551455879106345,2.25563716431881,4,left
5.257000000000001,0.341359333076711,0.29807768582056027,0.6146072459376937,-0.7930259787260017,6.3373848121152605,-2.116863312880956,-1.5772180400111089,0.10166914088051932,2.2540926693001238,4,left
5.261,0.3337296241235158,0.2792849827317852,0.6091264044066875,-0.7052007686584449,6.309989057690563,-2.1134564798516386,-1.577667418329332,0.10520846435538475,2.255444352232359,4,left
5.2620000000000005,0.331249742246198,0.26191189824836403,0.5958877417271479,-0.7525353530496814,6.3246628266545715,-2.1152534210075022,-1.5776076093706894,0.10309506512117039,2.254911651428449,4,left
5.265,0.3309943381369541,0.2461737196475813,0.5743325246325731,-0.741917784444557,6.322156200976277,-2.1151726656290393,-1.5769755547974276,0.10331421822940105,2.254127044101793,4,left
5.267,0.33123260031049095,0.23109568333873376,0.5486140094064241,-0.7288234364696162,6.315928468351638,-2.11378783597554,-1.5784827916131676,0.1049254683233991,2.2564564209540894,4,left
5.271,0.3335892463746267,0.2163438715130077,0.527797554447099,-0.7514804900877703,6.326683760217868,-2.116173485378698,-1.576219337150845,0.1020161363710684,2.252853181848513,4,left
5.271,0.34130094844310943,0.20105754361831077,0.5168614166865777,-0.7299429795870798,6.31538304297968,-2.113466743895676,-1.578634767157618,0.10521154704442617,2.2567178219370314,4,left
5.276,0.35255467087022324,0.18702594391757776,0.5084481540061085,-0.744532781791647,6.323610928625345,-2.115533679702944,-1.5772352363634066,0.10321661362158105,2.2544477941617824,4,left
5.278,0.36648293799720005,0.1729037411344383,0.5008766062490785,-0.7385777911020917,6.321842815262923,-2.1153397393099462,-1.5760490238409193,0.10223362074702912,2.252675809443148,4,left
5.281000000000001,0.38052454442094874,0.1584434163729902,0.49278232019773893,-0.7368229591479404,6.3142367511184645,-2.1123890333064708,-1.581272752238174,0.10774123451301543,2.2607322745337353,4,left
5.281000000000001,0.3917375915072728,0.14533845171909046,0.47947533934638625,-0.744112455222343,6.332611625894831,-2.1192463035980014,-1.571580326126999,0.0973099698992782,2.245738281890784,4,left
5.2860000000000005,0.4051407945962948,0.13235821259861646,0.46781445916305797,-0.7340007820015994,6.305429645885054,-2.109043306203465,-1.58402581371022,0.11075269011200589,2.2650016037595773,4,left
5.287000000000001,0.4154961769366826,0.12064825841898542,0.4620031006301145,-0.7437679627538456,6.334101155919125,-2.1198846504596327,-1.5736373461775364,0.09951077942779041,2.2489176881036723,4,left
5.29,0.4254815430369684,0.10785544022116349,0.4534198748959901,-0.7381152857624147,6.317529862628469,-2.113619786053932,-1.5739155984176099,0.0998897832815115,2.2493651436977413,4,left
5.291,0.44033042855684695,0.09194962502763548,0.4451853134296406,-0.7354798465248227,6.3039286178499045,-2.108298946444335,-1.593729338683851,0.121079624709126,2.279987839567933,4,left
5.297000000000001,0.45590099997646844,0.0776612404384451,0.4456401586934231,-0.7499059293234067,6.364343246523582,-2.131689519807547,-1.5450374261144206,0.06891055769763846,2.2047127805740834,4,left
5.297999999999999,0.48302438698632316,0.06094191427890146,0.44014773920793626,-0.7230127690654784,6.252255445310189,-2.0883052985332853,-1.6257635601525107,0.1554304690055893,2.329517118192147,4,left
5.3,0.5045098645796584,0.04759825141607464,0.431254164257391,-0.7573543104861644,6.396130193878777,-2.1440074963759446,-1.519294157617069,0.041311162974839465,2.164911432060228,4,left
5.301,0.5111060501925047,0.043398125835336684,0.428394332878856,-0.7287759211692688,6.276034531430009,-2.0975054951953216,-1.0723016201270552,-0.4376150113356412,1.47388212023476,4,left
5.301,0.5297397897543316,0.03231343168251923,0.4151061533236388,-0.7297689433373031,6.279374518060909,-2.098777236285735,-0.9658457803007773,-0.5517219534723214,1.3092971459319194,4,left
5.303999999999999,0.5502515472371936,0.019813255363692557,0.3998207897733205,-0.7832959359493296,6.5080240474092275,-2.1874001026686254,-1.0465572450275171,-0.4652154246996109,1.434079079387508,4,left
5.305,0.5614061573230034,0.014497425233456377,0.389666658391534,-0.6515863591196267,5.945942667580076,-1.9695603586298023,-0.9978597350112713,-0.5173895595001118,1.3587954810278933,4,left
5.31,0.5705004238972855,0.00844315992446219,0.3706849629362773,-0.8699279105539687,6.877917204030487,-2.3307542235842305,-1.0177221841432438,-0.496155386551679,1.3894925432848964,4,left
5.311,0.5743739574226798,0.006383532149067807,0.3587452805828535,-0.5820109133282949,5.648647696127646,-1.8543387238622253,-1.0178956558594345,-0.4958717948849512,1.3897800131280929,4,left
5.311,0.5742603390495831,0.007369445759654083,0.3553657088580361,0.6263351362072863,0.4895431940927606,0.14524000216919675,-1.0076574041220094,-0.5069768819777085,1.373925466225843,4,left
5.314,0.5744596564195286,0.006936930428506764,0.33713605137567415,0.9141754796511462,-0.7396777504173255,0.6216467058994457,-1.0199533308757058,-0.4936704368332094,1.3929604076065685,4,left
5.315,0.576557737565536,0.008031186263156121,0.3135777908536077,0.6959116851984779,0.19215816948707437,0.26048327323687925,-1.0103253952379723,-0.5040428505347297,1.3780649143453747,4,left
5.319,0.5779389373878248,0.007732170082518297,0.2937152451347844,0.8276711433248047,-0.36963831710078116,0.47825255315661835,-1.0156776506438958,-0.4984183326985881,1.3863175905357674,4,left
5.32,0.5797690729020655,0.007342027054441471,0.27029913070222833,0.773831241454801,-0.1414430324090446,0.3897508495604676,-1.0140775848770287,-0.49977810679789886,1.3839137247994049,4,left
5.324,0.5841031158289529,0.009572218583261667,0.2487930887496973,0.7734862281124184,-0.1375455795582629,0.38832044469515314,-1.0133910451685795,-0.501123716489331,1.3827323582245001,4,left
5.324,0.588979753889358,0.010928408081003569,0.2286445786026158,0.8011557177621904,-0.258104358601451,0.4349682484505245,-1.0149315576717957,-0.4987253097314342,1.3852610403365215,4,left
5.331,0.5948164355454587,0.012020224171825874,0.2062476338303788,0.7676940142369237,-0.11418836172773804,0.3792228992079415,-1.0133654782392898,-0.5009990512170932,1.3827227385112995,4,left
5.332000000000001,0.6020049522839053,0.013336447052284865,0.18924085867363916,0.7942543807988223,-0.22551418103447873,0.4224362591517605,-1.0148792784423444,-0.4993825522921837,1.3850619577542034,4,left
5.332999999999999,0.6121328294884403,0.013945624608459006,0.1788047534926207,0.778964884626959,-0.16693178231331973,0.39951934930233624,-1.0129522803111914,-0.5003419345520432,1.3823003005659547,4,left
5.334,0.6247106636484505,0.013377345956921267,0.17080175182507995,0.7841958879749061,-0.1777220685612851,0.40406551735937657,-1.015851215482823,-0.49976123504561093,1.3862851774172094,4,left
5.3389999999999995,0.6383215611304252,0.011273960980542761,0.16703785518928638,0.7854819137017566,-0.19738189033437964,0.41123874585400344,-1.011887135363754,-0.5002416733951336,1.3808978805047296,4,left
5.34,0.6528026517169472,0.008689031363983106,0.1671855045222762,0.7809612023269981,-0.1667836724878317,0.39973549441567996,-1.0160454953230857,-0.49980118892300435,1.3865366711372993,4,left
5.343999999999999,0.6678045462176734,0.0037796057145533476,0.16632663338681308,0.7870588983927816,-0.19271730162808023,0.4097895483103387,-1.0137492935067995,-0.49994247177910045,1.3834431282423933,4,left
5.345,0.6830418301885086,-0.0013495862393170348,0.1647192541695964,0.7793437796413742,-0.18074176669672554,0.4044888237202596,-1.0112433676518287,-0.5006257734808438,1.3799626712872655,4,left
5.349,0.6946029260898969,-0.005409969489652732,0.16617839425166409,0.7894445129361582,-0.17595686822577808,0.40414159364977775,-1.0213478318953704,-0.4985539556408534,1.3938617492764476,4,left
5.35,0.7013961871366359,-0.011143262574822765,0.17189133107216886,0.7770281763883553,-0.19441841307841082,0.40904772901251607,-1.002765514393767,-0.5022308558282618,1.368327485209896,4,left
5.354,0.7033269874410286,-0.016186861841772197,0.17854570813068849,0.7892933622339242,-0.17059425679734255,0.40221237597213205,-1.0265899132542016,-0.4975459627656875,1.4010589997854672,4,left
5.355,0.699179016600737,-0.019972238227703387,0.18075884381558444,0.7828583837727032,-0.18713911302650593,0.4072377225363526,-1.0067162515474113,-0.5014432977675577,1.3737576926319943,4,left
5.358,0.6897040560363488,-0.022821757530799264,0.18302782438451637,0.7752843386353717,-0.1927599324978124,0.408224680198155,-1.0071953999662582,-0.5013928348606692,1.3744066025709838,4,left
5.359,0.6780453346644479,-0.023788824065683424,0.18854943141422392,0.8046916523845157,-0.15221788543338216,0.39773492583847514,-1.045279079917385,-0.4937783166298194,1.426754359807664,4,left
5.364,0.6637944677297536,-0.02563184971296134,0.19340347777465516,0.7510405494454266,-0.23117123712614004,0.418644996899583,-0.9517472754799077,-0.5124314954170902,1.2982015467229835,4,left
5.365,0.6406329099394208,-0.030182079779132835,0.20015578795280292,0.8196102306033215,-0.1284317800545558,0.39127203886486805,-1.1068036401745887,-0.4815167995779005,1.5113126729320023,4,left
5.367999999999999,0.6255540636795947,-0.03280557426317046,0.20467682412832,0.7625036498889703,-0.21478086375938416,0.41434294167572394,-0.9022936289845598,-0.5222962355623162,1.2302321514323273,4,left
5.369,0.6214308107299955,-0.03348277255870784,0.20519157806581817,0.7638320604168696,-0.2115514907916402,0.4133842645566196,-0.04370476213889343,-0.6934991657069907,0.05016599452808873,4,left
5.37,0.6039816108324905,-0.037833877002650645,0.20820215130755157,0.8732977200394489,-0.049271917906408086,0.3702841716153381,0.1608000806612513,-0.7342933757398586,-0.23090857150471295,4,left
5.376,0.5821474910301403,-0.04211368257048945,0.21234385619008084,0.6045652702042205,-0.4494310510488314,0.47669706590331673,0.005749307680024782,-0.7033626913658382,-0.017803886366943453,4,left
5.377000000000001,0.5627591748485306,-0.04607915316964571,0.2189138493944954,1.0500056390733337,0.2145479242402934,0.3000865810219255,0.09928323939456916,-0.7220098048284816,-0.14635915842660896,4,left
5.377999999999999,0.5477191753591115,-0.05036696190724467,0.22470480972285498,0.46253257195900915,-0.6614287376908792,0.5330871600763678,0.06118100966123878,-0.7144482797663205,-0.09399001056208835,4,left
5.377999999999999,0.5437992581479444,-0.05112368221202098,0.22463924695706328,-2.0036468513293673,-4.337556358623811,1.5109229593381373,0.060741772707015564,-0.7142837760035423,-0.0933871137511833,4,left
5.379,0.5350564968403018,-0.05510322487456018,0.2278688997854603,-2.5910633199251105,-5.21360880491191,1.743895670796837,0.08055821005954458,-0.7183446379549967,-0.12062245662958443,4,left
5.382999999999999,0.5235147860179938,-0.06114334858034602,0.23678503131880468,-2.145732029700005,-4.549423367659877,1.5672946400424994,0.056790793979522684,-0.7134968868133496,-0.08795661719579435,4,left
5.3839999999999995,0.5196294088366753,-0.06365075789911309,0.24199106023263522,-2.4143183093342317,-4.9499921857015,1.673792310362915,0.07534852583005128,-0.7172440932057711,-0.11346256502949274,4,left
5.388,0.5163894677773282,-0.0655557111434519,0.24289891179544673,-2.304998882470835,-4.7870756985028,1.630441070565127,0.06519512666235021,-0.7153120406467437,-0.09950704177114503,4,left
5.388999999999999,0.5106197018750593,-0.06474876185869496,0.24614010628842203,-2.3035892274813747,-4.784609529057846,1.6299218027905016,0.06785867992442281,-0.7155449774988476,-0.10316923968882738,4,left
5.392,0.5040677799877387,-0.06238907927189889,0.2513114622011379,-2.3606254355900083,-4.870350465763179,1.6524435126981336,0.06988328630169305,-0.7164623384327613,-0.10594968352472034,4,left
5.393,0.4939096393896672,-0.05948138475894591,0.25452735788802816,-2.292359243458267,-4.767609366892324,1.6255164761776586,0.06605823864294363,-0.715069326068721,-0.1006950927096533,4,left
5.398,0.47991777751383446,-0.05171465673488815,0.25645199574338584,-2.345445946194049,-4.8476910388003756,1.6464216089830859,0.06975659122227881,-0.7163092932345962,-0.10577616354257557,4,left
5.399,0.46732633721864025,-0.04271491750341938,0.25894889405033444,-2.316776818601337,-4.804552096048691,1.635116983948834,0.0668552761799605,-0.7157350687592321,-0.10178838146496082,4,left
5.402,0.45313866452807333,-0.03525253705199449,0.26086704337904437,-2.3236912042825946,-4.814068220335606,1.6379856884409567,0.0692754215138946,-0.7152856396387283,-0.10511871765860878,4,left
5.403,0.44047943094436137,-0.025667658245125152,0.2602126800782158,-2.3302874120668133,-4.826438945317864,1.6401906993712059,0.06663463737469438,-0.7168892759081913,-0.10148019754812912,4,left
5.407,0.4333013067136224,-0.014429390020610548,0.2583872734185535,-2.318860105783796,-4.805042516347177,1.6363682739377736,0.06988197659030977,-0.7143586716807395,-0.10595658880530065,4,left
5.4079999999999995,0.42370735334646137,-0.004851020934719598,0.25486129366136345,-2.3290612527247303,-4.825594898507299,1.6395425141264965,0.0665492220959493,-0.7170823354795531,-0.10136217133095977,4,left
5.412000000000001,0.4162353837766063,0.003798952655631092,0.24992803204677339,-2.3225023347547618,-4.811559022303897,1.6376363174795778,0.06827127073049022,-0.7154675539560393,-0.10373656830699449,4,left
5.412999999999999,0.4112533613327871,0.011690886224877968,0.24782601264253207,-2.326157917991102,-4.816970594742603,1.6390921525386397,0.07076413762860015,-0.7142780551825295,-0.10717060538310036,4,left
5.422000000000001,0.4021834293192412,0.015792459816781953,0.245428362101034,-2.3228775817277962,-4.819977758998549,1.6365015693036113,0.06150490638424637,-0.7198159694498754,-0.09441308415511218,4,left
5.422999999999999,0.39822375976358376,0.017724559032557527,0.24144741105414058,-2.3283716259151745,-4.810122195757259,1.6416278981348102,0.07837822531980432,-0.7094852069238625,-0.11766133127667106,4,left
5.4239999999999995,0.3981049751780111,0.02028591667283167,0.23738462015715364,-2.3197107956911203,-4.824130717301908,1.6337959611725,0.05677901149953171,-0.7227649793436044,-0.08790256021584263,4,left
5.4239999999999995,0.3950618202747266,0.022759496273889245,0.23048478728822896,-2.329560186584418,-4.810117721875143,1.6423894688401797,0.07478390984700893,-0.7116711396496891,-0.1127076743710529,4,left
5.4270000000000005,0.39418683342750327,0.025542895690242574,0.2254863302701709,-2.3238760646034233,-4.818224127721238,1.637427205672548,0.07440068418260971,-0.7119963588529897,-0.11218308923464877,4,left
5.428,0.3924979845381067,0.02931138437076349,0.22258246282344124,-2.3176071564248306,-4.823171858940746,1.6326054730925543,0.039727695789290446,-0.7330719812458721,-0.06440676307329285,4,left
5.432,0.390409521638897,0.03226751736359594,0.21784705933677606,-2.3432699687916507,-4.798877391356237,1.653002074581516,0.12482676382267963,-0.681237698710101,-0.18165868819392778,4,left
5.433,0.3918421507889931,0.03203918296617647,0.2148403098745477,-2.295766727864819,-4.844062893184852,1.6152126062521135,-0.016239437855848575,-0.76719410676361,0.01270074738141079,4,left
5.437,0.391150670119939,0.030741847893510987,0.21358807250654835,-2.356876174284684,-4.786211808725695,1.663779830910825,0.1698232870256668,-0.6538109805542995,-0.24364865433545105,4,left
5.437,0.39095706141071007,0.030211619151177375,0.214203247735744,-2.3058079997353507,-4.8344317726289345,1.623214969686094,0.9509728284185304,-0.17799168080028543,-1.3199490020935478,4,left
5.438,0.3919039581486542,0.026694304886011,0.21576064614182391,-2.3070445808433395,-4.832911573056178,1.624251118875109,1.1370480321747134,-0.06460000471565461,-1.5763059321359811,4,left
5.443,0.3903288714937345,0.01923481333544384,0.21805988829267703,-2.4050395378574185,-4.741882565682127,1.7018552036767387,0.995968329329672,-0.15056566508350555,-1.381938352566614,4,left
5.444,0.3901203799724723,0.013107995505069133,0.22175409428623288,-2.164292175297229,-4.965783884785235,1.51116618611533,1.0810622618220722,-0.09873489400576277,-1.499187175715202,4,left
5.447,0.38793204283758836,0.01186577670359925,0.2204372641049146,-2.56347077501628,-4.594560847629127,1.8273353852376986,1.0464340597359485,-0.11977984588720364,-1.451437876269235,4,left
5.447,0.3846030394771015,0.012266395704437289,0.21797969288640356,-2.036922458720479,-5.084149438392723,1.4103004281416989,1.0459544715040132,-0.12017106584555043,-1.4508551454392127,4,left
5.4479999999999995,0.3815619684868745,0.012170674589562546,0.21788262216322005,0.17370681817526518,-7.138573776699319,-0.3404939267042461,1.0640975335580194,-0.10898258703355182,-1.4757436241594508,4,left
5.452000000000001,0.3738548812962127,0.013435478672005804,0.2144343211311956,0.7003141065298416,-7.628075970780596,-0.7575565064624832,1.0423607383479512,-0.1223566095421052,-1.445901845087628,4,left
5.452999999999999,0.37028049780690386,0.015819082057189158,0.21185039577159415,0.301032776564871,-7.256999125338645,-0.44132737306201447,1.0592934195665147,-0.11198516261956444,-1.4691858980462529,4,left
5.456,0.37174703527354325,0.018249908786377965,0.2130215307766261,0.5418937504397199,-7.48074927436326,-0.6321114561082568,1.0501523346237678,-0.11744218292905961,-1.4564996811580262,4,left
5.456,0.3729603416716657,0.01927951332560189,0.21818537976003105,0.44382618883171454,-7.389795143918508,-0.5543870859525137,1.0522646259799515,-0.11651333407599603,-1.4597040693482084,4,left
5.46,0.3810443186755791,0.018070653414411143,0.22897292552513934,0.44255592895144824,-7.388371005795388,-0.5534631595952656,1.0546424184723433,-0.11444940324743698,-1.4624741369940464,4,left
5.462000000000001,0.39594456533474653,0.01651675770557169,0.23899080661075806,0.4938244288824673,-7.436247339883874,-0.5939844759699522,1.0505049058554774,-0.11772432679121278,-1.4573941578807794,4,left
5.466,0.41044067017444374,0.017546294098629445,0.24161427615460904,0.4323255849603209,-7.378995634303822,-0.5453140167435475,1.054393831039243,-0.11475417060179294,-1.4622576242193466,4,left
5.4670000000000005,0.41964445276942264,0.0218447048686138,0.23773340155602746,0.4803495226264888,-7.423444893051714,-0.5834202575483797,1.0517587784473013,-0.11635403030745961,-1.458622641280042,4,left
5.471,0.4234497649166843,0.029521233768093576,0.23413060005031278,0.4542084081859846,-7.399736326036369,-0.5624850151406524,1.0529882777209196,-0.11671997107204496,-1.4612344672494455,4,left
5.471,0.42291934761333194,0.042121750119730655,0.23183302485861232,0.4606200113478448,-7.4046900391737385,-0.5679627113871668,1.05280795938548,-0.11428210030860864,-1.4588885607537558,4,left
5.475,0.4195299851650689,0.055981093698204074,0.22525560855221244,0.4668518630914598,-7.411711407629896,-0.5724073369319517,1.0524470476163104,-0.1183025292753982,-1.461520347806156,4,left
5.476,0.41768304084339725,0.06961393408417928,0.21699990970227329,0.45548761933866033,-7.400171155713023,-0.5637985426641678,1.052949246653561,-0.11394522821225755,-1.458876594827365,4,left
5.48,0.41489667000337904,0.08372327116433378,0.21140723078458176,0.466614798765667,-7.410503879446976,-0.5726145311205562,1.0524736455391468,-0.116575761393679,-1.460148784126578,4,left
5.481,0.4106633705788164,0.0970262068049951,0.20583073998781645,0.458245633129853,-7.4045386197277585,-0.5652596585113148,1.0529816834157781,-0.11828424342227971,-1.4625099031050854,4,left
5.487,0.407684311487007,0.11426120370358261,0.2005679839743396,0.4635947140512986,-7.405368226224165,-0.5711568387415173,1.0522612816909982,-0.10989186182633387,-1.4542465815127061,4,left
5.489,0.40385441772745795,0.13323226212737727,0.19580577673712452,0.46046701115600874,-7.40863897325843,-0.5662019119380761,1.0533256472748374,-0.12562091826699617,-1.4691970820887594,4,left
5.49,0.4002819969088943,0.15117320338494866,0.18766619396529538,0.46202549075341054,-7.403502876189508,-0.5700778606624457,1.0520203703079087,-0.10538677550509543,-1.4500841755469827,4,left
5.4910000000000005,0.39577598013966037,0.16890351194692782,0.18137225573312563,0.4623157946128196,-7.407576372119477,-0.5687811066312211,1.0530845452000377,-0.12229461560849883,-1.4660059674943513,4,left
5.496,0.39169643939814763,0.18672735185482214,0.18131941671228652,0.4588640295284928,-7.407649266865839,-0.5647322735529055,1.053152356984075,-0.12177852123131663,-1.4657067589485462,4,left
5.497000000000001,0.39004826732914677,0.2078506273196622,0.1802494333228695,0.46714043257655125,-7.4009870829331295,-0.5770445276413514,1.0508080242391942,-0.08972972047849076,-1.4349162562429847,4,left
5.499,0.3895009905092869,0.22714565098703118,0.1781064070904064,0.4534058902782904,-7.414840204907519,-0.5554888273068538,1.0564546568827295,-0.1685712924278071,-1.5104391304289566,4,left
5.5,0.3947708808398593,0.24933009657499394,0.17961991555576598,0.4704594526092229,-7.3965130683962865,-0.5827071490563319,1.0471237213445743,-0.03782976066828621,-1.3852603035219855,4,left
5.505,0.39837753576973767,0.2665698115654533,0.18109205132081097,0.45646913608015777,-7.412039874789955,-0.5601780842225987,1.0594268862135374,-0.21027935731771338,-1.5503659488268355,4,left
5.505,0.3998171634034995,0.270930635296515,0.183121080030976,0.45646646590004714,-7.411272217937342,-0.560489075946517,1.1112691820594642,-0.9340230148532096,-2.243628742461068,4,left
5.507000000000001,0.4090970634460389,0.2868747885911506,0.18656259187214597,0.48415690102987086,-7.382590825166684,-0.6042424322600629,1.123586860951981,-1.106464098757892,-2.4087528265537386,4,left
5.51,0.4214581275795708,0.3082070944108771,0.18407541739055838,0.41665005620805184,-7.4535863690176285,-0.4971336586783811,1.1142318212632891,-0.975735756893017,-2.2835478734960066,4,left
5.511,0.44112038682209953,0.3264570850670796,0.1788122872376251,0.528369288033753,-7.335686350781246,-0.6745625979747916,1.1199022377841348,-1.0545667357145678,-2.3590850378804396,4,left
5.515,0.45731480640073663,0.34292758696142334,0.17812535496163912,0.3810898493861303,-7.491261067216032,-0.4405930903134777,1.1175486485719337,-1.0225164441806207,-2.3283156068325197,4,left
5.516,0.4614547477763006,0.34692106403720047,0.17738617219694502,-0.23749053266137,-8.144137788800187,0.5416938780399071,1.1175953943831534,-1.0220229714752227,-2.3279409285927963,4,left
5.517,0.4768850228440791,0.3565059161587345,0.17356402141059557,-0.38476029231209324,-8.299728851575717,0.7756521931735989,1.1187225845618611,-1.0388828335885816,-2.343995052245867,4,left
5.52,0.4978140250910333,0.3732219065920701,0.1713079638847162,-0.27308491189704553,-8.181754632283273,0.5982739967569595,1.1173135736452247,-1.0187158816448951,-2.3247202385195456,4,left
5.521,0.5138437275448453,0.38495180402983054,0.17031696852043787,-0.3404775089555616,-8.252943628707358,0.7052505358319494,1.1184988038931583,-1.0343798940862263,-2.339796553726069,4,left
5.525,0.5324939995795663,0.3979379804892963,0.16825959919746242,-0.31299608097058074,-8.22390821253114,0.6617391201845488,1.1176921150098464,-1.0260128881743404,-2.331543330988792,4,left
5.526,0.5464158687181184,0.4099449591674505,0.1671299333366938,-0.3127118814138269,-8.223626581130002,0.6610960284797542,1.1181764136919248,-1.0277825456062697,-2.333650105578075,4,left
5.529,0.5547086445132636,0.42098349487489384,0.16598125375516412,-0.32698314313750754,-8.238677254387552,0.6839503695506641,1.117912994669625,-1.0302265335508936,-2.3354864691749633,4,left
5.53,0.5620789511400142,0.4322367349868682,0.16391723066791508,-0.3098126592957433,-8.220548536791721,0.6565966131103376,1.1179728836511926,-1.0261843437651628,-2.3320165884690622,4,left
5.535,0.5662790756180874,0.4422222930656291,0.15746877372467016,-0.32329526144497056,-8.234828027513863,0.677860765137133,1.118236400901792,-1.0298247956046958,-2.3355068372341905,4,left
5.5360000000000005,0.5675485237388017,0.4529029511226084,0.1492935819007946,-0.31581603712429157,-8.226815729991461,0.6664712602245508,1.1174358575499708,-1.0276799853898375,-2.332708484635099,4,left
5.54,0.5694146533576323,0.4626375541188666,0.14519053419644448,-0.31789859117991043,-8.22920812988766,0.6689350645063771,1.1189424099462473,-1.0280708881307803,-2.334782889928153,4,left
5.54,0.5724424119053655,0.4687989689005682,0.1398884670400595,-0.3192869533373437,-8.230437262675053,0.6721752299888817,1.116808790158385,-1.0290762268493072,-2.3332102718549246,4,left
5.544,0.5733931325023389,0.4748507980827968,0.14146876257290147,-0.31639111168821366,-8.227568153034348,0.6667507764702831,1.1190414556499444,-1.0274232306641324,-2.3343292915936353,4,left
5.546,0.5755438305953069,0.4817263642841131,0.1429539651334372,-0.3195050867687867,-8.230860016163836,0.6716903258088815,1.11777958914851,-1.0287681877548696,-2.334057104551568,4,left
5.547999999999999,0.5807803261010912,0.4844032669539528,0.13583650156669036,-0.31664233816226744,-8.227479933994285,0.6686708329489621,1.116604355496196,-1.0287154152673827,-2.332658592557805,4,left
5.5489999999999995,0.5829267667934404,0.486677578059823,0.15136513126435097,-0.3193319926505698,-8.2311347411874,0.6694512863558744,1.12158607853911,-1.0267100436451906,-2.336630981485512,4,left
5.553999999999999,0.5842190162803043,0.48863277348526085,0.1767824693684859,-0.31667630311671646,-8.227115152514203,0.6704423757633726,1.1123859583987197,-1.0309574861641109,-2.3297729769437088,4,left
5.555,0.590494168360774,0.4883919342080357,0.17721197901548405,-0.3190110367525695,-8.230876459431204,0.668597170009114,1.124185007840807,-1.0253129469581381,-2.338393747138098,4,left
5.558,0.5982438284760931,0.4909555806614048,0.1690089395516791,-0.31799433853046044,-8.229053535504498,0.670192024936386,1.1143413786586804,-1.0301060977711534,-2.3312779877804095,4,left
5.558,0.6074472234811644,0.4905912753487045,0.1618128509565483,-0.31608499841458804,-8.226392736958232,0.6699232374410873,1.1145965402163451,-1.029851519595616,-2.331342036587314,4,left
5.564,0.6190316050228406,0.4884610797081564,0.1514447188549649,-0.3225359550303824,-8.236029024010318,0.6680674021674867,1.133395685152001,-1.0210438076212238,-2.3452496832517546,4,left
5.565,0.6291683348653393,0.48927486646575497,0.14656021845271497,-0.31102201632322435,-8.218631378377296,0.6722252954124387,1.0872073887993516,-1.0428731428672156,-2.311257996643286,4,left
5.568,0.6412507980062983,0.486777871492185,0.1447629816225177,-0.3256455993110817,-8.240802679813239,0.6666285082513553,1.1637811504348883,-1.0066101013718924,-2.367537857457002,4,left
5.569,0.6500398473429548,0.48483551788223167,0.14050347698831095,-0.3135032656664429,-8.22236028495233,0.6714094522913563,1.062786222847484,-1.0544667899497908,-2.293343730984415,4,left
5.5729999999999995,0.6533634261254375,0.48456210732746025,0.1412829889582919,-0.3137318957904616,-8.222759603788528,0.6711134126280027,0.6388118556630666,-1.2552321519922587,-1.9816480611004663,4,left
5.574,0.6629428687637424,0.48126796048972464,0.14345830128948084,-0.3371526149510411,-8.258194709813448,0.6624407882874552,0.5378233310927343,-1.3030954544811257,-1.9074833831273363,4,left
5.574,0.6758445332110591,0.4761893131069367,0.14192492822637393,-0.2797283050458462,-8.171236313131706,0.683997065579161,0.6143891377300184,-1.266810918155329,-1.9637176408452044,4,left
5.577999999999999,0.6891012104843033,0.46900509623322184,0.14523226071555062,-0.3748925085281685,-8.315376546518285,0.64816656451114,0.5682018454876663,-1.2886883209774747,-1.9297625099974778,4,left
5.58,0.6974061717171649,0.46586618062098906,0.14708649121896888,-0.2493812218350701,-8.125255517573551,0.6954572302762542,0.5870164680952966,-1.2797996387367165,-1.9436754982891071,4,left
5.582999999999999,0.6997011779560645,0.4648861209725257,0.14748104274901902,0.27747343791918744,-7.327260737908765,0.893844363871449,0.5872333157478504,-1.2796493279156842,-1.9436610172612452,4,left
5.582999999999999,0.7122951944577971,0.4576979778548022,0.15444163055793542,0.4030101047234601,-7.137083972065962,0.9411334989159832,0.5774486333815182,-1.2843489835071316,-1.9367115239840396,4,left
5.584,0.7295978639126626,0.45124022627822225,0.1557776769062354,0.3078167703021142,-7.281300195678592,0.9052886405401341,0.58918397218141,-1.2787275931671345,-1.9450996888479783,4,left
5.587999999999999,0.7430854893531995,0.44500154485093557,0.15564903090623233,0.3652365562197829,-7.1943091723894845,0.9269022677901926,0.5800206489250905,-1.2830949469957926,-1.93846653791485,4,left
5.5889999999999995,0.7585572941197907,0.4380688537919833,0.16218360342033264,0.3418947193481131,-7.229658791220393,0.9181072158485439,0.5850356357077757,-1.280770377883257,-1.942351816469178,4,left
5.593,0.7728277298537587,0.43720781951822485,0.16219699492558487,0.3414882101105772,-7.230318572049037,0.9179964759375114,0.5837163563136224,-1.2812308854127854,-1.9407404179038488,4,left
5.593999999999999,0.7812604091678697,0.4396822726486653,0.16066357268652728,0.3538921162891425,-7.211441456590814,0.9225742798931555,0.582723632190536,-1.2819837846544093,-1.9411152104428113,4,left
5.598,0.7784028784954595,0.4494888059869822,0.17038982030024474,0.3389999012712951,-7.234122189892011,0.9171016579527592,0.5846037469208085,-1.2807469013617374,-1.9411426674650336,4,left
5.599,0.7638579443225675,0.47236941038474134,0.20084067908766495,0.3506449105753403,-7.216362585443628,0.9213510398646669,0.5827844356124108,-1.281884411131446,-1.9408848868433042,4,left
5.603,0.7425491751682124,0.5090719728420057,0.2676559373733465,0.3443896831305277,-7.225888989745913,0.9190543251563055,0.5842172616173081,-1.281208367674509,-1.941947380478648,4,left
5.603,0.7013205564909502,0.5615162123014685,0.3473741472795554,0.3456084404991502,-7.224145622465409,0.9196306722984859,0.5830090313118238,-1.2812690149357668,-1.9390576781779705,4,left
5.608,0.6428141823750156,0.629890709503683,0.4261873820848787,0.34784909849823037,-7.220422144536936,0.9200958131594245,0.5843429970485339,-1.2818058311476688,-1.9446125877173226,4,left
5.609,0.6029569231471297,0.7254352938289685,0.5624482519551204,0.3439761962456246,-7.226855316961626,0.9192902701633437,0.5826948876865197,-1.2808436015213507,-1.9365769832919486,4,left
5.6129999999999995,0.5845477014695071,0.8719051696109005,0.7726361249801381,0.3479118603390532,-7.220198896134875,0.9199706800041241,0.5843879796665818,-1.2818989316714497,-1.9450962460000796,4,left
5.614,0.590231900053227,1.0946663990039713,0.9789958850566938,0.3451104502322613,-7.224995968245313,0.9195551785833893,0.5835105134134058,-1.2812424550323462,-1.9402476832561641,4,left
5.619,0.6660818448516747,1.3791522437403692,1.0864583459208674,0.3458796818067469,-7.22383605178786,0.9198501036591826,0.5822553360618242,-1.280909637513093,-1.9357023354988572,4,left
5.621,0.8387917216018512,1.6771535686284622,1.0287306530260985,0.34777498253913747,-7.219937235723743,0.9193780229349254,0.5869317342892594,-1.2827463754958432,-1.9549962003478158,4,left
5.622000000000001,1.0916583916158173,1.9291057580874522,0.7931794693948919,0.34301466679849796,-7.2294963154185465,0.9202962699076271,0.5784071792398461,-1.2792729245459409,-1.9193235799438146,4,left
5.622000000000001,1.4057920507548214,2.04871043101599,0.4199628912802073,0.3500178978839486,-7.215385302215951,0.9188886053284908,0.5893193559375717,-1.283746176675046,-1.9651048014246755,4,left
5.626,1.7900573540624887,2.0347421055319685,-0.02670186037363549,0.3426828446274811,-7.230229632570506,0.9204392444246711,0.5802238016357459,-1.2800089527320013,-1.9268939844858592,4,left
5.627000000000001,2.1471156331797725,1.9475331193408563,-0.45228618539973797,0.3469246591624362,-7.221648022462311,0.9195432406621756,0.580416157991356,-1.2801260599206015,-1.9278910607191142,4,left
5.632000000000001,2.3857866640474246,1.8371442035875822,-0.7651935862159959,0.3502818813555829,-7.214700986645091,0.9186624958457132,0.5979338777884365,-1.2871924758059632,-2.000873723307863,4,left
5.632999999999999,2.519759541496285,1.7403322472083995,-0.9218733001336531,0.3351960033077086,-7.245693855562772,0.9223782068155908,0.5549430519082795,-1.2698123515699093,-1.8215346226209352,4,left
5.6370000000000005,2.438173016896248,1.601091219462851,-0.913292607702006,0.3631977536807194,-7.18818215773352,0.9154929361979116,0.6262043152480776,-1.2986239547791234,-2.1188763951793987,4,left
5.638,2.281176687763602,1.4892757952505442,-0.8538526181020107,0.3272604888988617,-7.261999747925037,0.9243445951652771,0.5322162344580651,-1.2606339088731102,-1.726684172655356,4,left
5.641,2.231615643731421,1.458804018948514,-0.8313252069283774,0.3572601689742132,-7.2003804814673185,0.9169484767697178,0.13758373458331352,-1.1010584482269556,-0.08041787050431304,4,left
5.642,1.9867902960463213,1.3300433077930773,-0.7361358249782289,0.35639800834642105,-7.202116368247978,0.9171419814206342,0.04359575346913153,-1.0630929559178377,0.3117809149969477,4,left
5.643,1.6041673388591633,1.1471521882195244,-0.6062387659610387,0.29937176088336337,-7.319362389765319,0.9312827133046033,0.11485690797136663,-1.0918779882836456,0.014432044201072892,4,left
5.646,1.3106611522723595,1.0181140116513094,-0.5248815692975128,0.4395990550381377,-7.031105954292175,0.8965251028812082,0.07186604459897916,-1.0744877797335524,0.1937684355003729,4,left
5.647,0.9359068437645771,0.8795721916341676,-0.39137674598846006,0.2070651594539959,-7.509081326050806,0.9541638937884072,0.08938411485583592,-1.0816422755961106,0.12080934469762988,4,left
5.652,0.6842451129611306,0.8030003600300714,-0.2904037060864032,0.5138060486379266,-6.87860407667662,0.8781265363815989,0.08957571230021137,-1.0815698410636414,0.11976156288818027,4,left
5.653,0.6279314150447888,0.7906877219880379,-0.26367031348348724,1.8010699262009138,-4.232521591734129,0.5589812504535268,0.08048125000837508,-1.0781044027285012,0.1580450716491553,4,left
5.653,0.4070295269404256,0.741757897073845,-0.13045316215716068,2.107897327616967,-3.6019519111546865,0.48291585354997013,0.0913923344388152,-1.0823069865815,0.11219147638185972,4,left
5.657,0.1384351966747271,0.7051481133388597,0.07720391601324642,1.8752282064308194,-4.080071767485076,0.540598471947184,0.08286825969509881,-1.0789503732466212,0.14789530226848055,4,left
5.6579999999999995,-0.027853043689335014,0.718548672323924,0.29780563227821244,2.015567338030015,-3.7916958176207647,0.5058046156622946,0.08754557509748744,-1.0810194237316368,0.12866363740623588,4,left
5.6610000000000005,-0.19155964309115836,0.7701826858400544,0.5706619608059713,1.958547618397873,-3.908934916803311,0.519943228109443,0.08628740754717355,-1.0799380686304907,0.1330087110057791,4,left
5.662999999999999,-0.3331599732613712,0.8741500133225394,0.839103629093746,1.9574683497835585,-3.9109026882957485,0.5202071051625672,0.08541511380973765,-1.080571463904275,0.13820230380157184,4,left
5.666,-0.4717410776579986,1.0111710008907733,1.0717409474030748,1.987941898208913,-3.848777215458779,0.5126573953101456,0.08710183628469484,-1.080043680755948,0.12925965659130761,4,left
5.667000000000001,-0.6069520688167434,1.167909411641331,1.2612617483908504,1.9513296713136834,-3.9233158993459814,0.5217278197770201,0.08545883716003616,-1.0803437601515529,0.13763272302557036,4,left
5.671,-0.7143570825843939,1.3486653038870013,1.3775218121085389,1.9799998037103044,-3.865090046264138,0.5146259228548515,0.08679277441064641,-1.0808914236167462,0.13208100632972997,4,left
5.671,-0.8000141074849207,1.543200379249262,1.4063930288218633,1.9646244427529833,-3.896392393913175,0.5184354446943917,0.08557523066565001,-1.078610480941831,0.13434404264519237,4,left
5.676,-0.8248288601167625,1.7421381342797941,1.3436288011552235,1.9674191365356284,-3.8900460175530025,0.5177370463410866,0.08702947526524335,-1.0832864782427072,0.1347133528537598,4,left
5.6770000000000005,-0.7674491208625731,1.920404628773341,1.210745885370896,1.9734788118774491,-3.8795226403760306,0.5162518221439985,0.08517810325540068,-1.0764390285523509,0.1328353839464617,4,left
5.681,-0.6319154903559134,2.0385065878644957,1.0320477508597574,1.9630118363921145,-3.8977127525924278,0.5188175789589133,0.08709252729967237,-1.0837150173769783,0.13508435785089593,4,left
5.681,-0.4512821239708681,2.078362089049998,0.8357895446072408,1.9738575046585811,-3.8794965148533924,0.5161645339464455,0.08607975427771711,-1.0795480185964204,0.13339482004774422,4,left
5.687,-0.2577784840180387,2.033142364752429,0.6538149616053595,1.966034735588938,-3.8923281063921547,0.5180753154813318,0.08474389866341861,-1.0757710269331193,0.13387104916166365,4,left
5.689,-0.06367594420986993,1.9089980860798184,0.4952273745302321,1.967902213537248,-3.888457605351707,0.5176123526107196,0.08983291716996192,-1.0919993151881853,0.13494996923937666,4,left
5.69,0.10476889157771328,1.7318754954412703,0.36575382592889905,1.9743542649361845,-3.8812283248918025,0.5160652572469151,0.08053168217379213,-1.0619570494067907,0.13237857383216756,4,left
5.691,0.24355199692437912,1.5242175138228942,0.27758042267276806,1.9585677079369321,-3.899896356594407,0.5198585591074134,0.09244472396881165,-1.1005224735478771,0.13580787227704078,4,left
5.697,0.35589870591203066,1.3161267207928384,0.23632624131727373,1.9818730698250182,-3.8725468356949526,0.514260922482022,0.08251077536746734,-1.0683280319130035,0.13289399152963027,4,left
5.6979999999999995,0.4407462955186567,1.099612518940543,0.2310733572960475,1.9573540930322069,-3.90103919599416,0.5201469433917547,0.08273378386553132,-1.069187442556678,0.13316970021265043,4,left
5.7,0.5084344901916504,0.8881343843437155,0.24429459842785586,1.9715199145543727,-3.884570080043615,0.5167473424241483,0.10182792954278513,-1.13062150920464,0.13807812511524062,4,left
5.7010000000000005,0.5600643982886593,0.7095794017421302,0.2621509884562555,1.9830312940528703,-3.871839290709311,0.5139870784821577,0.05494933655380369,-0.9796320292921669,0.1257838072524114,4,left
5.705,0.6001480574163085,0.5125740779906136,0.27066134132332953,1.931757922786418,-3.929450901716735,0.5262821247381619,0.13266454228668284,-1.2299848520551144,0.14622531345924966,4,left
5.706,0.6219851208934284,0.3862800647902488,0.27095938644723094,2.0268779133457704,-3.822517341595005,0.5034755479038346,0.03015684427681252,-0.8997598806088745,0.11926182184806652,4,left
5.71,0.6265260183931143,0.35500249994278504,0.2694889410767515,1.9048116139454823,-3.9597012294590828,0.5327393911369416,-0.4001534583335352,0.48625310585699544,0.006328650777906654,4,left
5.711,0.6356801805653718,0.24627908042384933,0.26103452530764515,2.006671816938975,-3.8452319495846057,0.5083245952045474,-0.5026720332746419,0.8164998405866892,-0.02060423478061205,4,left
5.712000000000001,0.6397069184347729,0.1044065599998025,0.24448887470571845,2.0038867626851453,-3.8484773601900844,0.5089816171043959,-0.4249450603742061,0.5661234723310578,-0.000195841944311834,4,left
5.715,0.6282042243780839,0.010901748377055136,0.22934930839470288,1.8098652890105975,-4.066106107349254,0.5555111161407524,-0.47181917417449726,0.7171039934064237,-0.01250275533185868,4,left
5.715,0.6133090426660484,-0.0771614303124118,0.21719931248337832,2.2867120481184466,-3.531098696172186,0.44117659806954856,-0.4527640714758344,0.6557480394819988,-0.007484486333063098,4,left
5.72,0.6087481204213179,-0.16198554293441844,0.19849410033711656,1.4961452493945424,-4.418144164841527,0.6307178996291286,-0.45245706180792533,0.6547205642014603,-0.00744511913678914,4,left
5.721,0.6121841490960881,-0.213880375656757,0.18467189619143462,2.5388338399624697,-3.248181320388687,0.3807405541236356,-0.46251144725663773,0.6871559726201482,-0.0100201357136167,4,left
5.722,0.6161410172403909,-0.22960892520587595,0.17959207614300338,6.916670741089852,1.6624974817219127,-0.6691408738607869,-0.4504784802249066,0.6483506006024777,-0.006928273307890491,4,left
5.726,0.640486713326613,-0.27050174474583244,0.16562992726793357,7.959379447015361,2.832405926358354,-0.9191347906829473,-0.4598314519577248,0.6784963906230959,-0.009354074946616575,4,left
5.726,0.6945183574598561,-0.32629309413156415,0.14450909048718458,7.168635532199453,1.945430386724522,-0.7294970693743322,-0.45484543489638535,0.6624741687652986,-0.007985386208680851,4,left
5.731,0.7740499957463329,-0.35736636672816563,0.1154388961049458,7.646024277043413,2.480420965971856,-0.844102784501084,-0.4558495294191236,0.6655873990319203,-0.00844256701879544,4,left
5.733,0.8764432363671075,-0.3839240326456245,0.07575157609759259,7.4509405738119625,2.2626778336874542,-0.7970596007301352,-0.45743392068837896,0.6708980661506077,-0.008523809300726829,4,left
5.734,0.987959976085508,-0.4000322570413164,0.03336594592968106,7.4496831802767405,2.2597325513047326,-0.7971249333031658,-0.4548179990161362,0.6622185311955218,-0.008248607720441127,4,left
5.735,1.1063965386829406,-0.3988336365065363,-0.0024808075581734977,7.549959776662961,2.373728260047928,-0.820810575190857,-0.45722860692921297,0.6701849231045853,-0.008553004508078442,4,left
5.74,1.229769659079512,-0.37775432188149327,-0.020491999582669035,7.428712538092935,2.237069978964792,-0.7918899021440399,-0.45577941944951955,0.665518972316145,-0.00816963775482301,4,left
5.7410000000000005,1.3482714126076143,-0.33496230156801793,-0.02579353576679114,7.524886465632381,2.343676405159427,-0.8152594632798615,-0.45595900066766554,0.6657232820275145,-0.008826812388064315,4,left
5.744,1.4616166880223191,-0.2718513042079579,-0.02974644740802004,7.469666913601884,2.2858446954148857,-0.8010312961390513,-0.45699701977627927,0.6699212794113577,-0.0077049366286455106,4,left
5.745,1.5649473294809741,-0.1846362789848584,-0.04081466737413002,7.48831106455953,2.299682234001338,-0.807199930972809,-0.4551015521034154,0.6625415543183082,-0.009287737402167949,4,left
5.75,1.643763978913396,-0.07924523953821391,-0.06675900338395169,7.4933541845842075,2.3140186751645806,-0.8063270463016554,-0.45718678884106545,0.6706162741044326,-0.007617252192078588,4,left
5.752000000000001,1.692414459959119,0.04567331505493853,-0.09894012750885264,7.476666986947143,2.288383129163579,-0.8039848029255624,-0.4558798944074864,0.6656225426506245,-0.00855575150720582,4,left
5.755,1.7080296215240618,0.19413655312547545,-0.1248641437142223,7.49875506758484,2.3130976647853285,-0.8092967115402677,-0.4552587324754104,0.6629442254158383,-0.009497330642978552,4,left
5.756,1.6918530103726515,0.3585887326037436,-0.1404405882030789,7.471383994592204,2.2952281719142356,-0.7996537022458894,-0.45880455065405124,0.6773273036877928,-0.005593404725956287,4,left
5.7589999999999995,1.6494867918888683,0.5360363175294263,-0.13954555800899598,7.506650732797442,2.3054628830960646,-0.8151471129604834,-0.45207944857078164,0.6501740902502564,-0.012794224910877793,4,left
5.7589999999999995,1.5769268387281539,0.7292104156828979,-0.11978341475023986,7.463649186063659,2.3009713368463007,-0.79433894331093,-0.46074835393290675,0.6851468358664178,-0.0035566802946761693,4,left
5.765,1.489632458064957,0.9170390308634909,-0.09134609802899375,7.505971303901923,2.3018165566378865,-0.8156763749931975,-0.4534974860410761,0.6559078552872359,-0.011265249580223685,4,left
5.766,1.3776925277684078,1.1078569613768061,-0.05769406078169344,7.4838794393299075,2.3039713177935512,-0.8039152251257384,-0.45374593574691613,0.6568630151193229,-0.011069909227607946,4,left
5.769,1.2448703236508756,1.2959369840905195,-0.012804320900791092,7.457492658798417,2.297610940204497,-0.7920121444472936,-0.46740079447298444,0.712075068948971,0.003672776406663883,4,left
5.769,1.1198319067540785,1.4570260807381001,0.031788899050906275,7.559422944621162,2.3102872129128147,-0.8408481058005952,-0.43377718260393183,0.5761811294803583,-0.03254760189686424,4,left
5.773,0.9508313207473311,1.6403787977857807,0.06240009756408202,7.373598966384981,2.290359044052515,-0.7510536697731199,-0.4895427373645045,0.8015438963313768,0.02750391211161609,4,left
5.774,0.8247992146844247,1.761645302326165,0.07832293736413896,7.611043022515155,2.314659815290839,-0.8660719665173351,-0.4159866800136481,0.5042947777063208,-0.05170411302631358,4,left
5.779,0.7959948694936891,1.7918551195815948,0.0803268682375638,7.413315844432146,2.2949128125377722,-0.7701741907620807,-0.1073116008445506,-0.7432062329180968,-0.384194816411303,4,left
5.78,0.670771436388768,1.8919796788989256,0.08861394430447994,7.417880608218134,2.294618187748381,-0.7725706100967594,-0.03376092907773571,-1.0404166946305398,-0.46340648562397035,4,left
5.781000000000001,0.4977625212864515,2.009380465729141,0.10525870110981594,7.7969888845520785,2.3344806802644635,-0.9559524504439615,-0.08952126828478386,-0.815104037562437,-0.40335011484840777,4,left
5.785,0.3815518450608105,2.070342626537773,0.1183167496293015,6.866349048434439,2.237695044376151,-0.5055227525795891,-0.05589327505999749,-0.9509845365802971,-0.43957223145793234,4,left
5.7860000000000005,0.23049525006849364,2.107089176406619,0.1544564500310499,8.408920372335615,2.3977311324889294,-1.2522249333336535,-0.06957192578403905,-0.8956942503998564,-0.42483594890422854,4,left
5.789,0.13510238377357586,2.108419821826354,0.18797373157446837,6.374495810298155,2.1867882638099347,-0.26740093955522126,-0.06977216616051096,-0.8949478372072656,-0.42462237211758613,4,left
5.79,0.11651754993357022,2.101422610709063,0.1972583190556137,-2.1659475213494677,1.3008257927398708,3.8667273084971763,-0.06258803303615008,-0.9238551557932115,-0.43236065911164123,4,left
