time,gFx,gFy,gFz,ax,ay,az,wx,wy,wz,subject_number,foot
9.499,0.03899863189356849,0.9860738899153053,-0.01765563504744686,0.9824542390569004,-0.4644296796234766,-0.8116641019864078,-0.10603265488614413,0.10313634116456238,0.4556199364811695,1,right
9.503,0.021169003290201428,0.9785828970169335,-0.015615054224755096,0.9851814714507421,-0.4659333287606122,-0.8120588601533627,-0.10612943583028545,0.10345133961448186,0.4562412167369283,1,right
9.504,0.0016348276892098057,0.9698406718306618,-0.014322484590484748,0.9804624964177683,-0.4633296600480106,-0.8113725280169859,-0.1060947472748737,0.10348480562190128,0.4548591080710608,1,right
9.508,-0.01608930425460136,0.9613558608305176,-0.005867963590325089,0.9850404631491241,-0.46572721073704526,-0.8118586584084695,-0.1060915907894481,0.10326492028319999,0.4564990253698406,1,right
9.509,-0.0325114963530721,0.9561947153988778,0.004860480363777638,0.981890266798324,-0.4641442365540168,-0.8116177263228582,-0.10612031621118635,0.103515491653455,0.45543983821147105,1,right
9.512,-0.046642574210694836,0.9493736226207768,0.014567175061772908,0.9830410414941467,-0.464905092621292,-0.811961827976188,-0.10606144731386627,0.1033474687573736,0.45487390370381797,1,right
9.513,-0.05702880170091231,0.9407654586391498,0.025119514044004594,0.9839824014433833,-0.46461838909526454,-0.8109685351045277,-0.10616480331388034,0.10337432593825456,0.4579910144978031,1,right
9.517999999999999,-0.06359801230338255,0.9355290792146752,0.028212852172823356,0.9811955131269546,-0.46485580967007356,-0.8130517857241024,-0.10600956566451802,0.10349192417458275,0.4520591069839775,1,right
9.519,-0.06935479570486641,0.9304580564524788,0.0239496417551833,0.9852055225112114,-0.464404591850614,-0.8099006355533798,-0.10619578886770917,0.1032805740853629,0.45973033544428715,1,right
9.522,-0.07672181190472308,0.9284108504465465,0.016789914924478854,0.981126668808414,-0.46501438104091564,-0.8133173313322866,-0.10604582274957061,0.10348253798083579,0.45330322637784837,1,right
9.523,-0.08158527835973516,0.9318395413445479,0.003793529191016715,0.9834852838840036,-0.46466332809887734,-0.8113437789088941,-0.10604143977593092,0.10343772818520312,0.45351212098686144,1,right
9.527000000000001,-0.08299809214166509,0.9361360887983157,-0.013652141317073055,0.9850849894746221,-0.46407549901383693,-0.8095149877467587,-0.1063498885220639,0.10315724969511993,0.465674196934717,1,right
9.527999999999999,-0.08364635409875622,0.9420850394610478,-0.027340509618120595,0.9775234213538325,-0.4662791501065956,-0.817353547025108,-0.1056038857235917,0.10390357996676158,0.43573119755481565,1,right
9.532,-0.08288221396600315,0.9505965794793906,-0.03302044311425163,0.9915736460283744,-0.46221055594974203,-0.8028250549216198,-0.1068363409838683,0.10264456414595874,0.485396341460652,1,right
9.533,-0.08280006713548821,0.9564056593456713,-0.036112988318068306,0.9735692501608311,-0.46745880910873017,-0.8214909649214562,-0.10521215688579924,0.10431314852479068,0.4198826059749574,1,right
9.536,-0.0827208015854798,0.9572453401426695,-0.03695010540717705,0.9885826965065333,-0.4630660736556372,-0.8059028399880703,-0.09838806604650724,0.11128658955240572,0.14491631738566593,1,right
9.537,-0.0780659269046707,0.9639809438743195,-0.037994582204372636,0.9881332000630636,-0.46315596404253717,-0.8063115276749652,-0.0967632454748833,0.11295713366854249,0.07940579834905019,1,right
9.538,-0.07419925779095775,0.9778873681543477,-0.04431137269052998,0.9596943947469699,-0.4716576916872369,-0.8360917207707015,-0.09799603396082923,0.11169100971037438,0.1290685424739153,1,right
9.542,-0.07112458003399412,0.9879289600786013,-0.053240223006626536,1.029622842011456,-0.45078212185943434,-0.7629054299108999,-0.09725155189888902,0.11245420058367425,0.09912039339769378,1,right
9.542,-0.06316810649291013,0.9966198319018302,-0.06567189377894905,0.9136857677177006,-0.4853986086387987,-0.8842529122659498,-0.09755512119251417,0.11214433308751404,0.11130190087300884,1,right
9.546,-0.05904771309312082,1.0032572279757463,-0.07417824913168225,1.0665906100339086,-0.4397305994445143,-0.7241926378522594,-0.09755950327940202,0.1121384251454006,0.11147425547971068,1,right
9.547,-0.056541872124998865,1.0043586695838411,-0.07668951009100868,1.7083168537406976,-0.24797352333915987,-0.052308934591118045,-0.0973983577389898,0.11230409245305692,0.10509531921377518,1,right
9.548,-0.04777679449119296,1.0040650975772227,-0.08257622628075231,1.8611948196412589,-0.20229066821104078,0.10775700213199822,-0.09759397995091054,0.11210455275311652,0.11272384529700254,1,right
9.551,-0.039105724135868304,1.0005980274849922,-0.08516439365113729,1.7452997557547456,-0.23693036116748806,-0.013599331252319003,-0.09743790511522181,0.11226224155598205,0.10680058345611537,1,right
9.551,-0.02917818312226525,0.9960831032675477,-0.08118995176306545,1.815193457501932,-0.21603559669466604,0.0595942808317009,-0.09752577523425954,0.1121748359846804,0.10997689348648373,1,right
9.556000000000001,-0.018063222925837265,0.9917685876601446,-0.07456736188891779,1.786752627132263,-0.22453620985680467,0.02981451219511443,-0.09750403177294126,0.11219575884246125,0.10925903439877083,1,right
9.557,-0.0080728034370332,0.9842969052889672,-0.06588317827649293,1.7863705744397058,-0.22466334857039863,0.029391618724849206,-0.09747603552060083,0.11222246035214045,0.10843959087712252,1,right
9.561,0.0030463078306290883,0.9785274961909471,-0.05879859055348037,1.8012368106182624,-0.2201893040442942,0.04501075435226652,-0.09753478704355403,0.1121693208299753,0.10980871156764621,1,right
9.562000000000001,0.011842453771807527,0.9762815467108437,-0.05398701293097115,1.7834420998985592,-0.22555337884054888,0.026300669992082505,-0.09746226637125782,0.11223120469442896,0.10860742440422638,1,right
9.568,0.018853386979754357,0.9756471352666576,-0.05383362933469792,1.7972846784893082,-0.22137008213251166,0.04087291070477227,-0.09753215090892094,0.11217496845853589,0.10931118923794034,1,right
9.568999999999999,0.02284810464838894,0.9786056467776807,-0.060171227694786555,1.7898130535335026,-0.2236234308270451,0.033015394305912105,-0.09748470867146514,0.11221126740798217,0.1090836741693209,1,right
9.57,0.022876104857112722,0.9830473249603093,-0.06457388836026183,1.7915874976833779,-0.22313209534534906,0.03480738650805864,-0.09748443941067364,0.112211494139912,0.1090871533220015,1,right
9.571,0.021713855476591663,0.9832134755652372,-0.05986070946399757,1.7933813912626646,-0.2224691397344515,0.03689989462638319,-0.09755917510718239,0.11215764988184472,0.10897516742551555,1,right
9.576,0.016696522718670337,0.9806849407195676,-0.05197820132666893,1.7902754960980607,-0.22361633644192952,0.03327823396013721,-0.09739395331464551,0.11227489118832529,0.10945661311028236,1,right
9.577,0.010630217247624352,0.9776718373759414,-0.04555419846786439,1.7930917962781965,-0.22250574845318982,0.036680869869528246,-0.09763584129096725,0.11210474879501903,0.10855264964486855,1,right
9.58,0.0038880179121656626,0.9712355602803145,-0.036826957296194965,1.791256338422472,-0.22326875993408038,0.03439715007030919,-0.09738066363741346,0.11228333965869755,0.1096248738298993,1,right
9.581,-0.0055149978093625525,0.9651392762604725,-0.02826157176268638,1.7922062623312827,-0.2229866758003748,0.03538869777806612,-0.09752726495192851,0.11218105618788202,0.10897060179972629,1,right
9.585,-0.014733335135108825,0.9613679792650297,-0.027612774041928776,1.7915917054945663,-0.22277258005460254,0.03541642054139496,-0.09765321698532295,0.1120931857983056,0.10839232078792244,1,right
9.586,-0.027903989165111453,0.9590998621468565,-0.03880811419323278,1.7924754059174395,-0.2234176361784796,0.034807602472361115,-0.09710289328544712,0.11247654440171086,0.11096521052036219,1,right
9.59,-0.04424627411531373,0.9615555133873991,-0.0535213295095633,1.7910359710750365,-0.22249145088916114,0.03558913792262841,-0.09812253949422553,0.11176667380478222,0.10615373796589164,1,right
9.591000000000001,-0.060345862903822794,0.9653144289493008,-0.05817346395572209,1.7927310545020654,-0.2234308122432943,0.034924137862570204,-0.09681389305347295,0.11267742662064054,0.11235965707314505,1,right
9.596,-0.07815565842283834,0.9710177403463521,-0.05100083665787463,1.7917533012327589,-0.22288754213867848,0.03531013261628861,-0.09790620192362008,0.11191746852410922,0.10716633638482978,1,right
9.596,-0.09325454746252318,0.9811065169756115,-0.037380918254023135,1.7905545167563344,-0.22252561575172847,0.03527016628822559,-0.09787639271011761,0.11193789989650349,0.1073058568642279,1,right
9.6,-0.10209153856179673,0.987294281521261,-0.02314889534305033,1.7953403088799829,-0.22424726939887435,0.03496270614458258,-0.09579470854910337,0.11338677937545363,0.11723241060497941,1,right
9.601,-0.1086491274403482,0.9907708867489539,-0.01444575585957691,1.7864878134610398,-0.2210476355951323,0.03555678224395363,-0.1009114588787542,0.10982613048299664,0.09282626504328478,1,right
9.605,-0.11746883251706311,0.9982935519395036,-0.014195039541499664,1.797884498951833,-0.22514723787824714,0.03482498391037396,-0.09242757353539965,0.11572942743110495,0.1333009079991464,1,right
9.606,-0.12311710816207967,1.0029530987444049,-0.015970189871100597,1.7883563704905938,-0.22172881000262423,0.035421738547569595,-0.10361783196180971,0.10794333006105056,0.07990883117299583,1,right
9.607000000000001,-0.12395489029684123,1.004836273138212,-0.015439056711333136,1.7885771399329484,-0.22183225910550075,0.03536650364598146,-0.15058221912743375,0.07525664695851769,-0.1442074580669351,1,right
9.61,-0.13129126362297805,1.009653406259858,-0.01764649542502755,1.8069043876657558,-0.22830346438215693,0.034395757293852705,-0.1617721196463251,0.06747049839156219,-0.1976042228411261,1,right
9.611,-0.14272597154319983,1.013734569530944,-0.02075465410380193,1.7618858733518112,-0.21239000389433427,0.036810849101210054,-0.15328948583930205,0.07337440833276834,-0.15712327273266294,1,right
9.615,-0.15140091867052236,1.021475529442255,-0.024253462054525127,1.8365320631383648,-0.23877427834301745,0.03281039246046167,-0.15840332205950092,0.06981180546772064,-0.18153186395442245,1,right
9.615,-0.15758755499883415,1.028964119074943,-0.02881764886521878,1.738064047818834,-0.20397606118616432,0.03807533738284505,-0.15632666475360962,0.07126457294699871,-0.17161311590830847,1,right
9.616,-0.1586005519041378,1.0309465853733935,-0.030991045796826534,1.3246407631779373,-0.057923581429887384,0.060031710443134115,-0.1562902559910984,0.07127935895163882,-0.17145077500088762,1,right
9.619,-0.15819587178280917,1.0402875600534778,-0.03470171473228589,1.2261548954527268,-0.023126100694599167,0.06526940375510709,-0.15738865159315768,0.07052531740014176,-0.17668164032572697,1,right
9.62,-0.15668182329214048,1.0528354724921307,-0.04106915332992206,1.300831092794891,-0.049511414403198145,0.06131899650391631,-0.15607816060827906,0.0714328987644722,-0.1704323065746159,1,right
9.624,-0.1491246615155945,1.0608496657717899,-0.04730898847017659,1.2557820518186915,-0.033591147615719824,0.06367246061969817,-0.15709077263531074,0.07071934537388408,-0.17527370829841815,1,right
9.625,-0.13889076479663626,1.0664597303345604,-0.053859106338535294,1.2741233078469505,-0.040078403076990635,0.06275408163587327,-0.15656007531892055,0.0711170663955696,-0.17271229442846692,1,right
9.629,-0.1252896045489443,1.0669970522162904,-0.0614259630237003,1.2743660979577953,-0.04015627459731032,0.0626864939014751,-0.15665384488297215,0.07100295467835799,-0.1732092291060522,1,right
9.629,-0.10321866084174841,1.0655540679634226,-0.06453510983651625,1.264764634963344,-0.036767349914732655,0.06322064158439662,-0.15683827659151411,0.07093451751079667,-0.17402883896210045,1,right
9.636000000000001,-0.07418532351840561,1.0599544173612374,-0.06478949672425544,1.276286511119693,-0.04084652750568901,0.06265151059516713,-0.1565553856386176,0.07108364573911807,-0.17272700690714798,1,right
9.637,-0.04491017828529452,1.047110115422737,-0.06788832385971671,1.2672831284158872,-0.037639081613668676,0.06298910355965284,-0.15679140850104528,0.07091894822368269,-0.1738538346174785,1,right
9.638,-0.024570942635335873,1.0327842172570731,-0.06535434421944644,1.2721846325127741,-0.039416576520848526,0.06297122283878587,-0.1566905047236155,0.07107778699684983,-0.17328287174418988,1,right
9.639,-0.014498012829404994,1.0184746338566768,-0.06597610856407607,1.2709971114755045,-0.03894067978764417,0.06273694969879463,-0.15662843917316338,0.07091849974150177,-0.17319092437927586,1,right
9.642999999999999,-0.011178455115103559,1.0089732372132554,-0.07311894035396785,1.2697819578727265,-0.038556345645638104,0.06303845909745442,-0.15682408454277247,0.07108438350482277,-0.173819998863725,1,right
9.644,-0.01846778249368323,1.0079102828899742,-0.07167223576345338,1.2719998857107844,-0.03934045803055624,0.06292248388339176,-0.15657783039946166,0.07093380671642271,-0.17296940245369008,1,right
9.649,-0.033815111177364826,1.0098646576689954,-0.0707913577132874,1.2697977850502609,-0.038478488071108576,0.062600847570184,-0.15674536547948342,0.07100319431706781,-0.1735815476138452,1,right
9.649,-0.05163764586287771,1.0125817997354825,-0.07024359943118613,1.271470817429588,-0.03926140057021127,0.06351448595537453,-0.1568112815849391,0.07111777576235023,-0.17373406742552433,1,right
9.652999999999999,-0.07376427899432811,1.0139852071644069,-0.06176942310189916,1.270445124810859,-0.03861283542392459,0.06207344423731389,-0.1563780078099849,0.0707173646938414,-0.172374455011515,1,right
9.655,-0.09613399325787601,1.011202677798045,-0.0535562244283251,1.2708907796558857,-0.03907537373521906,0.06364395552572932,-0.1572156773895595,0.07143603965076735,-0.17505935738090198,1,right
9.658,-0.11569088538582148,1.003069122241845,-0.04636971440923708,1.2709641970999026,-0.038925064017918926,0.06271901722225909,-0.15612783091389565,0.07052185958667315,-0.17155294153419,1,right
9.658,-0.13293095497340496,0.9897122989035662,-0.038709663789485635,1.2703303382928146,-0.03854904273885689,0.06195855724265803,-0.15704107075050244,0.07128137742816126,-0.17450506135715382,1,right
9.663,-0.1508617320250562,0.977909043433924,-0.03057587642135231,1.271632737396434,-0.03967447407420134,0.06536442595016713,-0.1570086971136853,0.07126653935631705,-0.17438704639066038,1,right
9.663,-0.17331359398491492,0.9695256969265704,-0.024899244539530956,1.26964680532762,-0.03773914493421272,0.05902563117447004,-0.15528779843258317,0.06980311069465964,-0.16885939450779575,1,right
9.668,-0.19673416863293433,0.9630414756397949,-0.025616675772871023,1.272005732649629,-0.04015659583280057,0.06717485997003558,-0.15952840367120358,0.07339169726348996,-0.18250064589118176,1,right
9.669,-0.22193628658068587,0.9606895389821974,-0.02736441870254358,1.270119132694173,-0.0381677570185872,0.06036743234112866,-0.15249349275888607,0.06744489887480605,-0.15986229830035137,1,right
9.673,-0.23686117009786561,0.958828393375261,-0.027939407475233012,1.2700964257655574,-0.038195205346810174,0.0605548137300597,-0.16177349856575432,0.0752873994513949,-0.1897293472510685,1,right
9.674,-0.23974759581336313,0.9595299939548758,-0.029296679435351077,1.2738323164365069,-0.042037235917014776,0.07352972515399973,-0.2007267888096651,0.10821271008800332,-0.315070758879491,1,right
9.675,-0.25330473086420713,0.9658988531030875,-0.0279064367244974,1.2647830213927045,-0.03264164825868199,0.04163352584831034,-0.21000608015202615,0.11605471348180116,-0.34493846291818464,1,right
9.677,-0.263682882809505,0.9715646131203943,-0.02227765834021237,1.2797215875243002,-0.04819630961973096,0.09452113350203051,-0.20297101136787069,0.11010910103569135,-0.32229496419967385,1,right
9.677999999999999,-0.2614303887864019,0.9746538395392813,-0.01920811165471866,1.2600525230664332,-0.027692579926868816,0.024762032839602884,-0.20721520779031244,0.11369559687629366,-0.33595168099404826,1,right
9.683,-0.260036189139746,0.9752014091380791,-0.019082011301568516,1.17744096588632,0.05839512808513882,-0.26806230382469387,-0.20548494751464352,0.11223511590300839,-0.3303939409623211,1,right
9.683,-0.25127730920007496,0.9756041157227424,-0.01693560932867467,1.1577970275021299,0.07888918474957488,-0.3378207574187869,-0.20546817540935472,0.11221709677680525,-0.3303189931275717,1,right
9.684,-0.23385254281698684,0.9774808401242308,-0.015708104675401256,1.1726896331547045,0.0633516221033687,-0.2849328532177655,-0.20636268148385317,0.11297864465994983,-0.33322671370407697,1,right
9.687999999999999,-0.2099056792388653,0.9770291465208684,-0.014153128152493807,1.163696503066142,0.07272769538749363,-0.3168328488936528,-0.20528894864424446,0.11206560447894348,-0.3297428381567449,1,right
9.687999999999999,-0.1800217489271766,0.9762400770620175,-0.013713289934890835,1.1673854628910603,0.06889938639356552,-0.3038483375431815,-0.20612896142593795,0.11277791704168821,-0.33245825898298587,1,right
9.692,-0.15214267849782523,0.9775620320873961,-0.02092166186056294,1.1673721404762345,0.06887477261101466,-0.3036767497487206,-0.20566413654747223,0.1123900542844885,-0.330986558888956,1,right
9.693,-0.1251861576552962,0.9820090687482731,-0.02956706795397361,1.1655454132719225,0.07083364167732223,-0.31046542490793716,-0.20579825776421573,0.11248748598943428,-0.3313406095667596,1,right
9.697000000000001,-0.09846049684909197,0.9899904126590873,-0.03546407110618512,1.1677531305935762,0.06847839126847408,-0.302330008005699,-0.20586725140691187,0.11257321135859055,-0.33169608001984086,1,right
9.697000000000001,-0.0710664498816653,0.9973183023623741,-0.040337285336058,1.1660025118266661,0.07032679964892201,-0.3086718706459698,-0.205721775499265,0.11241661602703312,-0.3310642947940904,1,right
9.702,-0.040993985652921276,1.001564708023381,-0.04240041066449077,1.1670428940558155,0.06928639425793398,-0.305233341020489,-0.20586719270393364,0.11256633230382315,-0.33166264829049574,1,right
9.703,-0.013069630370007503,1.0050767307876154,-0.042325662921260165,1.1665788662448668,0.069626705740553,-0.306063223676763,-0.20573533770589378,0.11245517266433822,-0.3312395118415435,1,right
9.707,0.009142523119057104,1.0122235255952508,-0.04129970800068658,1.1667424779858118,0.0697033012674518,-0.3068888643461012,-0.20588674385389383,0.11253325818907618,-0.33148481972777244,1,right
9.707,0.024206405513299292,1.0225828662900827,-0.03989878417265833,1.166670736749305,0.06947491049877774,-0.30541862776268025,-0.20567187524375702,0.11246558940844809,-0.33134616530631866,1,right
9.712,0.03338496181985557,1.03455672694871,-0.035502754235093026,1.166665454428852,0.06972203550375014,-0.3068119946284117,-0.20596100579581944,0.11254002294994858,-0.3314519716808648,1,right
9.712,0.03821497784033866,1.0464856766529067,-0.027191663315280973,1.1669474319335724,0.0694301932124283,-0.3058236097871493,-0.20565864862026145,0.11246558685586067,-0.33135798899796043,1,right
9.717,0.036980220155174715,1.0543957709181266,-0.0249881285546577,1.1660651891799874,0.06990186798018515,-0.3064042929662162,-0.20582408962492588,0.11250084703170174,-0.33138256891225193,1,right
9.717,0.026319225832794974,1.0619591786005174,-0.027298100570265386,1.1678035134571352,0.06911353465666847,-0.30606291164928556,-0.20601253374009695,0.11256972493318738,-0.33155100645101904,1,right
9.721,0.004828750611987956,1.0700992521421164,-0.022951421335670623,1.165276882001625,0.07022025838080607,-0.3063361099602947,-0.2052628660784887,0.11233119132050204,-0.33105486684175944,1,right
9.722000000000001,-0.022605282273622886,1.073501137571541,-0.02240144374199495,1.1679578006154823,0.06905333020095875,-0.30608886130751384,-0.20663954766495507,0.11276228819331996,-0.3319314593162726,1,right
9.727,-0.05578022048440113,1.0748343109575127,-0.029813789435069758,1.166428534131842,0.0697072875221185,-0.3061622539164218,-0.2048749208277782,0.11221114579403296,-0.33081563811833464,1,right
9.728,-0.09187764191432182,1.0764175037109975,-0.025187041668148887,1.1650127496157292,0.07037172110122625,-0.3065695471015698,-0.2063467941071293,0.11267045903299805,-0.33174321636367343,1,right
9.732000000000001,-0.12465967302871339,1.0761229255597302,-0.010369166068398755,1.1710489595959026,0.06762853272882308,-0.305350221145931,-0.2063118904757581,0.11266147351885857,-0.3317333031339932,1,right
9.732000000000001,-0.15269604506149853,1.073654123189527,-0.008420409155782838,1.1598839311629423,0.07268624473131702,-0.3075097648760094,-0.20348933262258773,0.11177387695834914,-0.32991477990990975,1,right
9.736,-0.17205126023048806,1.0707534184057235,-0.012572987206242062,1.174213412118938,0.06619829960258936,-0.30475970637132,-0.2104208310557938,0.11395187208029685,-0.33436656161209183,1,right
9.736,-0.19013196689740794,1.0692370154208852,-0.003763500439918799,1.1622538073989839,0.07161247749450322,-0.3070462126567223,-0.1989298632298614,0.11034104402749728,-0.32698995296688255,1,right
9.742,-0.20563734080901525,1.067409043513929,0.005927039498592258,1.1625658212229957,0.07147535054953988,-0.30702007110882906,-0.21408593530860792,0.11510444019437727,-0.33671925533308183,1,right
9.742,-0.21162208709048907,1.0670676980252392,0.008951285378306539,1.1854071582363994,0.06111980890550251,-0.3025431990378783,-0.2777140555642633,0.1350949727353258,-0.3775801773377777,1,right
9.744,-0.23010029382497016,1.0670530738960196,0.011912467648751755,1.129281270178097,0.08656226321199334,-0.3135043838525119,-0.2928701569473534,0.13986025481524186,-0.3873113023991369,1,right
9.746,-0.26424003576880895,1.060259427532999,0.010385018557354308,1.222334641799406,0.04437899839844262,-0.295341553424437,-0.2813791574875295,0.13624738640050565,-0.3799327209000555,1,right
9.747,-0.28324892905125537,1.0546103988139228,0.007276798004743616,1.0996011934432355,0.10002016011355835,-0.31929674945404884,-0.2883106436089644,0.1384246052243442,-0.3843837554686571,1,right
9.751,-0.2888086511155576,1.052429013529585,0.007518708459407658,0.5843969301331523,0.33357805014467234,-0.4199023395649849,-0.2854881914475156,0.13754377750326524,-0.3825717677071869,1,right
9.752,-0.3045486135919645,1.0425850806788834,0.009309588210499056,0.46167039285156575,0.38922549577860377,-0.4438602683398253,-0.2854530607559319,0.137520228337972,-0.38254778862634015,1,right
9.752,-0.3204225195047864,1.032715935580268,0.007538843350868916,0.5547123481207237,0.3470330483643624,-0.42569534530447206,-0.2869252593142497,0.13800042260815565,-0.383495537633077,1,right
9.755,-0.3249916501548533,1.0318238939966973,-0.00412717385003243,0.4985975682923744,0.37248136038692503,-0.43665234515022877,-0.2851603089159742,0.13742848742105473,-0.38235962658816935,1,right
9.757,-0.3214575361697021,1.0340603616846402,-0.02513071176965216,0.5214349448114415,0.3621309639043815,-0.43219158998149915,-0.2865371294652448,0.13786855532534192,-0.3832448948465619,1,right
9.761000000000001,-0.30935919932546313,1.040044183733249,-0.04812753208336659,0.5217362641055353,0.36197113737036724,-0.4321349860342979,-0.2857877411420401,0.13764787827065494,-0.3827659896038006,1,right
9.762,-0.2927417813636072,1.0535440726371,-0.05798824338683411,0.5098073782548753,0.36742717258428814,-0.4344617944099013,-0.28597528799968963,0.13765923796307789,-0.3828788812378886,1,right
9.766,-0.27313424082113924,1.0660121751233205,-0.0525039024524412,0.5240870511733229,0.3608859157076766,-0.43167581911649,-0.2861422735578783,0.13779360286800907,-0.38299918565728375,1,right
9.767000000000001,-0.2548629004074357,1.0708524483916315,-0.04559683085969169,0.5129792039526899,0.36598822953429666,-0.433843031468621,-0.2858380223775552,0.13759754208047364,-0.38278770739488144,1,right
9.77,-0.23603163521720996,1.0723661466481467,-0.04704354701226098,0.5189759426071036,0.3632410494684128,-0.43267258797138497,-0.28612866060548314,0.1377689382073529,-0.3829872132223685,1,right
9.771,-0.21345883616315253,1.0721598188480104,-0.05750666457569231,0.5175458295019808,0.3638327228525574,-0.43295345107691996,-0.28591381076512085,0.13770213926997432,-0.3828493332501882,1,right
9.775,-0.19610093270540135,1.0698254666341436,-0.06966183285570993,0.5161215558478864,0.3646606472581587,-0.4332270727390212,-0.2860624068246742,0.13760027465523303,-0.3829208986861756,1,right
9.775,-0.18104437985175648,1.0640236093509188,-0.07650241885172546,0.5185883638579051,0.36322862159608826,-0.4327527948077822,-0.2859369641464289,0.13790035051059224,-0.3828949312809149,1,right
9.78,-0.16910343863685773,1.054762309482596,-0.07247817768464712,0.5163597596777518,0.3646237497741208,-0.43317906149625374,-0.2860728229419716,0.13743657855913807,-0.3829006853003972,1,right
9.781,-0.16864591027329706,1.0455158705037706,-0.06321000368624913,0.5178076956967512,0.3636606431187763,-0.43290332564921674,-0.2859375270932062,0.13793396616251258,-0.38290073238466904,1,right
9.785,-0.17635958572984264,1.0359798704895713,-0.05908894530523974,0.517044532962184,0.3640038786572725,-0.4330525156008651,-0.2860006548137656,0.13764184201275473,-0.3828909523102634,1,right
9.786,-0.1912940829025132,1.0310889068500526,-0.05642412381238347,0.517586127965852,0.3643273686333575,-0.4329335918300374,-0.2861296688923145,0.13741348445062063,-0.38293069995219464,1,right
9.789,-0.21488822935557556,1.0322283746808574,-0.0562162656752275,0.5167670076703289,0.36339839067868357,-0.4331234269876659,-0.2856870886440468,0.1384512767895008,-0.38283570520846033,1,right
9.79,-0.24060176763421298,1.0340698327000188,-0.06682114607882386,0.5180858827793049,0.36474029049444057,-0.43282144922418275,-0.2864858934867526,0.1365197618135673,-0.3829975199865846,1,right
9.795,-0.2607318304619068,1.0403439400882895,-0.08134454999885976,0.5165513306573948,0.36336814155112174,-0.4331683339298851,-0.2854650277731696,0.13900146103008704,-0.3827931030247004,1,right
9.796,-0.2746048658702515,1.048155663661949,-0.08522017810896992,0.5174361190875881,0.36416176200221495,-0.43296848333281734,-0.2863154674554332,0.13692900761752402,-0.382962201158367,1,right
9.799,-0.28669862264885393,1.0596034587823029,-0.0850350879053642,0.5184862523298122,0.3647157452118023,-0.43273943325544595,-0.28629972186155106,0.1369874673862363,-0.3829632091024896,1,right
9.8,-0.29854137109913415,1.0765390071038827,-0.09560776886149605,0.5142637150332348,0.3621223587403148,-0.4336675861641557,-0.28465389411785713,0.14093141272336523,-0.3826229891056261,1,right
9.804,-0.3057048177962244,1.092290757583505,-0.11259508613306875,0.5220746779505728,0.36694062822298856,-0.43195075802882366,-0.2886908870960718,0.13123493152736795,-0.3834521415077987,1,right
9.805,-0.3081280215443052,1.117172498109575,-0.12867134465525012,0.5120226935134189,0.3607640094007248,-0.43415902314900623,-0.28199915527422553,0.14731280275868752,-0.3820797039437392,1,right
9.81,-0.3103799774822868,1.134511946417053,-0.13828488508582407,0.5204232954996244,0.3659163922185512,-0.43231463711049056,-0.29082575005237987,0.12610617232814247,-0.38388919549723466,1,right
9.81,-0.31067305118223754,1.139061111774197,-0.14147044747758114,0.5202309894737577,0.36576154753234247,-0.43235560936089124,-0.3278739751927041,0.037093734213970844,-0.3915105589308119,1,right
9.811,-0.30810393145013815,1.1576844524889185,-0.14296362476206387,0.504072216570564,0.3559994513940897,-0.4359050596450015,-0.33670110564289935,0.015887372354855215,-0.3933213796442888,1,right
9.814,-0.306486482654918,1.1801608891570234,-0.13159217434655107,0.5437560850359946,0.3800071908609063,-0.42719133870604575,-0.33001034174114074,0.03196509420077291,-0.391945094344776,1,right
9.815,-0.30447236454708965,1.209080835778305,-0.11184860294413625,0.47796266635812035,0.34020001405310735,-0.4416355281887747,-0.3340416330709677,0.022268002386002135,-0.3927822349256873,1,right
9.818999999999999,-0.3020055093477838,1.234162811442006,-0.10558074317358979,0.5647463592810072,0.3927038167068714,-0.4225852884246286,-0.3324090278609208,0.026213942604521874,-0.3924291891430528,1,right
9.818999999999999,-0.30216914480852386,1.2404873167072206,-0.10502381326166824,0.9292500229168051,0.6129977928209095,-0.3425155758912202,-0.3323723814465952,0.026268798912829235,-0.39244603821923857,1,right
9.82,-0.30134757055513517,1.2649928372974957,-0.09151639126277693,1.016051031947816,0.6654942253299443,-0.3234597010475494,-0.3332467447529517,0.024200960687994162,-0.39260183469025667,1,right
9.824,-0.29948256683517765,1.300535304513305,-0.06769974053466157,0.9502134820655229,0.6257048330775627,-0.33792273654604377,-0.3322096054991364,0.026678752943539906,-0.392398907828724,1,right
9.825,-0.29628831207680084,1.3251084774840063,-0.04613319890839669,0.9899801794226303,0.6496808561325303,-0.3291661763092183,-0.33300141315058684,0.02474764467035131,-0.3925819092885555,1,right
9.829,-0.28503476001628497,1.3510188463778245,-0.03498316894535801,0.9736981024044735,0.6399639481912358,-0.3327885007575314,-0.3326051100797227,0.02579173925998697,-0.39243533436800637,1,right
9.83,-0.2682072266925236,1.378461909622311,-0.03765510669002205,0.9736472089531659,0.6397597345545555,-0.3327348700170102,-0.33264062590490284,0.025548150890128605,-0.3925546997872169,1,right
9.835,-0.2507495505664027,1.4086724879590249,-0.05544312940771652,0.9819442437993005,0.6449445855538452,-0.33097633138825633,-0.3328333047710355,0.025279391424414786,-0.3924568635454887,1,right
9.836,-0.23613477023682553,1.4400075908920162,-0.0782243587481311,0.9718714919852898,0.6387834971645597,-0.3331613080538163,-0.3325725257207037,0.025751162015466886,-0.39251279968892916,1,right
9.84,-0.22727544137088107,1.4656619989061266,-0.08016420066961902,0.9799214933037741,0.6435061864990884,-0.33133902937794424,-0.3327583593385429,0.02530324511860494,-0.3925519573987463,1,right
9.841000000000001,-0.2226238544122589,1.4885343644898834,-0.043761360310069324,0.9751866304643905,0.6411042646777028,-0.33255331851641257,-0.3327486353149496,0.025613979826871188,-0.3923467894057022,1,right
9.844,-0.22332147088971493,1.5058988590963285,0.009671524442073542,0.9769750463555619,0.6413938157339001,-0.33186040065151307,-0.33254000525057936,0.025458560625153295,-0.39276821200026946,1,right
9.845,-0.2247601051198609,1.511160801474666,0.03460758061197272,0.9771055180646172,0.6424430488620176,-0.332199882549957,-0.3329325389356176,0.025495082870353042,-0.39215623235465985,1,right
9.85,-0.21936362803826323,1.509833732015005,0.030225064389477953,0.9759468319432218,0.6409696092458605,-0.3321609273234831,-0.3324843550715588,0.025527604465914663,-0.3928025135499094,1,right
9.85,-0.2033466821786261,1.5070798915780947,0.032044446995838666,0.9777875466031262,0.6420749305059188,-0.33175410953133294,-0.3327632318907806,0.025460931472296104,-0.39243315835271,1,right
9.854,-0.1743119727557833,1.5001533373291558,0.04179254920414929,0.9750818192677746,0.6418743976619374,-0.3328926063237172,-0.3329417146503608,0.025552326019923455,-0.3921021356847685,1,right
9.855,-0.13801189691246363,1.4898898327134282,0.05611152470947845,0.9789940455342506,0.6409608603187356,-0.3307895231931484,-0.3320463879104898,0.025426941154013904,-0.3935275705651541,1,right
9.857999999999999,-0.10306468782151831,1.481280619336267,0.08164466977098539,0.9739574610131181,0.6428062925520508,-0.3337513825874177,-0.3337337229841921,0.025594651823458513,-0.39088954791272856,1,right
9.859,-0.07595218962718055,1.4764315194767599,0.10022474167197015,0.9790341272145999,0.6406631926825832,-0.33065808466451485,-0.3315574475810865,0.025402575568314927,-0.3942749897009097,1,right
9.863,-0.0539528646591865,1.472397534275947,0.09654454606084936,0.9762965380237683,0.6420182788562339,-0.33240263652286506,-0.3333783032069635,0.025553234832119243,-0.39144936363663757,1,right
9.863999999999999,-0.03532954201552815,1.4667913565779414,0.08199107602303331,0.9733283126212922,0.642823268314371,-0.3340393634924076,-0.3333229513443755,0.025563963604062143,-0.3915248489214739,1,right
9.868,-0.02102231825373359,1.4585511372226425,0.0717037354706768,0.98519674656678,0.6386318323082039,-0.327121149754359,-0.32986717860399273,0.025237153683160166,-0.39691549729430087,1,right
9.869,-0.012077781853848547,1.4521298276742498,0.06437308189694196,0.9634510174270442,0.6465606348609539,-0.33989360847531386,-0.33836962461248343,0.026019310743594738,-0.3836671604957483,1,right
9.873,-0.02335605297323455,1.4525833846457201,0.060467862963900526,0.991279332212966,0.6363267209188698,-0.32351321493688634,-0.3242692368568992,0.024729952284450414,-0.4056333848681124,1,right
9.873,-0.03957022548854798,1.4543350175202336,0.0628429940741875,0.9680849817049159,0.6448876554930458,-0.3371809581526526,-0.34286818438259703,0.026428632194040364,-0.37665955273751406,1,right
9.879,-0.045204255697007416,1.4554598688597604,0.0634991238290774,0.9686559426053404,0.6446351954742218,-0.3368212957185345,-0.4209323616875652,0.03357048530643559,-0.2550411296200499,1,right
9.88,-0.059575898724282594,1.4578856637799142,0.06633572198278925,1.0130355082112517,0.6283708729860893,-0.3107314365461041,-0.43952939097447935,0.03527214257508597,-0.22606473784254316,1,right
9.881,-0.07553306638614177,1.459096763340205,0.08585045448911695,0.9040349358465152,0.6683667715672468,-0.37484423561198466,-0.42543181016856496,0.03397892778370197,-0.24803537116720908,1,right
9.883,-0.08521296938942655,1.4589995276347412,0.11852165285058715,1.084737370786352,0.6020572398077964,-0.26854450004407093,-0.433932454396763,0.03476210893135212,-0.23478228022145803,1,right
9.884,-0.09034878950321343,1.4573354636488687,0.13741346659084447,0.8463954884838858,0.6895003983768018,-0.40875591183460536,-0.430475139131435,0.03444134742418116,-0.24017571484175937,1,right
9.89,-0.09099175584455185,1.4557853691781086,0.1422770518772542,-0.15399105529334065,1.0568131444835231,-0.9972413018130918,-0.4304266750084857,0.03443596423838305,-0.24025320371151054,1,right
9.891,-0.09943224179858075,1.4594392295588743,0.15166412724793202,-0.392345558673844,1.144213776058702,-1.137461308651087,-0.4322347975159918,0.03461220555033155,-0.23741830085432336,1,right
9.891,-0.1122362991089642,1.4634982767219007,0.15207632999550327,-0.2116366951889665,1.0779458908130208,-1.0311538613631175,-0.43007477148360673,0.03439155527762994,-0.2408209803384713,1,right
9.892999999999999,-0.12717355871863611,1.459912085886102,0.14497184944063987,-0.3206064771272365,1.1179747496080479,-1.095257500446743,-0.4317484651134998,0.034577352788213535,-0.23816066303419428,1,right
9.894,-0.14607072000810328,1.4513845662652802,0.13891863329826443,-0.27632497757897473,1.1015259293903086,-1.0692100805627414,-0.4308544643453611,0.03446323429110784,-0.23960553206295315,1,right
9.897,-0.15894133374119018,1.4410810657058035,0.1261277927001456,-0.2755782691336526,1.1016491458885478,-1.0687668493108815,-0.4310549565553723,0.03449551594803179,-0.23927079915875993,1,right
9.898,-0.1636321211798833,1.4336217770040713,0.11847999407770607,-0.29899638127629646,1.109688484475472,-1.0825482127918828,-0.4312809980628203,0.03454363959668562,-0.2388744120954822,1,right
9.902999999999999,-0.1650954760638897,1.4317467557981192,0.11805356008660658,-0.2709805018048917,1.09995267688856,-1.0660624221245532,-0.430913478151865,0.03442155695918071,-0.23958934813186486,1,right
9.904,-0.16737162119093685,1.4294280294000083,0.11206467329004142,-0.2927416941506551,1.1077060985979879,-1.0788659757093035,-0.43121809388518273,0.03460178567242917,-0.23886965959927073,1,right
9.907,-0.16898183713383907,1.427385839848621,0.09904489381556177,-0.281185176692686,1.102995816844313,-1.072071407341677,-0.43106297618152334,0.034400666316120806,-0.23941201524821495,1,right
9.908,-0.16313025601607112,1.4276070808078296,0.08627020777710058,-0.2834081570003578,1.1053153967391403,-1.0733668513654213,-0.4310919464983042,0.03455231797197559,-0.23912719834264964,1,right
9.912,-0.1475035749228271,1.4305994838071936,0.08469778922847385,-0.28728249675076156,1.1041497741304034,-1.075667080365726,-0.4310906736345965,0.03455352314938902,-0.23912709388710776,1,right
9.913,-0.1265998813167578,1.436161472069414,0.09467996548659664,-0.280967235613608,1.1050056980998693,-1.0719262039677342,-0.43118847513969083,0.034286031892203334,-0.23941929757319647,1,right
9.918,-0.10377711107546447,1.441691869602703,0.10935500591312645,-0.28675748021356157,1.1046013869949842,-1.0753529805249544,-0.4309008897820279,0.03489145677384681,-0.23885130532235047,1,right
9.918,-0.07815684425490288,1.4507998646330662,0.12523601463609127,-0.2833902904136635,1.103342647191738,-1.0733723006087517,-0.4313826907143945,0.033993113033495795,-0.23961646820912247,1,right
9.924,-0.05079855323292888,1.4608479559538008,0.14201384326495092,-0.283462288048153,1.1080630847014539,-1.0733766950521457,-0.4308381948661125,0.034947919769322,-0.23884885368449554,1,right
9.925,-0.0232549049481137,1.4675709309608727,0.15591259065502544,-0.2866645168892536,1.0985118736814354,-1.0753472661179213,-0.4311627745114445,0.034397180003986616,-0.239276949093954,1,right
9.925,0.0022021762951609895,1.4706125017868161,0.15809979125044907,-0.2810812115947453,1.112464356325692,-1.0719332631673788,-0.431446285204544,0.033922660740613494,-0.23963986387917352,1,right
9.929,0.02249695921733167,1.4653751417042433,0.15100638083919604,-0.2871829804449398,1.097645950084271,-1.0756608541600783,-0.4301928555491353,0.03599799278029822,-0.23807061201036409,1,right
9.93,0.037885139640278453,1.4531541215932209,0.13950470651291189,-0.2834207448714544,1.1061209098724527,-1.0733677637655739,-0.4325290109920047,0.03215043475116254,-0.24096292035010533,1,right
9.934,0.04454940744073199,1.4376304932964812,0.12137144784791176,-0.28135076953728533,1.1138578575377482,-1.0720814782531862,-0.4295211008740406,0.03709004192632567,-0.23726150812554805,1,right
9.936,0.04490345196165563,1.420740580068639,0.10612022436100185,-0.29232945043254654,1.080703415339404,-1.0788406241622006,-0.4320361787643171,0.03296671045587152,-0.2403459349602611,1,right
9.939,0.03970143369226159,1.4062526899214496,0.09796354703603394,-0.27162378940542786,1.1420611588000047,-1.066102187624748,-0.43196740719749654,0.03307793176335504,-0.24026255776133185,1,right
9.94,0.024896030929297302,1.3942794517827286,0.0897906835726997,-0.29828726806009154,1.063303438223661,-1.0825041380975777,-0.427167237785671,0.0409406530086239,-0.23439041650475942,1,right
9.945,0.0034018999527251825,1.3871774675591533,0.08942985630924387,-0.2759978777022008,1.1290427717235567,-1.0687933388475601,-0.4389697352622753,0.021616083924218193,-0.2488187499666219,1,right
9.945,-0.035351802990485515,1.3896370006392402,0.09389169970814677,-0.2767171971359302,1.1273076582955834,-1.0692334983992642,-0.41939677384903207,0.05365625586689059,-0.22490045991189786,1,right
9.949,-0.06424564729524944,1.393244354007094,0.09207577785241193,-0.3188335492412251,1.0018107796032405,-1.0951488043741184,-0.4452168228769384,0.01139623449858326,-0.256444764714829,1,right
9.949,-0.07096157125617017,1.3941199381583527,0.0912389108182064,-0.21518421058203988,1.3102147943537297,-1.0313725846795285,-0.5535818152002161,-0.1659965977387006,-0.38885653856704394,1,right
9.95,-0.10310725290406547,1.3995707076445467,0.08837555947115563,-0.387068648591684,0.798880048586326,-1.137134820262468,-0.5794064761266695,-0.2082554307722994,-0.4203962886481063,1,right
9.955,-0.1295340733588924,1.4034535178363778,0.08184946941954743,-0.16035872204033652,1.4733272725502111,-0.9976365368002351,-0.5598274687927023,-0.17621664018482092,-0.3964845678331362,1,right
9.957,-0.13083137958215946,1.4038044669398833,0.08077220152649292,0.7911673148418403,4.304370568111171,-0.41215905742508513,-0.5716318093979329,-0.19554135945039258,-0.4109089619193942,1,right
9.957,-0.14775681289163284,1.4061372179254135,0.08164501065546544,1.0178496370391583,4.978824729600481,-0.27267492692157913,-0.5668404793423643,-0.18767507190630398,-0.40503245959657347,1,right
9.96,-0.16108472736244045,1.403687607286802,0.08165802364814033,0.84599506726258,4.4674824744268085,-0.37842185143275897,-0.566747536482274,-0.18757199057928167,-0.4049664728330325,1,right
9.961,-0.1625204840303453,1.3916197586555912,0.08208670654670719,0.9496557573974725,4.775883646677498,-0.3146398025613044,-0.5693013962884725,-0.1916832773558863,-0.40801955447408,1,right
9.963,-0.1606110525909588,1.3752571307895263,0.08584692056459611,0.9074403522074282,4.650411640660346,-0.3406059127401553,-0.5662497143337115,-0.18675613089665125,-0.404357363877887,1,right
9.964,-0.14520856284921002,1.3569449574461925,0.09039408857348774,0.9069341682645777,4.648622993690859,-0.3409367680235148,-0.5686143264733748,-0.19059744561651937,-0.40721787639743673,1,right
9.968,-0.12411491966005177,1.3307454531873242,0.08198651413770577,0.9289179573509132,4.71443909690996,-0.3273826829977108,-0.5673764312619947,-0.18851341072614414,-0.4056492163410914,1,right
9.969,-0.10111958881720134,1.3027812415140507,0.06437793652832596,0.9025588040601129,4.6356049128719405,-0.3436285862010312,-0.5675719659709355,-0.18901940001601286,-0.40606917891804994,1,right
9.972999999999999,-0.07924365437220017,1.2839359565179915,0.060338854210249024,0.9231331352479397,4.696995680178353,-0.3309574674412568,-0.5680696627693074,-0.18951396560103287,-0.40636551804038823,1,right
9.974,-0.06453125007450183,1.2683028994530934,0.07354134627354142,0.9118931705613372,4.663906825975731,-0.3378506446098572,-0.5672898529978854,-0.18863016866533017,-0.40579512108883176,1,right
9.978,-0.046151808589416976,1.2512563749388845,0.07973568145813052,0.914804888281421,4.671432372731358,-0.3361326620734723,-0.5679933847768377,-0.18946880915006892,-0.40635001636348234,1,right
9.979,-0.016101992758627004,1.231343791240075,0.06886635072396864,0.917116724175818,4.680271655357561,-0.3345833725211361,-0.5676292446748198,-0.18886996452390376,-0.40590219280463286,1,right
9.982999999999999,0.020912910602381686,1.2051531236639255,0.05226170486414875,0.9127950041765607,4.665006059128704,-0.33739816656953725,-0.5674956690615194,-0.18923193841669586,-0.40630471417394237,1,right
9.984,0.06567190002956069,1.1771740608991141,0.030943876141320204,0.9169591019540118,4.6793151744459,-0.33471183975473745,-0.568165720166768,-0.1890018985648036,-0.40583096320595846,1,right
9.988,0.1174935007745705,1.1534649221934665,0.01051680924655871,0.913744378811284,4.669766885674634,-0.3366890099391788,-0.5670787457103421,-0.1892019955751865,-0.4064305964780798,1,right
9.988999999999999,0.16947684787548342,1.1357395565684865,0.0007381871703094286,0.9163057043319582,4.67382609411637,-0.3353427674614439,-0.5682537737933135,-0.18901541542488634,-0.4058117236337548,1,right
9.993,0.2208886817957419,1.1262042816608742,0.0011654704576881138,0.9136545968140772,4.674078947112567,-0.3364485345298407,-0.5675491053426416,-0.18908100045655407,-0.4061371103998535,1,right
9.994,0.26295991603217506,1.1276034330233378,0.013334683137866597,0.9168428978687688,4.671419212375206,-0.33527100015188677,-0.5670690820215314,-0.1893463780238585,-0.4065756304831843,1,right
9.997,0.2879538801429152,1.139648468238777,0.029541468985993823,0.913586539686433,4.674679929122149,-0.33643822456191075,-0.5693785163447302,-0.1885270427616939,-0.4049163115677742,1,right
9.998,0.2993199971384214,1.1609215611038026,0.044030357849620255,0.9152430880724876,4.672124051092226,-0.33590293742099914,-0.5650579277254364,-0.18998451371143166,-0.40794537996219216,1,right
10.003,0.2895506766258662,1.1883055521385837,0.05756637940025075,0.9177866648141122,4.673247586950607,-0.334752847261991,-0.5706143315160024,-0.1881273025503466,-0.40406841756586864,1,right
10.004,0.2627633280725674,1.2177587463992436,0.05673598377727437,0.9084799135835646,4.673776791471261,-0.33865848701531304,-0.5659719702645107,-0.189671553747065,-0.4072976940963139,1,right
10.007,0.21625528375697006,1.2460822819995203,0.04444588854439435,0.9254109103302826,4.671811449160181,-0.3316194742961915,-0.5661111571440027,-0.18965271170953413,-0.4072337917839365,1,right
10.008,0.15305816613282291,1.2671899413957486,0.028869565681437434,0.9037431116424351,4.67455706667814,-0.340611455404311,-0.5749191788460778,-0.18663415432347302,-0.40100572565884884,1,right
10.013,0.10032803985297405,1.2823064660180246,0.012355249835555028,0.9218048440589287,4.672173299690044,-0.3331242221616615,-0.5532538326758754,-0.194025082050764,-0.4162795230189755,1,right
10.014,0.02656056575837514,1.297715723273758,0.022188102672640445,0.921425633514672,4.67258550735869,-0.33325318992037556,-0.5891806000863977,-0.1817794045490831,-0.39097123232165604,1,right
10.017000000000001,-0.02835677652964536,1.30579791829535,0.043065060422366463,0.8866208305239562,4.675995098877845,-0.34776894226344324,-0.5417924003622838,-0.19792856074867382,-0.4243407829713991,1,right
10.017999999999999,-0.034144486331196974,1.3065934480829788,0.045240874224174915,0.9720424739848288,4.667200272977146,-0.3121804165246702,-0.34290745539340595,-0.2657718093334563,-0.564564613810424,1,right
10.019,-0.10898570391032109,1.3120167356314134,0.05787795485066764,0.8304352768617546,4.681895436018413,-0.37116146610484385,-0.2955197189451798,-0.2819197773825247,-0.597916827822986,1,right
10.023,-0.1836592499179064,1.3154341572716566,0.07229519081219674,1.0172220444759117,4.662494174273085,-0.2933729385878631,-0.331445985570187,-0.26967538218465015,-0.5726272932886585,1,right
10.024,-0.196533652100022,1.315269052422454,0.07323290896852452,1.8013660305051697,4.581600061835468,0.03327412203310284,-0.3097804471756998,-0.2770668101531873,-0.5879082279072136,1,right
10.025,-0.2766338374505489,1.323315666868206,0.09164934399404784,1.98819395997265,4.562214259505807,0.1110572928325721,-0.3185901347942137,-0.2740439652938665,-0.5816179358337017,1,right
10.027999999999999,-0.38606177801235964,1.3352329237353993,0.11846323563259514,1.8465295019253414,4.576906329833568,0.05208897415621552,-0.31872573943483995,-0.2740343326939633,-0.5816879158315311,1,right
10.029,-0.47280182610173294,1.3459330117423387,0.1338217170415988,1.9319792850360078,4.568056852842579,0.08765513922966706,-0.31408851263305027,-0.27556539191762225,-0.5847252360377799,1,right
10.032,-0.5643700319154177,1.3566274541254428,0.13689216566199405,1.897229275584627,4.571621479721163,0.07317080507184942,-0.3196398057742468,-0.2737213016044765,-0.5810394174048326,1,right
10.033,-0.6321783385697943,1.3640772095183373,0.1294693889141297,1.8966700852675045,4.571766618082328,0.07300807008909858,-0.3153214182366104,-0.2751731401289913,-0.5839860194884999,1,right
10.037,-0.6782412454727236,1.37003154210282,0.122416200793575,1.9150395794012984,4.569712524793239,0.08051663072442015,-0.3176352505106438,-0.2743424710666741,-0.5821625431702468,1,right
10.038,-0.7057082140059231,1.3752770278276474,0.11152815706939784,1.893003221896418,4.572196373334345,0.0715372492167009,-0.31714107631292765,-0.2746442430433145,-0.5831298248492683,1,right
10.042,-0.7053608344463594,1.3763808753846618,0.09467281124901195,1.9102085546723382,4.570220452507034,0.07850798741609344,-0.316460781249879,-0.2746471842143828,-0.5825441531715814,1,right
10.042,-0.6852405282255449,1.3756882045405399,0.08049128746396249,1.9009525755935448,4.571259090175936,0.07473632886566334,-0.3176059068070664,-0.2745374145237004,-0.5830433562457152,1,right
10.047,-0.6468584330405589,1.3745334911991816,0.0723162918652942,1.902875508619993,4.571231268381368,0.07570392144309862,-0.31654275755120226,-0.2746763779875711,-0.582751637242142,1,right
10.048,-0.592512370853181,1.3684389354145834,0.07211132057746159,1.9058609039115593,4.570381285541378,0.07641227096554629,-0.3172130544339734,-0.27444555519954855,-0.5822698695441266,1,right
10.052,-0.5276298157803798,1.3524049640297924,0.07507365164692481,1.900698259900774,4.571843529948223,0.07518276656264698,-0.3170351888090539,-0.27492152304357287,-0.5843266734802701,1,right
10.052,-0.4617841765650714,1.3241285741188875,0.08204906622999569,1.9058177236687717,4.570176926119914,0.07618577162098145,-0.31677220539512974,-0.27406259638050423,-0.5800983971925948,1,right
10.056000000000001,-0.40050895953562515,1.2854608440064195,0.09589060972075847,1.9022370394315335,4.571452892148786,0.07559440185875262,-0.3173248765459025,-0.2752888905950409,-0.5862930070625334,1,right
10.057,-0.35032613825205483,1.239328523326778,0.1128826614452699,1.9033862315272505,4.57134275180132,0.07608111152345726,-0.31670582803132136,-0.27399227007455795,-0.5797106707392667,1,right
10.061,-0.322143432023675,1.1892061545763326,0.13459861458513073,1.9051167315137,4.569482340146729,0.07513201688923271,-0.317110740398421,-0.2747246365895709,-0.5834804424198775,1,right
10.062000000000001,-0.3161925090353192,1.1422252908125032,0.15643953359389165,1.9005252969237456,4.573798670711471,0.077035601015182,-0.3172259660776631,-0.27543790884990205,-0.586895474505492,1,right
10.066,-0.326824798122457,1.1026851066721872,0.17762840215585926,1.907227070402922,4.567375288842917,0.0741343183787385,-0.3163388555061016,-0.27245152585614185,-0.5722208111870137,1,right
10.067,-0.3504686475778195,1.0716726071997216,0.2013200145528714,1.9002790415486113,4.5742022022342095,0.07730881183456723,-0.3180532180619773,-0.2779642498077327,-0.5993857775513398,1,right
10.072000000000001,-0.38113404011737,1.0521640875031597,0.21707666158311706,1.9042956722006898,4.570257540399805,0.07547548051137423,-0.31583620828007514,-0.27089292397553544,-0.5645162247540811,1,right
10.072000000000001,-0.40919957941973484,1.0411641680187995,0.2234516100325178,1.907323128994361,4.566901849708607,0.07371386542978138,-0.31769364910342296,-0.2767913547993978,-0.5936216920280777,1,right
10.076,-0.4399717776486536,1.0369848506832122,0.22074317702292146,1.89351052833085,4.581645528887954,0.08118888929813994,-0.3176186199568145,-0.2766466824403886,-0.5928530264533474,1,right
10.076,-0.4733780961173616,1.039413218964791,0.2107316073743989,1.919154144361823,4.554300570887366,0.06733804191107907,-0.3141574498972746,-0.26535641813215893,-0.537293974750398,1,right
10.08,-0.5074438707049787,1.041172258008237,0.1970328123845013,1.886262306673612,4.589408960261865,0.08513830182411611,-0.32269433998965014,-0.2930831268446834,-0.6738269596394189,1,right
10.082,-0.5565806296418447,1.045682448755977,0.17059385675762712,1.9137065826094322,4.560100517602392,0.07027073523529129,-0.30853141019239094,-0.24712387290604246,-0.4474575120783132,1,right
10.085,-0.5931978345117717,1.054599638705095,0.15004309512764025,1.9129146506035586,4.560898435585783,0.07065461515389382,-0.3272138988267657,-0.3077332316459185,-0.7460339342626258,1,right
10.086,-0.6052608780991037,1.0572509530502459,0.144100838029514,1.8607891671966916,4.616763666310435,0.09908392848383615,-0.40558646203151744,-0.5622718816416994,-1.9993670279690847,1,right
10.087,-0.6434439625285006,1.0610509117580886,0.12335742510535384,1.9889451250992498,4.479450494983077,0.029221847154067122,-0.42426779127464176,-0.6228648131113602,-2.2979403588110037,1,right
10.091000000000001,-0.7103297386311878,1.0756995777504272,0.09116126346554201,1.7764641350711348,4.707121205100227,0.14505771784153765,-0.410106116553847,-0.5769233374444265,-2.0715742569005062,1,right
10.092,-0.7497672557705395,1.0859448086764032,0.07321624962021184,2.0566976287909116,4.406826699247828,-0.0077326311375630966,-0.4186434812807434,-0.6046567880203193,-2.2081085102426914,1,right
10.092,-0.7637403654010886,1.089551397046389,0.06782374168000307,3.2323384047860872,3.146371709852728,-0.6490681295334757,-0.4151781553546282,-0.5933076050679833,-2.1525383715440447,1,right
10.096,-0.8049854548201869,1.1022200098709471,0.057150844508923056,3.512421711645419,2.846083645093138,-0.8018539023428991,-0.41511207144598467,-0.593289728133498,-2.1517935660060514,1,right
10.097000000000001,-0.8549310030606121,1.1178101290660885,0.05008664342150454,3.3002567798255775,3.073741452570687,-0.686032494191364,-0.41695668391799434,-0.5990063404130238,-2.1808648188531468,1,right
10.101,-0.8819057378500367,1.127660166325297,0.05929646054622334,3.4279306035769697,2.9364466484695506,-0.755862768787573,-0.4147524518634772,-0.592116092431579,-2.146029341450873,1,right
10.102,-0.8984516229931617,1.135642464484246,0.07098122513055266,3.3763874960226454,2.9922916653756424,-0.727486487322536,-0.4164612948146419,-0.5975506391005965,-2.173179595691102,1,right
10.105,-0.9002535640450293,1.141048945025633,0.0832922903517822,3.375091646736365,2.993104129130497,-0.727034901668171,-0.41556322626516984,-0.5944088673775438,-2.1584756926819204,1,right
10.106,-0.8883693908869863,1.1419667538655216,0.09451109954480083,3.4026586858444685,2.9637980054397692,-0.7419623989877455,-0.41571377537986554,-0.5956228698891057,-2.161984950388067,1,right
10.11,-0.868663369185581,1.1389330610637471,0.096913620732305,3.370393714701989,2.998875139294909,-0.7241488547192882,-0.416057809946707,-0.5954923551031969,-2.1655923466969815,1,right
10.111,-0.8435588277246944,1.1344084106362609,0.09865516260131017,3.394375838150597,2.9715974177770645,-0.7379192897828608,-0.4155134886616557,-0.5952548146440493,-2.159209307614743,1,right
10.115,-0.8173056442292599,1.1276640180110422,0.10162274406159794,3.383230039870556,2.98624408656677,-0.7306541551415018,-0.4160065614048365,-0.595636597392224,-2.1652449953456143,1,right
10.116,-0.7838820307025447,1.1181009901198513,0.10569329260889412,3.3831813048526076,2.9829878146332565,-0.7320811643922938,-0.4157430980842621,-0.5947705168808152,-2.1610153781829444,1,right
10.12,-0.7453619988810783,1.1075189560135412,0.11593609721964715,3.38936728768228,2.978992833065229,-0.7342970976768497,-0.4156757138906365,-0.5968128213546422,-2.1633669267239277,1,right
10.12,-0.7053232704545814,1.0954916612503287,0.12768284071022812,3.3830832060111344,2.9857529827628895,-0.7308591442002175,-0.4160934310484482,-0.5930017233404925,-2.1622114328250555,1,right
10.125,-0.6626892918324188,1.0845135921697102,0.13673947175598244,3.3842839627703754,2.9795749048385893,-0.7336623227121524,-0.41540716420902546,-0.5984824171578615,-2.162924913522328,1,right
10.126,-0.6157640545381882,1.0732430308327694,0.14440148361617167,3.3910937740491898,2.983451081106824,-0.7324677794376426,-0.4161504328232252,-0.59267757209269,-2.1623524153550058,1,right
10.13,-0.5629792059691561,1.0621650227087844,0.14940287494982374,3.3767541959883873,2.982150566739015,-0.73196922917211,-0.41570248394085374,-0.5959722219026371,-2.1623861948541006,1,right
10.131,-0.5087810766632811,1.052795312729638,0.1534345411574473,3.393882105665331,2.981562470209885,-0.733505432121383,-0.4154081195988477,-0.5991081359676443,-2.163886769163849,1,right
10.134,-0.45478602623501385,1.0395106839520383,0.15958641221884143,3.3830450577783253,2.982910584377445,-0.7321046180836461,-0.41684648202310925,-0.5858667652944782,-2.159727897748417,1,right
10.135,-0.40107566506585846,1.0249147679898076,0.1677604204938391,3.3756845742497252,2.981948871736604,-0.7319781629566422,-0.41415208118600766,-0.610337351941236,-2.167006118606504,1,right
10.139,-0.352678476919292,1.0108691263418204,0.1774676616946252,3.4120797228888256,2.9816746130420064,-0.7348136654140914,-0.4176176788526483,-0.57893309598569,-2.1577576866725092,1,right
10.14,-0.3091983669156305,0.9966956233049463,0.18521626239495026,3.3433649280012734,2.983490665083589,-0.7288895318494405,-0.414722307951896,-0.6051468238493318,-2.165439841313095,1,right
10.145,-0.2636741457301189,0.9810011091587258,0.1953886577980385,3.4321400899767744,2.980577826052896,-0.7367924318899144,-0.414809342754809,-0.6044589679968904,-2.1653820401311323,1,right
10.145,-0.22460513241185281,0.9637958780251498,0.20768398629446833,3.357792882239613,2.983259398458527,-0.7300669602244692,-0.4203010750140213,-0.5543955725867115,-2.1502399259998843,1,right
10.149,-0.19331996434892637,0.9453556094924678,0.21909420822065553,3.360010402524822,2.982967660806557,-0.7303619921287157,-0.4067935467958788,-0.6774274599971786,-2.1872817289915965,1,right
10.15,-0.15931943238187296,0.9195355860145455,0.24261116057311555,3.501392515606517,2.9782630267788086,-0.7429746594837143,-0.42919127322455813,-0.473430313694322,-2.12590851428194,1,right
10.154,-0.14135424298168403,0.902817322878319,0.26287088003782944,3.1535235207938346,2.9902204524363674,-0.7117707749331724,-0.3996498153123303,-0.7425148984972123,-2.2068581108426955,1,right
10.154,-0.13565428950533232,0.8935274695412609,0.26910610970819526,3.7304855701117674,2.9702034445562995,-0.7636077391177448,-0.27564917450566806,-1.8718764507713517,-2.5468348113032393,1,right
10.156,-0.12463873137645616,0.8780083463681391,0.27765894653333956,2.969383620561311,2.996703016904579,-0.6951832584506343,-0.24611096217319928,-2.1409888263555743,-2.627807145699058,1,right
10.158999999999999,-0.11859079403053745,0.8689659583146869,0.2825357594016569,-0.22526849957872175,3.1078817601265865,-0.4080257124313588,-0.2685051751852607,-1.9369616086423311,-2.566409327289405,1,right
10.16,-0.10512977905390036,0.8502906437728188,0.29245645486661825,-0.9864309947803976,3.134443069125325,-0.3395658823078496,-0.25499631820317037,-2.059982073088567,-2.6034417839040556,1,right
10.16,-0.08482691807591243,0.8190626238416236,0.31125120110134363,-0.40935005004600333,3.114302026514581,-0.3914702212469805,-0.2604996844887716,-2.0100183890557077,-2.5883812522482086,1,right
10.165,-0.07447691574857314,0.7928973146096308,0.3239457396869737,-0.7573832362076539,3.1264367928453343,-0.3601777070732786,-0.26056167790194895,-2.0091159741171083,-2.588147902255595,1,right
10.165,-0.06613851962483336,0.7674382968257147,0.3369959841612482,-0.6158285534774967,3.121535744459102,-0.37287621695183193,-0.25770221872937993,-2.0356373501601173,-2.596081769330433,1,right
10.169,-0.05833150773105625,0.7437765506522869,0.3450071480009379,-0.6137218922695569,3.1213873858390833,-0.3731286469672424,-0.2611320464949026,-2.003926723351448,-2.586582670526533,1,right
10.17,-0.051779887218346685,0.7187270681666564,0.3425130718886149,-0.6881186604357983,3.124086930638904,-0.36635049508336814,-0.25845309700533814,-2.0285295357917477,-2.5939690751543854,1,right
10.174,-0.042729790698775416,0.6904153034253164,0.3388485480999084,-0.5990337113773923,3.120876975462284,-0.37444794673261717,-0.25992213560327027,-2.015551174602174,-2.590025395197177,1,right
10.175,-0.031344326634024026,0.6634496929571434,0.3339583065883026,-0.6683657671296641,3.1233397007628603,-0.3681760198135193,-0.2595288863245815,-2.0178397343788683,-2.5908326770951895,1,right
10.177999999999999,-0.022299609212986057,0.6389377380061854,0.330674548129177,-0.6311223694625347,3.1221259447290777,-0.3714524009949194,-0.2592513591740021,-2.02259448347865,-2.59206108566376,1,right
10.179,-0.018207316110274926,0.6167328775160419,0.3347578013250201,-0.6392982067897139,3.1221352497468073,-0.370951715679535,-0.25978543636847423,-2.014997653780016,-2.5900224174547253,1,right
10.184,-0.015520663112869091,0.5959722836087223,0.34304103892708715,-0.6498189207256755,3.122977327776364,-0.3696018020474827,-0.2592660085621923,-2.0219071185897732,-2.5919048900641757,1,right
10.185,-0.017670839125768632,0.5770557881493943,0.3494378448335749,-0.6319227602785078,3.1217703809038304,-0.3717065066337361,-0.2596850709401066,-2.018108490315492,-2.5907596059583984,1,right
10.189,-0.026202920203719404,0.5577370073663624,0.352686753934258,-0.6486034466318245,3.1228165441521387,-0.36981158642559125,-0.25930840229002383,-2.0174999762102344,-2.590942290887649,1,right
10.19,-0.040264734769866355,0.5418410350090213,0.35300536052121567,-0.6378331547764182,3.1224451312574173,-0.37077681294106024,-0.2597520137915136,-2.0226923750088934,-2.59166962563861,1,right
10.193,-0.05830014712409455,0.5282404296733578,0.3504747272016935,-0.64142547161937,3.121708846107526,-0.37118585458144204,-0.2591900395059519,-2.0140355075456418,-2.590310043367407,1,right
10.193999999999999,-0.0757711371459684,0.5124131529449134,0.34776955644204766,-0.6439689608226276,3.1237661220501156,-0.36928380355010615,-0.25977067669355003,-2.0234338546096744,-2.5918109107722334,1,right
10.2,-0.09590209684877199,0.49834398495221327,0.3444752264359,-0.6375996221718561,3.1206076370232445,-0.3723530953970515,-0.2594642845884643,-2.0177349845579093,-2.5908624029248175,1,right
10.201,-0.12033439827446621,0.4857077599182876,0.33807982876505505,-0.6448683519951943,3.123990828693405,-0.3690378191095483,-0.2590554799442637,-2.0141511773601786,-2.5904461306556312,1,right
10.203,-0.14505208140885384,0.47626354981494606,0.33116897558212965,-0.6399122261493007,3.1220105060923586,-0.3710219075128858,-0.2606082064764498,-2.0320116502701557,-2.5929259526159805,1,right
10.204,-0.17011317047721936,0.47223226316029976,0.3247708192636399,-0.639388278055214,3.1204314912193905,-0.372393510111675,-0.2577708673903414,-1.9984953575190991,-2.5882072691048688,1,right
10.208,-0.198380423700232,0.47171537219432214,0.31332532420823034,-0.6478150157350581,3.1275503057576035,-0.3658357036933906,-0.2614052957803946,-2.0416218265977033,-2.594294586838943,1,right
10.208,-0.22586871561547653,0.47236907565622854,0.29580691488123134,-0.6310823830753314,3.114312184306804,-0.37809800054829523,-0.2583738504358908,-2.0055791941105756,-2.5891992564694926,1,right
10.212,-0.2514510123878221,0.47396459760068704,0.2771620333620702,-0.6528134014060307,3.1313168898441575,-0.3623291887506128,-0.2584435365008719,-2.0066979842146937,-2.589384226730067,1,right
10.214,-0.27559736899018,0.4782927044636799,0.2628535101971321,-0.6345750441105469,3.1171203033444383,-0.37550433248488424,-0.2642668655743281,-2.074960182306381,-2.5989510786495553,1,right
10.218,-0.3012413314190271,0.48480056274677785,0.2529358344953479,-0.6354450349493875,3.1175106896607203,-0.37510962982569684,-0.24996602609196794,-1.9070052619678297,-2.5753761007620497,1,right
10.219,-0.3352454869680003,0.49596492987278257,0.24232247112010266,-0.6689776512733321,3.1445535496081236,-0.3501090590200231,-0.27367735883968014,-2.1855349214884647,-2.6144870187238216,1,right
10.222999999999999,-0.3560620464588331,0.5059294074000016,0.23487640341270222,-0.586124958685303,3.0780854799433124,-0.41160558418230153,-0.24239757061280312,-1.8181396298634265,-2.562887569278428,1,right
10.222999999999999,-0.36568264449956533,0.509114625990648,0.23107496034692182,-0.723596998898874,3.1882828121342097,-0.3096246256413527,-0.11110662098963328,-0.27626452753820496,-2.3464190338547692,1,right
10.224,-0.3823387819551033,0.5122472929033299,0.22644682770181884,-0.5422863711780653,3.042950222725277,-0.44414591549527416,-0.07981197087021044,0.09114784764679518,-2.294795170496934,1,right
10.227,-0.3911095201239533,0.5156024496628878,0.2225757632768878,0.2182217943980559,2.4329338724042846,-1.0087481356617807,-0.10354561222008205,-0.18741692301440555,-2.3339467826915894,1,right
10.228,-0.40379187643083014,0.517779827642108,0.2160010771601528,0.3994068897705799,2.2876613780508865,-1.1432928303738241,-0.08922882504525656,-0.01941013628957179,-2.3103312710106145,1,right
10.229,-0.4212581260972472,0.5181749544777068,0.20763938390045428,0.26212301666372306,2.397753543558805,-1.0412673952969453,-0.09504430201684838,-0.0877324433043564,-2.31991477952959,1,right
10.232999999999999,-0.43058396566829515,0.5143713321065564,0.20239214450780563,0.34484194282049874,2.331402949234782,-1.1028221333442585,-0.09516127030022609,-0.08880301842722166,-2.320133574131476,1,right
10.232999999999999,-0.4426763026906501,0.5067244714711517,0.19502630343716254,0.3112410702565295,2.3583683169281855,-1.0777656937527338,-0.09203770252207132,-0.05276457113500607,-2.314933971590259,1,right
10.237,-0.4525551167667424,0.4958163052661153,0.1807838668926719,0.3107733220993837,2.358729580733552,-1.077397758881484,-0.09579425689086415,-0.0959679998126435,-2.32119479454731,1,right
10.238,-0.4605844928247265,0.482906247600881,0.16949048937853084,0.32823047463870914,2.3447315626328384,-1.0906093364567622,-0.09284778408419099,-0.062267841769986794,-2.3162718613190574,1,right
10.242,-0.4688108289533005,0.46682478389035664,0.1638112563461612,0.30753279560575425,2.3613426466782546,-1.074710787962453,-0.09442569378737864,-0.0804093984055428,-2.318900841258694,1,right
10.242,-0.47485596104136957,0.448870876020958,0.15312936394686555,0.3233452136078109,2.3486381529857407,-1.0872026223863578,-0.09415949235269189,-0.07651736076485494,-2.31851697958456,1,right
10.247,-0.48216265104881467,0.43431129515200595,0.14337952203013632,0.3151242191732439,2.3552566659354293,-1.0803562752359614,-0.09348039955092957,-0.07101059552611187,-2.3172215037923927,1,right
10.248,-0.4903703231338463,0.4214427593587379,0.1364110491124783,0.31686572482438435,2.3538472081108344,-1.081969361186684,-0.09465325733948843,-0.08053308339597737,-2.3194572704556538,1,right
10.252,-0.5001115351299409,0.4064495330339081,0.1254769225749725,0.31865674032953445,2.3523931964604525,-1.0839278434919115,-0.09341778541368909,-0.07123975290012344,-2.3170501943826034,1,right
10.253,-0.5031167517289543,0.3902197218645258,0.11701473761248746,0.31640527426571796,2.3542616422749387,-1.0802294837347215,-0.0943188018279365,-0.07766351258552273,-2.318830554372764,1,right
10.255999999999998,-0.5061734746148889,0.37625353698322805,0.11230927669765631,0.31708304118982833,2.3536080857835016,-1.084223114454299,-0.09412907529269567,-0.07539878941340403,-2.3185204326115256,1,right
10.258,-0.5186475840298564,0.36711053298876994,0.10473091900146742,0.31838132389125107,2.3527024454798253,-1.0809050792572499,-0.09328001890482253,-0.07314044168299103,-2.3165736263958467,1,right
10.262,-0.5266039569319335,0.3600274873304816,0.09209872476180779,0.31642429491659674,2.354163809361806,-1.0828649997015378,-0.09532691637179458,-0.07955258317258868,-2.3211981273957094,1,right
10.262,-0.5336807431220747,0.3546848509012411,0.07745104313635726,0.31639169090812447,2.354188894187626,-1.0828712242676382,-0.09229810511856446,-0.0702779632605581,-2.3143402063398932,1,right
10.267000000000001,-0.5460245198433306,0.35208654919933613,0.06278171380630175,0.3214994836190634,2.3502933248490363,-1.080331538124796,-0.09549399949775966,-0.07977885558916964,-2.321596602836002,1,right
10.267999999999999,-0.5547883679567907,0.3487537421363298,0.05124535741857515,0.3092034220404508,2.3596961352861436,-1.0856720707998058,-0.09364708917618919,-0.074285314481019,-2.3174033682792903,1,right
10.270999999999999,-0.5606182058944189,0.3441688375257401,0.047303200213009336,0.3280599614568508,2.3452567520970344,-1.078086564562081,-0.09212780038250293,-0.07040489046594729,-2.3139086552249486,1,right
10.272,-0.566555211988486,0.33919101473255286,0.047065711542258956,0.3076591504337214,2.3608905013956876,-1.085949682263994,-0.09887108384658112,-0.08849400688843385,-2.3293582275995823,1,right
10.276,-0.5715728138813602,0.3351124291366005,0.04704154672994049,0.3195412009493249,2.3517797641701277,-1.0814780348935364,-0.086360996168174,-0.05489294461327782,-2.3006993957270288,1,right
10.276,-0.5767322854521644,0.3305706530238106,0.04817380968423307,0.3298282998700237,2.3438960716682637,-1.0776517451782657,-0.10241841069764461,-0.09796698721298448,-2.3374883625182825,1,right
10.280999999999999,-0.5858755954215221,0.3235337540954669,0.04399916635563629,0.28470139023971575,2.378495578256209,-1.0943089881098702,-0.08901581907785056,-0.06203938376968375,-2.306780480959416,1,right
10.282,-0.5951669634724415,0.3163607277484036,0.0298414409064851,0.3684958103939693,2.3142402418178456,-1.0635010330631478,-0.08938574761354118,-0.0631010681501977,-2.30762181921322,1,right
10.287,-0.5977947315051864,0.30699858599283214,0.01667248698841876,0.26082759354378804,2.3968103060753805,-1.1030020931220195,-0.11491044160905658,-0.1312253385876626,-2.3661285490362043,1,right
10.287,-0.5968484930080147,0.2953149105084615,0.014502145836684573,0.3507414007188358,2.327847010310827,-1.0700511813964748,-0.052168785248257035,0.03628191227019232,-2.222319722504988,1,right
10.290999999999999,-0.5952213080190716,0.2854698731207046,0.01860243682223684,0.3483272996210328,2.3297170746162736,-1.0709422479279076,-0.1561967479144263,-0.24144375590990155,-2.460761488185544,1,right
10.292,-0.5930687084739895,0.28149329451334426,0.020942695403979285,0.1767728527916176,2.461255078470428,-1.133731020276885,-0.01898521340743292,0.12484899957329515,-2.1462532891836457,1,right
10.293,-0.593109146699575,0.2805142532783111,0.021729365031655585,0.5984222317277054,2.13792211478026,-0.979425831738921,0.556983523170222,1.6620652418173443,-0.8258616287658069,1,right
10.296,-0.5952129807851951,0.2733503588101272,0.02220403898460475,-0.10069245115148309,2.674048417246623,-1.235250282833886,0.6942027905943199,2.0283036851927556,-0.5112890358713914,1,right
10.297,-0.5956108710178857,0.26750838271086774,0.02116384818434522,0.8214369539846397,1.9668811831357047,-0.897834909168124,0.590156189245721,1.7506749685180065,-0.7498739330563517,1,right
10.298,-0.5966625860526504,0.26662443261722424,0.020822818940277044,4.692558017962378,-1.001278596151743,0.5185375236826155,0.6529310479420041,1.9180693007298801,-0.6058314010830307,1,right
10.300999999999998,-0.6000114937190311,0.26058962140238356,0.017808007655685215,5.6147178978555345,-1.7084496864409806,0.855946189914655,0.6273590962002469,1.8500289784246928,-0.6646434648987702,1,right
10.302,-0.6034609054981714,0.25363860169905666,0.0107727888874786,4.915506364005431,-1.172339078689596,0.6001214513783374,0.6270407382883736,1.8489729690015522,-0.6651862041099104,1,right
10.306,-0.6093739028772933,0.2502436204673738,0.0031697557705967936,5.337369464769145,-1.4956000866107853,0.7544561226797957,0.6404095054509471,1.884743282272003,-0.6346195508430365,1,right
10.307,-0.6149748323612247,0.24730709063107362,-0.008216689449550285,5.165457927410744,-1.3642209948845245,0.691588186460528,0.6243356659337265,1.8420121736210278,-0.6716262321733364,1,right
10.31,-0.6201861930345778,0.2455544082053615,-0.020694563281021386,5.163500526834522,-1.3621059274804708,0.690830647260361,0.636945881474629,1.875119304954745,-0.6422080575640108,1,right
10.311,-0.6253252361736749,0.24683701638798905,-0.030060062134477226,5.253009010132258,-1.431342917260539,0.7236195718883839,0.6300023260608012,1.857532881605665,-0.6590038527376072,1,right
10.315,-0.6248689441106325,0.25004278863101714,-0.03617986269641154,5.14543276903198,-1.348597225565463,0.6842430169041811,0.6317979053670115,1.8611654405084628,-0.6538104198398043,1,right
10.315999999999999,-0.6239839107316518,0.25410152295177324,-0.03985935433279007,5.22976621796048,-1.4127483815024924,0.7150655812410487,0.6333781996028875,1.8663074546545966,-0.6510463281933363,1,right
10.32,-0.6253068525983756,0.2609063187512034,-0.04520232237409075,5.183226818334326,-1.3787143478069732,0.6981439847019213,0.6302869780630989,1.8580649232811743,-0.6581401159851362,1,right
10.321,-0.6260629723325497,0.267081561003409,-0.05019964506660558,5.1957698337906795,-1.3854899010520136,0.7025509440374598,0.6335650056863049,1.8651007132027941,-0.6490331814243209,1,right
10.325,-0.6250810358677924,0.27208627909137684,-0.05675019617419043,5.205067204381866,-1.3961049465870095,0.7061759039054656,0.630754056950649,1.8615135338425945,-0.659116257246167,1,right
10.325999999999999,-0.6223257813624586,0.28141016858894286,-0.06691194359607003,5.186455361165065,-1.3790553269208554,0.699188422636813,0.6328994516753623,1.8613990128602862,-0.6487688418480285,1,right
10.33,-0.6224999182629289,0.29044413462594176,-0.0733047886782561,5.205951948955265,-1.3939804166085146,0.7063202259897187,0.6315146026534435,1.8639287418417894,-0.6577315485474049,1,right
10.331,-0.6227046834349363,0.2959266788562618,-0.07745310184901551,5.188904557849815,-1.3860629416277805,0.7004126311521925,0.631854106954469,1.8612378920334562,-0.653608281060709,1,right
10.335,-0.6204812552164161,0.3041808881359704,-0.07938372847749567,5.203738412118177,-1.3856584330201307,0.705086698830969,0.6331169725830827,1.8615069313367938,-0.6478319026330486,1,right
10.335999999999999,-0.618704239857495,0.3130490821494798,-0.07403336419123567,5.19010494373578,-1.3927766343300636,0.701222259878811,0.6296380809105093,1.8657936646777022,-0.6684215351269328,1,right
10.341,-0.6150093677272332,0.3172768902625541,-0.06771176196520033,5.2015297913150516,-1.3828043706220314,0.7042044433598196,0.6354925292288409,1.8562508597061278,-0.6316050893098843,1,right
10.342,-0.6097813882888228,0.3214183540714495,-0.06848650657063798,5.197012694397717,-1.3901653563107454,0.7032439248866214,0.6282403419525389,1.8692112617163108,-0.6782729904076169,1,right
10.344000000000001,-0.6051289046542146,0.327707892993918,-0.07525637723425065,5.186639167873789,-1.3915392010062368,0.7000450073706039,0.6341810695494474,1.8580888586659121,-0.6395705208387806,1,right
10.345,-0.59805575182453,0.3339030181216244,-0.0812899840628357,5.220084699580241,-1.3763543425597775,0.7096710115101548,0.6341195127997344,1.8586520711605738,-0.6403964538672955,1,right
10.35,-0.5856711088608806,0.33857644547742005,-0.0854329860156124,5.1608833667175595,-1.4066825340838867,0.6928527449859148,0.6226072354309047,1.8793741491688236,-0.7146032978021895,1,right
10.350999999999999,-0.5661727321699073,0.34194721149521423,-0.08720428631217789,5.235883984092491,-1.3669574583049169,0.7140760851408685,0.650724751594699,1.8279716972382487,-0.532608332180094,1,right
10.354000000000001,-0.5422535217767668,0.34630379676155343,-0.08330501312123537,5.173697830061689,-1.4004539576349015,0.6965145988809281,0.6041906448165046,1.913424332215365,-0.8341770505813761,1,right
10.355,-0.5274781107407276,0.3484197313544303,-0.08049062943093854,5.174722897390025,-1.3990340005883435,0.6967487075376673,0.6655256070932927,1.8006023096162553,-0.4364973931451376,1,right
10.36,-0.5232091635938012,0.3483269944553642,-0.07947013683573284,5.2950512739662745,-1.3365268808609527,0.7308769521809856,0.9229809953079977,1.3270117946756839,1.232704298217951,1,right
10.360999999999999,-0.5100466112504367,0.351388379371417,-0.0726836105319161,5.00024751565906,-1.4909072829928376,0.6473419056113647,0.9842884989942263,1.2141291516849577,1.6303506466675666,1,right
10.360999999999999,-0.4851643415959405,0.3543346457592272,-0.06552738519237777,5.488692002214841,-1.2346516412630928,0.7857167134133138,0.9378119706643,1.299715663230888,1.3288675931963987,1,right
10.364,-0.47003113775868777,0.3540873947573925,-0.06314446914121369,4.84455816235362,-1.5727618608669305,0.6032465098309625,0.9658420692702344,1.2480962733886833,1.5107004854540607,1,right
10.365,-0.46599483636795275,0.35425852200944896,-0.06275587423843232,2.1403470688400517,-2.991529651375892,-0.16284523005587515,0.9544347607791774,1.2690994587829971,1.4367364884033713,1,right
10.365,-0.45509804524209563,0.35451748373762904,-0.06330477674111265,1.4962109859601334,-3.329683159506354,-0.34531397048928747,0.954283308281491,1.2693909672170025,1.4356301319485643,1,right
10.369000000000002,-0.44186067741470614,0.35120564936894455,-0.06815309019214796,1.9845929519874848,-3.0733092224622145,-0.20696560782862827,0.9602440815086681,1.2583914304074206,1.4745408585059963,1,right
10.37,-0.429191293382968,0.3472371594364206,-0.07856652520757582,1.6900201618979804,-3.2279249246306527,-0.29041319420309,0.9531078866464234,1.2715626018529012,1.4279076504343242,1,right
10.374,-0.412228557875492,0.3442849390490068,-0.08447343957332051,1.8098662276811426,-3.165051345438915,-0.25646124750149635,0.9586598368680843,1.2613102985341786,1.464259638755388,1,right
10.375,-0.3988061962957572,0.3391240957892344,-0.07987732421225588,1.811612213745948,-3.1640712664428534,-0.25596909694673153,0.9556630232877947,1.266841276408282,1.4446758788039908,1,right
10.378,-0.38796595355936403,0.3338062603451707,-0.07251630001392068,1.748646067375897,-3.1972161689611367,-0.27380346103351594,0.9563737546710553,1.2655543778774456,1.4489939724462473,1,right
10.379000000000001,-0.3815475871155143,0.3295743163481918,-0.0683226971658196,1.8241065545468302,-3.1574925865841785,-0.252429679750668,0.9570963671802106,1.2641521113201928,1.4546180541896452,1,right
10.384,-0.3855524089553492,0.32718312699717833,-0.06613105656760321,1.7652951487667043,-3.1884675203220527,-0.2690876332070339,0.9558450197471894,1.2665796822541737,1.4448886239882888,1,right
10.385,-0.3950777516057513,0.32635203370019616,-0.06779831211293383,1.7969900944429291,-3.1717896355999997,-0.26010978423529196,0.9569816984619073,1.2643354638364552,1.454239948837186,1,right
10.39,-0.40717342977637916,0.323028571430518,-0.07369123246806092,1.7899233513523831,-3.175406597733075,-0.2621136495896888,0.9562397929644437,1.2658220696887847,1.447850617449868,1,right
10.39,-0.42001314090548797,0.3205254471980321,-0.07764058286568962,1.7810326961398109,-3.1803595144825527,-0.2646263975920833,0.9566206387461273,1.2651214876164438,1.4503070637870719,1,right
10.394,-0.4348303180834624,0.31965429400571066,-0.08032512792183338,1.796418548498887,-3.171795307651978,-0.2602776216286258,0.9563852149476837,1.2653326748700644,1.4517058392949989,1,right
10.395,-0.4546202624198956,0.3194800125222511,-0.08120688366531023,1.78172878381091,-3.180102551241763,-0.26442710697618876,0.9567144507854857,1.265234926748883,1.4471545945691415,1,right
10.398,-0.4762326935589492,0.3237793822307917,-0.0801921496752567,1.7917141204737033,-3.1743867398176624,-0.26160788484430686,0.9561746651045702,1.2654700207618197,1.4536293443821449,1,right
10.399000000000001,-0.4981966086337308,0.32760906364712683,-0.08269083731283433,1.7877305868053637,-3.1764726887778716,-0.2627363448039878,0.9568145977901927,1.265100956967748,1.4471448534326092,1,right
10.402999999999999,-0.519406897218269,0.32938899280976763,-0.08379884382493616,1.7861441376759268,-3.1781869705180856,-0.2631684876276802,0.9564453130659469,1.2653126971559288,1.4508958762010875,1,right
10.404000000000002,-0.5392583333920493,0.33257879913168165,-0.0833430937807948,1.7919655040491862,-3.173118122890487,-0.26155901841476614,0.9559848887905344,1.2657589560408835,1.4532037719431414,1,right
10.409,-0.5609758336755661,0.33547195596240587,-0.08407352808997977,1.7837904857802211,-3.18041184473567,-0.26381560473129695,0.9578165449803762,1.2641479314461017,1.4419055990919756,1,right
10.409,-0.5822515637173362,0.34133810361064176,-0.08210408643063047,1.7918289974628072,-3.172991896243829,-0.2616018068143321,0.9544282931913194,1.2671180063741851,1.462917284938824,1,right
10.413,-0.6034913615145877,0.35082652716486873,-0.08141917075502188,1.7871768352709931,-3.1772828652570464,-0.26288268904616086,0.9587914555518917,1.26328313538199,1.4360145815632666,1,right
10.414000000000001,-0.6263372669622158,0.3606125019433625,-0.08449470489791333,1.7846676515489441,-3.1801943242942836,-0.2635628070086974,0.9551425018053177,1.2664936032737577,1.4584385754789113,1,right
10.419,-0.6458728651870733,0.3728365813949415,-0.0889092011017801,1.7975928605272462,-3.1664331253633033,-0.2600381592897879,0.9552285679417383,1.2664367864228496,1.4577358919161993,1,right
10.42,-0.6621124737486415,0.3844567140609959,-0.09310601400624291,1.7735257433086604,-3.1920040251778197,-0.26660111956675503,0.9622447810192593,1.26019113995879,1.4153893789078222,1,right
10.423,-0.6747114584943138,0.3943833955819066,-0.09533817159267408,1.8043051982199714,-3.159235073432786,-0.2582101504332459,0.9450066646006519,1.275516574431014,1.5195423723039778,1,right
10.424000000000001,-0.6864384116822051,0.40622732929655936,-0.09626134655797021,1.7786648433479022,-3.1865625604985235,-0.26519785380237426,0.9735923820823805,1.2501073726397354,1.3468614500409426,1,right
10.429,-0.6969288008826494,0.41307940741814414,-0.09580691949961229,1.7795186661134585,-3.1857397364883724,-0.2649674304054209,0.9358819849192702,1.2836264393300514,1.5746009469917923,1,right
10.429,-0.7003649052315029,0.416303024610692,-0.09504059755152769,1.827731449856557,-3.1339859692800887,-0.25182565425949344,0.7776194582599948,1.424470394398042,2.530309445662921,1,right
10.43,-0.7054169307886329,0.4240925470001104,-0.09550487130532356,1.7091070688407408,-3.26125367036877,-0.28415374321222475,0.7399055888511477,1.4580030760656058,2.758011756687729,1,right
10.434000000000001,-0.711439946547817,0.43222321859911117,-0.09346217676222696,1.9057824596571211,-3.0502438274825305,-0.2305600892445381,0.7684898720455496,1.4325637853975965,2.585388016031244,1,right
10.434000000000001,-0.7113657236301163,0.4373117630528328,-0.08975024584103597,1.6464057099110174,-3.328544531573714,-0.30123542928450453,0.7512715712177185,1.4479380170851266,2.689496277979117,1,right
10.435,-0.7126042402878602,0.4392683414758974,-0.0895447447513695,0.5581771001954733,-4.496464444248558,-0.5978691374454945,0.7582374166203427,1.4416290829897616,2.6471400730929644,1,right
10.437000000000001,-0.713965829388256,0.4405596210021969,-0.08789399261697887,0.2988655967850497,-4.774731578553618,-0.6685302889416934,0.7584065317523864,1.4416335140906196,2.6465409258307044,1,right
10.437999999999999,-0.711094807294257,0.4428722463149364,-0.08198893807829476,0.4954256838868812,-4.563779176604852,-0.6149498371147621,0.7546587764112043,1.4448161499634384,2.6687502704108415,1,right
10.443,-0.7079235292066297,0.44389721543713645,-0.07602124637475952,0.37693282336211775,-4.6909858817329715,-0.6472913762022522,0.7590950014646507,1.4409340655659348,2.6421440068906668,1,right
10.445,-0.7047947811685298,0.4456352299880467,-0.06950431641482648,0.42505327599861364,-4.639265863774865,-0.6340829867680116,0.7557222469271027,1.4440636536879268,2.662874215665522,1,right
10.447000000000001,-0.702622494703576,0.4480520970584794,-0.06517107620984353,0.42588764227846126,-4.638473458068747,-0.6339854074541489,0.7573828153545961,1.4421725518820088,2.6516753633044035,1,right
10.448,-0.7004436276425109,0.4496129910496166,-0.06432633549679995,0.4004498159210211,-4.665674839252157,-0.6407910309019927,0.7572871043326617,1.4429694427749755,2.6542720724933755,1,right
10.452,-0.6929175171593609,0.45058792843005824,-0.06494643153587723,0.4308094555398701,-4.633134507157989,-0.6325708958517093,0.7563952422836596,1.4428901504638796,2.6571799259933346,1,right
10.453,-0.6816491545247043,0.4489429094930051,-0.06573069493969405,0.40732857181892257,-4.65841540426086,-0.6390796000527941,0.7575640787606222,1.4425457399141988,2.6520970541750977,1,right
10.459000000000001,-0.6664164794179831,0.44608533963263003,-0.06377185094226838,0.4196808265449253,-4.644898835380765,-0.6353634330579243,0.7567706531495088,1.4432579280611004,2.6569065297883343,1,right
10.46,-0.6454399382053939,0.4447338060570389,-0.06346726021343088,0.4174114714810283,-4.647780829537465,-0.6365833531193377,0.7567106780783641,1.442020865388956,2.65360125071925,1,right
10.462,-0.622491118419273,0.4438064013021038,-0.06455464988892518,0.413257617736711,-4.651691978419862,-0.6369779572685972,0.7578339340648633,1.443970223370856,2.6551985560841813,1,right
10.462,-0.5977194210096703,0.4433753494127928,-0.06317615989462491,0.419716684035943,-4.645195361475709,-0.6358052373290842,0.7558109895759262,1.4413712772128624,2.654913322450893,1,right
10.468,-0.5732757091882745,0.4437433661694776,-0.06157988624152959,0.4142466057400136,-4.651070074724483,-0.637301589344886,0.7580944459489665,1.4440286740859447,2.6544496085327447,1,right
10.469000000000001,-0.5501746480197711,0.4437185545418789,-0.05889230915672997,0.4167642854262317,-4.647560403599156,-0.6355244764170351,0.7566901038813894,1.4425690539766802,2.6552327896931374,1,right
10.470999999999998,-0.5269072283211306,0.4441531903280622,-0.054844735642014836,0.41779186028106674,-4.648302450787609,-0.6377369952035812,0.7557436633900131,1.4410751537368687,2.654305797597776,1,right
10.472000000000001,-0.5101590066288475,0.4473278728005319,-0.048706025357278984,0.4138712234663738,-4.649758724640517,-0.6350874223207058,0.7603728148048047,1.4471783648627343,2.6554066377917045,1,right
10.477,-0.4996708668855448,0.45355155111010903,-0.04544523446982675,0.41892393396777555,-4.647268288378401,-0.6376735481832263,0.7516732531506332,1.4359626117562394,2.6540642246640522,1,right
10.477,-0.4883697041187751,0.4614993283588333,-0.04838749222221635,0.4154194126702334,-4.649336449071566,-0.6363393401867239,0.7628848002221293,1.4503272181762572,2.6555349569923306,1,right
10.481,-0.47732406144346695,0.46962201994865055,-0.049268185317520835,0.4142176971705804,-4.64916291255679,-0.6346915398009133,0.7535083391580082,1.4383504488248666,2.6544157272412736,1,right
10.482000000000001,-0.46636097563947315,0.4779916571707059,-0.046656093009475964,0.422832388862241,-4.646313045185316,-0.6409846904979695,0.7537867227263744,1.438650829951599,2.6542767365038022,1,right
10.485999999999999,-0.45296461573042446,0.48713595377687785,-0.04160461779051295,0.4060647686181456,-4.652451181018284,-0.6295313454530704,0.7715996610099132,1.461551464367115,2.6568597266142726,1,right
10.487,-0.4405977600432082,0.49493964129577384,-0.03147522554091096,0.4278788561618519,-4.644261651145516,-0.6441591024096068,0.7277835197031668,1.4052987275678364,2.6507590987968053,1,right
10.492,-0.43355883448698707,0.5022220908276576,-0.01748069588809103,0.4095501681252608,-4.651229488887957,-0.6319813746006794,0.8004436211774191,1.4985556707373684,2.6607762953551637,1,right
10.493,-0.43195971254698573,0.5069340628701405,-0.007551583420922457,0.41022405370237014,-4.650838469878313,-0.6322571948328037,0.7046038199626967,1.375554499527943,2.647604733456551,1,right
10.497,-0.4315505587033882,0.5077712453144526,-0.004283985661368754,0.4446979363633551,-4.638090044454058,-0.6556199643417588,0.30229427012978,0.8592457520240729,2.592090332858355,1,right
10.497,-0.4302170503806705,0.5128236948570688,0.0007963336177120141,0.35971321758997765,-4.669718234257966,-0.5982766489063729,0.20645990088591548,0.7362443981663424,2.578938864845609,1,right
10.498,-0.43250905659684447,0.5180672435900966,0.008250774725957267,0.5007102650119544,-4.617164414135251,-0.6933221754574279,0.27911726297932565,0.8294987493960154,2.5889153893584385,1,right
10.502,-0.43611102674740854,0.5175703988031212,0.013188445052695784,0.3147122444203426,-4.686525957947861,-0.567972274520996,0.2352877727903856,0.7732559684271121,2.582873549886617,1,right
10.503,-0.43650289694244426,0.5172040300625773,0.015540211729620414,-0.4660186009351194,-4.977471557034079,-0.041725240303241706,0.25314311763902786,0.7961355773766208,2.585390410273108,1,right
10.503,-0.4400271560311745,0.5160199650019112,0.01961444047280654,-0.6520010359430022,-5.046846273690635,0.08361536027328406,0.2533455646708169,0.7964675890869154,2.585301350626003,1,right
10.505999999999998,-0.44524705379310725,0.5115178233527654,0.027778731442915313,-0.5109992894660867,-4.994255054143891,-0.011414230509672243,0.2440657266161777,0.7844563628908906,2.584184470474577,1,right
10.507,-0.44614130118882167,0.5040288061026088,0.036081394335216566,-0.5960667934939265,-5.0259598116451665,0.04591210827112793,0.2551963644176647,0.7988416722964726,2.585560504477999,1,right
10.511,-0.44799953879525906,0.4947028990098666,0.04557570896496764,-0.5613795280364117,-5.013089635226037,0.02255884974808249,0.24650328898491114,0.7876422572978281,2.5844304581049222,1,right
10.511,-0.45026753526428864,0.4862031785166596,0.0549819203948393,-0.561059577657204,-5.012847658901961,0.022291217709918935,0.25126741517843576,0.7936694600516983,2.585217426262892,1,right
10.515,-0.4492273820111769,0.4753606915490522,0.05794253506070812,-0.5789650064950078,-5.019692204552358,0.03443426599946619,0.24999886363858578,0.7923202251308559,2.584621624423419,1,right
10.517000000000001,-0.45031424553002586,0.46189009438165485,0.05721398884718246,-0.5574672082433993,-5.011512523938254,0.01986969589632452,0.24908556129823115,0.7906682143535058,2.5852201332854214,1,right
10.52,-0.4545346744791662,0.4507438596919908,0.0528062463835704,-0.574293686346245,-5.017856105147367,0.03124256899477366,0.2508343305106732,0.7935013190035736,2.5845731188634953,1,right
10.520999999999999,-0.4610981447251822,0.438959470528264,0.04385369098450523,-0.5649573051249941,-5.014514593125096,0.025017762731113398,0.24913614998898778,0.7908525418937189,2.5850465285612265,1,right
10.525,-0.4734946782184235,0.4252778447913075,0.037607503823787095,-0.5677094581961458,-5.0150935141105855,0.02665633184857156,0.250496027691521,0.7925936595022273,2.585240353682819,1,right
10.527000000000001,-0.49040291032673533,0.41373784777081457,0.034649741837834216,-0.5689821123120462,-5.016337087607354,0.027886698791882093,0.24929710592096646,0.7919258432562315,2.583762927391435,1,right
10.530999999999999,-0.5103827178176439,0.4006371052764339,0.03401843681365501,-0.56620157523613,-5.014357406143061,0.025555191364069592,0.2506827911347102,0.7917138601678172,2.586951996162738,1,right
10.532,-0.5310655361148064,0.38533550056636245,0.03993823235362895,-0.5690083207803983,-5.01615537505622,0.02781174626668996,0.24893995560904533,0.7924465900010458,2.5822398378468896,1,right
10.535,-0.5476632916371305,0.37029243896004,0.05193872000350612,-0.5663646716186662,-5.0151762102051585,0.026033237338087788,0.25073741513438685,0.7915876318769295,2.5872540033300844,1,right
10.536,-0.5633869969584637,0.3526665681366109,0.06509252455445469,-0.5695992677333772,-5.014988624068148,0.027535847888809403,0.24979429621525986,0.792206928349657,2.584371143132037,1,right
10.54,-0.5767378003664114,0.33086006978132265,0.0769247485086926,-0.5648355175717241,-5.016397442550009,0.025873591432193928,0.24850861013762304,0.7921326088149956,2.5818173778995654,1,right
10.540999999999999,-0.5852394979720692,0.3084962719920036,0.08844848082809104,-0.5713126718779812,-5.014060813072872,0.027928770945145457,0.25336154896128815,0.791461532255631,2.5928796903007587,1,right
10.544,-0.5968397820427624,0.2911447316557389,0.10105388633928594,-0.5645252114878785,-5.016595830607309,0.02581738120177498,0.24450149599413076,0.7928867768067578,2.5723869741740115,1,right
10.545,-0.6099256596235387,0.27298564004448816,0.10969171842106043,-0.5682616745883422,-5.015061228577595,0.026911816474750466,0.2558467417285398,0.7910149170849253,2.5986931135499693,1,right
10.55,-0.623542613255944,0.2545333970798277,0.11663089182766269,-0.572400273507013,-5.014083025452965,0.028475594456588756,0.24638809630596759,0.7925962405344589,2.5767378340298217,1,right
10.550999999999998,-0.6285350671103422,0.22711019262544213,0.11645908031362803,-0.5557902106728179,-5.018929497719659,0.022648313781407598,0.24659489195456596,0.792485608702145,2.5773146525291954,1,right
10.554,-0.6132828619347535,0.18334703641805428,0.09734297604007983,-0.5863222470351774,-5.009838280145859,0.03327040089669435,0.264791588896768,0.7896881103619942,2.6192266315166903,1,right
10.555,-0.5913872995279132,0.13605753992090253,0.08554142186174266,-0.5471789632149069,-5.021536897286598,0.019674156166425143,0.22012479858542894,0.7966484973700774,2.516241751810476,1,right
10.56,-0.5601175204517099,0.06369945127793203,0.07752539755994288,-0.5798323181565347,-5.011757590863851,0.03100536988177462,0.29416874604025633,0.7850806272366894,2.686976853084106,1,right
10.561,-0.5404167692770843,0.009941885448340614,0.08013061100015739,-0.5790447434293566,-5.0120657366276395,0.03076929184865148,0.19650717225492673,0.8003484081693573,2.4617948684569955,1,right
10.564,-0.5414057997968352,-0.00020983130280057992,0.08590065947042567,-0.516467248431312,-5.030577612186108,0.008937452192168563,-0.2135056964077266,0.8642496660320907,1.5163968359077296,1,right
10.565,-0.5279250970883542,-0.03460243110563948,0.07972748921931228,-0.6701601553191638,-4.985019524192718,0.06250833028073645,-0.311172011362182,0.879523633249518,1.291241500922339,1,right
10.565,-0.5428396742265454,-0.03731751462183433,0.18730735265221504,-0.4153617318764126,-5.060580256016745,-0.02628459302534613,-0.23712293384653993,0.8679490709932431,1.461947767269426,1,right
10.569,-0.5760274701131878,-0.007709906614519375,0.3149789066523912,-0.7514345506716964,-4.960902450543916,0.0908205254371147,-0.28178777470638683,0.874906908728076,1.3589519276339974,1,right
10.57,-0.5922199083284025,0.004083441073316904,0.35841688798016547,-2.162263098719933,-4.542702859599808,0.5825825790025682,-0.26360809012490155,0.8721316197407085,1.4009595360649576,1,right
10.571,-0.6886997891911598,0.09808296995916105,0.5027286645823622,-2.498343470787191,-4.443008002014302,0.6996777254038036,-0.26336468817471637,0.8719732067430465,1.4013305872728161,1,right
10.575,-0.9109993195236283,0.3387809018800577,0.6074438925128347,-2.243536865926739,-4.518587154491277,0.6108955877752087,-0.27287582125483667,0.8736230346359637,1.3796703430771382,1,right
10.575,-1.2608601139789786,0.7883148619368221,0.42339257328411256,-2.3972266975322034,-4.4730361846950855,0.6644705814882057,-0.26147830670790706,0.871682963847586,1.4056826803733102,1,right
10.579,-1.7308820236713194,1.4620719651320764,-0.059967735159962704,-2.3346762425931926,-4.49148665335428,0.6426029282113586,-0.27036091652375327,0.8731376308082117,1.3853167501268695,1,right
10.58,-2.2116259197232377,2.208703008662778,-0.7992963167627962,-2.333830442564306,-4.491926784141007,0.6424438908815016,-0.26555285273155294,0.8725251495602597,1.3966313175933438,1,right
10.584000000000001,-2.5898282870178715,2.881853699185446,-1.5778467778406666,-2.3665673169633683,-4.481958349806062,0.6536646573300783,-0.2666939688660185,0.872262115727725,1.3932649072777763,1,right
10.585,-2.7744186400436317,3.369234195688896,-2.0856354684139924,-2.3273408199874543,-4.493845159181392,0.6401783782013613,-0.267886196351255,0.873206553548358,1.391782303384153,1,right
10.59,-2.7014302658606626,3.574524117055373,-2.085243254022392,-2.357908845235613,-4.484672999574296,0.6507530484460673,-0.2657830091454736,0.8719485880847749,1.395077966424418,1,right
10.591,-2.396099304009301,3.467757174161897,-1.55188402405759,-2.341370045064952,-4.489357271132008,0.6448312670038684,-0.26776959896704083,0.8729993920260719,1.3917359361387849,1,right
10.594000000000001,-1.9184784745745842,3.1053800970550736,-0.681134654339489,-2.345278754617319,-4.488900532591613,0.6466993340011589,-0.26638605510161656,0.8727903212956014,1.394937088615772,1,right
10.595,-1.344901216968164,2.6187041333788033,0.30808329937107426,-2.349411515446243,-4.486468009320609,0.6472695370824371,-0.2671327041891362,0.871532065148111,1.3909173566649637,1,right
10.599,-0.7786697712558741,2.13563111742247,1.1790836382053347,-2.3421374980394165,-4.490104381255822,0.645801436791174,-0.2668064759790092,0.8746223929697667,1.3969214245487152,1,right
10.599,-0.2822114247196322,1.729644925708987,1.715635527014446,-2.3490028582329487,-4.486890624948913,0.6473438667649498,-0.26696257456760425,0.8699609270186406,1.3887267131311665,1,right
10.603,0.1270677138168606,1.4261799129926551,1.822907296343582,-2.3442418791701063,-4.488289495652598,0.6456767834543271,-0.26685775619034924,0.8749394661274228,1.3973203451368978,1,right
10.605,0.4595237320344926,1.242463919449773,1.5403894403342933,-2.34675764677514,-4.489734512786418,0.6481315119571955,-0.2668211021143348,0.8720480785884523,1.3925792955721705,1,right
10.609000000000002,0.7431110888422646,1.1831956470084866,1.0274915036548393,-2.3457580090198644,-4.485028174767835,0.6441775643562048,-0.2672710102029362,0.8696296484106587,1.3873815655520905,1,right
10.61,1.0169187790724417,1.2340017302248207,0.47876260231083145,-2.3461111546621396,-4.492383375710796,0.6496791446825709,-0.26609017256771605,0.8803344396490667,1.4083106932638494,1,right
10.613,1.2936324004732214,1.3733989324656297,0.04035824567130919,-2.345947442148304,-4.484483363845429,0.6438888248182051,-0.26813778459010995,0.8604610932579897,1.3698259758956057,1,right
10.614,1.5169453523033027,1.549442763676034,-0.2386985503327015,-2.345706012165779,-4.489141135202092,0.6471168762941721,-0.2655404725322196,0.8859834770298343,1.4191681193247332,1,right
10.618,1.6656624681780157,1.7200015580815415,-0.3986843558913804,-2.347159513924068,-4.492683894677874,0.6504801015331994,-0.2676959183285145,0.8646754205015694,1.378005336278782,1,right
10.619000000000002,1.7107519137603693,1.812211694720519,-0.4649445911750343,-2.3435203760600825,-4.476414718446886,0.6367128321937883,-0.2676871344482529,0.8652569258467098,1.3790036231541074,1,right
10.624,1.6768575943131716,1.7894877286797732,-0.45356623105791655,-2.349775558060806,-4.506714795880673,0.6620710399203191,-0.26341453830051403,0.9058687172296391,1.4578714004617939,1,right
10.625,1.600110875771478,1.676781137546338,-0.394300747457095,-2.341857472087648,-4.467791478180805,0.6295507864500061,-0.2738576880093523,0.806046963261021,1.2641619250396259,1,right
10.629000000000001,1.3698544208837369,1.4466206496491223,-0.296745064359847,-2.3484176150284126,-4.500276784563946,0.6566810533708917,-0.256557482428726,0.9715533489169063,1.5853038224758036,1,right
10.63,1.1445351941325634,1.270506835276886,-0.2307546415183141,-2.3484238483833577,-4.499399346645619,0.6560147184391796,-0.27937522107077895,0.7532566742708702,1.1617248468948116,1,right
10.633,1.0587830975001962,1.2308040171884453,-0.2174129541389278,-2.335324095730261,-4.437498426532105,0.6040675453163667,-0.3752228377910521,-0.16306086775272838,-0.61642227199614,1,right
10.634,0.7794467408812591,1.1145015783468737,-0.1931342298328286,-2.3672932179945656,-4.589593811752578,0.7316595318135304,-0.39804679938101584,-0.3813425612572023,-1.0400087513330556,1,right
10.635,0.265246312548838,0.9945359702172611,-0.1845087727198511,-2.314361000222953,-4.337485758146779,0.5201386139819735,-0.38073991827198406,-0.2158591181556072,-0.7188621604744294,1,right
10.637,-0.034366121728625146,0.9775918125816219,-0.19894966783545626,-2.384149095201768,-4.6699164191336,0.7991160180528352,-0.3911803043411669,-0.3156631850210616,-0.9125564161986439,1,right
10.639000000000001,-0.12519193396586914,0.9656722871495295,-0.19551291798879172,-2.677462378987273,-6.065756940943509,1.9702931738172578,-0.38693045995886166,-0.27504680067993525,-0.8337405800501314,1,right
10.639000000000001,-0.41974748314762944,0.9642582272394684,-0.15767617834551761,-2.7472065147709173,-6.397924214324393,2.2492365579902858,-0.3868730023097684,-0.2745080283483012,-0.8326472444426403,1,right
10.642999999999999,-0.7907152223552132,0.9789928659174245,-0.06458641044920091,-2.6943535202184314,-6.1462247739865195,2.037772480133942,-0.38909801261422144,-0.29572851290523117,-0.8739329300423995,1,right
10.642999999999999,-1.041457951225142,0.989920320018223,0.050048252655571585,-2.7262285831058817,-6.297990588077216,2.165307509480409,-0.3864317083861927,-0.27032618736558234,-0.8244851126546594,1,right
10.648,-1.2798310803229125,0.9919272930095814,0.14345358670490843,-2.713202270094495,-6.236047282553032,2.1133845255358628,-0.38850857008621265,-0.2900867172257324,-0.8629843922995555,1,right
10.649000000000001,-1.442910734416585,0.9720008323312765,0.21195589340051352,-2.713204949216398,-6.235864229516563,2.1127638714677146,-0.38738817317591906,-0.2794194271548682,-0.842217521350306,1,right
10.652999999999999,-1.5180245173516431,0.9395269830106623,0.24765427167545354,-2.7196465213402936,-6.266870994278822,2.139750397416627,-0.38764544311002763,-0.2819589164121079,-0.847015598255279,1,right
10.654000000000002,-1.5391979249142755,0.8978904641859611,0.2570079398916,-2.712000987055826,-6.23002325882035,2.1074710192093167,-0.3879395443492977,-0.2845044307007938,-0.852375438465306,1,right
10.657,-1.484884710732635,0.8490504440525279,0.2530825166266355,-2.71785168844199,-6.258307460181088,2.1325437853287443,-0.38743004666098385,-0.2800961172323591,-0.8430965313923025,1,right
10.658,-1.3984892190052127,0.7966023682154155,0.23727981999197006,-2.7146395774730414,-6.242837519079996,2.118987931929518,-0.3879069226275895,-0.2840852990840222,-0.8517268589995235,1,right
10.662,-1.3032302866272574,0.7440772100405317,0.21496139244920331,-2.7158547115048415,-6.248246643132725,2.1223896354628455,-0.387587816634943,-0.2814899517282603,-0.8459814900803351,1,right
10.663,-1.2266881294025782,0.6950748004042626,0.18385136121175405,-2.715378506596405,-6.247167863166741,2.1251429850031194,-0.38772940849583254,-0.2828467376842673,-0.8486083734394045,1,right
10.668,-1.1844016319110588,0.6449092662612222,0.1328471323568488,-2.7161882349591746,-6.248984269475418,2.1203688401487,-0.38772088502208046,-0.2819215766585192,-0.8481279548602638,1,right
10.669,-1.1656205962460517,0.5921729814251615,0.06464662347400452,-2.7147418315618816,-6.244596278871927,2.1244127254744827,-0.3876623733635277,-0.28329203623295507,-0.8477819830155515,1,right
10.672,-1.1659702320574978,0.5424951210840381,-0.010930757661305045,-2.716081674684241,-6.248983872469404,2.1219361203991234,-0.3877317035301203,-0.2810747049399561,-0.8479630020603733,1,right
10.673,-1.1636777369033853,0.4989458786667852,-0.0852779933725557,-2.716534204693537,-6.251122853083984,2.1236776485244913,-0.38768168161859723,-0.2836677638749008,-0.848214772733263,1,right
10.677,-1.1393358599326315,0.4552766138180175,-0.13535146937680298,-2.712214108433263,-6.2342441235699475,2.1209361209345765,-0.3877109634050254,-0.2821718179416931,-0.8480742556592038,1,right
10.677999999999999,-1.0845942527566186,0.4159561263704715,-0.14037770953032458,-2.721850247559491,-6.271686298559436,2.126250656406682,-0.38768266142787955,-0.28037423448832655,-0.8469658708419492,1,right
10.681,-1.0013519791118948,0.3836842214660151,-0.10687712941769101,-2.7074182013591113,-6.215564140552175,2.1181013415145076,-0.3877369100647554,-0.28758396541338443,-0.8505381821711198,1,right
10.682,-0.9064555714198999,0.3523950710570854,-0.05178506406430321,-2.7228783656401014,-6.275743497639198,2.127081976938496,-0.3876400446759287,-0.27424581089396505,-0.8439772871242275,1,right
10.686,-0.8137005707970659,0.33526531307451984,0.005281513307663776,-2.713942679628418,-6.240970347940307,2.1218955184824146,-0.3877685316676547,-0.2914152168166141,-0.8524832169665235,1,right
10.687000000000001,-0.7369415716655288,0.32937563102907963,0.04477606079730248,-2.706088682376251,-6.210237621660756,2.116776732195826,-0.3876596920017155,-0.2770615377082731,-0.8453453455858848,1,right
10.692,-0.6798337861563187,0.34105981192495305,0.05019714665003608,-2.7402749110155136,-6.343771486453708,2.1383416999282696,-0.38765603668608284,-0.2773979486997923,-0.8454334234910654,1,right
10.693,-0.6383376113074625,0.3788747809395755,0.023877467290329246,-2.6768767037292442,-6.096166849443476,2.0983894245356,-0.3878898448814415,-0.30499232500216644,-0.8594898065919576,1,right
10.697000000000001,-0.6080478139157119,0.42978742260601377,-0.01690155563359547,-2.75830659983244,-6.4141822660632,2.1497457129501596,-0.3873214504479878,-0.23720643558513388,-0.8250222704308523,1,right
10.697000000000001,-0.5680630481970657,0.5146293694029875,-0.0675685097612019,-2.690303901922933,-6.148635904688855,2.1068437847636794,-0.38826272995625294,-0.3496045121249814,-0.8821764311214177,1,right
10.700999999999999,-0.5354785833066493,0.5857148248919624,-0.09673097012457205,-2.692161875392218,-6.155793243874246,2.1079426990589836,-0.3870214006598083,-0.20133703161907227,-0.8067675399986092,1,right
10.702,-0.5250064065051114,0.6084823770922636,-0.10088726326995939,-2.821819595484617,-6.662360822161457,2.1900250531400305,-0.38177833003787565,0.42113068699335343,-0.48994144069111467,1,right
10.703,-0.4899232136983132,0.6812209519797492,-0.11192473427175091,-2.5030799635212606,-5.417237498342381,1.9883161975301986,-0.38053763370420957,0.5694207713924124,-0.41449938839294065,1,right
10.706,-0.4314208912094482,0.80278807791179,-0.10084161889296425,-3.0316190140511257,-7.481793539307895,2.3227729111274806,-0.3814792638198653,0.45698832794478106,-0.4717086557451516,1,right
10.706,-0.4011678083847764,0.8663896993771543,-0.08009055405479887,-2.3344212171563328,-4.758555456261348,1.8816003997878135,-0.3809069414067402,0.5248000208727757,-0.4371866576803873,1,right
10.707,-0.39285423245055223,0.8855408215199068,-0.07642204792724541,0.5914914954735125,6.671505085426748,0.02971126873795965,-0.38115058214781083,0.4972143953273377,-0.4512644391525376,1,right
10.710999999999999,-0.36863315547523007,0.9388938537202668,-0.05219081752049716,1.2887854821320301,9.394908366815665,-0.4115015667955279,-0.38113082210480653,0.4968108065260222,-0.4514002793453591,1,right
10.712,-0.34364069659587737,0.9972626924548251,-0.023585056709121737,0.7601391913261604,7.330158494874643,-0.07698855962592162,-0.38104102913928356,0.5112995153831333,-0.44411882383525714,1,right
10.716,-0.33895334558408696,1.0166176600052226,-0.01566165371246443,1.0788504673518697,8.575267315144272,-0.27872568330431097,-0.38115560146508787,0.49394729246552765,-0.45286154891359603,1,right
10.717,-0.34247446993614555,1.0170214389000343,-0.01722202700782778,0.9495148180315303,8.069182370868875,-0.1966955623716706,-0.38105535832816595,0.5074541286441134,-0.4460242595605123,1,right
10.72,-0.355148932874407,0.999018919337404,-0.03197008635046887,0.9469484082175619,8.060912934490915,-0.19542247517404532,-0.3811431742738549,0.5001944555661888,-0.4497946989753303,1,right
10.720999999999998,-0.3796911848769775,0.965491466969226,-0.047977072655440406,1.0159792382865938,8.328112783901481,-0.23862360072181832,-0.3810439321249325,0.5017969472897965,-0.44873871091297246,1,right
10.725999999999999,-0.4163602720125167,0.9268841569937784,-0.05117156847397816,0.9335100747644406,8.00837717981846,-0.18690757970182068,-0.3811743375567973,0.5038310973451754,-0.4481159055553644,1,right
10.727,-0.46542198672751356,0.8873319550476894,-0.045535278720669745,0.9973854213157117,8.25686083456709,-0.2271298295598605,-0.3810226230675652,0.5003630093992965,-0.44937575439283806,1,right
10.731,-0.5198947106616416,0.8552152373293851,-0.03358150210788591,0.9640254553724924,8.12448890628923,-0.20560932960394265,-0.3811395571992302,0.503598325485136,-0.448131530246891,1,right
10.731,-0.5814879447666509,0.8283092563211882,-0.018577387471527037,0.9691040078683755,8.150936480092493,-0.21012997328075544,-0.3811585012925944,0.5014996106479424,-0.4492033591953144,1,right
10.735999999999999,-0.6486790303292411,0.8088819645791544,-0.0024964957071390743,0.9828865086713395,8.193400904755904,-0.2166052635140196,-0.38088495431669334,0.5022268288582666,-0.4480867492090166,1,right
10.737,-0.7176449416583501,0.7980644971444728,0.014904169649570677,0.9614094947018944,8.123455660516012,-0.2057687724855532,-0.3814924323683892,0.5026603549570486,-0.44957176594867376,1,right
10.74,-0.7876784240894865,0.7935979475990169,0.027264475624273716,0.9807409027007457,8.187851657768064,-0.21580707079753972,-0.3805904206625338,0.5015116535642394,-0.4476120002803231,1,right
10.74,-0.8535499412764662,0.7996575529893205,0.0259811272535926,0.970912662988929,8.149360083206908,-0.20956712581803227,-0.38155119655890535,0.5028297540452631,-0.4496535160154026,1,right
10.745999999999999,-0.912234226090203,0.8153702102384084,0.012064793379859936,0.9666815933913151,8.153460823699662,-0.21096437290536424,-0.3809972858161489,0.501920456391282,-0.4485489820139641,1,right
10.747,-0.9569258342021087,0.839406905721793,-0.0032145572213624395,0.9861991303069405,8.18256182205784,-0.21400475842546154,-0.38051371544342527,0.5018679806410853,-0.4472250918316297,1,right
10.751,-0.9877273545685655,0.8721132940791833,-0.010517862247713988,0.9547240410301074,8.129934517575395,-0.2079760725218084,-0.38262010941726565,0.5032949375378881,-0.45241064386423646,1,right
10.752,-1.0071813984759108,0.9084861959804643,-0.010773733747881122,0.9887161266625606,8.187751830818868,-0.21468081479977788,-0.3787155453497909,0.500432375212984,-0.44290365193320835,1,right
10.755,-1.0088850037289192,0.9465670200794838,-0.012708943739946913,0.9683819768172238,8.151635382163715,-0.21036776351793132,-0.3837288475976417,0.5041567804467328,-0.4550867302418944,1,right
10.757,-1.0007198297753157,0.9853443136481843,-0.020623136233042204,0.9542894344897241,8.13392514429777,-0.20882464093137215,-0.379543560234176,0.501027429620499,-0.4449251696416879,1,right
10.76,-0.9757168289037754,1.0200908228060659,-0.029069994528639415,1.0215889298957874,8.233404353528801,-0.21913791841891211,-0.3796564502660671,0.5011883727312649,-0.44516315092182257,1,right
10.761,-0.939557209080241,1.0518870398206372,-0.03714945341830003,0.8957665580322072,8.044954330947771,-0.19936938496512502,-0.38763843079164817,0.5069060903510236,-0.4646617959439392,1,right
10.765,-0.8989709042036075,1.0800732873170982,-0.04177147244398949,1.0575562819510325,8.287822507979673,-0.22489727145322555,-0.36801998067945324,0.4927620930682458,-0.4167792315705491,1,right
10.765,-0.8184537144164955,1.0994908366193104,-0.03756285050093813,0.9223935233094926,8.084704053634397,-0.20352691395732292,-0.4005483831673229,0.5162375584454808,-0.49616070751288494,1,right
10.77,-0.7479146821030376,1.1086324669128949,-0.03328348914308671,0.9264076615874136,8.09158432797718,-0.2043295177875006,-0.3576433718448925,0.4852708660033537,-0.3914566169622026,1,right
10.770999999999999,-0.7243432625832458,1.1098727354972517,-0.03149871842500731,1.1829688171693578,8.47435316770679,-0.2443429091166969,-0.17755663348582168,0.35542605675039685,0.04805518853641465,1,right
10.770999999999999,-0.650194863290575,1.1113494223447056,-0.02718181525574686,0.551954836842418,7.531927772493839,-0.1457311064082501,-0.13465182464030165,0.3244701407349248,0.1527628111734387,1,right
10.775,-0.5143029310498747,1.1131553205910563,-0.018451782881050115,1.5983081657436546,9.094925069213993,-0.30930089965508567,-0.16717902861915537,0.3479299730013694,0.0733822264917431,1,right
10.776,-0.43547214385951494,1.1111874977018452,-0.009277339627138746,0.21817850766400482,7.0333226311422905,-0.09355079331098055,-0.14756396439933858,0.3337956163177642,0.12124664476015659,1,right
10.776,-0.4099867641092429,1.1117927911240946,-0.0070723410534023435,-5.574015860727054,-1.617900773744932,0.8116643532588073,-0.15553951947585884,0.33952299216600457,0.10179508952833566,1,right
10.78,-0.3267563514693571,1.1122739899896996,0.004161599859027611,-6.954001225032046,-3.67922804668591,1.027366047841337,-0.15566145663146003,0.3396437692951556,0.1014787789657312,1,right
10.780999999999999,-0.2173375168579104,1.1120512319328824,0.026753426915997275,-5.907912389385838,-2.116636111914412,0.8638702698293546,-0.151467022877373,0.33658752823358495,0.11173424155387363,1,right
10.784,-0.13906802991673523,1.1217306621861174,0.03568240451777067,-6.538601871450385,-3.058793431508084,0.9624253551542551,-0.15648465481170948,0.3402197456337521,0.09948064762243325,1,right
10.785,-0.06437204379270448,1.1356526017130268,0.036056839327619244,-6.282314259690089,-2.6758231562663513,0.9223962181938944,-0.15258709550575844,0.3374329592268311,0.10897537208657802,1,right
10.790999999999999,-0.002132017675212112,1.1489981547465862,0.0358420219536503,-6.278240249587967,-2.669901448146624,0.9217330436838749,-0.15466932618237417,0.3388561297126202,0.10394874887600053,1,right
10.792,0.044413342687653234,1.1635902891250345,0.026958375173764537,-6.413065588295253,-2.8712250830931323,0.9428189854138325,-0.15422841867444792,0.3386731469779485,0.10492993012296872,1,right
10.794,0.08249912920544028,1.1712662041243678,0.017224231542320625,-6.252140533991092,-2.6306693015838754,0.9176798637945371,-0.15362096699908345,0.3380697345981074,0.10652888182800259,1,right
10.795,0.10423598702349063,1.1707004733655806,0.01538289561781637,-6.376608147710408,-2.817146472054536,0.9370846673451096,-0.1546262426312654,0.33892639233171307,0.1039826395160478,1,right
10.799000000000001,0.11056915660599964,1.1652573993399957,0.02582929314848815,-6.310828053202219,-2.717928339499056,0.9268891298309726,-0.15372044192430967,0.33827413836188425,0.10619232376807047,1,right
10.799000000000001,0.09618072331192583,1.1514174627014038,0.04641519982457367,-6.3239177778686955,-2.7386631102505,0.9288299148773334,-0.15425492677950797,0.3384160843003138,0.10506059075299654,1,right
10.802999999999999,0.06115508562523479,1.1276158333642292,0.06695657148252608,-6.3437701163535465,-2.7673732524329333,0.932016621001433,-0.15415581121694866,0.3389011875089324,0.10490794485316651,1,right
10.804,0.008210597266250905,1.1005975360500666,0.0849197259830976,-6.312716910049565,-2.7209771878039404,0.9271628671837233,-0.15390840104486375,0.33789245787391,0.10610030195293306,1,right
10.808,-0.06486237513806115,1.0761796469461018,0.09573822149048394,-6.3383399736717685,-2.7610134143101277,0.9310153016648567,-0.1543168069454635,0.3390721052748993,0.10447621603581615,1,right
10.809000000000001,-0.14972108371598963,1.0548412810979952,0.09727334220074554,-6.326852198877704,-2.739827991708224,0.9295690308111837,-0.15398379325410405,0.33832046338001975,0.10565133966564234,1,right
10.814,-0.23755968396517957,1.0396216948487442,0.09472356875118448,-6.323394344398499,-2.7406684630044875,0.9285071802391984,-0.15399842577172357,0.3378903795260134,0.10592834683583299,1,right
10.815,-0.3280469787768511,1.031867874681926,0.09392985184686689,-6.33615197476076,-2.7533234371221904,0.9310573678109663,-0.15449102836674433,0.34017457675992235,0.10335819241793479,1,right
10.819,-0.4140557502791876,1.0266455573294753,0.09745552874841983,-6.324150421883097,-2.739093119808776,0.9288594342571004,-0.15344591313741396,0.33584344089835316,0.10844543371110059,1,right
10.819,-0.4914166738467665,1.0192931161460241,0.09809546187759523,-6.323554198689637,-2.7413966145465403,0.9284910909194338,-0.15483540683950292,0.34143926660654866,0.10179745185104552,1,right
10.823,-0.5585280538900792,1.0121478961939199,0.10009806364630479,-6.346743283891656,-2.762070758793253,0.933324833741068,-0.1536551618584076,0.3367527495963432,0.10739652873240757,1,right
10.824000000000002,-0.6103761172617965,1.0017922416618212,0.10656678682865416,-6.297740231557173,-2.7147642223047352,0.923421008398928,-0.15371843675744967,0.3369027953389564,0.10716932741735666,1,right
10.828,-0.649731411007449,0.9846751033883953,0.1102875068815849,-6.363322583903646,-2.7794871398403638,0.9365557269107176,-0.15588573380304266,0.34577759919822126,0.09669413364105947,1,right
10.829,-0.678153349844031,0.9682763920205651,0.11695505409698789,-6.307437402881147,-2.7237512901061853,0.9254101153986756,-0.15051316293464,0.3239302698393458,0.12255053892958596,1,right
10.832,-0.6988237076904598,0.9477068956202784,0.11966473568365181,-6.309924468785045,-2.7267350972070092,0.9258708266776452,-0.15943878821289859,0.36016788253242127,0.07963769887108939,1,right
10.833,-0.7100916003849289,0.9290015027730009,0.11529928789798659,-6.414686863215421,-2.8302769908379286,0.9468258420820621,-0.14765888877482003,0.3123644284341617,0.13625518655230134,1,right
10.838,-0.7131885364337867,0.9245990844146327,0.11371229135962074,-6.15544926239655,-2.573138252992968,0.8950347227738369,-0.0982418735517584,0.11173696505008911,0.37384403207817307,1,right
10.839,-0.7195553341403791,0.9195218200030607,0.10667723740606927,-6.586104740754649,-3.0007524361552704,0.9810464339979963,-0.08645845700843491,0.06392793632234638,0.43046621756125203,1,right
10.839,-0.7237603276812554,0.9134051199258393,0.10115326025255543,-6.017676057879197,-2.436109320805847,0.8675251171734751,-0.0953926517191371,0.10017647820733497,0.38753853746509664,1,right
10.843,-0.7226220589967238,0.9159651960510204,0.10058211323820987,-3.6313677224680214,-0.0658717199198936,0.39108713493578806,-0.09000465336298777,0.07831409462419914,0.4134275703288841,1,right
10.844000000000001,-0.7187363405119318,0.924672508380799,0.090624058349873,-3.0627394171354885,0.49911982895346024,0.2775172414331502,-0.09219411686257327,0.08720465665543473,0.40289798619481587,1,right
10.845,-0.7044687013798882,0.944010233148264,0.07488597368281863,-3.493873933097844,0.07073575200329191,0.36362262030659487,-0.09223293900500054,0.08734468992576486,0.4027402131244557,1,right
10.847999999999999,-0.6758111882277821,0.9741042112685816,0.0493342502800027,-3.233786711613792,0.32912281689913403,0.31170587399472394,-0.09106914703618438,0.08265339929508728,0.40827785276301987,1,right
10.849,-0.6348139107145712,1.0078505862371088,0.019645752697492934,-3.3397536135129764,0.22396226408157605,0.3327867561143214,-0.09246549948848004,0.08827787363010786,0.4016434479559511,1,right
10.852,-0.5853290262772358,1.0398586312677551,0.005470039846372577,-3.3409323056961178,0.2225444745541409,0.3331771994758104,-0.0913742637970138,0.08389000296597487,0.4068132258232896,1,right
10.853,-0.5284224032614687,1.0647389128376763,-0.0010614401256445157,-3.285895693253366,0.2775694830499048,0.32197178006450833,-0.09196043110471386,0.08625184851888903,0.40402772909850676,1,right
10.857000000000001,-0.47075085602727096,1.0784818893516142,-0.008269997276394657,-3.351916270060899,0.21163776439134477,0.33536659645790035,-0.09184476195809402,0.08574753907976537,0.4046480029326788,1,right
10.859000000000002,-0.42071941899156906,1.0827614934064287,-0.01866144862219839,-3.300341360558984,0.2630248407097392,0.3249781645257739,-0.09163913298918189,0.08502393702550398,0.4054305956480251,1,right
10.863,-0.3766331138650838,1.083230174732933,-0.03382505090586919,-3.328644375163339,0.23518835719156558,0.33044657182281106,-0.09199435592531202,0.08627520631179016,0.4040769723241837,1,right
10.864,-0.3373953241015383,1.0815653445001085,-0.04325348991705329,-3.32102070171734,0.24184807070394482,0.32951000696979216,-0.09163524327494164,0.0850509820958307,0.405369356600607,1,right
10.867,-0.30410597336218814,1.0810208863723858,-0.047065656947200565,-3.315764189266846,0.24864553135686168,0.32745292837788764,-0.09188990348259235,0.08589878375317979,0.4044908715219136,1,right
10.868,-0.27494529603289,1.0853305468895298,-0.053469815996112474,-3.325942156427107,0.23660158087313773,0.33072076377631277,-0.09181775153409535,0.08560417453205309,0.4048408835764191,1,right
10.872,-0.2475769111564649,1.0913857368006719,-0.06209537082265036,-3.3160236333694346,0.24799561252640542,0.3277556881799527,-0.09165496120383747,0.08528825436314333,0.40498201004166645,1,right
10.874,-0.22399453698782962,1.0980058747790886,-0.06537453221709583,-3.3240952399560864,0.23998971855817872,0.32935818916649523,-0.09206703879655767,0.08617305688729845,0.4044666921612414,1,right
10.876,-0.20716888264105165,1.1038194110233885,-0.05740388121980397,-3.3166848732176413,0.2444964805175704,0.32970636746975357,-0.09146166823868013,0.08489096085700426,0.40519057663339464,1,right
10.877,-0.19641831974379143,1.1033296742110084,-0.0449591750949849,-3.3255831296983187,0.24218174606540666,0.32730667998525853,-0.09209459390152125,0.08620748156494354,0.40447838940630587,1,right
10.882,-0.19084417468937448,1.095437731928087,-0.03715584446320465,-3.3142334865882486,0.24372261204275486,0.3312705242734611,-0.09172880728015856,0.08544626297790091,0.4048905220621075,1,right
10.883,-0.18915343425924097,1.081394747379686,-0.03423863349657701,-3.3259737617861505,0.24243613726297258,0.326973781807284,-0.09144078213247707,0.08490141953545381,0.4051139099940087,1,right
10.888,-0.190574292446938,1.0622593192808618,-0.034767894619214035,-3.319756629790368,0.24261702762814172,0.329568883920874,-0.09273652354279749,0.08743004677129222,0.40396553775828,1,right
10.888,-0.199691220653286,1.0430086103145972,-0.04371186065155902,-3.311592373431232,0.24555894920352958,0.3312478696657456,-0.09033192270182673,0.08273351836256072,0.40610369871225216,1,right
10.892000000000001,-0.21821280687338107,1.0302926862249886,-0.06392159495904165,-3.3427312555836926,0.23724397039038417,0.32298721634381716,-0.09341714357279166,0.08875485629225212,0.4033691217626423,1,right
10.892999999999999,-0.24108923636392177,1.0259460734676003,-0.08565859236961736,-3.285813133436654,0.2518411123972758,0.338470521904253,-0.09084267167688992,0.08373213669630558,0.40564713200864155,1,right
10.895999999999999,-0.27199168135999086,1.0270727889435118,-0.10000935081679059,-3.358712119342388,0.2332823385791272,0.3185535930507829,-0.09091480009313858,0.0838798430756732,0.40557151209920916,1,right
10.897,-0.30514814267837587,1.0312446386930092,-0.10710308437947616,-3.297928752864849,0.24870136157340267,0.33519412865167103,-0.09581255965545682,0.0934070717223856,0.4012872111428226,1,right
10.902000000000001,-0.334069117348615,1.0385138412920567,-0.11269270852737262,-3.2992828569280483,0.24857083690847628,0.3346909310937556,-0.08377313476334691,0.06998136274318736,0.4118281654032378,1,right
10.902999999999999,-0.36643016584537236,1.0479292958841984,-0.1189833821061681,-3.4161372865245068,0.21822886356035331,0.30313843622666103,-0.10373426066211075,0.10882143462120838,0.3943517062145747,1,right
