time,gFx,gFy,gFz,ax,ay,az,wx,wy,wz,subject_number,foot
6.874,0.5292402974356882,0.13910920280047895,0.20313419268139155,0.07216958663248017,-5.754011792574384,-0.19128514048471812,1.378670292233608,-0.24035852922383358,-1.482363367761211,4,left
6.874,0.524830938837852,0.1386236222991754,0.20157724013122194,-0.025353048585272167,-5.818713840850268,-0.07213809146262053,1.4687141152612764,-0.3500018600614443,-1.6892986286225302,4,left
6.877999999999999,0.5126390282644453,0.13804969530471212,0.20460721855119912,0.13643771779879632,-5.711507253589982,-0.26976038021155047,1.4004521343321774,-0.26686899368151995,-1.5324169880940652,4,left
6.879,0.5044165906449991,0.13861981063451217,0.20534337579658796,-0.0769585837358049,-5.852909293269802,-0.009096699817088383,1.4416204228048786,-0.31701896551986625,-1.627038142969184,4,left
6.882000000000001,0.5030335897869862,0.1394333599710157,0.20448030703337755,-0.9722641090854318,-6.446779016128225,1.08470974286631,1.424869235301266,-0.29659391566071974,-1.5885241105722194,4,left
6.882999999999999,0.49592578242596824,0.14180014623216175,0.20562192604944526,-1.185584073998586,-6.588219330075419,1.3453303085648138,1.4246380069064335,-0.2963471771241874,-1.5880187519028355,4,left
6.8839999999999995,0.4862426520211255,0.14439533236200963,0.20548437294401292,-1.0238912292534366,-6.4809681262715335,1.1477600845621119,1.4334105706794755,-0.3069897175423856,-1.6081466111765663,4,left
6.8870000000000005,0.48172184551116903,0.1471499381740909,0.2055127396264032,-1.121390975886119,-6.545665781677978,1.2669056862312122,1.4229014414283916,-0.2942280936051091,-1.5840258675039387,4,left
6.888,0.4774639017881429,0.1513940929193933,0.20202209836255353,-1.0817121264158476,-6.5193382227961045,1.218432003562501,1.4310898668293963,-0.30418636305725644,-1.6028319798689274,4,left
6.893,0.47497367450821554,0.15505173585558563,0.1942558306348573,-1.0812179437520073,-6.5189591527315045,1.2177619954056558,1.4266599052137108,-0.2987581661832701,-1.5926228269288494,4,left
6.894,0.4756043314176966,0.1568257836500111,0.1869948789458582,-1.1018646813510085,-6.532789223150052,1.2431338057827204,1.427707089709138,-0.30013474274433194,-1.5951173236668936,4,left
6.897,0.4764844026271104,0.1586641660046914,0.17981633205644548,-1.0771785824184952,-6.51620939404582,1.2127619911269565,1.4288130060104418,-0.3013095338699382,-1.5975087526915255,4,left
6.897,0.4798386310387366,0.1632813588440678,0.17409079740879918,-1.096348812895802,-6.529135002510791,1.2363943423745258,1.4268664849292754,-0.29914882721905633,-1.5932189648506738,4,left
6.902,0.4821814888291628,0.170241457742277,0.1703184982854305,-1.0859872527344492,-6.522168882123078,1.2236434579474214,1.4287035921222453,-0.30121952974135846,-1.5972949253531428,4,left
6.904,0.4807929644006686,0.17886431651316365,0.17032586088003032,-1.0885847499264987,-6.523714101086172,1.2266372856066967,1.4274285570390464,-0.29966446021206694,-1.5943627670037288,4,left
6.906000000000001,0.47547600600991063,0.19119620599873766,0.17858028950041444,-1.090691855786801,-6.525692065811312,1.2297923161401378,1.4281056372272622,-0.3007996842175014,-1.5961911357903538,4,left
6.907,0.4632211626678676,0.2063875880996029,0.19039011979927337,-1.0870418195630414,-6.52226786095879,1.2243318240984882,1.4278298977413293,-0.29975537657360196,-1.594936111763974,4,left
6.912000000000001,0.44855357755339736,0.22368099724607965,0.1995219782678249,-1.0901318185926503,-6.525550090887298,1.2293357717752529,1.4279369340079922,-0.30094175092415365,-1.5961083374583773,4,left
6.912000000000001,0.4336951935204816,0.24478049437186,0.20461943258369855,-1.0882404273150752,-6.523312190685406,1.2260452397483208,1.4278792196289922,-0.29974663493038817,-1.5949890187047457,4,left
6.916,0.4191348034795114,0.2668688617211875,0.20696314018749185,-1.0895715196155833,-6.524186724800272,1.227663024065392,1.427823486327659,-0.30032731199926255,-1.5954298985131874,4,left
6.917000000000001,0.40562696607855137,0.2897206814365245,0.2091317698077455,-1.087472052306647,-6.524618498449064,1.2269154447239954,1.4282176951129424,-0.3013706805901287,-1.5968298752550698,4,left
6.922000000000001,0.39139999825266936,0.3138858977066763,0.20961818501493423,-1.091543829317117,-6.523149422773431,1.2277363227343279,1.4272155871017635,-0.2976939695146668,-1.5923722785524044,4,left
6.922999999999999,0.3792405404282414,0.3357124512523162,0.20965242430522085,-1.085300273746729,-6.525229075885193,1.226305266974426,1.428944286657857,-0.30435080947252385,-1.6003377316996887,4,left
6.9270000000000005,0.36765193126309836,0.35674322273888115,0.21268296740216555,-1.092180195794552,-6.523160869811305,1.228104473466864,1.4267525849829115,-0.2958408526822055,-1.5901771660156725,4,left
6.928,0.3591920500049044,0.3760119320441514,0.2148667300880108,-1.0882073551439606,-6.524357014878339,1.2270680401362353,1.4285724374424285,-0.30292808983556746,-1.5986325429872168,4,left
6.932,0.35444444377544154,0.3908596516518891,0.21580390967048907,-1.0842857901013474,-6.525060120758798,1.2255668344083148,1.4285641973714416,-0.3027983706156169,-1.5985082399354655,4,left
6.933,0.3487821861284699,0.40158032367723645,0.2216800639254512,-1.100805165909114,-6.521559601847441,1.2313494212137575,1.4249553916341284,-0.28908638311440515,-1.582042087073869,4,left
6.936,0.3452960368471138,0.4094679318690748,0.2280251435460665,-1.0702018688148738,-6.528071195024912,1.2206653349207748,1.4337810364306174,-0.32271014547987553,-1.6223911079309272,4,left
6.936,0.33963618483889385,0.4176470273418734,0.22965078635310077,-1.1095391125992364,-6.519738762359363,1.2344338254605147,1.419154384796258,-0.26698719741471044,-1.5555217147106868,4,left
6.94,0.33426233180224546,0.4205694584005484,0.23077507778053774,-1.0766798179195165,-6.526680423023304,1.222917440870663,1.4384530272227967,-0.3404742141498609,-1.643720375807729,4,left
6.941,0.33264740703119355,0.42127717659862873,0.23036455888076177,-1.0775165270847489,-6.526463174832983,1.2231624678368593,1.5194414164302548,-0.6491287787541984,-2.0140751169520326,4,left
6.943,0.32847287748768084,0.4270685337560999,0.23053644088125688,-1.1403965590601686,-6.513361718658738,1.245401228130659,1.5387579091078054,-0.7226061810115887,-2.102288258743866,4,left
6.946000000000001,0.32363771805709823,0.42943014114616496,0.2316029775636529,-0.9858854953447637,-6.545579466369359,1.1907948611451955,1.5241119410641129,-0.6668936349454977,-2.035403191906826,4,left
6.947,0.31484729459818317,0.4323125277815445,0.22879028569107465,-1.2420752221156452,-6.492170456518253,1.2813357987843936,1.5329302533688205,-0.7005213544452993,-2.075746276906295,4,left
6.952000000000001,0.30750375566142224,0.4385313416784377,0.2282378556165679,-0.9041498446790255,-6.562602883375957,1.1618997919005771,1.5293854836532448,-0.6867748600389767,-2.059332046356217,4,left
6.952999999999999,0.3058458028687647,0.43996515331293873,0.2285094034628774,0.5144441833971154,-6.858300459230112,0.6603073109295325,1.5292394444773114,-0.6867193855891742,-2.0590959944753737,4,left
6.954,0.2975660149685495,0.44459124929989696,0.2247688329794329,0.8523906960819958,-6.928724724505294,0.5408428284860217,1.5312568869186598,-0.693700171761753,-2.0677116217485034,4,left
6.957000000000001,0.2876911155606182,0.45515416106865636,0.21948793194311134,0.5961649508698552,-6.8753130542124445,0.6314398105595014,1.5288684093374254,-0.6852962167412193,-2.0573914487852765,4,left
6.957999999999999,0.27960701077968075,0.4642471074712108,0.21351621107341945,0.7507139004116872,-6.907574860909145,0.5767557754974451,1.5306820465876176,-0.6919073211090716,-2.0654258278679833,4,left
6.961,0.27073126620730553,0.47403106606071255,0.2114654672572936,0.6878136854374138,-6.894360205523837,0.5990766172648129,1.529848837387422,-0.688139579980082,-2.061105153354367,4,left
6.961,0.26843996525445746,0.48649810933644666,0.2104590460782527,0.6869562448158876,-6.894330464431407,0.5992681443762555,1.5296988478096538,-0.6894761725719255,-2.06206383486579,4,left
6.965,0.2704004910492264,0.4987840799311128,0.20661898442240234,0.7198966308369947,-6.901048155549588,0.5877299039584691,1.5305808638861298,-0.689551617618439,-2.063265215818742,4,left
6.966,0.2751900171263847,0.5110945731256888,0.20215217125576038,0.6804144727171622,-6.892882695379298,0.6016432767264186,1.5293722186528131,-0.6889765423910884,-2.0612124324408203,4,left
6.971,0.2854422612658773,0.5243943336172864,0.19503359976771897,0.7111994532436676,-6.899426330423617,0.5906680443544636,1.530396947809594,-0.6896685988147131,-2.0631290687962176,4,left
6.972,0.29917836424869926,0.5380285788062018,0.1860618798087541,0.694529944750645,-6.895542594894499,0.5968530532139662,1.5301291212634949,-0.6886198662365551,-2.0618802008541994,4,left
6.977,0.3196388993226895,0.5508452588055537,0.17276131214228146,0.6984627869189196,-6.897067520928003,0.5949618570383828,1.5291038142090763,-0.6906724593145436,-2.062328236282027,4,left
6.978,0.3463306424639243,0.5631929372398611,0.15639183690895606,0.7026843177392785,-6.8970819182143766,0.5940829002255008,1.5317197811618808,-0.6870209317261431,-2.062551465296581,4,left
6.98,0.373699831499114,0.5783246964932467,0.14034555656862313,0.6952145022449123,-6.896215139147147,0.596235179426768,1.5277517598691341,-0.6922191817461718,-2.0619194061966035,4,left
6.98,0.4029598175746187,0.5933510319741064,0.1185291137287127,0.7023535668027328,-6.897708906077211,0.5937065138879609,1.531994116362024,-0.6867244664651095,-2.062649329170674,4,left
6.985,0.4346121186128993,0.603135156421626,0.09181369661810487,0.697311033903644,-6.895378040298882,0.5963963070574652,1.5295233361578013,-0.6898255742168061,-2.0621389545058593,4,left
6.986000000000001,0.4671692951016779,0.6106430568972311,0.06213637959395543,0.6999937491398247,-6.89886277046685,0.5933757573432434,1.527489666397484,-0.6928629339097043,-2.0621364254643018,4,left
6.989,0.5003911828618393,0.619399287447509,0.03380679479233709,0.6991053519836905,-6.894312557681509,0.5967805009751443,1.5365479410322123,-0.680166893830435,-2.0628647214803655,4,left
6.9910000000000005,0.5338386992774218,0.6250476443514542,0.008530329120644407,0.6989128322211826,-6.898926385155571,0.5935543785402939,1.5197202267451113,-0.7036032030681652,-2.0613833448902437,4,left
6.994,0.5697787630770688,0.6246262937107873,-0.021239142291856142,0.6997884076341754,-6.896418622609204,0.5951474588971606,1.5413351207224992,-0.6735354172626822,-2.0633166285163984,4,left
6.994,0.6058392585039738,0.6233310439158338,-0.04777628904224797,0.6981668695615741,-6.8937653360789435,0.5973631073268184,1.5232858667575904,-0.698625457075676,-2.0616874815882547,4,left
7.0,0.6416298183398699,0.620158783131519,-0.07015043000702637,0.700879131303312,-6.904471451939157,0.5892212120806983,1.5237878151864328,-0.6979891509939207,-2.061784621838012,4,left
7.002000000000001,0.6780514665955568,0.6141265321993489,-0.09537771477087595,0.6968855451200875,-6.884829587614348,0.6039520724342439,1.5581630945357166,-0.6500116910267821,-2.0647239435754856,4,left
7.005,0.7134502169308699,0.6064538725038652,-0.11582517174698137,0.701639370700298,-6.909975928892729,0.5851711100164034,1.473654332084969,-0.7678798457363588,-2.0574307158691547,4,left
7.006,0.749942145896597,0.593921671379475,-0.1315786954573881,0.6978297238886181,-6.88901104125015,0.6007914441214446,1.6137813681525857,-0.572467521655286,-2.0695475243759978,4,left
7.0089999999999995,0.7710692151792883,0.5854642742204749,-0.14210649974962758,0.6976866382106397,-6.889537733974264,0.6004618303437805,1.4289507786966562,-0.8302090960564955,-2.0535563792511304,4,left
7.01,0.7771258741006141,0.5833884854676328,-0.14434009538960466,0.7056047717398976,-6.929624871470785,0.5704313312450129,0.6532485494276444,-1.91228901083698,-1.9867412090803807,4,left
7.011,0.7980453329424081,0.5738563829256706,-0.14901521344029983,0.686501103137479,-6.831148246347247,0.6441032386977618,0.4684232236181927,-2.1700411514608438,-1.9707647408121272,4,left
7.015,0.8272776637426157,0.5571208741332918,-0.15792211949674,0.7180377625732806,-6.994416042454661,0.5220110126116623,0.6085307149195849,-1.9745973931353633,-1.9828347636855876,4,left
7.016,0.8419968023870261,0.5465745913348372,-0.1607654068551896,0.676495414144197,-6.779057786644867,0.6830191772561385,0.5240688430297324,-2.0925320485268832,-1.975644967247932,4,left
7.021,0.8464292288911057,0.543548548131588,-0.163189044163437,0.5018994764051845,-5.875155740340073,1.358990907429468,0.5583618781861317,-2.0444464481366484,-1.9784112779424832,4,left
7.022,0.8563456300759268,0.5350584294988855,-0.16851250158530834,0.46038160903711434,-5.659750040854346,1.5199606070211118,0.5589732212927706,-2.0439452421442463,-1.9787299025562572,4,left
7.022,0.8710742276086045,0.5224258090454126,-0.1609197319873204,0.4918558009417214,-5.823086959265666,1.3979370640057711,0.5408212100612781,-2.0689196975415545,-1.9769039005979914,4,left
7.023,0.8759580768188299,0.5144555370250705,-0.14765359796492586,0.47286950281276485,-5.724566839631423,1.4715289297882357,0.5624708623615775,-2.038869428566759,-1.9788824346959184,4,left
7.024,0.8661537238337924,0.5089006262755367,-0.13810792668170763,0.480612757324997,-5.764613623232912,1.4415580287836143,0.5457536186846738,-2.062479383792752,-1.9776615183607074,4,left
7.028,0.8391284941573313,0.5101473027880785,-0.11756032899962936,0.4806704202544427,-5.765313935634713,1.4412322217857478,0.5544929377172234,-2.049350764736386,-1.9777058059409025,4,left
7.029,0.7912500329437854,0.5230817614579715,-0.08456203656369535,0.4767134693961315,-5.7440306219136135,1.4567413831724334,0.5529893356926076,-2.0530632579181938,-1.9787967508300441,4,left
7.0329999999999995,0.7250483233210421,0.5530481922135458,-0.03676878091047077,0.4814384437143012,-5.769580855823369,1.4382031774256632,0.5498875985684568,-2.0554088907624015,-1.9770323939899803,4,left
7.035,0.6574622952841942,0.6070714318110945,0.032497407116260056,0.47778327246905244,-5.749603510292543,1.452584068829089,0.5546043990190606,-2.050408212218775,-1.9786320377854965,4,left
7.037999999999999,0.6194827637043854,0.6838312245798082,0.13238786063085672,0.4797691984237333,-5.760334286287691,1.4447987866130987,0.5507062182650575,-2.0558597347766803,-1.9783065181164654,4,left
7.037999999999999,0.6131771914485176,0.7961046706888282,0.2801966568388619,0.4791952139390456,-5.758240595993691,1.4468377752583517,0.5522911218709783,-2.0507204791983846,-1.976230249973267,4,left
7.042999999999999,0.6241611911704448,0.9540681605761043,0.45565782090321255,0.4789993769645258,-5.754405924777622,1.448183437727599,0.5535033361409427,-2.0557217262750935,-1.9813917238071503,4,left
7.044,0.6708886285273018,1.1465516833203737,0.6173326845464535,0.4793427118200354,-5.761033232786316,1.4458468871525425,0.5499925328814514,-2.050635764507093,-1.9735451507163326,4,left
7.047000000000001,0.7699441439301823,1.3573702001599806,0.7274798524116144,0.47919097688652607,-5.754302843753113,1.4476672216237805,0.5543579786641517,-2.055188306774791,-1.9819632836098384,4,left
7.047999999999999,0.9236914413164993,1.5657928334667512,0.7389550973819525,0.479200784790588,-5.75909117271526,1.4466471102089038,0.5514180693837507,-2.053140819470522,-1.9770634781387517,4,left
7.053,1.125573613345915,1.7338591964077645,0.6319414573051704,0.47893859667112215,-5.757771920148125,1.4476558867571603,0.5501820414574963,-2.0495634092125776,-1.9729511687106942,4,left
7.053,1.3740402060544148,1.8162860138143242,0.40323807384829646,0.4800119140876272,-5.754552391034704,1.44531444181711,0.5579864185297179,-2.0618758794297767,-1.9911539564710001,4,left
7.058,1.6564352697353002,1.8084528454618956,0.08503072568657173,0.4777000361481168,-5.762644621181023,1.45011651709267,0.5429475177009939,-2.039832670984281,-1.9573484397747112,4,left
7.059,1.8913390254391718,1.7462868063677415,-0.22631106968809855,0.4811824434661155,-5.750742234500445,1.4428252683742193,0.562461725202049,-2.0678519282304495,-2.000773446315883,4,left
7.063,2.0362302168144844,1.6744137164278108,-0.48535758811366664,0.4774255838270102,-5.763205169889915,1.450767046098889,0.5460848125832283,-2.0445812934163277,-1.9645133641659795,4,left
7.064,2.052123416730593,1.579079023051725,-0.667406876067612,0.4795975076922535,-5.756000017367667,1.4461799143330798,0.5466592717386386,-2.0450235807676194,-1.965504669506786,4,left
7.067,1.9319568565090448,1.4556744137380877,-0.7419085920483324,0.4815611889124035,-5.75029585039165,1.4418513060205638,0.5775373280911471,-2.0898943040000733,-2.034618639375237,4,left
7.068,1.7463865491804647,1.3307350879369901,-0.7334529626800881,0.473081231508511,-5.775920337721758,1.4603111729290492,0.5014540763091873,-1.9798801346173331,-1.8647316141334285,4,left
7.0729999999999995,1.4531586567013648,1.1465517174352198,-0.6391473226703059,0.4888059116333592,-5.728362566554555,1.4261007516964095,0.6276735348135153,-2.1621840404345667,-2.146415866483096,4,left
7.0729999999999995,1.226352833384182,1.0059444442390522,-0.5482280085491125,0.46860174089105566,-5.78939220546428,1.4700603276354718,0.46116695190462254,-1.9217662965435154,-1.7748759287330071,4,left
7.077999999999999,1.1732280083210536,0.9706264738822953,-0.5243558857587057,0.4854803226839165,-5.738453287603487,1.433345518950925,-0.2376678701919096,-0.9124314944697024,-0.2153229768270576,4,left
7.079,0.9539892915827706,0.8296531202034776,-0.4083516187442561,0.4850157876369325,-5.739902263655762,1.4343022318185608,-0.40417494988556596,-0.6720256550786828,0.15621374197601126,4,left
7.079,0.6465964642015964,0.6378405863990402,-0.23167426790391404,0.45283206236351636,-5.8367646134464115,1.5044723231942267,-0.2779395811737365,-0.8542952357488912,-0.12546835178511928,4,left
7.082000000000001,0.44381661629325825,0.5130460660099065,-0.09197240390949828,0.5319625590829753,-5.59861514677087,1.3320280155388886,-0.35407707910853137,-0.7443521274078206,0.04442468803521571,4,left
7.082999999999999,0.1769677975243806,0.3809751695392959,0.10479147700076774,0.4007366410075335,-5.993496499535798,1.6179546000115779,-0.32308855050762414,-0.7891089761996194,-0.024710503132881353,4,left
7.087000000000001,0.0030233258430998992,0.31014058978672354,0.24058163025568075,0.5738429815248818,-5.472646007297684,1.240806841155231,-0.3226767931565965,-0.7896916618053302,-0.025662607584407145,4,left
7.087999999999999,-0.0347254193005644,0.29860853971897466,0.27117724885808847,1.2999572693937718,-3.2870469576931765,-0.3423027767435365,-0.3388804647190437,-0.766303481816256,0.010546439919753403,4,left
7.0889999999999995,-0.19938044535492586,0.2567795639428593,0.39202455443519263,1.4730483876579403,-2.766236596257903,-0.7194634811200796,-0.3194637733247486,-0.7943351688536995,-0.03283420640907828,4,left
7.093,-0.40051240504377195,0.23252337099948012,0.547224956912119,1.3419032365593457,-3.1609963392337845,-0.4335233862663733,-0.3345998619639787,-0.7724808735114554,0.0009641649735429823,4,left
7.093,-0.5377646188942877,0.2417252884710187,0.6617870988604287,1.4208122536992769,-2.923107313111636,-0.6059606106504818,-0.32639084916213146,-0.7843350117367278,-0.017304355408061953,4,left
7.097,-0.665633349662896,0.2614509699817481,0.7911746570969096,1.389043412884074,-3.019542719870146,-0.5358406000710099,-0.3283782543998298,-0.7814638724144319,-0.013027854432466858,4,left
7.098,-0.7470628163612322,0.3028559795509561,0.9075054533072382,1.3879998657458628,-3.0215288764786923,-0.5347785504956104,-0.33033692980078666,-0.7786366785405072,-0.008383961817222861,4,left
7.102,-0.7914886825177012,0.3598110730466112,1.0105887460506322,1.4054575108499843,-2.9701251378333744,-0.5716424553921389,-0.32684282976179124,-0.7836817503997477,-0.01651669714464541,4,left
7.103,-0.8112207516173963,0.43366494080223933,1.1037527054314196,1.384990388332196,-3.031236182174175,-0.5275368260404427,-0.3301563148901353,-0.7788969478220189,-0.008854817252149486,4,left
7.107,-0.7944080740483235,0.5321545971195343,1.1585630324754805,1.400246047613904,-2.9843516451856797,-0.5618057853611993,-0.3277972155027863,-0.7823034056564173,-0.01411657100923788,4,left
7.107,-0.752647499821812,0.6567924835375183,1.1902697525984256,1.393334058323647,-3.008273992691392,-0.5434816546954566,-0.32920589101549247,-0.7802705623244697,-0.011471252623734465,4,left
7.112,-0.6860412367750837,0.8121000891834546,1.2149040616192508,1.392555927762853,-3.0052448475099123,-0.547390791392875,-0.32833892638740925,-0.7815192074964332,-0.012267373045106583,4,left
7.1129999999999995,-0.603437347667958,0.9939992149187806,1.2243613445816828,1.3981412019028834,-2.9950246712728257,-0.5526905718376915,-0.329069034752961,-0.780470138072871,-0.012336858871909676,4,left
7.1160000000000005,-0.5088332478585894,1.194853619406906,1.2164902146459515,1.3915875922835759,-3.009494774733213,-0.5438849983316836,-0.32839548044467004,-0.7814368840960824,-0.012028728349436729,4,left
7.117000000000001,-0.40755714128263953,1.409009086004471,1.1853332332647888,1.395219404207428,-2.9985216407237107,-0.5518486553199764,-0.3286191771360768,-0.7811175894655289,-0.012576405661774842,4,left
7.121,-0.30218778181293626,1.6174214517420276,1.1100764974908064,1.3976986083794676,-3.0007985872201077,-0.5470902060033411,-0.32963217916689014,-0.7796571661621678,-0.011217312758529097,4,left
7.122000000000001,-0.1750803369655113,1.8011152932128645,0.9796659001789334,1.387504831737886,-3.0092157837106117,-0.5480970674022185,-0.3265409645648242,-0.7841086570711314,-0.014168107839201308,4,left
7.127000000000001,-0.013344336972030267,1.9411892444722418,0.7894341882981588,1.404307829919833,-2.9918623070210337,-0.5500708602013158,-0.3320317541264372,-0.7762034816384683,-0.009236602354214706,4,left
7.127000000000001,0.18394156812237236,2.003330651241443,0.5484879472089823,1.3858098928547196,-3.0121163217244797,-0.5466937831533314,-0.3250351272530268,-0.7862755547504439,-0.01544781977463659,4,left
7.132000000000001,0.40292039179067685,1.998331077888953,0.2765920540411336,1.396893264543154,-2.9992371173000754,-0.5495002118435408,-0.3308550933574468,-0.7778986633498218,-0.010311058883755397,4,left
7.132999999999999,0.6181368008486459,1.9293684411612873,0.017983901585845556,1.4052182111503995,-2.9917927837048657,-0.5492606426618414,-0.33078008369647294,-0.7780034729166981,-0.01026264106813421,4,left
7.1370000000000005,0.8025848949378871,1.8187517834040672,-0.18687738415621086,1.366513267047456,-3.0311204112812504,-0.5454018463252928,-0.31941008772276147,-0.7943766020426204,-0.020673399932655146,4,left
7.138,0.9365522023303634,1.7075987463163234,-0.332929500548631,1.4388334888461922,-2.956593438037679,-0.5537205278688072,-0.3472606285850331,-0.7542770070326543,0.004695093794048427,4,left
7.142,1.01746757761969,1.5373836277228623,-0.38617003990745663,1.3457682739169248,-3.052863027449894,-0.5426154374017416,-0.3011057249440714,-0.8207271085674337,-0.03731155894247915,4,left
7.142,1.0489732225342352,1.41578983591186,-0.38648506377924297,1.423561451613723,-2.972251674139615,-0.5520728781169619,-0.3619849140774491,-0.7330824673952656,0.018092313326381365,4,left
7.145,1.053415889689472,1.3842267878497736,-0.37597838013225987,1.4212919518342315,-2.9748029200627712,-0.5515215845270174,-0.6176101624596732,-0.36502240278877085,0.2508994158613766,4,left
7.146,1.0578944504803456,1.255140968424296,-0.302200517909244,1.273381676856942,-3.1275286370020594,-0.5342673116451189,-0.6785051681994644,-0.27736211692710044,0.30632985740123564,4,left
7.147,1.0569912923392932,1.0917128552000865,-0.18122067944411874,1.637186900038769,-2.7516162110174074,-0.5771172651044512,-0.632333150833343,-0.3438291427868414,0.2642944594957065,4,left
7.151,1.0530529390776437,0.9491556800400548,-0.028401517276075185,1.0338526508658186,-3.3750928437276904,-0.5058849698026493,-0.6601771874858243,-0.3037359932774836,0.28965201644160055,4,left
7.152,1.055029950443658,0.8415946970937684,0.07913081563941549,1.8297332620911293,-2.5526637983071607,-0.5999311045205535,-0.6488639466598323,-0.32005295943595613,0.2793366190384755,4,left
7.156000000000001,1.054388066837013,0.8185033362204597,0.104007531277897,5.169634241409389,0.8992664644549204,-0.9940486624684881,-0.6486668153809741,-0.32027859989754237,0.2791798598269918,4,left
7.157,1.0508702413622317,0.7413277184534388,0.1833536864691145,5.96562247512556,1.7216966555003679,-1.088166830447764,-0.654661883710392,-0.31172847017484295,0.28461079878100093,4,left
7.1579999999999995,1.0421797966358186,0.6367148785774409,0.27832503105493067,5.362157382185208,1.0981754737415406,-1.0168252191942848,-0.6474908858126707,-0.32197304168088636,0.2781066466014346,4,left
7.1610000000000005,1.0282652609707361,0.579006934862447,0.3120361169815,5.725969336183153,1.4742408319056428,-1.0597566826147164,-0.6530569239200185,-0.3139934564796798,0.2831645383548711,4,left
7.1610000000000005,1.0179557789591387,0.5134371626454979,0.3259594916241466,5.578340129026796,1.321202970071074,-1.0425317792797142,-0.6501154191602668,-0.31829677469293605,0.2804653120395071,4,left
7.165,1.0127516260688307,0.45829085651295587,0.3015254241954905,5.575395612851912,1.3191120650151356,-1.0417642084087637,-0.6506461223987763,-0.31731357662343723,0.28101407122763267,4,left
7.167000000000001,1.018474657303169,0.40801401140212257,0.24533781527978518,5.6542128807696965,1.399232534499732,-1.0516543082832452,-0.6517008637872088,-0.3161720485116829,0.28186261051697914,4,left
7.17,1.0382121386337002,0.35372696551773686,0.17944456541632836,5.560057619724583,1.303240477202229,-1.0399652891920663,-0.6500073841655065,-0.3181478326955745,0.28045725699532564,4,left
7.17,1.0667685147761214,0.3028959873425732,0.10679358867798068,5.632978657301547,1.3780400494704952,-1.0488202077553843,-0.6515506636370261,-0.3162943819113321,0.2817538076258148,4,left
7.175,1.1071653034779882,0.24408198036769838,0.04261682721055949,5.594909089485543,1.3375700374036719,-1.0448077836799903,-0.6506908596021082,-0.3175356915184632,0.28096994321648205,4,left
7.175,1.1568166079788496,0.18872717315518817,-0.007538146160147033,5.600670067238841,1.3471389712333206,-1.0439361502396323,-0.6505907019332285,-0.3169959512660436,0.28108006976533206,4,left
7.181,1.2044815359491166,0.13571723284332132,-0.03627668347663723,5.616464915938945,1.357240400556261,-1.048471442006759,-0.6516799440521787,-0.3169904750465596,0.2816119229101394,4,left
7.182,1.2471037850314615,0.08389020140045608,-0.04353766022329032,5.591872938037701,1.3394576056845198,-1.0422931161294164,-0.6498489393214519,-0.3172954815704906,0.280630802397394,4,left
7.184,1.2810892333972341,0.048028339001982695,-0.031302340434961634,5.614000386899509,1.356242121403342,-1.047515467755266,-0.6518391397796026,-0.3169149909769786,0.281711564625703,4,left
7.185,1.302978704895104,0.025678962985944163,-0.0006124612462015851,5.602781169184932,1.3445936879852998,-1.0462137199953023,-0.6506287675607421,-0.31722214688777506,0.281032214275898,4,left
7.19,1.3083234636519292,0.01995947224345309,0.04451726788745072,5.597841266407215,1.3507747849571432,-1.040790160057171,-0.6498850148465409,-0.3170546303832895,0.2807188808779997,4,left
7.191,1.2929341703628587,0.04118342977406063,0.10310494101523701,5.620373417893735,1.3482676948093169,-1.0545119419442992,-0.6536302140257111,-0.3170800775153061,0.2825354369392209,4,left
7.194,1.257530179138441,0.08611823137365872,0.16637850993914766,5.58406648655262,1.3492257884461167,-1.0337236957400262,-0.6465965086569839,-0.3171606745922444,0.2790867473507452,4,left
7.195,1.1954974622046484,0.16536166032827343,0.22617070207793094,5.623272639897856,1.3487217506296976,-1.0559436979560064,-0.6556475387957164,-0.31702844690972853,0.2835322540751116,4,left
7.2,1.118810621588059,0.2667184642520587,0.2768097544354861,5.599825646289368,1.3481959424293157,-1.0430109548717965,-0.6480839544234309,-0.3171505448638896,0.2798149355447509,4,left
7.202000000000001,1.0316771985600615,0.3865924711630426,0.3123399868705033,5.583542464720127,1.3517925949990033,-1.0323277736876224,-0.6483179004933932,-0.3171025111143404,0.2799405382511331,4,left
7.204,0.9366853136505864,0.5187513226409919,0.33418744806755074,5.661238526708344,1.3426789469136184,-1.0798445083717425,-0.6626427665672159,-0.31701622569647153,0.2869439675587053,4,left
7.205,0.8536554783421999,0.6382122477817029,0.3444269455283927,5.515986659103323,1.358386376642394,-0.9915859106250541,-0.6274009887082639,-0.31728119787174436,0.2697036189812576,4,left
7.209,0.7641817383532298,0.7877628612948322,0.3454854029276453,5.702761923614121,1.3384823153002088,-1.10494646644975,-0.6858402607628459,-0.31682800767882746,0.2982926023566085,4,left
7.21,0.7074299319468389,0.890030209102963,0.3431092471082919,5.54672048976472,1.3549955661586504,-1.0102927544015685,-0.60876102200226,-0.31742716730257153,0.26058808609005835,4,left
7.215,0.6936167181350166,0.9170083517195761,0.34145389647591207,5.551363355044266,1.35495454042538,-1.0129075311802174,-0.2852364531995964,-0.3198743795030164,0.10230829386763743,4,left
7.2170000000000005,0.6411224987192781,1.0163044753150976,0.336759334047838,5.847541900193605,1.322124293360328,-1.1932246553989025,-0.208165324941495,-0.3204685709981796,0.06461540585150544,4,left
7.2170000000000005,0.5815866656083724,1.1378882165212891,0.32924187578288155,5.119061943497597,1.4023500507093094,-0.7499599193199298,-0.2665958231460441,-0.3200207520047449,0.09319181234944149,4,left
7.218999999999999,0.5423335986149596,1.2297634210089496,0.3300969826395451,6.3270671362105695,1.269437084724701,-1.4849374304445606,-0.23135070367746022,-0.320287782667596,0.07594666419798518,4,left
7.22,0.510132050638151,1.2966761664246582,0.3359156100969219,4.733666816161901,1.4447659551710121,-0.5154919255180009,-0.24570468598364004,-0.32018363810852213,0.08299185601194176,4,left
7.224,0.5041311485401132,1.3098045608450135,0.33913384692814463,-1.9540474423362637,2.1812938507638147,3.553681784451782,-0.24587599060666313,-0.32017401106888566,0.08302762160037848,4,left
7.226,0.48902067834912605,1.3501782907176225,0.3442919124024235,-3.547530767294084,2.3567656489689126,4.523166919159431,-0.23840221671255124,-0.3202410571964047,0.07943909510556427,4,left
7.226,0.46563000490991646,1.397936692276652,0.3499228487356908,-2.3393431434815595,2.2236364657306487,3.7881150778621895,-0.24736382016166836,-0.32016363015438987,0.08375637203045874,4,left
7.229,0.45409139093152984,1.4064382070051606,0.3529758758684035,-3.0681170242988562,2.304021522284513,4.231474914817563,-0.2403686899754954,-0.32022061796402757,0.08036297373188167,4,left
7.229,0.44025163848319826,1.408203184713556,0.35757051446573707,-2.771560007988696,2.2712545663784196,4.051070339191133,-0.2441907057380862,-0.32019892373867276,0.08228972862510037,4,left
7.233,0.4324199195608555,1.3944296179591897,0.3668645532598631,-2.767279608054391,2.2707769560178717,4.048490283123662,-0.24319954846567207,-0.32018311900000507,0.08162156319424295,4,left
7.235,0.4311704883951828,1.3774008964591478,0.3720059624632245,-2.9231631239522695,2.288156700193003,4.143217065940071,-0.24241544022416012,-0.320228950735658,0.08155351866707337,4,left
7.239,0.4329136690288331,1.359104749255552,0.3678499880631575,-2.7360931759534872,2.2670893376645713,4.0296302798272485,-0.24388253388521283,-0.32016908382731185,0.08188414527887622,4,left
7.239,0.44372140721635606,1.3290863925202645,0.36377798488564517,-2.8823114911308325,2.283856688167959,4.118271497202717,-0.24246853627458967,-0.32021860303895133,0.08150093473048284,4,left
7.245,0.46582458168646274,1.2998350567470154,0.3597548560785143,-2.802934407138586,2.2744561803491132,4.070292264622658,-0.24356158413441895,-0.32021055224748063,0.08203842555031582,4,left
7.246,0.49604358084872213,1.2675166039171153,0.35078747671308197,-2.82130565153938,2.276765064975586,4.0813355180165605,-0.24268736601169236,-0.3201456119236095,0.08103827960697807,4,left
7.247999999999999,0.5293998562408192,1.2296073935709924,0.33905147500288635,-2.8430431141850225,2.2797134968810306,4.094289059522982,-0.24359638515535187,-0.3203023861240233,0.08279119587562205,4,left
7.249,0.563783147462878,1.1917675033065631,0.3263831097045721,-2.8039304963644516,2.2736130828449594,4.071362856227286,-0.24250099786394172,-0.3200664525698848,0.08030373176139818,4,left
7.254,0.5960106881782951,1.152677112493762,0.3129462099495386,-2.8431558712295786,2.2810226769753044,4.093730476246176,-0.24362024077070357,-0.3203184563096857,0.0829316768953207,4,left
7.255,0.6263789170161251,1.1113575694069258,0.3000321859013102,-2.813762451105843,2.2739943194027354,4.077684014784471,-0.2430500823970599,-0.3201720072952078,0.08145074666584393,4,left
7.257999999999999,0.6528070686140691,1.0707978989133808,0.287993974083789,-2.8290812816874205,2.2787037392190417,4.085540205863904,-0.242179144635606,-0.3200495022082339,0.07998836373788792,4,left
7.2589999999999995,0.6731797868488782,1.02901851828599,0.2775902084124631,-2.8290831007466535,2.2787300208679087,4.085527930187243,-0.24536992153008105,-0.3205921321066743,0.0860843798011447,4,left
7.263999999999999,0.6912820726881488,0.9865191965446883,0.2748662995575685,-2.813653739002165,2.2714253870623184,4.078857748265235,-0.23956440035520282,-0.3195842456871542,0.07483409524274914,4,left
7.265,0.705918570526962,0.9469473713710583,0.27850581011974973,-2.843429424444528,2.2875153786455495,4.090764445403022,-0.24699422398905238,-0.3208793222406531,0.08926776961145141,4,left
7.268,0.7167912492230306,0.9097570207398809,0.2855391416296883,-2.8035265542286014,2.264009217032812,4.0757498886676915,-0.24080100536169322,-0.3197970200323305,0.07722268229069601,4,left
7.269,0.7244073371145779,0.876456626858342,0.29910526644823043,-2.84342348612394,2.2887765393698087,4.09014937151842,-0.24093095185759233,-0.3198289705018612,0.07752986067577325,4,left
7.272,0.7265949567660568,0.8477498271907853,0.3118066376704494,-2.821214780486394,2.2745588956214804,4.082342614178906,-0.252865118242744,-0.3218861419084042,0.10055949792536942,4,left
7.273,0.7272588399287803,0.8222688252218405,0.3182575382727384,-2.8024219086097486,2.262341724380711,4.075827138993434,-0.22357549114026756,-0.3168246081504378,0.043977392969310095,4,left
7.278,0.7255906338714606,0.7997535990266676,0.32175467541835223,-2.8836540880315136,2.3156982247524827,4.103725290671598,-0.2721295894733698,-0.3252209302182151,0.13778781019084668,4,left
7.279,0.7209167402156378,0.7876145662370575,0.323035386323144,-2.7339780266175753,2.2168547928358793,4.052577797118046,-0.20808515815530568,-0.3141417205320156,0.014052203888663795,4,left
7.2829999999999995,0.719806288099062,0.7851616436118516,0.3227626319123188,-2.925498487570657,2.343701083582096,4.117845528141891,0.060781648212964556,-0.2676615005063444,-0.505350976191578,4,left
7.284,0.7182094329275561,0.7770625557283473,0.3186854735281546,-2.7659000644978153,2.237834431811234,4.0635347624381115,0.12483811357230933,-0.2565706874546335,-0.6290907073345604,4,left
7.284,0.713642127133752,0.7715946301290082,0.31037687113996393,-2.7702631287108703,2.240708844984054,4.065030672932912,0.07626761197680829,-0.2649851653180113,-0.5352750203199725,4,left
7.287999999999999,0.7101177002684693,0.7760781813223047,0.3020854270898802,-3.073957643837338,2.4424937507511224,4.168209934542277,0.10556427057085313,-0.25990856489074254,-0.5918582862881638,4,left
7.289,0.7081702941510404,0.7801038659020558,0.29240291422981235,-2.3276736728668386,1.946544321007972,3.9147055615241086,0.09364858797851651,-0.2619649980302381,-0.5688375598236691,4,left
7.292000000000001,0.7080897712680492,0.7919513071340255,0.2794887101643221,-3.5648650702215647,2.7688269736845688,4.334917817238221,0.09346236668330649,-0.2620258642384674,-0.5685072719919,4,left
7.292999999999999,0.7064502708943347,0.804431066575171,0.2722940033653442,-1.933165607967668,1.6842754427051647,3.7807481471138886,0.09974948614978385,-0.2608802234863728,-0.5805886454950686,4,left
7.292999999999999,0.7057336312263358,0.8078190315913296,0.2704821015418708,4.914924073412011,-2.8674173951147863,1.4551214223220248,0.09220965021129607,-0.2622657027194178,-0.5661149003978869,4,left
7.297000000000001,0.707626772426821,0.8215940878906347,0.2608093586410056,6.546390534011639,-3.951792081725294,0.9010716308988044,0.0980932936501067,-0.2611680542472565,-0.5773897864974419,4,left
7.297999999999999,0.7054424134113259,0.8427595297740913,0.24763885591653167,5.309652757377563,-3.1298884201110866,1.3210555184432935,0.09492634817284074,-0.2617500113781997,-0.5713113307966893,4,left
7.3020000000000005,0.700636677616229,0.8626537534078966,0.2359833707900763,6.055318789115159,-3.6252459331071307,1.0678512978836872,0.09559900466981462,-0.26170201736159204,-0.572688162836069,4,left
7.303999999999999,0.6927811841450322,0.8870835042372993,0.2204524574229314,5.752259663814181,-3.424196675211627,1.1707402998463805,0.09657978271527021,-0.2613129816827694,-0.574332952573194,4,left
7.307,0.6776703905458965,0.9120933017276931,0.20216348751952443,5.747512599853264,-3.4206548673069173,1.172379407500245,0.09488337883283135,-0.2619839461481025,-0.571486444088417,4,left
7.307,0.6585112689115069,0.9383815269009497,0.18051412570010256,5.906874498973279,-3.5267455319381216,1.1182486917686232,0.0965482679187051,-0.2612329230147236,-0.5741742428577785,4,left
7.312,0.6354959921494331,0.9655599425665691,0.15893718125810288,5.716572737128456,-3.4005915867727525,1.1828557627419771,0.09539263022802397,-0.26180184668760326,-0.5723630766028962,4,left
7.313,0.6070807355124983,0.9891199777310904,0.14065757029962625,5.863897227655697,-3.497436467800954,1.132887233446585,0.09578729996756982,-0.26173692278975325,-0.573129154114389,4,left
7.316,0.5769774080357382,1.0106116993771836,0.12286204955749813,5.785825469243946,-3.4474020796212663,1.1592929011634359,0.09624690071753308,-0.26097262238667807,-0.5732355269532795,4,left
7.317,0.5502192585264996,1.0280417925388639,0.10889646747140774,5.801675186600727,-3.455656303026992,1.1540416003868583,0.09497825368438967,-0.26275691610941265,-0.5725708150488755,4,left
7.322,0.5291306189995373,1.0401088798957416,0.09810677921869913,5.824846340722381,-3.4728761353698143,1.1460682023693962,0.09682016521392615,-0.2601039093268989,-0.5734644541088364,4,left
7.3229999999999995,0.5119841552152149,1.049143472505082,0.0866835011869195,5.78813174716796,-3.4484890575659475,1.158536063611418,0.09492391833765813,-0.26292036959688525,-0.5726418359091033,4,left
7.3260000000000005,0.49871739389390723,1.054603703378576,0.07616361907963995,5.818978305755842,-3.465616777858596,1.1482525615985946,0.09602028441460435,-0.2612929830774601,-0.5731184280295917,4,left
7.327999999999999,0.4904796071336676,1.0553413519353403,0.06713589284744644,5.80413080359547,-3.4634618256750804,1.152855461195169,0.09681620016847511,-0.25991568097799667,-0.5732413794782036,4,left
7.332000000000001,0.4848209726757151,1.0521315448223667,0.05962564989742981,5.801931363575132,-3.4504918073675395,1.1542581267002967,0.09313979912788672,-0.26597625383049106,-0.5723308881372258,4,left
7.332999999999999,0.48177970166779693,1.0463647091961112,0.054046332608700995,5.8150015898674505,-3.471447565700374,1.149119922322312,0.09996729877951617,-0.254735436079169,-0.5740376526487967,4,left
7.336,0.48331076371401843,1.0384859710011933,0.04845297497801975,5.801973808093486,-3.455699218248942,1.153949417749681,0.09121286273895224,-0.26916682936774516,-0.5718703023506082,4,left
7.337000000000001,0.48673077257157843,1.0301009819893014,0.042278182470590064,5.802275422976281,-3.4497900116972846,1.1541928624416407,0.09851582005145189,-0.25712007364209905,-0.5736683633677877,4,left
7.343,0.4918663732292084,1.0223810172450332,0.0370423433626383,5.8252977196891145,-3.49183407837935,1.1448535854632582,0.0983025589447988,-0.2574481367200812,-0.5735904471173181,4,left
7.343,0.4978117028310724,1.0142782645127955,0.03282393285293363,5.77550563310306,-3.409144500984126,1.1645864616494817,0.0844439996814652,-0.28040900311787487,-0.5702886678777535,4,left
7.346,0.4994578264397774,1.0047909147413803,0.028864197629906878,5.8425911271552575,-3.517416946333684,1.138175802161168,0.11851833251414542,-0.22397339653130777,-0.5784248447783306,4,left
7.347,0.5005636256863488,0.9932626210083191,0.0201673226253221,5.7852367032510505,-3.4261278204820256,1.1606868935677725,0.06202281247295171,-0.3175449153045722,-0.5649385109409477,4,left
7.351,0.5019965781331961,0.9856952166078917,0.010216185295724014,5.787959072659796,-3.429380628495899,1.159670169416495,0.1365362047708791,-0.19412630377763657,-0.5827179949094063,4,left
7.352,0.5019191187554166,0.9832891250323952,0.007198457859129317,5.8951520615583535,-3.601997819952266,1.1175073413900218,0.4492653592527228,0.3239270897587862,-0.657285784903491,4,left
7.353,0.5049706999366361,0.9747747157865181,0.0026504273562601177,5.629586095393581,-3.1763222677013165,1.2218715649182919,0.5237730754066006,0.44734306363061094,-0.675051867054739,4,left
7.357,0.5042123599665163,0.9601844250881498,-0.0037678143583652138,6.070912730738996,-3.8827871023337526,1.0484737392380494,0.4672866037028683,0.3537749014403627,-0.6615856500774266,4,left
7.358,0.49853644441762174,0.9524692521641306,-0.004458966082938347,5.488308839366687,-2.950627030016647,1.2773687327807552,0.5013529751521788,0.41020981243222987,-0.6697074463179475,4,left
7.361000000000001,0.49723695168473564,0.9519210000421667,-0.004903345582930541,3.042757365419774,0.9620793496587823,2.238000644502933,0.4874952732607185,0.3872431514502685,-0.6663985858023141,4,left
7.361000000000001,0.4950779203887034,0.9446242871333468,-0.007558818741144566,2.459871067978435,1.8944389408417135,2.467017690667901,0.4872943494408866,0.38693000905516156,-0.6663633074996442,4,left
7.362,0.48886943711730224,0.933689009121218,-0.0109192253835734,2.9018142373391234,1.18755152126189,2.2933822018165353,0.4945682629170034,0.3989534076618141,-0.6680782955226992,4,left
7.365,0.4832713362740906,0.9268102002293822,-0.012899596108117166,2.6352629459754504,1.6138771766686575,2.3980702762685158,0.48585693229420984,0.38454772640181356,-0.6660210737316412,4,left
7.3660000000000005,0.4806679729211291,0.9165944690479817,-0.010661684585906637,2.7437133394504674,1.4404665198222333,2.3555742862023905,0.492639492448896,0.39577289410771954,-0.6676294266335422,4,left
7.371,0.482219566842241,0.9077956372785215,-0.005896543656286643,2.745247335890382,1.4379125218629987,2.354759206226961,0.4889867734934815,0.38970074013623496,-0.6667416422496404,4,left
7.372000000000001,0.48328362428697624,0.9019531533051193,-0.00014718875566667824,2.688382234217389,1.5290070322773315,2.37739363988193,0.48981081686062916,0.39113340750779346,-0.6669931911751412,4,left
7.375,0.48199619085185336,0.8937595960483693,0.0046269238525355845,2.756497492719891,1.4199199952124393,2.3503449831311265,0.49079945099414274,0.39265514666777124,-0.6671336925072489,4,left
7.376,0.4808518669852462,0.889691328819554,0.007621745927353238,2.7034441646512852,1.5048334959416843,2.371309752913123,0.4890983413100886,0.38997922523569883,-0.6668451181992338,4,left
7.38,0.4792901905608828,0.8881381434147908,0.009926318685762235,2.7320727607983253,1.4591745608563333,2.3603141697013217,0.49069070811401594,0.3925039345054607,-0.667131424754149,4,left
7.381,0.4792325350773448,0.8853741006237907,0.012022389635966626,2.7254819320775523,1.4693054077898036,2.36210078449541,0.48963611275411856,0.39075590394191184,-0.6668791750860401,4,left
7.385,0.47893666977004073,0.8813479585231397,0.015016173270346498,2.7179893196310876,1.481994505035529,2.36642463333863,0.4900627429333139,0.3916724933455448,-0.6671541400052674,4,left
7.385,0.4774618549682124,0.8751450559876691,0.01839611108636892,2.7310029195986645,1.4603154307630892,2.35961933552115,0.49014030989808954,0.3913215087518745,-0.6667766573267728,4,left
7.388999999999999,0.47966849992251365,0.8712612758587054,0.02218593384291105,2.7187794549943853,1.480555220351256,2.3657705219693295,0.48977253118884434,0.3914274988766041,-0.667279721641765,4,left
7.391,0.48172380592603803,0.8713485406319257,0.02499893972515089,2.727033829203692,1.4673594603219187,2.3625401349562374,0.49021151913825894,0.3913922818472419,-0.6667546414149135,4,left
7.396,0.47938391919766865,0.874496417789848,0.026396941914721167,2.7232563671824392,1.472120955106421,2.3615198707441034,0.48988373298220056,0.3912898056051912,-0.667040306080817,4,left
7.397,0.47218420444354164,0.8798329039481374,0.0278528371394421,2.723652643263126,1.474412836759577,2.3670867310268227,0.4899684479658197,0.3918098756457621,-0.6673743044465741,4,left
7.401,0.4613171408240835,0.8843424367304761,0.027560967364200575,2.725033876837404,1.4678387177216345,2.3580071452036817,0.4901988597796271,0.39052967510486786,-0.6660562730018729,4,left
7.402,0.4469250725296534,0.8899935984535068,0.026620372595199372,2.723194425896268,1.4754344876858827,2.367830499759423,0.48966306130664766,0.3927240802859113,-0.6684745528137899,4,left
7.404,0.42643947155012313,0.9007330687376536,0.027764039327704007,2.724836896491823,1.4701175357446392,2.361926526058201,0.49037539522770746,0.389946681378657,-0.6653753229040011,4,left
7.405,0.40566887954940734,0.9133210229570937,0.0318150047664988,2.723380516981223,1.4701312859275864,2.357966572500577,0.4897708429453609,0.3922490699418647,-0.6679601342461214,4,left
7.41,0.3805123764536068,0.9277985702010851,0.033612831165260586,2.7250537216195285,1.4775961404165678,2.377146081517357,0.4898250332455558,0.39224937666902726,-0.6678997178159224,4,left
7.4110000000000005,0.3504774030647843,0.9456258509337834,0.030507712713215764,2.7227982841938347,1.462394038212111,2.3412435707948616,0.4908536982496995,0.38765371274467786,-0.6629401675232283,4,left
7.416,0.32059904686617224,0.9614383143995865,0.02931555712950877,2.7255053589550213,1.4822194894994833,2.387419411467249,0.4882807900225284,0.398875529005394,-0.675118412796553,4,left
7.417000000000001,0.2819768885228957,0.9751275056643167,0.027974895454518083,2.723320365264028,1.4655440493633796,2.348838541855601,0.492558286350258,0.38028822472015633,-0.6549299530931988,4,left
7.42,0.2555409089279423,0.9827805954762551,0.02514936349351573,2.7230884501501436,1.466470499971939,2.350000624627989,0.4869153603997904,0.40480332578516065,-0.6815572102991863,4,left
7.42,0.24751219056537388,0.9843570401647379,0.025656651287263382,2.7282141250251972,1.4967101798366065,2.4231814383699755,0.46328321301795633,0.5077942339748548,-0.7933431510344131,4,left
7.421,0.22113209709441517,0.990469267514314,0.023502915321912697,2.7159543612254704,1.4218233385963752,2.2431716824672416,0.4576448391433775,0.532317153106941,-0.8199689676600758,4,left
7.4239999999999995,0.18101388820276293,0.995008371324803,0.017559390815891113,2.7361999895349145,1.5461359035402331,2.541674080239676,0.46191754751205977,0.513721484124934,-0.7997833145774847,4,left
7.425,0.15940196838062515,0.9946127944484084,0.016248585128997715,2.709493940863759,1.382153362418133,2.1479449968952014,0.459342280562278,0.5249397505631415,-0.8119577321744555,4,left
7.428999999999999,0.1514727628126851,0.9957310343647,0.015707265653186683,2.597024038599594,0.6945311656896859,0.4954530216558978,0.46038828345755123,0.5203728306879873,-0.8070021250030897,4,left
7.43,0.13295749067563983,0.9937597432473659,0.011346108771761535,2.570257824854881,0.5305970168016261,0.10172927538163853,0.4604058378878355,0.5203117492718575,-0.8069393127019422,4,left
7.431,0.11024937356680395,0.9887649673907224,0.012381151377970172,2.590579283653761,0.6548630686624775,0.40023048473680617,0.45985327854907043,0.5227017890377452,-0.8095226847516244,4,left
7.433,0.0977555809496177,0.9805576541611707,0.023449378692198604,2.578306250919307,0.5799356142426937,0.22020228916161608,0.4605145072250783,0.5198375661905095,-0.8064309770962366,4,left
7.435,0.08945213538298763,0.9671380097789269,0.03911956887032021,2.5832943957462238,0.6103916429562648,0.2934357444266784,0.45999951757075486,0.5220685830775931,-0.808834703474719,4,left
7.439,0.08382791830760078,0.9561279144593458,0.051550538418485684,2.5834107670917463,0.6108811018929685,0.2945069343321429,0.4602766763986304,0.5208649007705688,-0.8075362694939826,4,left
7.443,0.08014678080274654,0.9465103396423101,0.05791419689415722,2.580684469332274,0.5948093928007601,0.2560384747633934,0.46021573035779473,0.5211418588511771,-0.8078519633394013,4,left
7.444,0.07677281425606847,0.9363752908759327,0.0604830359579616,2.5839829497537847,0.6140621677644824,0.30212475333571676,0.46013612924659597,0.5214563592408823,-0.8081437245519054,4,left
7.445,0.0755452647206993,0.9300531110038588,0.05639495947773118,2.5813750589870805,0.5990542127154975,0.26621933539725473,0.46027349936409295,0.5209114409878828,-0.8076381748336958,4,left
7.449,0.07319816977750516,0.9237154116805186,0.048300469418935316,2.582764566784249,0.6071328510781961,0.28557150177769286,0.46014175320372175,0.5214207523321704,-0.8080853268850035,4,left
7.45,0.07187683889637263,0.917475637604843,0.041059904824970656,2.5826076459989684,0.6053793393126814,0.28122008381422303,0.4602316232648772,0.521080352126311,-0.8078001917700189,4,left
7.452999999999999,0.07404193787660837,0.9157196141589314,0.02784060822675399,2.5817922273556624,0.6029883079433758,0.27589712643278796,0.4601968449359909,0.5212324509632636,-0.8079659594988066,4,left
7.454,0.073765511081299,0.9161675079519034,0.010251636178330525,2.5832015924573817,0.607119735649492,0.28510668909622816,0.46017821329297487,0.5212188513541092,-0.8077947846318385,4,left
7.459,0.07275323290880034,0.9166837392579933,-0.0038030892147113107,2.5816456821373404,0.603118643335796,0.27636820774200493,0.46023993620552983,0.5211662456292037,-0.8080952794532659,4,left
7.46,0.07604840399745774,0.917807481360271,-0.019685010164303546,2.582814473043796,0.6058682383960556,0.2822792805195233,0.46015232461881717,0.5212253270658159,-0.8076258624347363,4,left
7.462999999999999,0.0799033730642234,0.9194785841423327,-0.03920254034338437,2.582655659717785,0.6048576371782675,0.2798434877694517,0.46023983007842,0.52118814161183,-0.8081543153396944,4,left
7.462999999999999,0.0812032711512466,0.9231418763445098,-0.05563985831982123,2.5811909292992974,0.604064078323555,0.27922896365819505,0.46018913350611773,0.5212098030161101,-0.8078491344582215,4,left
7.468999999999999,0.08152188295780438,0.9297347578258432,-0.0720540079367726,2.584629282838114,0.6064346442568362,0.2819742960176751,0.4601587958223077,0.521171674332132,-0.8075244798688819,4,left
7.47,0.07972773253668289,0.9378096197752811,-0.08894918606630882,2.5795214897104213,0.603028528379093,0.2781907562663971,0.4603090621330346,0.5212652818167038,-0.8088659633067026,4,left
7.474,0.07305564563897311,0.9473827357062874,-0.09915481931544018,2.5849376247613662,0.6064871274238841,0.2818103090591072,0.4600293288979188,0.5210950587394187,-0.8063817655621753,4,left
7.474,0.06440209267040786,0.9570490774219308,-0.10718381254193458,2.5818093410867426,0.6044870342579584,0.2797148855915178,0.4603876617936368,0.5213186976302266,-0.809577151394652,4,left
7.478,0.05783299422936467,0.9664271664867125,-0.11540024991582908,2.5791703944060265,0.6031443879814056,0.2788244808734525,0.46008864608130373,0.5211293292876451,-0.8069065130632034,4,left
7.479,0.05370672205027719,0.9737456891346055,-0.11775213071330873,2.5907906123294646,0.6095140746956569,0.2839060468920776,0.46009897732020655,0.5211296533431846,-0.8069737723358821,4,left
7.483,0.04980700979307326,0.9753055141194765,-0.11616246358362917,2.5692409058824826,0.5976770095748456,0.27442419673640495,0.46066115016857456,0.5215134199792197,-0.8120903058447649,4,left
7.484,0.04600838610128523,0.971704010211369,-0.11177337959002018,2.5969024766687516,0.6128446570194415,0.28652230846659876,0.4592766959773317,0.520572378485828,-0.7995165321961275,4,left
7.4879999999999995,0.044441685446383175,0.9640830077883681,-0.10242604864375482,2.573817664328174,0.6001963678624453,0.27645826791481143,0.46157319432836863,0.522134688118852,-0.8203668539900254,4,left
7.49,0.04267479234551884,0.9589441854163905,-0.09364235705200741,2.5744349243510687,0.6005789407698325,0.2768238675450145,0.458543624113284,0.5200713374284143,-0.7928623082447442,4,left
7.49,0.04239801267299492,0.9565061873416516,-0.09091555502828919,2.618458891546063,0.6245252035674793,0.2956103070461731,0.44585616152645124,0.5114292191421584,-0.6774382810109281,4,left
7.494,0.046267823793458965,0.9470103648555177,-0.08581545685335801,2.510276993495573,0.565637642198317,0.24936905106913054,0.4428280693278953,0.5093647761750623,-0.6499327615367885,4,left
7.494,0.04803651181400833,0.9334176539703194,-0.07156800335700787,2.6896253471714555,0.6632731567374974,0.3260272341548939,0.44511944778332924,0.5109251648103722,-0.6707800370333763,4,left
7.497999999999999,0.047652316944460094,0.9260169673283286,-0.0618878269833529,2.4530891845344405,0.534501881212224,0.22494363692657335,0.44374685608633346,0.5099955628810596,-0.6582211857049932,4,left
7.499,0.047599240833773274,0.9229686090577756,-0.059270865240315995,1.459998895270843,-0.005905621437303721,-0.19915552498696304,0.4442886238260456,0.5103527522853654,-0.6633042868250916,4,left
7.499,0.044103298743002846,0.913871065034812,-0.04926035885722156,1.2235012969407482,-0.1346632119706896,-0.30019692468621206,0.4443256837070869,0.510395124334655,-0.6634234799502455,4,left
7.502000000000001,0.039317308405188434,0.9021941408730033,-0.0381410829626779,1.4028067162176434,-0.037049950854874905,-0.2236022717895847,0.4440020954825374,0.5101575858100023,-0.6606943911784093,4,left
7.502999999999999,0.03606968642146194,0.896990049637992,-0.03402332098437806,1.2946132362594334,-0.0959167655306449,-0.2697975773819862,0.444367721227388,0.5104140558319122,-0.6639279811280501,4,left
7.507999999999999,0.032617259269868276,0.8940652933618125,-0.034286191533854954,1.338766767849605,-0.0719757695518634,-0.2509902244503652,0.44411673698590926,0.5102577736675837,-0.6614644381619871,4,left
7.507999999999999,0.03082353425529047,0.8918208739307634,-0.04002475013924408,1.3390993493564949,-0.07161819446064538,-0.25075682474825933,0.444187245328695,0.5102584248008591,-0.6626875391641504,4,left
7.5120000000000005,0.03301419440291603,0.8915689847421189,-0.04351119003192053,1.3164274354982601,-0.08420155461436507,-0.2605615001725992,0.444287390508708,0.5104083125037955,-0.6625970001432974,4,left
7.513,0.03926469730529307,0.888769776392247,-0.043614003054124634,1.3436719404621043,-0.0691348975298621,-0.24880887501472926,0.44408364814649864,0.5101692748322535,-0.6619720172162554,4,left
7.517,0.047937723050276264,0.8862411078164121,-0.0474630624659419,1.3223131563666288,-0.0808609113297746,-0.2579796936212695,0.44428274411721036,0.5103848363907612,-0.6628041609796644,4,left
7.518,0.05589267230047168,0.8885099034194406,-0.05205244973884837,1.3342662437404074,-0.07455999080058412,-0.2529746674336534,0.44422006913544765,0.5103428329319177,-0.6622253045950097,4,left
7.521,0.0654207072646173,0.8907968114581042,-0.05569188272631724,1.3305115628863493,-0.07594859948605154,-0.25426053467135723,0.4440197732883332,0.5100580921778138,-0.6622193104550271,4,left
7.522,0.07763611415042301,0.8928962891707047,-0.05598291614513073,1.3293304094971279,-0.07771767377468389,-0.25531014137695635,0.4445565436128114,0.5107626937362559,-0.66295227486349,4,left
7.528,0.08775325485415786,0.8984505777406171,-0.05534300348550363,1.3323307318958406,-0.07470378256351047,-0.25336096730528873,0.44372797391240093,0.5096925775786705,-0.661605558944252,4,left
7.529,0.09646243639349743,0.9068423067831131,-0.061775864902062425,1.3291880625769146,-0.07751462854002988,-0.2552349891586976,0.4446213825753762,0.5108402847080982,-0.6631337940720716,4,left
7.532,0.10277810896291953,0.9178239967525321,-0.07226498669592671,1.332553891304212,-0.07569278933819087,-0.25380246709770693,0.44409842347294093,0.5101724900765974,-0.6621887804091938,4,left
7.5329999999999995,0.10397942048525186,0.9310687771227708,-0.07829058041387153,1.3276489239949905,-0.07632025950701367,-0.254910398283105,0.44366860601043123,0.5096112908717394,-0.661566913594487,4,left
7.537000000000001,0.10397681450303253,0.9466491297047852,-0.07293185255105292,1.3355155765112081,-0.07670508759963508,-0.25380549966498045,0.4455883319313014,0.5120940267799758,-0.6646439786601293,4,left
7.537999999999999,0.10497378110435977,0.9619550829117787,-0.06317766255412546,1.324580625873554,-0.07569544968483553,-0.25511215322086245,0.4420191560469102,0.5074834787588018,-0.6588537377912501,4,left
7.541,0.10752706070718167,0.9735985117968879,-0.05844363754673548,1.336088296092866,-0.07685282469479815,-0.2537827885889236,0.4466052566712819,0.5134059035036842,-0.6663186080780235,4,left
7.542000000000001,0.1099714840649041,0.9840877604216436,-0.052003356269010294,1.3296747323802651,-0.07605597752475868,-0.2544503976603149,0.4427754790266344,0.5084606301466336,-0.6600743789901578,4,left
7.546,0.11028558549061188,0.9939033190181428,-0.04133157745622071,1.322979549751448,-0.0760037615047406,-0.25552388281794225,0.44288053319455617,0.5085959144237453,-0.660261669404999,4,left
7.547000000000001,0.11042889623255636,1.0012126333703706,-0.02821700159260324,1.350371178636213,-0.07727115462192996,-0.25164087258150847,0.4501792286734567,0.5180217291005178,-0.6721191369365613,4,left
7.5520000000000005,0.11017538760089432,1.0068681185542587,-0.015000252790516002,1.2999179961173541,-0.07473325941587959,-0.25869488386275485,0.43223836137659855,0.494852186197711,-0.6429493555738295,4,left
7.553,0.1071013565466911,1.0107626783381694,-0.010433399790599722,1.364624750712066,-0.07803412627930939,-0.24967015176640805,0.46198512867769054,0.5332690806680851,-0.6913226887224115,4,left
7.556,0.103351350143032,1.012880149047303,-0.013091927089694057,1.3106360002029933,-0.07526131789375899,-0.257191131864029,0.42275006395951853,0.4825971688416011,-0.6275168875968253,4,left
7.558,0.10303433327555567,1.013418293165623,-0.013116107631062413,1.311976408828086,-0.07540184425430038,-0.25703874098621776,0.2580493310003586,0.2699028175776551,-0.35968199275049106,4,left
7.558,0.10179763616333634,1.0143352158841474,-0.009837765114768152,1.4153179544260484,-0.0804743118226075,-0.24252974829050458,0.21881615363027013,0.21923091088012087,-0.2958792755538926,4,left
7.562,0.09689472554128664,1.0154433908086202,-0.005145189567767277,1.1614601210681128,-0.06792958476106314,-0.2781308719428028,0.24856113008400627,0.2576479715075959,-0.3442515596296216,4,left
7.562,0.09342215213317617,1.0100986526889337,0.002538602922646431,1.582330490770169,-0.08874928216903737,-0.21911799574819676,0.23061859661183706,0.23447781830604705,-0.31507240673515424,4,left
7.566,0.09314854078241397,1.0036617298077055,0.0076084909478036505,1.0272082723191986,-0.06128658949214838,-0.296954592269836,0.23792589943119852,0.24390490522900232,-0.326957646228478,4,left
7.567,0.09327175245943378,1.0020286491589299,0.00815417852668647,-1.3031034419866876,0.05388920821866074,-0.6237433705139876,0.23801365896941878,0.24403828974771266,-0.3270963411302843,4,left
7.568,0.09146469716205217,0.9960438087930347,0.010688813445490566,-1.8582417203300652,0.08134330598966613,-0.701586443762334,0.23420769744682762,0.23909506963556348,-0.3209128538417377,4,left
7.57,0.09256838133756612,0.9874463337771453,0.014190138743845651,-1.4373515542551658,0.06053372122194766,-0.6425668621756334,0.23877130737696178,0.24501628744659,-0.32832839773548717,4,left
7.571000000000001,0.09640624118274918,0.9805903552635521,0.016055388473189623,-1.6912113529711545,0.07307910354215291,-0.6781642509960273,0.23520956067723545,0.24040470467658925,-0.3225387170668831,4,left
7.577999999999999,0.09946952758840405,0.9726861765475849,0.015934596166574607,-1.587909768420603,0.06798173038636929,-0.6636807077661497,0.23715384206347523,0.24289206127396562,-0.32570589047224696,4,left
7.579,0.1075849996063143,0.9678381805732139,0.01518790811486899,-1.5864715700379934,0.06789876009942497,-0.6634750324420615,0.23665394370183881,0.24232214388307977,-0.3248759101256179,4,left
7.581,0.11619850383429081,0.9669562655045153,0.015005124869528163,-1.6406099852383318,0.07058586748586657,-0.6710712320912195,0.23624661658253926,0.24166587028431621,-0.3242428461210488,4,left
7.581,0.12071018918680888,0.9672002442064989,0.010493488660881994,-1.5757423869106646,0.0673743096303677,-0.6619730703613962,0.23700355397399506,0.24280315626996332,-0.3254377742826594,4,left
7.585,0.12901516807026137,0.9692189990442482,0.00038099499723134866,-1.6262868992314279,0.06986629994214913,-0.6690560292366075,0.23627566035762704,0.24173579306506313,-0.3242827767818448,4,left
7.585,0.1371442570981953,0.9734640535476545,-0.013584509184973306,-1.5989828598400813,0.0685391976824253,-0.6652423781155967,0.23683203587562246,0.24245320967572404,-0.32518785081817037,4,left
7.59,0.14158923560572345,0.9778681725595777,-0.02971948294775129,-1.6053089638112126,0.06881296792673339,-0.6661032842180573,0.23640198763666107,0.24213401328280973,-0.3244351051427359,4,left
7.591,0.15066737761116172,0.9799759824220882,-0.04404995191917531,-1.6124078167487692,0.06921148220638573,-0.6671310183819419,0.23683045468399277,0.24214756246058516,-0.3252538776990167,4,left
7.596,0.1594420155970916,0.9815005843170457,-0.05730984788928932,-1.600006710484467,0.06856057661523968,-0.665366229750077,0.23632399714589516,0.24229881138911674,-0.32424828790571986,4,left
7.597,0.1625320590097427,0.9834071181952095,-0.071601631666702,-1.6117322657248043,0.06914011333867873,-0.6670102528434658,0.23683920757494262,0.2421056442538927,-0.3252801129508562,4,left
7.601,0.1674111912086494,0.9839063931075152,-0.08442204856761193,-1.603692347599145,0.06881205002676197,-0.665930858914992,0.23658049210041684,0.24226768937589507,-0.32474733291832586,4,left
7.602,0.17237975202075378,0.9840392887140165,-0.09420914692184915,-1.6075438723392894,0.06884369723871492,-0.6663611005761402,0.23616428984529245,0.24215756557116871,-0.3239738039178343,4,left
7.606,0.17542504994006708,0.9823803722126964,-0.10030827677653087,-1.6069124243809279,0.06904936687692223,-0.6664365347181962,0.23766968459538734,0.242230609423231,-0.3268448730587683,4,left
7.607,0.178623994298368,0.9786247653018957,-0.1007360588337842,-1.6057141575812641,0.06873752883623543,-0.666093580333417,0.23493485075550996,0.24216895849819667,-0.32161311851177743,4,left
7.61,0.17616373063543708,0.9777215036604673,-0.0994373606854384,-1.6076612151301322,0.06897992752178528,-0.6664678534103217,0.23843389538838516,0.2422315510072549,-0.3283103525023522,4,left
7.611000000000001,0.16969337613788732,0.9793399885321665,-0.10228504485990256,-1.6054388018565309,0.06899536759045338,-0.6662429769000642,0.2355176109537736,0.2421860186181626,-0.32272723720014423,4,left
7.614,0.16591754961737182,0.9837137700637617,-0.10599873012223662,-1.6079686782445708,0.06857067207789613,-0.6662169169828606,0.23557731504388058,0.24216148935223453,-0.32284682205955983,4,left
7.615,0.16141444883650816,0.9903861246310716,-0.1058070976171152,-1.6049770454325585,0.06944284987818286,-0.6665040972186977,0.24120179691026022,0.24233278982330683,-0.33359692708766103,4,left
7.62,0.15338808074943872,0.9977263185294964,-0.10399156228467371,-1.6082061044190423,0.06829214377185722,-0.6660490259681274,0.2273995440575074,0.24194214334063124,-0.3072108568331079,4,left
7.621,0.14509049876378424,1.0068263572388785,-0.10311564380328214,-1.6057684483084667,0.06926632172450015,-0.666465782083072,0.25027942415540316,0.24258197568321768,-0.35095178641817776,4,left
7.624,0.14144806104650942,1.0105391164402162,-0.10246594790856639,-1.6054372837702413,0.06921859410613729,-0.6663973490022934,0.22010014062569266,0.24173873671394233,-0.2932568496604964,4,left
7.625,0.14227429110282586,1.0110626833940382,-0.10206342770900702,-1.6111423364099098,0.06741738122285343,-0.6657543431282869,0.09340158074443375,0.2381621902977438,-0.051045602680629104,4,left
7.626,0.14150499476546394,1.0164599260883045,-0.1008957891261707,-1.5976931559190923,0.07187646194559608,-0.6674181912000317,0.06321640674335877,0.2373160111102243,0.00665766383610699,4,left
7.629,0.14451530568349413,1.0222609167436327,-0.09676566429462585,-1.6197779449026175,0.06446959223312025,-0.6646268946255594,0.08610426856179762,0.23795885619475554,-0.037094292868946985,4,left
7.63,0.15125521282042664,1.0266502502462491,-0.09303409295770415,-1.5907236293493587,0.07424622469338972,-0.6683219694638762,0.07229874185055003,0.23757001600465125,-0.01070451356235749,4,left
7.6339999999999995,0.15336245774094007,1.0282644565574175,-0.0924167136788639,-1.4684779024940715,0.11525149038793935,-0.6837762368968983,0.07791382996230226,0.23772953483855602,-0.02143943704637174,4,left
7.635,0.16005608388331494,1.028031820556632,-0.09069158262801616,-1.4394280603353018,0.12503684466846232,-0.6874791714383393,0.07800159332480548,0.237729533809669,-0.02160151617071622,4,left
7.636,0.1698247473237824,1.0305006303425803,-0.08801553252435068,-1.4614661097464121,0.11761437623504331,-0.6846700150725857,0.0750387946430468,0.2376494905839631,-0.015949603040810813,4,left
7.638,0.17507486480611067,1.032035145788092,-0.08738249287447782,-1.4481634981867029,0.12209169492522057,-0.686363768485434,0.07859200617106887,0.23774562713754305,-0.02272517580469604,4,left
7.638999999999999,0.18089108052152816,1.031940972857912,-0.08450938815587511,-1.453578644168045,0.12027678532659115,-0.685680649777692,0.07581922528788008,0.23767102824613356,-0.017441363636020783,4,left
7.644,0.18231557097470982,1.03378853759608,-0.07640950206863073,-1.4536668503507988,0.12022846610020466,-0.6856528822252599,0.07731169222141915,0.2377117517652988,-0.02028723026539333,4,left
7.645,0.17891677681569607,1.0357735308433902,-0.06735003249300242,-1.45079154593668,0.12122756062345133,-0.6860478743048037,0.07699491005564094,0.23769969280557543,-0.019667252602298926,4,left
7.649,0.17550031800159568,1.0360661413273005,-0.05952936008499971,-1.4542520059297783,0.12002197821309474,-0.6855688303089165,0.07653209518391021,0.23769620098726665,-0.01882882069794948,4,left
7.65,0.17068059225664794,1.0351998560591653,-0.054144224148843526,-1.45154009805387,0.12097366490958084,-0.685951117106024,0.07733260425750355,0.23770254450131373,-0.020279367723300405,4,left
7.654,0.16564498769445124,1.0342240954044897,-0.055716086134698486,-1.452996652982605,0.12046744111552705,-0.6857503265878186,0.07654669498006075,0.2377001770483232,-0.018874822865216644,4,left
7.655,0.1595629566992341,1.0334603091312957,-0.06111802881151697,-1.4527270217237183,0.12052418812551956,-0.6857522952602209,0.07709234428777234,0.2376998299077693,-0.019839935426951665,4,left
7.6579999999999995,0.15402522288666726,1.0312577500162403,-0.06433446622445876,-1.4521636140099365,0.12082104537162862,-0.6859264540679524,0.07690639791521293,0.23769443823873354,-0.019483737978176284,4,left
7.659,0.14876673343552654,1.0283052727803224,-0.0673186676913281,-1.4531390019778965,0.12030897300334228,-0.685626523251059,0.07668776267884393,0.23771743872345583,-0.019210568808450144,4,left
7.662999999999999,0.14311016637332524,1.026763126518902,-0.0700499520448929,-1.4521303327661155,0.12087353870088152,-0.6859702765623031,0.07729024501924145,0.23766779772068922,-0.02003149424522411,4,left
7.664,0.14064247781664269,1.026935189303173,-0.07303441672817937,-1.452856947475269,0.1204497226417116,-0.6857062412103045,0.07641536924735892,0.23774252745706664,-0.018852497194476542,4,left
7.667999999999999,0.13683682986929402,1.0296910760826938,-0.07842799168541753,-1.4526794634825984,0.12050778318296364,-0.6857272045884765,0.07731625932403557,0.23766194435302107,-0.02004870857850754,4,left
7.67,0.13225332844166418,1.0349726652811362,-0.08079972646845911,-1.4520957937711652,0.12103692083529029,-0.6861199722340741,0.07679546872178276,0.23770856147656988,-0.019356937941372637,4,left
7.6739999999999995,0.12827936067537404,1.0404579816847077,-0.08042418772151297,-1.4535291183759171,0.11979432947578551,-0.6852098787277847,0.07641657862699128,0.23775050875994327,-0.018894861211800944,4,left
7.675,0.12172106116469014,1.0444336897427982,-0.07984482743521712,-1.451413663175837,0.12164037020264915,-0.6865646170979425,0.07816524148946227,0.23756903580812228,-0.02109078446038396,4,left
7.678999999999999,0.11641920493911884,1.0472327387227285,-0.07449036483616407,-1.4536382979631286,0.11968262588314542,-0.6851243175589448,0.07491803734602134,0.23790564323063287,-0.0170099166602456,4,left
7.68,0.10878757097394737,1.049262951462408,-0.06593001970933472,-1.4523526783387428,0.12081410532734264,-0.6859566003345186,0.07908153892369038,0.2374730633374412,-0.022238651392781035,4,left
7.683,0.09864783189557251,1.0503621834295929,-0.0557558986489861,-1.4513117224554684,0.12176609726942726,-0.6866653059601902,0.07560864209787656,0.23783456920081408,-0.017878743389581182,4,left
7.684,0.08935733649392383,1.0488015373765056,-0.04529661287672883,-1.4559542294852585,0.11756900171149508,-0.6835522565509838,0.07570923824551962,0.23782431216078614,-0.018010376129194927,4,left
7.688,0.07718062475118531,1.044753047292342,-0.037134946722735845,-1.4473406600960548,0.12535453700493365,-0.6893261070641522,0.0823017205472074,0.23713573804777321,-0.02626476469878803,4,left
7.689,0.06738115174437598,1.0422388061453134,-0.028075781176429237,-1.4583949004576773,0.11535890726197116,-0.6819127917016984,0.06609421938346571,0.23882938850007218,-0.005966814298522853,4,left
7.694,0.06266234334319896,1.0397842157036936,-0.022604001774781605,-1.449169417289698,0.12370364333433705,-0.6881016615180662,0.09296523832559396,0.23602017819723095,-0.03961993931787207,4,left
7.695,0.06287481559937287,1.0368110757266527,-0.02239755720959178,-1.4494248741550373,0.12347367093243576,-0.6879328004921854,0.057525506754563915,0.23972661560291356,0.00476418086874727,4,left
7.695,0.06329001238270068,1.0351212933641167,-0.023287993093620837,-1.4669888841154912,0.10757621358298139,-0.6761367885760065,-0.09122684934806927,0.25527281393606566,0.19103757890190465,4,left
7.6979999999999995,0.06134242844853878,1.032911087357327,-0.029505975740986366,-1.423816135752133,0.14665560408925565,-0.7051315550424613,-0.12666196077727176,0.25898109237680833,0.2354154587423113,4,left
7.699,0.07290746654993839,1.0319589423534947,-0.035805648405767804,-1.4953957267193716,0.08185745914560799,-0.6570562160261495,-0.09979731038695383,0.25616985245287927,0.2017717042623926,4,left
7.702000000000001,0.08556693550692479,1.0318286529606349,-0.03738616983645811,-1.4009868713866047,0.16732861043513497,-0.7204679973655672,-0.11600186063575313,0.2578628790126557,0.2220629463536054,4,left
7.702999999999999,0.08846652085674134,1.0311604696484435,-0.03726650194229751,-1.0047106824173766,0.5260691978505906,-0.9866314283933135,-0.10940280019880388,0.2571806365511483,0.21380528560892734,4,left
7.704,0.10750246537701952,1.029824408845034,-0.032755723042156695,-0.910310635281802,0.6115482414248161,-1.050045277489879,-0.10932304042798635,0.2571565720526744,0.21369346930936,4,left
7.707000000000001,0.1390727468862076,1.025194572523497,-0.029568691828323907,-0.9818764595713732,0.5467377596536533,-1.001966706515237,-0.11276071170421822,0.2575380224159046,0.21801473565564883,4,left
7.707999999999999,0.17481191866905532,1.0166722094082776,-0.030359448841034184,-0.9387150934666431,0.5858273547437733,-1.0309641456447765,-0.10863897095304739,0.257085397829029,0.21283725750152266,4,left
7.712000000000001,0.22317737986843006,1.0028133719719157,-0.03178831350622592,-0.9562797771496502,0.5699304888988169,-1.0191682905775434,-0.11185574430603608,0.25743099611525416,0.2168722802599529,4,left
7.7139999999999995,0.2766349498312562,0.9853957381837368,-0.03610059810330647,-0.9565131157877865,0.5696807162559425,-1.0189942391586069,-0.11009982195255992,0.25726594780624407,0.21468702172736104,4,left
7.718,0.33278218033752427,0.9671478352941789,-0.038623177508194814,-0.9473358937547333,0.5780686757091578,-1.0251944363709966,-0.11055129763451395,0.2572536313079967,0.2152088063693851,4,left
7.718999999999999,0.3884855925888121,0.9473319654366921,-0.04035561476551543,-0.9583214048670913,0.5680114746206215,-1.0177649877618196,-0.11091909323489885,0.2573945165603969,0.21574430697264158,4,left
7.722,0.4396564205370884,0.9284606062133127,-0.044637862567626876,-0.9497758787441611,0.5758579880441526,-1.023554812794175,-0.11023561620114133,0.25719742601274587,0.21479656259648136,4,left
7.723,0.48794167292343815,0.9141011751980881,-0.04556704287274191,-0.95438894541643,0.5716344690929478,-1.0204348473703568,-0.11089287955672342,0.25736626095240356,0.2156928147990732,4,left
7.726,0.5253460505146607,0.9067392852155105,-0.043509826883736995,-0.9532906538440165,0.5725351704246915,-1.02113010218193,-0.11039036848308115,0.25731465113877405,0.21506420221315187,4,left
7.727,0.551196328174058,0.9038702201630003,-0.04048056816988611,-0.9521902004698202,0.5738324525750611,-1.0220058416555466,-0.11077908808455145,0.2571694564825969,0.21541519404635479,4,left
7.733,0.567029794648525,0.9041289878481424,-0.0383068054801029,-0.954095886872983,0.5715890234243645,-1.0204906783637235,-0.11039140920656915,0.25755354104019645,0.2152399994965158,4,left
7.734,0.5707051746568393,0.909369068402651,-0.038667877676652404,-0.9523716657948217,0.5737855917709671,-1.0219372577486783,-0.11084984836567088,0.2569680722447378,0.21535122005285273,4,left
7.7379999999999995,0.5668174374148415,0.9141746462717896,-0.037585236736947816,-0.9534932805822683,0.5722635796258497,-1.0209539759191475,-0.11038347777029714,0.2575944696522684,0.21526061629964077,4,left
7.7379999999999995,0.5574358108894282,0.9174721541206743,-0.03441684468437209,-0.9529065330810718,0.5727902881177132,-1.021346056321823,-0.1106176657585841,0.25722894516555705,0.21526879023934692,4,left
7.742000000000001,0.5456642288429907,0.9197536590565112,-0.030955865180739353,-0.9533080345667334,0.5733666025772843,-1.021502882237937,-0.11099428157821595,0.25693182486865784,0.2154946531978828,4,left
7.742999999999999,0.5348709033576972,0.9175193629266927,-0.02956670498516048,-0.9527121242710286,0.5717583873295637,-1.0209284438514619,-0.1096320779279891,0.25826143829369863,0.21486436171847206,4,left
7.746,0.5232670530797404,0.915293439930434,-0.030030757836401453,-0.9536758800566109,0.5740898561705645,-1.0217351868071904,-0.11210664638919082,0.2557905236624061,0.21596856771973832,4,left
7.747000000000001,0.5087146280053041,0.9133478937966317,-0.02656581056934685,-0.9525493149072224,0.5716942593990468,-1.0209417977652053,-0.10894080218393558,0.25896424412187413,0.2145652653757345,4,left
7.752000000000001,0.492991995418728,0.9112299184611871,-0.020503811571401596,-0.9531992242307289,0.5730793596145783,-1.0214009081966902,-0.11157905321680772,0.2563145730098352,0.21573085814925275,4,left
7.752000000000001,0.4682818929007531,0.9177563409633887,-0.013499295682883796,-0.9539792448356853,0.5740743741173091,-1.0216490390212063,-0.11152578473510802,0.2563872237538809,0.2157220336622083,4,left
7.756,0.4331754368041636,0.9288460215500665,-0.0037168837072465762,-0.9508498916005237,0.5694622186671994,-1.020372037836811,-0.10643578576773442,0.26143575919938017,0.21342509376366448,4,left
7.757000000000001,0.3965721929821936,0.9444279569380238,0.006992449257775334,-0.9566393574477244,0.5780282554613162,-1.0227497037461268,-0.11892489496096502,0.2490266948650067,0.21904377142561185,4,left
7.7620000000000005,0.3461209556028827,0.9715693215816317,0.02018405845204621,-0.9491867694521546,0.56704556764969,-1.0197089553799148,-0.09822303493231199,0.26960082689843046,0.2097348343636299,4,left
7.763,0.309897350903988,0.9875246066135976,0.02880221344464874,-0.9554178048347198,0.5762070439077038,-1.022241915996222,-0.12552811510211487,0.24246454349956986,0.22201256035911726,4,left
7.763,0.30060456399301355,0.9913993808805387,0.03186111402932097,-0.9552694341179403,0.5759376803102817,-1.022157825106986,-0.2401711563875734,0.12853545178500503,0.27358652588146826,4,left
7.766,0.26808561194790415,1.0091414410889312,0.03982185633781509,-0.9432975189206576,0.558559380015353,-1.017394344956807,-0.26747870990267475,0.10139840879869991,0.2858673704132373,4,left
7.767,0.22935680620048643,1.0292333792292883,0.04146388557606058,-0.972709019435014,0.6012892280960265,-1.0291139764678956,-0.24677358046974496,0.12197681804492541,0.2765542424912773,4,left
7.771,0.20619907185414044,1.041098365037915,0.03571299193870707,-0.9239432545165516,0.5304437543877529,-1.0096838940660353,-0.25926377375881593,0.10955582719713568,0.28217453005034465,4,left
7.772,0.18959930974033473,1.0473418384736037,0.034278240035978,-0.9882610240372989,0.62388008273393,-1.0353072034726751,-0.2541783181315271,0.11462686862548593,0.279882817675084,4,left
7.773,0.18596925112129065,1.047630026556081,0.034826558919859606,-1.2579562417323753,1.0159280544646037,-1.142796068743844,-0.2541123792573488,0.11466795142837423,0.2798587608665474,4,left
7.78,0.17513926926462214,1.0517105376784195,0.04771969692269379,-1.3221988857744185,1.109331209747804,-1.1684065382077562,-0.25677111468700864,0.11205004683297709,0.2810493838463578,4,left
7.781000000000001,0.1604352475802278,1.0577916525548747,0.07896706543773306,-1.2736020880406305,1.0385529939934657,-1.1490007314855228,-0.2535819773724976,0.11520899158825154,0.27961717185447976,4,left
7.781000000000001,0.15249560344381796,1.0622772371634435,0.10855009116145078,-1.3027339143470584,1.0811853901614383,-1.1606888671807705,-0.2560719721371648,0.11271314942011978,0.2807412514193108,4,left
7.782,0.1412646706519726,1.069351063709384,0.11657499553528233,-1.2911326922568773,1.0639170847565684,-1.1559551303911058,-0.2547173835404424,0.11412758034777304,0.2801187346054024,4,left
7.7860000000000005,0.13534838086822626,1.0764936265959815,0.10321699774461987,-1.2906144864964468,1.0635640699875302,-1.1558576977796773,-0.2550481588286667,0.11368132957860927,0.28029022010550014,4,left
7.787000000000001,0.13391463279662863,1.0844883165607015,0.07808455259600612,-1.2970333340037896,1.0727229809287986,-1.1583692333821254,-0.25537343031212256,0.11350231431498073,0.28040874172755803,4,left
7.791,0.1333491666605358,1.0956115133708904,0.04435820200080799,-1.2898214606162823,1.0618958610536458,-1.1554004749461726,-0.25478242817978286,0.1139746396217392,0.2801650270461471,4,left
7.792000000000001,0.13794370736663708,1.10520482120625,0.00928100595071505,-1.2947128175546547,1.0701106438588694,-1.1576530159734026,-0.2553594281680964,0.11340021077272136,0.2804247413262645,4,left
7.795,0.14496811790625186,1.1111651060409877,-0.02012252942536006,-1.2932068031470334,1.0660195812739037,-1.1565309348711814,-0.2549286030245274,0.11404178843121537,0.2801900260571186,4,left
7.796,0.15400645174539723,1.1167613543895907,-0.03768493753052783,-1.291906204049298,1.066462366850736,-1.1566529082155557,-0.2551987251490199,0.11328553333017025,0.28040505486728384,4,left
7.8,0.16487826461429464,1.120947919721059,-0.034865343309089095,-1.2943532496875358,1.068159446357333,-1.1571176853082594,-0.25504739103659424,0.11416372892367146,0.28019747675492734,4,left
7.801,0.17860962324855884,1.1232775092680982,-0.02606573272787996,-1.2929206153139583,1.0660603532152395,-1.1565422175028268,-0.25511660392569213,0.113319000235451,0.2803773110766419,4,left
7.806,0.19330007113643877,1.1257684457343635,-0.03348538931560412,-1.291289059170765,1.0671400488031995,-1.1568391738621528,-0.25513841100302115,0.1137458221998188,0.28030121221171694,4,left
7.806,0.20494657393207072,1.1271435427298173,-0.04923982115952136,-1.2972097591114844,1.067859091707203,-1.1570340194960556,-0.25496508986157673,0.11430421191140142,0.28014917348092094,4,left
7.811,0.2162556262601802,1.1308260316167327,-0.04761226421549111,-1.2874177096058323,1.0653919097209847,-1.1563611797073123,-0.25536912692396446,0.11221173981103652,0.2806550517976967,4,left
7.812,0.22982743359346827,1.138293013505272,-0.027593962721466067,-1.2982791884294422,1.0686365896964198,-1.1572467359496412,-0.25470366934411237,0.11600935232613742,0.27975463417021273,4,left
7.815,0.24683892507534919,1.1472465976231927,-0.005556579601915034,-1.2917868713467562,1.0664473491992077,-1.1566492017669265,-0.2555278285921452,0.11116275480172155,0.2808971460754597,4,left
7.815,0.2635311779017524,1.1576725357386852,0.01800009368392365,-1.286647323710977,1.065223453235821,-1.1563148591662815,-0.2548527589270732,0.11519662894795087,0.27994919875454644,4,left
7.819,0.2813825796130285,1.1680738138760356,0.03967444823229578,-1.310105026321582,1.0719798535568827,-1.158159611813498,-0.25485085506560357,0.11510614566062104,0.2799656932028627,4,left
7.82,0.30575295097014954,1.1784501309014064,0.057233224435710064,-1.2663205276760097,1.0590410772093306,-1.1546273583024893,-0.25619157949365634,0.10736438206645708,0.28179750890315175,4,left
7.825,0.32689519031484415,1.1890532442529287,0.07130399303443594,-1.3226684774789415,1.0758380750445078,-1.1592121274104308,-0.2529257686969225,0.12636616137629458,0.2773085959139589,4,left
7.827000000000001,0.33929945363206904,1.2035968997100361,0.06839877852277892,-1.275569665371564,1.0617340455349638,-1.1553637547034907,-0.2583289980240273,0.09486962149705791,0.2847460352808422,4,left
7.829,0.34583382782645444,1.2152079917732244,0.05938748499847032,-1.2768990382815655,1.06219178653847,-1.155485402837876,-0.251207093250309,0.13641108771348487,0.2749384754635015,4,left
7.83,0.34666259030973595,1.217696077588959,0.056796418935268725,-1.3666011384490724,1.0889394662620937,-1.162791507996772,-0.2212921116727427,0.3107878286917657,0.23376104946038748,4,left
7.83,0.3462210746893456,1.2255026137947804,0.0567053615873699,-1.1460245134729021,1.023058556571685,-1.1448028356828708,-0.21417356137372848,0.35233270865438676,0.22395542153479298,4,left
7.835,0.34802793192558923,1.2312868445192913,0.07089211089432645,-1.5118032963655508,1.132363546657666,-1.1746433138984673,-0.21956959181074576,0.3208327752205792,0.2313889610981909,4,left
7.836,0.35046629248829664,1.2283399367980414,0.08464212501285495,-1.0293102288144593,0.9881484761377713,-1.1352774466880928,-0.21631504416465586,0.3398320875452483,0.22690566287532837,4,left
7.8389999999999995,0.3510304583331667,1.2278133193498972,0.08637288474487223,0.9958005902539238,0.38296261254578,-0.9700228939491219,-0.21764174163048772,0.33210476544968304,0.228731197642793,4,left
7.84,0.3511394010859539,1.220094757397465,0.09714203928160883,1.4783273678949347,0.23870792873077384,-0.9306548382708955,-0.2176526049629735,0.3319846723499867,0.22875237833833997,4,left
7.84,0.3514616864312142,1.2063010056274304,0.1029874057550623,1.1124998620250728,0.3480735804630751,-0.9605025644585315,-0.2169731714032334,0.33605983001307876,0.22780477976144275,4,left
7.843999999999999,0.34904877276007873,1.1960438001024358,0.08641404300616445,1.3331060084759865,0.2821459138196667,-0.9424975068845987,-0.21778426140477453,0.3311735848014997,0.2289381157579105,4,left
7.845,0.343622254610036,1.1873797477205326,0.0671366283365994,1.243435430594554,0.30888142600645085,-0.9498313943670973,-0.2171567821755817,0.3349855905699877,0.22805805219171701,4,left
7.849,0.33815437857866626,1.1864498875451772,0.061215422921666575,1.2419784704548513,0.3094521932169455,-0.9499170722764665,-0.21749752348117501,0.33293341609057125,0.22853403163266917,4,left
7.85,0.3367691400553623,1.194493118396268,0.06446953700957289,1.289308062265212,0.295116579136376,-0.9461012140447036,-0.2173998989318017,0.3333727568457701,0.22841331451721997,4,left
7.855,0.33467390023151444,1.204952104894515,0.06437526612927674,1.2326705435285361,0.31223102939592196,-0.9506774114598863,-0.21736405262452746,0.333998588288851,0.22832014094443032,4,left
7.856,0.3254642266888874,1.2178531475631587,0.05437864154999858,1.2766909531013086,0.29899402323676305,-0.9471046520256807,-0.21742673862513012,0.3329161366854231,0.22848175259390358,4,left
7.858,0.3093264124615238,1.2355446388036158,0.04233635272544027,1.253226222601496,0.30584937737795964,-0.9490586185029846,-0.21739605863881079,0.33397409759413044,0.22834722742337837,4,left
7.859,0.2829930226130333,1.255213215303538,0.034696170097638535,1.2579485060913402,0.3049459802123722,-0.9485477060179662,-0.2174014802424811,0.3332419713458342,0.22842818233124867,4,left
7.8629999999999995,0.2513088496481736,1.2760152009561327,0.024647892628346414,1.2654095704481563,0.3018415270653316,-0.9481549061280693,-0.21735648053483728,0.3334981523379676,0.22836697087207503,4,left
7.864,0.22202763998817598,1.2979050575102997,0.005471930628690406,1.253093827758309,0.3065950291976699,-0.9488949132904843,-0.21753375544893933,0.333763864132419,0.22847452487936665,4,left
7.869,0.19487877340145604,1.316632253674599,-0.024175269170690433,1.2644419419914708,0.30234853071638984,-0.948180101664909,-0.21715295186356787,0.33301491357980967,0.22826203588802385,4,left
7.87,0.17714892564829396,1.3349264345927234,-0.05322244321237078,1.2576215367745542,0.30437930001314417,-0.9487385017144193,-0.21772665120431312,0.33409945975009614,0.22858689474131158,4,left
7.872999999999999,0.1735244657330277,1.354481899192784,-0.0676260716443648,1.258462180700595,0.3057140110097929,-0.9482780970901613,-0.21710761614175123,0.3329867837824878,0.22823015887472609,4,left
7.874,0.17788542889240916,1.3698890196822173,-0.07327987002297996,1.2633574719303013,0.30062688289144324,-0.9487741061606841,-0.2174651927056545,0.333630421857758,0.22843639624045986,4,left
7.879,0.18911389421554717,1.3793991585657852,-0.0806862861273081,1.2544221431344018,0.3087035399125789,-0.9481672650297245,-0.21779008130240324,0.33408765438051546,0.22863631114844668,4,left
7.88,0.20728864258078117,1.383922825424416,-0.0831388317901246,1.264251282431893,0.30000320822865745,-0.9487895093104963,-0.21638981988392803,0.33195956235101054,0.22778946369984915,4,left
7.882999999999999,0.2252063409914753,1.3865765718857639,-0.07201798435951112,1.2580920005750658,0.30517312666679297,-0.9484688962826611,-0.21898549665386635,0.33591310076586683,0.22935911213354598,4,left
7.8839999999999995,0.2378984527021439,1.3964668765775952,-0.059015123061570446,1.2551605937853874,0.3089207916269723,-0.9479992613470959,-0.21565119517724662,0.33084383237904336,0.22734106387632783,4,left
7.888,0.24618885283058717,1.4175727240043803,-0.04950579542056262,1.271882081378164,0.2913597776373675,-0.949738653430514,-0.21843539242668367,0.3350734114966595,0.2290276825078829,4,left
7.888999999999999,0.2482507188137263,1.446413054082004,-0.04222958502324731,1.2401696563433289,0.32413513835758934,-0.9465695565231882,-0.218361941962686,0.33494598508011497,0.22898207578680319,4,left
7.893,0.24276662923953016,1.4766167164909652,-0.04526322690406029,1.2810472422735824,0.282004500102596,-0.9506266607782089,-0.2130451977021382,0.3269312297988559,0.22576155675035636,4,left
7.893,0.23456181678001387,1.5026630284040046,-0.059048605274956964,1.246857244049966,0.3171940661974596,-0.9472438190045237,-0.22611146706655816,0.3466435670442534,0.23367994021772803,4,left
7.898,0.22907229707588062,1.532651934053904,-0.08480247630806428,1.2480264949985516,0.31617343160269107,-0.947317582262535,-0.20444708042869092,0.31395678587050846,0.2205476587023128,4,left
7.899,0.22861615088626927,1.553253338431234,-0.10356330346027993,1.312418933767107,0.24930250212467267,-0.9538284676329106,-0.2330225618140656,0.35707067604879583,0.23787197661965748,4,left
7.9,0.22909019918690748,1.557011966801547,-0.10884229467864845,1.1538639020142165,0.4137384818166584,-0.9378443332822854,-0.3529772384133098,0.5379306332915964,0.3105279423315444,4,left
7.903,0.22460219162962752,1.5755375877116424,-0.12559302972863542,1.4168278505674774,0.14108331294081275,-0.9643448248909716,-0.38155357608630347,0.5810374617289044,0.32785067556341735,4,left
7.904,0.22009826646507102,1.5934139501470668,-0.13724114571058768,1.069976057722797,0.5007040865815541,-0.9293860641083974,-0.3598873061805288,0.5483710569485336,0.31472833766136543,4,left
7.9079999999999995,0.22020769599114043,1.594994803017417,-0.1356434190557314,-0.3855870575957445,2.0101088933343307,-0.782619352814363,-0.37295661227029386,0.5680411886357015,0.32261822556873543,4,left
7.9079999999999995,0.2153105365508651,1.6085155501697277,-0.13590363607439165,-0.7324027822191308,2.369682073931291,-0.747640483704577,-0.36763595420712647,0.5600940911550558,0.31945211000764934,4,left
7.909,0.2008048561606144,1.6273721617434904,-0.12711607371620795,-0.4694811208597788,2.097104693422611,-0.774174803646617,-0.3675662570826378,0.559883221169919,0.3193295915097306,4,left
7.912999999999999,0.1820647116839545,1.6386171308985373,-0.1104657672403534,-0.6280394342359681,2.2614671171451164,-0.7581561829579799,-0.3703488098574468,0.5641826986762533,0.3210943462468283,4,left
7.914,0.15929727402866922,1.6471553914615282,-0.09394933602873767,-0.563541383454807,2.1946173986865243,-0.764683057081381,-0.3670114779265604,0.5591059598391648,0.3190386361251184,4,left
7.917999999999999,0.13287015343781572,1.6529961942431934,-0.07722818876264223,-0.5626152917855252,2.193679407356897,-0.7647813127039281,-0.3696171307513924,0.5629473407620765,0.32054998683366387,4,left
7.917999999999999,0.10427684504708377,1.6558109446792395,-0.06239963787598558,-0.59644390124826,2.2286477713539634,-0.7613162002744807,-0.3681994970990782,0.5610915302462405,0.3199072560428071,4,left
7.922000000000001,0.07322623808869987,1.6555734952629941,-0.05098982130888254,-0.5559421073983886,2.1868657065890584,-0.7655141327199049,-0.3685459835746613,0.5611290553272386,0.3197451762316397,4,left
7.922999999999999,0.039840601323030925,1.6558682935087092,-0.04255390240741043,-0.5874628119202114,2.2192523924939276,-0.7621748801503321,-0.36888585342594105,0.5622362054634327,0.3204073696208959,4,left
7.928,0.0026202811664830777,1.6596676617241282,-0.03705634146294878,-0.5704867754996866,2.2019411261886055,-0.764045421025448,-0.36826783328745344,0.5608304476779342,0.31966925442496613,4,left
7.928999999999999,-0.03671825128786768,1.6640016916238853,-0.04064794909468457,-0.5743553818736689,2.205828793784021,-0.763586944940805,-0.3688716707082381,0.561736651758921,0.32003191529299635,4,left
7.933,-0.07313710018268767,1.6673597439081378,-0.05419550507639509,-0.5788332952360136,2.2102214076145508,-0.7630009923247587,-0.3684198921154301,0.5619346500244864,0.3204327965619559,4,left
7.933,-0.10425971000951893,1.6742833039637075,-0.07364772955243021,-0.5711382451996562,2.2030440858892026,-0.7642101321195203,-0.36870468324746025,0.5603550760872853,0.31906361456601756,4,left
7.937,-0.12658277785887073,1.678546807958,-0.09607037765947407,-0.5782667157330794,2.2090568266600075,-0.7627452914483754,-0.36854317848740914,0.5631083809913635,0.32126582260834535,4,left
7.938,-0.13335616074091883,1.67180504228171,-0.11522820169215517,-0.5735979964556144,2.2059065628707746,-0.764131315693946,-0.36861891041887895,0.5600281506163438,0.3188596757087731,4,left
7.944,-0.12369465443345698,1.6626398141301455,-0.12475284790294064,-0.5755538729105116,2.2065873100895974,-0.7632044991847815,-0.36863991516513617,0.5619051643164341,0.3202894147061552,4,left
7.945,-0.10549030783135203,1.6529894607909814,-0.11691023319255844,-0.5755427932042853,2.2065633879217534,-0.7631993552704006,-0.3684566702979134,0.5632207787919468,0.3213991524884753,4,left
7.947,-0.08546295944662885,1.6397330895298687,-0.09305805665443032,-0.5747397797875727,2.2082314434331813,-0.7646333720283326,-0.36888702867623724,0.5569052451529443,0.316315720042993,4,left
7.9479999999999995,-0.06568336503526975,1.6274366162164142,-0.06663940064373691,-0.5753799559116354,2.2031811726886694,-0.7614764105103324,-0.36817692444174277,0.5687490648175844,0.3257969635898122,4,left
7.952000000000001,-0.050521970243186234,1.6144891594512556,-0.045931955077594996,-0.5754088653584997,2.211735097493076,-0.7660870270185547,-0.3690567163831179,0.5534938503675664,0.3136025095202672,4,left
7.952999999999999,-0.04236659393427675,1.5992917655819923,-0.033977555423464985,-0.5748024728522434,2.2020199617781193,-0.7612297979053401,-0.36833625944391,0.5662491730629834,0.3237925972561714,4,left
7.957000000000001,-0.043529972369716445,1.5894102563935504,-0.027380900939378283,-0.5753380291279371,2.20782493134681,-0.764018085629895,-0.36833353264127067,0.5658743380202087,0.3235008103155188,4,left
7.957999999999999,-0.05335766425211298,1.5844105805484494,-0.025775130100311405,-0.5758713271608984,2.212904578138556,-0.7664129790090293,-0.3697660636009219,0.5416315316927836,0.30411212113127706,4,left
7.961,-0.06457895620814605,1.582084703612301,-0.02879611198572392,-0.5733063455208797,2.1904369504294667,-0.7559520473740637,-0.3662780434984473,0.6012594932343447,0.35179196511710387,4,left
7.962000000000001,-0.07897048083717634,1.5909873113457662,-0.02106979060078484,-0.5782785091902899,2.232325531074866,-0.7753314946137533,-0.3720479427427309,0.5023785241779413,0.2727252451272967,4,left
7.966,-0.08852778150872156,1.6001499797553835,-0.011490055155361376,-0.5717435445733894,2.1783836805965366,-0.7504612106586597,-0.3644431944592674,0.6328067600133404,0.3770197525899732,4,left
7.9670000000000005,-0.09242769642647378,1.6033485582235358,-0.005521850304965794,-0.5772697745071256,2.223488471122063,-0.7712190520436748,-0.3324568837862222,1.180293069245985,0.8146804882739032,4,left
7.968,-0.09973040128640226,1.6134567682496366,0.01764539525855207,-0.5771130086544389,2.2222641028652124,-0.770653134583661,-0.3248510135515255,1.3107237449661069,0.9189715578700023,4,left
7.972,-0.09901899791477001,1.6228394558853914,0.044356791845193186,-0.5664800037831412,2.136149671401143,-0.7310935168961197,-0.3306260095917138,1.211831700346134,0.8399204395728209,4,left
7.973,-0.08862879515151417,1.626956687022708,0.05258318224544439,-0.5926810074529066,2.347869636526918,-0.8283287866273055,-0.32712469776647607,1.271488537603852,0.8875596113436803,4,left
7.976,-0.061928729367055194,1.6257910164597935,0.040982494695873756,-0.5491789243886627,1.99677157662792,-0.6671080819835498,-0.3285815561470674,1.2471928877940024,0.8682453502568745,4,left
7.977,-0.03531601842576753,1.6212168505178268,0.028226701651593997,-0.606603445016362,2.4599113822518235,-0.8797574447573728,-0.32854542797601544,1.2468905997297632,0.867851386876709,4,left
7.977,-0.027344473278514594,1.6176227311685794,0.026005351721974802,-0.8472902403272293,4.403681791429574,-1.7722435636880898,-0.3278576965420249,1.2595748518502559,0.8781415675109684,4,left
7.981,0.0034065682918728076,1.6041250562404281,0.011082477096751264,-0.9047260244790545,4.866837249155598,-1.9848865085593768,-0.3287238435264332,1.24434925496448,0.8659054088562654,4,left
7.982,0.05237297971899198,1.5843828707059218,-0.010994632811587607,-0.8612519937282388,4.515750250951921,-1.8236869232952886,-0.32798445079989974,1.256256716307535,0.8752970047034139,4,left
7.986000000000001,0.08573887947762418,1.5638667025094757,-0.025553164433450425,-0.8873058357735586,4.727364611705431,-1.920874623517859,-0.32850758013235815,1.2497396574993134,0.8704974180254275,4,left
7.986000000000001,0.10689110654887948,1.5459328736258369,-0.04665546253653097,-0.8770070877714264,4.641510789915275,-1.8813954863781688,-0.32816493796336854,1.2514014944421545,0.8711195224768273,4,left
7.9910000000000005,0.10595733541632488,1.542833299552592,-0.07487884138678039,-0.8763274222739812,4.63986226044176,-1.880725558374897,-0.32838142560941475,1.2528539416194513,0.8731472197360473,4,left
7.992000000000001,0.07259659493051335,1.5572222033879743,-0.10677325509464419,-0.8824462311517627,4.685465873875371,-1.9015771643809034,-0.3283013300187186,1.250112096406406,0.8702645188836208,4,left
7.995,0.006808297856912959,1.5955244865377884,-0.1348746987974132,-0.8755174724362513,4.631163865374489,-1.8766826676241397,-0.3281384326474045,1.2528685505557053,0.872462230302106,4,left
7.996,-0.09094261243492673,1.658250722437569,-0.14763049191390398,-0.8802950614641776,4.672954266152743,-1.8959441386732228,-0.3287124531605029,1.2506606174864328,0.8719781188440235,4,left
8.0,-0.21542956728126805,1.7422348911765182,-0.1536915762458621,-0.8789080769515882,4.651380192435946,-1.8857999198076303,-0.3275996148220989,1.2522945597958532,0.8703565235041298,4,left
8.001,-0.35493643181157153,1.8451770760498165,-0.15561231970827194,-0.8770916462496119,4.654586723576584,-1.887683682912741,-0.3291897823161306,1.251058454964528,0.873736461402512,4,left
8.005,-0.489046455604889,1.949041028423762,-0.14633055077827778,-0.8808554574828621,4.663048323087603,-1.8910636589017804,-0.32752009192980164,1.2519367008828755,0.8697816130484878,4,left
8.006,-0.6047121498143562,2.0454192881414284,-0.13375462101610924,-0.8771587489133379,4.650679314859796,-1.8857872074574789,-0.32846800714698354,1.2517236899474842,0.8723028993584598,4,left
8.01,-0.6885828078191154,2.1275358782821723,-0.12248588644823862,-0.8783487526012583,4.660442436710968,-1.8902734977910276,-0.32933742340675487,1.2506246455008783,0.8737419664508335,4,left
8.011000000000001,-0.732040253920152,2.1878652379487638,-0.11331051419679314,-0.8819993377148287,4.657491150378852,-1.8881711151856837,-0.3256286234592922,1.2537460627539296,0.8660887937091384,4,left
8.015,-0.7391317797272139,2.2285869649808,-0.10914002967045996,-0.8721566122328583,4.6521223485902325,-1.887413814802195,-0.33248434654183856,1.248355827992988,0.8806023912771785,4,left
8.016,-0.7005119473063596,2.2384299577995836,-0.09954425065496814,-0.8873681665968856,4.6643972285737485,-1.8905022212561733,-0.3236886461182092,1.2551342344206506,0.8618498342742056,4,left
8.02,-0.6293579928096271,2.2240802917489617,-0.07891676802882194,-0.8709595986413036,4.649751726639105,-1.8864933192019377,-0.33102966614989526,1.249534556690578,0.877555884707313,4,left
8.022,-0.5267414263974263,2.185250163262599,-0.04438355019220343,-0.8805690639481853,4.659259158142278,-1.8892900280274314,-0.3308330501883946,1.249595939568931,0.8770515964683299,4,left
8.024,-0.39369652312244435,2.1223020143523303,0.003984540416896536,-0.8884528131488368,4.664205017026061,-1.890207339187725,-0.3168286755832569,1.2605143327840032,0.8473127008699439,4,left
8.025,-0.25974883531521353,2.056307867331551,0.0587909182563493,-0.853213054640574,4.636565437638076,-1.8834376161458484,-0.3512488617302969,1.2338064001051232,0.9205244605697886,4,left
8.027000000000001,-0.08641013383642873,1.9594427198631819,0.12043739305355378,-0.9187382921636998,4.6892376449389435,-1.8966427570392252,-0.2941758808573113,1.2780442482482783,0.7990879776022461,4,left
8.033999999999999,0.04376908710342105,1.8828535910725046,0.1571543435832585,-0.8345402842576518,4.621096939470197,-1.8794526769754527,-0.36946025265112875,1.2197064838053167,0.9592850204883618,4,left
8.035,0.07456444286288227,1.8650105211548844,0.16506234492928568,-0.9048554973621805,4.6781940063928005,-1.893901967322515,-0.6854350710554891,0.9747981963551137,1.6316088853574402,4,left
8.035,0.19601820583113297,1.7915412624811324,0.19193273492820856,-0.9029208192883577,4.676330021471233,-1.8933603866155186,-0.7607361449910353,0.9164459258420384,1.7918297492501916,4,left
8.037,0.36746387951604437,1.6867407105798349,0.21942407129984273,-0.7689302265963969,4.568308582886797,-1.866209426605225,-0.7036376013584704,0.9606971106581776,1.6703485654042782,4,left
8.037,0.4760759160014211,1.6184033307532206,0.22750158940212478,-1.098302596899234,4.8342644724998465,-1.9331594317078467,-0.7380774519681966,0.9340034990962071,1.7436175667033469,4,left
8.042,0.6126891511521702,1.5391472949730176,0.23494793425231736,-0.5521806445174711,4.393137810360104,-1.8220734778984944,-0.7240783103140668,0.9448526132086899,1.7138259447528172,4,left
8.043,0.7010591415871941,1.490843658380208,0.23576518834900978,-1.272505867800049,4.975025440259479,-1.9686219177424706,-0.7238338855158033,0.945051556394198,1.7133427659041571,4,left
8.047,0.7190542033372398,1.48210855701183,0.23675730044989113,-4.296201583921028,7.417484998003706,-2.583679523289139,-0.7312727167023366,0.9392638529182663,1.7290924778976597,4,left
8.048,0.8006241231631768,1.4445050110692614,0.241455546490277,-5.016503934569384,7.999347730172799,-2.730227298192724,-0.7223430624113925,0.9462179946741189,1.710204097281209,4,left
8.048,0.8974846653470665,1.4009479852061657,0.24135943372573065,-4.47040197626478,7.5582094947324,-2.6191243827199324,-0.7293244683744535,0.94077328220359,1.7249477880497461,4,left
8.052,0.9606598502306571,1.3707138754173496,0.24303936875479906,-4.799800592402473,7.824312036636494,-2.686137288313131,-0.7255742666204139,0.9436946093431497,1.7170160899336167,4,left
8.052,1.0221138424339675,1.3373331405604016,0.24230048892171777,-4.665693207939762,7.715920026824717,-2.6588548305395956,-0.7263079539812165,0.9431554709985103,1.7186725694946654,4,left
8.057,1.0675339288122627,1.3074702171527106,0.24132624539551797,-4.663986637187415,7.71466550316395,-2.658509929709897,-0.7276424755497373,0.9420258035416442,1.7212051397695025,4,left
8.059,1.1045528319052798,1.2791389963059152,0.25104834967062617,-4.7339933527617415,7.771039136578588,-2.6727462769919343,-0.7253361647872933,0.9439778816781694,1.7168266755690884,4,left
8.062000000000001,1.1355550855272272,1.248794644890575,0.2636686409778792,-4.6500793582824675,7.7034309437613535,-2.6556819865781853,-0.7276760397865183,0.9419621974900814,1.72115643550198,4,left
8.062999999999999,1.1523727854345887,1.218714837439473,0.2734918672883017,-4.7155251042256126,7.756222260066378,-2.668993027677922,-0.7260125655274787,0.9434127343452707,1.7181343167057825,4,left
8.067,1.1658695814536928,1.189427804790864,0.2840000157577952,-4.679942251319759,7.727321507987822,-2.6617462041346895,-0.7264735784796458,0.9430568572588506,1.7191198106014627,4,left
8.068,1.1748076812139745,1.1594869683235602,0.2926396456819524,-4.688760525006991,7.734946940986956,-2.663565423399053,-0.7275803157927198,0.94189970639184,1.7205147296562864,4,left
8.071,1.1783285982344087,1.1280437936520453,0.29690364228346455,-4.696856663280527,7.740622521962444,-2.6651685907731144,-0.7247947457955823,0.9447429017767295,1.7167815858451267,4,left
8.072000000000001,1.1764323147668956,1.0976474570602912,0.30164639238730917,-4.682202414752291,7.7298457591467855,-2.662241604604504,-0.7288905983151441,0.9405475798551448,1.722223598471206,4,left
8.077,1.1687860281268505,1.067406904672184,0.311536528470665,-4.696169106706154,7.74028226059012,-2.6650395001492253,-0.724603525168185,0.9449585473199182,1.7165909018661774,4,left
8.078,1.1595287077967802,1.0356958809493704,0.3263287677891688,-4.685961255742573,7.73202835277664,-2.662962531273954,-0.7270812637964253,0.9424093483943735,1.71984674890825,4,left
8.081,1.1475292773806407,1.0008631362479585,0.3424665436371241,-4.692734277123247,7.739070685445293,-2.664421202467505,-0.7290423127516741,0.9403474092733841,1.7222818247709217,4,left
8.082,1.1371332723644731,0.9637854570897616,0.3565835010788808,-4.687430353329056,7.731196218347544,-2.663157238595219,-0.7202339706822325,0.9495465861210182,1.7111451271857598,4,left
8.086,1.1258470033871484,0.9271866832782529,0.37049731549694087,-4.6929077300287165,7.740976272820823,-2.664547765995757,-0.7365799304272789,0.9324782008259085,1.7318208318610528,4,left
8.086,1.099563119888758,0.8926054530098351,0.3820189474336729,-4.687519723813523,7.730915022818513,-2.663156835142532,-0.7156059483077706,0.9543832413020308,1.705304606185029,4,left
8.091000000000001,1.0694023155940378,0.8633356848495571,0.3884642180967029,-4.689921087652971,7.736152983352562,-2.663816222278083,-0.733108739946399,0.9361014381828978,1.727425431890857,4,left
8.092,1.0312047667498603,0.8357001472516469,0.3975122690698457,-4.695526240462991,7.74352533606774,-2.665102246632836,-0.7326182096208519,0.9366094340268596,1.72679250167741,4,left
8.096,0.9816068879237009,0.8102020455400378,0.40521823410116814,-4.6767744986818105,7.715931673289138,-2.6606463437266163,-0.6993185669750981,0.9714109076370903,1.684767643008593,4,left
8.097000000000001,0.9372824917829308,0.7894689279497138,0.4118150573593324,-4.710514635233611,7.7662670395678335,-2.6687006778540097,-0.7811757560759873,0.8858645134192495,1.788079509147976,4,left
8.101,0.8740516492098103,0.7625821102785892,0.4287061258383318,-4.667412154836995,7.701814019636037,-2.6584021810013274,-0.6454563518970582,1.0277017892264628,1.6167932467777955,4,left
8.102,0.828357509011285,0.7464778923050575,0.43652683457072783,-4.703321363444296,7.755560483732275,-2.666986689399452,-0.8244633358573615,0.8406238168120532,1.84270425050532,4,left
8.103,0.816481674840366,0.7425554073694223,0.439147505496301,-4.702667638890588,7.754366593466738,-2.666814342896618,-1.5758385373014283,0.05537471942552777,2.790999613281902,4,left
8.106,0.7685482620143889,0.7202423465337519,0.4604750904328282,-4.633110137372232,7.650996645742303,-2.650235832505137,-1.7548398381735,-0.13169865908874168,3.016900257604867,4,left
8.106,0.7117518035875618,0.6905155443026392,0.4824305005892247,-4.803739182633419,7.904789240283382,-2.6909252565257757,-1.6191250915962874,0.010134129681692975,2.8456160478054553,4,left
8.11,0.6682409721005078,0.6528845217188894,0.5042289332031089,-4.52086653877202,7.4840261036307,-2.6234608125597667,-1.7009899008884664,-0.07541586664293327,2.948964606294618,4,left
8.112,0.6356873407653972,0.6216254517490433,0.5228946862334214,-4.894038822053664,8.039057004577533,-2.712466556782209,-1.667658973642233,-0.04059437709003026,2.906835712202657,4,left
8.115,0.6284250861435943,0.6125766368906778,0.5275658749491776,-6.460108618252647,10.368603464060392,-3.085918930604464,-1.6672284820354686,-0.040127090686570964,2.906381963527874,4,left
8.116,0.6011334199669365,0.5820689954305545,0.5383026018751889,-6.833449744754182,10.923761361508236,-3.1749712972047353,-1.6846510135540336,-0.058352411720801745,2.9282816365949094,4,left
8.117,0.5661305253512467,0.5414305943936984,0.5478963118249986,-6.550394431382376,10.50286080381169,-3.1074564044158475,-1.663749680969285,-0.03650125931694187,2.9019409706256196,4,left
8.12,0.5472137460380104,0.5096538837402209,0.5573514303886526,-6.7209539710980675,10.756601207902822,-3.1481266665121366,-1.6800777972683234,-0.0535507670545356,2.9226238565309717,4,left
8.121,0.520534679623719,0.47225837749135513,0.5824755321002931,-6.65200248409041,10.653686895212708,-3.1317154309129513,-1.6711759584450672,-0.04429523950680744,2.911145316297075,4,left
8.124,0.49339835924807735,0.439125844922298,0.6061562419926037,-6.650044881552915,10.651512555778073,-3.1311831402422685,-1.673384652572314,-0.04652135709907942,2.914352797937484,4,left
8.125,0.46859655413246176,0.40362591889250954,0.6249858116661059,-6.687823555592335,10.706664859390406,-3.140283760626313,-1.675466093926024,-0.04879752591557855,2.916464432825263,4,left
8.13,0.44367003137266803,0.3666047677808113,0.6409142459672323,-6.642859516533476,10.640811823817133,-3.1294712926103703,-1.671633057636102,-0.04471114638355428,2.9120376534265544,4,left
8.131,0.42094379516503355,0.33590736328966453,0.6466572851912595,-6.677402809179135,10.691751443385042,-3.1377474539644714,-1.675415271155015,-0.04866340246332367,2.916814675353474,4,left
8.134,0.3976350153166611,0.30595062956355545,0.6496234375150041,-6.660249775579941,10.665359593048285,-3.1337327700451123,-1.672515504236759,-0.04578178861538486,2.9123929000913553,4,left
8.135,0.3734798200677173,0.2797381271037048,0.653765509491336,-6.660705336253132,10.668859894610012,-3.1335972763723747,-1.6744600739505833,-0.0474733375388893,2.9165887044830976,4,left
8.14,0.34838004865435,0.25867376308676865,0.6549407702647874,-6.67197949722424,10.680769946627816,-3.136706128478215,-1.6732079495144738,-0.046673362223068574,2.912410197193515,4,left
8.14,0.3270566754506236,0.24191917852868214,0.6513912118296805,-6.655702520825456,10.662519958992007,-3.1323089522237484,-1.6739395939306543,-0.04689539006244669,2.916103408199229,4,left
8.146,0.30828664370969616,0.22841067889631259,0.6447102710485364,-6.669860845356608,10.67882907952912,-3.136096408944039,-1.6739210146594474,-0.047190204491585064,2.9144794826525775,4,left
8.147,0.2933003907059417,0.2161867751946852,0.6365692488615871,-6.6646348932582145,10.671011395867147,-3.1348533332025457,-1.6726484140343976,-0.04612886543850873,2.911493948173863,4,left
8.15,0.28694130872487283,0.20455309498624213,0.6281813773936424,-6.655296969009708,10.665940720344759,-3.131865020328534,-1.6759000574117597,-0.04834670498494205,2.92163523411,4,left
8.15,0.28969242280411706,0.1943956619144609,0.6217916568894377,-6.681906878335193,10.685371606993833,-3.1399517460037614,-1.6704169114588923,-0.04480741397604791,2.903518350001405,4,left
8.155,0.30561698667681164,0.18444031204613132,0.6151941090969051,-6.640948343191155,10.654504853010401,-3.127586373096424,-1.6772612347087659,-0.04914484783328156,2.9265337687333632,4,left
8.156,0.3267754854767291,0.17308297454695448,0.609356796729621,-6.6848446025796004,10.687760846702076,-3.1408246351088556,-1.6716287385873643,-0.045611995500528676,2.907421871160082,4,left
8.158999999999999,0.3519756108094749,0.16085722874571426,0.6008501386874385,-6.659112543987345,10.667990330887324,-3.133086195283035,-1.6716573125211573,-0.04557077527054931,2.9077835978281263,4,left
8.16,0.38401442665489405,0.1467582655592335,0.5874481686906026,-6.638762405116873,10.653692726227145,-3.1268567574484374,-1.6827278828210155,-0.052670710775349475,2.944641386942774,4,left
8.165,0.4130025457529983,0.13271031956663243,0.5724785454567654,-6.73081843447453,10.720763212400328,-3.1548432191741993,-1.6556945869787452,-0.03541898718503297,2.854271105203874,4,left
8.166,0.4455834881299229,0.11902677321153102,0.5449666782965352,-6.559563129496006,10.59556424570512,-3.102810217383505,-1.7004530366084785,-0.06394668176706747,3.0040293925953945,4,left
8.17,0.4687913807706364,0.11113592154519339,0.5226453770115878,-6.779578541581724,10.756514885707364,-3.1696544338696917,-1.6414376300881464,-0.026347730305593436,2.8065244386129073,4,left
8.171,0.473973605084798,0.11005703020276777,0.5165842671339124,-6.595858799040588,10.622060645872303,-3.1138345199803763,-1.3937617039955987,0.13164786689643776,1.977574657475595,4,left
8.171,0.4934325044892901,0.10252149817824346,0.4932598318609373,-6.60099946743965,10.626007211568243,-3.1153980281316676,-1.3347557634443894,0.16924487674606792,1.780082553269418,4,left
8.173,0.5185518043765576,0.09452645167426497,0.4637994881196259,-6.950745190171862,10.881399471437557,-3.221669451431313,-1.3794712935526865,0.14072598557887334,1.9297825779441262,4,left
8.174,0.5307881240551027,0.09130538152928441,0.44110551791451813,-6.090934346029955,10.253291239289835,-2.9603984844307685,-1.3525498487308567,0.1579547669261336,1.8395641332502315,4,left
8.179,0.5459238555177148,0.08254939488355237,0.4098901783758838,-7.516561543686824,11.294852250998286,-3.393624066296532,-1.3634157691918478,0.15089680801130956,1.876144110924629,4,left
8.18,0.5565585998534361,0.07705145359207605,0.3929511844688266,-5.636202215229471,9.92098256017039,-2.822186212470027,-1.3637252592632163,0.1508804083666206,1.8768871808508303,4,left
8.185,0.5601830920487925,0.07628807951503577,0.3895437785180712,2.2565373602640486,4.154842709279397,-0.42372270883275065,-1.357817614755171,0.15446969750558495,1.8574017689998068,4,left
8.186,0.576167103339631,0.06777415668745662,0.3732965286146016,4.136773062689045,2.7808776658867354,0.14774796965721554,-1.3647765089247506,0.15010876357886233,1.880572719239051,4,left
8.186,0.5948607402740715,0.05715070729592664,0.3533295585904247,2.711327453108539,3.8226050686046777,-0.2855317047972561,-1.3595399631719265,0.15359747332861767,1.8627905921401013,4,left
8.19,0.6032469881966374,0.048887797649313613,0.33746959352349043,3.5710197438483195,3.1943121264828487,-0.024208439694745648,-1.362011087851398,0.15153972928154075,1.8718723275593034,4,left
8.191,0.6082402947022305,0.038163312110036776,0.324488676155506,3.2211796267596933,3.4498238644349235,-0.13049772272080773,-1.362079220717347,0.15232606489054965,1.8707068355582228,4,left
8.195,0.6075131586729022,0.025423424655823878,0.31639467803936533,3.2164754060149505,3.4538217971877065,-0.13211343610588633,-1.3604167430738994,0.15236843722549465,1.8668513187759515,4,left
8.196,0.6016286509227765,0.013940181488796475,0.3134232351117788,3.399382545317152,3.3190469592897958,-0.07614610654217205,-1.3624582687919016,0.15187773438417346,1.8723226977237655,4,left
8.198,0.5953757476199386,0.004642725791460458,0.31485596825845746,3.180409692162381,3.4806253261675364,-0.14322776238963614,-1.3612190885053983,0.152675054330228,1.8681617513153563,4,left
8.198,0.5852892307297733,-0.006151332513744339,0.31143495244381203,3.3507817578558683,3.3545826422711933,-0.0909239776706087,-1.360729566314017,0.15148277255415885,1.8690532932190305,4,left
8.203,0.5773047055780369,-0.017341838504063893,0.30509638397330274,3.258829162114083,3.4224341711248627,-0.11909444336021403,-1.363390887617617,0.15322372806753934,1.872180675451836,4,left
8.204,0.5715306500646309,-0.02495337749844955,0.3022416353922347,3.280564106912176,3.4078914738536494,-0.11293955448814424,-1.3588775184122832,0.1509730136514805,1.8656964574298,4,left
8.208,0.5615567272836778,-0.03304149644996559,0.29792107386714844,3.302934930513347,3.387254290714351,-0.10469390843198831,-1.363887396790052,0.1532455863493279,1.87327393983692,4,left
8.209,0.5536075277837804,-0.039911087732006564,0.29638080244102427,3.264199063211801,3.422942391953425,-0.11895676045206234,-1.3608599141933602,0.15201732968481865,1.8684501735814782,4,left
8.213,0.5456620998560473,-0.040870086714652754,0.29991763609860256,3.299497304357077,3.3880928856173407,-0.10517399116403402,-1.358662911883088,0.1506948831210425,1.8656769977329457,4,left
8.214,0.5339349187652879,-0.041192221446023775,0.30292899500791826,3.2763954715360475,3.4121919710922564,-0.11463023123475931,-1.3690390880679757,0.1559962179897681,1.8803682569489653,4,left
8.219,0.5228730560929222,-0.04225750466109199,0.30300318630459167,3.288075421212546,3.4037236247925557,-0.1111020777788146,-1.3496172172136407,0.1462795336791138,1.852520641119066,4,left
8.219,0.5114841033279802,-0.04261880700637356,0.30009910499790576,3.281491810878851,3.3951354744932267,-0.10858468846920168,-1.3746194500874833,0.15871522821774675,1.8884940142813262,4,left
8.222999999999999,0.49848992337146086,-0.0434259629594063,0.30221488066809366,3.29013093033366,3.419440320361283,-0.11628495475861313,-1.3537210423346218,0.14835004584734382,1.858372940246736,4,left
8.224,0.4868331179512156,-0.04598784316375852,0.31191634902933624,3.275753770009211,3.3842711961879353,-0.1052496702169263,-1.354323965443207,0.14860541965028018,1.8593223006108794,4,left
8.229,0.4807942265580048,-0.052024536574517895,0.3212670810254683,3.2930557232733295,3.4203176356544955,-0.11641374800362869,-1.394072519507318,0.1684371699983161,1.9163983843212158,4,left
8.23,0.47689728964048056,-0.0597916622416523,0.3294466739337755,3.2830785038642083,3.3994770239443772,-0.10995594181992742,-1.2963244901180286,0.11972849971861045,1.7759229785871242,4,left
8.232999999999999,0.4718340034677613,-0.06917587974471862,0.33924087314342244,3.2701022507669526,3.3847044261465653,-0.10572268706183374,-1.4584104593313136,0.20047778999490606,2.008903017742653,4,left
8.234,0.47083221344274384,-0.07597409693303347,0.34587039232100636,3.3212312967060043,3.4534829868716255,-0.12597772182782455,-1.2446193930427605,0.09397236746856723,1.7015875359041148,4,left
8.237,0.4711195401539141,-0.0784773854704646,0.34723708126143926,3.2266903486340404,3.325733063481163,-0.08832670279432817,-0.347176681956412,-0.35307090072140546,0.41160663827347715,4,left
8.238,0.46638637559077517,-0.08339586658833464,0.3494797014954989,3.3484525206024593,3.489498319333464,-0.13656422103213195,-0.13339712414675803,-0.45958033309983587,0.10430618840924247,4,left
8.238999999999999,0.45836473191456806,-0.08944308605448172,0.34696742543461745,3.246628353477983,3.3529091200536056,-0.09634018801738478,-0.29547554963667855,-0.37882983535539405,0.33728639109446257,4,left
8.244,0.4483170200171741,-0.09472539146540435,0.3349489271137521,3.248936686843323,3.356921378438682,-0.09757649386238801,-0.19770540138717546,-0.4275257657719338,0.19674661442752983,4,left
8.245,0.4352869597558767,-0.09729474080972547,0.3243841481948675,3.445028795481954,3.6159847463416943,-0.1736602353671034,-0.2375310951081864,-0.4077312690598554,0.25399660083309183,4,left
8.247,0.41988973257151296,-0.09391044599008178,0.3164768740930186,2.963381148559792,2.97902686159488,0.013465694384690613,-0.2379919839176488,-0.4074110130767239,0.2546519246639827,4,left
8.248,0.40250144528616416,-0.0876198838393665,0.3086082671862069,3.7620279839818442,4.035075187931575,-0.2967992190059459,-0.21727805678908996,-0.41785699503037,0.22488828079065706,4,left
8.253,0.3911875368198624,-0.0835800993830623,0.3058026704605374,2.7084862086978285,2.642266374804465,0.11241679626801368,-0.24212052771521236,-0.4053561152271857,0.26058586800109323,4,left
8.254,0.3897638225896744,-0.08169192869074002,0.3067693607189449,-1.71473083679671,-3.2035154430920114,1.829590441898909,-0.22272313139447078,-0.4150725620993316,0.2327084321831968,4,left
8.257,0.3865912025987437,-0.07620693888136003,0.3064909774222164,-2.768469631657971,-4.596152642484673,2.238777388600046,-0.23333894284868886,-0.4098925591560645,0.24797942030931547,4,left
8.258,0.38554730319746056,-0.07063978383656894,0.30599937217814344,-1.969524265504994,-3.540352363907735,1.9285698670396645,-0.23054625525710515,-0.41093660040493596,0.24392871088773904,4,left
8.258,0.39531118151051137,-0.06725748549741199,0.30706760832364904,-2.4513932168421073,-4.177159940455874,2.115615872886683,-0.22844510419346326,-0.4125807271826795,0.24097126946056488,4,left
8.265,0.4072018375104639,-0.06264729384766851,0.3055178896075042,-2.2553848105187866,-3.917936131053844,2.0396172379157673,-0.23242441128811947,-0.4098655736129123,0.24661401042441092,4,left
8.266,0.41959148030294013,-0.06074306596248787,0.29952524294685223,-2.2524799217870006,-3.9145733612377938,2.038324367284689,-0.2285738811604186,-0.41236783800534266,0.24114078525951155,4,left
8.267000000000001,0.43604842750816203,-0.059421066854901484,0.2917149210392235,-2.355492861310692,-4.04998770887304,2.078528179870202,-0.23160669064298056,-0.41086235092399914,0.24550085222611484,4,left
8.267999999999999,0.4519441618278537,-0.05659675442282151,0.2815612900737159,-2.232130408364803,-3.887696676851811,2.0304373655785266,-0.22904831471955134,-0.4110527006328651,0.24170862554592984,4,left
8.272,0.4627625918579855,-0.05384513290067336,0.2681424040689905,-2.328135338495909,-4.0142453631608275,2.0677900381049765,-0.23187433486117387,-0.41212227615028807,0.24603305774459314,4,left
8.273,0.4697959851182643,-0.047754877780218884,0.2519731292780314,-2.2765980820544494,-3.9455031405308794,2.0479506556174067,-0.22838180527575683,-0.41016635306611626,0.24062153846937445,4,left
8.276,0.4740109228828838,-0.041861173346247754,0.234203098208665,-2.2878231439275765,-3.9623989097812906,2.0517767146438994,-0.23197029423330667,-0.41231844485302394,0.24619688378898721,4,left
8.277000000000001,0.47430354075860004,-0.03656044363359262,0.21950661413268852,-2.3025581270568187,-3.978309625867713,2.0584072704241216,-0.23010944115120885,-0.41096910065340847,0.24328094871395858,4,left
8.282,0.4733518728105309,-0.028054219850350372,0.21002200211152894,-2.2775694518611926,-3.9496634308740197,2.0475926772557846,-0.2274520107776245,-0.4103305590045317,0.23925341030609348,4,left
8.283,0.47344591138704095,-0.02237158350992271,0.20299852009935992,-2.300834348135701,-3.9769165381156175,2.057510780812473,-0.2373583273788601,-0.41398367443199635,0.2544022622570861,4,left
8.286,0.47477617139571954,-0.018419885108547945,0.19813031070079906,-2.2859234468309033,-3.95718137738253,2.051730484977593,-0.2192977859758989,-0.40705416839405756,0.22675518374144815,4,left
8.287,0.4788081953101239,-0.014721838478426296,0.19750066630027563,-2.2905806851575203,-3.969816516467826,2.0518944978917486,-0.242419096878878,-0.4159864681594164,0.2621559265662923,4,left
8.29,0.48597308168170056,-0.016001711835684024,0.19828960980161536,-2.294827575954458,-3.960616030110559,2.0572988726670447,-0.2231437428104391,-0.40851570795163633,0.2326408702959652,4,left
8.291,0.49241058910612895,-0.013774344049163237,0.19153682955698076,-2.284925164883127,-3.9696299184530135,2.0478526611515764,-0.22355883211729316,-0.4087709301900786,0.2332870016707309,4,left
