time,gFx,gFy,gFz,ax,ay,az,wx,wy,wz,subject_number,foot
2.653,0.0011042005986263825,1.3379855784419334,0.12800408440203864,1.2925173723804038,0.5852905947512559,-0.6971981181594086,-0.4079918959001302,0.7363224488733928,0.17559333077377282,1,left
2.654,-0.00900704227569626,1.3572277987098382,0.14906037554633567,1.270760372543616,0.5885189469247447,-0.7009811764800102,-0.40800680162537556,0.7356307119068463,0.1760306600616805,1,left
2.657,-0.015717869636366993,1.3720331986372591,0.16889390892337908,1.2876809058503573,0.5860505249193511,-0.6980851916672297,-0.40800194372222515,0.7363000391950645,0.1756307289784081,1,left
2.658,-0.02212099913301755,1.382038693498704,0.17011273044991304,1.2785420091905983,0.5874063971645203,-0.6996748098481296,-0.40797017721452106,0.7357729281411151,0.17585927986102234,1,left
2.662,-0.023326734650171734,1.3940353014362703,0.15772877269398244,1.2807475774646462,0.5868859951403206,-0.6990772193369664,-0.4080795387313962,0.7362173884193131,0.17586702669194074,1,left
2.6630000000000003,-0.022244917892170653,1.4060825267829107,0.14338678984014283,1.282847801559629,0.5871079891417856,-0.6993022257925836,-0.4078608652198914,0.7357266901589914,0.1756207192125656,1,left
2.668,-0.022676693676182885,1.4127759880017483,0.13792789713446896,1.2792081484470583,0.5867298947006301,-0.6989201068529669,-0.40817959801260195,0.7363329460982606,0.17604294156015815,1,left
2.668,-0.021000475299243072,1.4164997906015038,0.14624322459446187,1.2824569102569612,0.5873854510108795,-0.6996126132811278,-0.40784122235885045,0.7357101412390294,0.1755825968445211,1,left
2.673,-0.016425348857718295,1.4207949759809502,0.16548847126570798,1.2803682763095403,0.5867839727293709,-0.6989684984737676,-0.408034525839011,0.7360329103064651,0.17586478624482316,1,left
2.673,-0.013142194677539274,1.4266285342155491,0.1875806853682192,1.2815336968664166,0.5865916929023458,-0.6987443577534823,-0.4082120858382186,0.7364946589400441,0.17602795906253055,1,left
2.677,-0.016903890782751986,1.4326427443511052,0.20195666600729895,1.2804840753588858,0.5884849630567817,-0.700847486679615,-0.40745290066572903,0.7347743758287599,0.17518260610284342,1,left
2.678,-0.028621036788000515,1.4369825440515998,0.20678770691436973,1.2822441548929036,0.5842592566451181,-0.6961592536352846,-0.408857571297945,0.7379102381945198,0.1767741719524355,1,left
2.682,-0.0423168749974028,1.4408956006798572,0.20788125886793796,1.2794704545854425,0.5905865010605024,-0.7031803834354833,-0.40705465306054467,0.7338960900889631,0.17472493897861519,1,left
2.6830000000000003,-0.056836077751462634,1.4439257965917083,0.2023612796932283,1.2826238252739612,0.5838105793956152,-0.6956595603757438,-0.40855949055623036,0.7372419143178001,0.1764383396018012,1,left
2.688,-0.07085314318602168,1.4427572782032865,0.1895687562237347,1.2808039555310167,0.5877253093552132,-0.7000046471424555,-0.40851996554696524,0.7371713329937516,0.17638265453710436,1,left
2.6889999999999996,-0.08232661475593908,1.4386443099063921,0.18100567922863317,1.2787990039551043,0.5911688601979534,-0.7038307300151094,-0.4056466584764763,0.730726907477774,0.17314517478509925,1,left
2.6919999999999997,-0.09244365585798658,1.4311709314520493,0.1720622281840326,1.2870088619437814,0.5761876960457752,-0.6871903021407733,-0.41270741119582033,0.746542135283869,0.18111429752855604,1,left
2.693,-0.09008961100232503,1.4178279467234853,0.1550204314348636,1.2718118516861994,0.603965750566861,-0.7180449254858189,-0.40100081143450106,0.7203269378502921,0.1678972174500729,1,left
2.697,-0.08139775639679317,1.4095914250380632,0.144865193773151,1.291361333019258,0.5682920352429524,-0.6784192953559003,-0.4164416456994717,0.7549031132051207,0.185331739230977,1,left
2.698,-0.0771924754974487,1.4067327109130727,0.14212470078461975,1.2750250535390921,0.5980759883589607,-0.7115042313061657,-0.48125830449952434,0.9000960501410682,0.25846867392133077,1,left
2.698,-0.058893567195924465,1.393608648587547,0.14038156855529674,1.2754178297140508,0.5972796392560649,-0.7106156894636213,-0.4966993619470824,0.9346758484357272,0.27590093745953737,1,left
2.701,-0.03136592786638332,1.3774916651117484,0.14206042023807847,1.3067738638551814,0.540449433871846,-0.6474976956976122,-0.48499223884032866,0.9084525599741637,0.2626904530606572,1,left
2.702,-0.011428038465913698,1.3661840438271153,0.14642451026256437,1.229742958829207,0.6801226177228683,-0.8026292629589464,-0.4920538981354063,0.9242810716208539,0.2706457971148507,1,left
2.7060000000000004,0.0005116274947533535,1.3560929368438837,0.16276279885741415,1.3574707583318695,0.4485358321557633,-0.5454147155134504,-0.48917933371253114,0.9178191890003202,0.2674305346569824,1,left
2.707,0.0025710688668905573,1.3522686102766484,0.17815677650873812,1.1889711234745393,0.7540089363043456,-0.884675239616235,-0.48914113897019107,0.9177658201518499,0.2673473030879918,1,left
2.707,0.001836069481895102,1.3510097836904906,0.18297466346035934,0.4810644481453636,2.036571223342636,-2.308535920070163,-0.49064517004071534,0.9211032565532792,0.2690839819989211,1,left
2.7119999999999997,-0.0009355725688217731,1.350967643819657,0.19392978436399944,0.31241660210154587,2.3421282802304315,-2.6477483430592086,-0.48884167970023196,0.9170771115667626,0.2670318262317162,1,left
2.713,-0.009168715420071466,1.3562758126052188,0.2006263166278069,0.4404561293966275,2.110360494662598,-2.3906404796861693,-0.49024915075295367,0.920255938383768,0.26858703581735743,1,left
2.716,-0.015768492532712987,1.3627440457525393,0.1961480057187927,0.36295004444409396,2.250318512669696,-2.5455982971636635,-0.4894845728283833,0.918458884644983,0.2678308720257001,1,left
2.717,-0.01796070727244986,1.3704253390607155,0.1849714375662788,0.39487953199775644,2.193131168149053,-2.4827066835799854,-0.4896693816115205,0.9190181348354957,0.2678558633813766,1,left
2.722,-0.016169173885778536,1.3781077888532862,0.16724562438415463,0.3947768912386862,2.1926633811240928,-2.4815976140587335,-0.4898559420530576,0.9192579482872021,0.2682914855405657,1,left
2.7230000000000003,-0.012996521454431111,1.3872505428496253,0.15518424289316013,0.37855975135815345,2.2223283955910516,-2.514785339659512,-0.48951973818144173,0.9186466285975753,0.2677327547462939,1,left
2.7260000000000004,-0.009190317160803778,1.3972797566911592,0.15222985038721346,0.3987290106197403,2.1863332680538994,-2.4753238977436913,-0.4898458591724878,0.91937868195428,0.2680990705393571,1,left
2.727,-0.002940437593666561,1.4013879593600205,0.15258281479503566,0.3818934291566073,2.2150667505972024,-2.5056127394824603,-0.4896062543836349,0.9185783859104003,0.268161580945776,1,left
2.7310000000000003,0.0034895267491212418,1.4036772382858276,0.15502632250546752,0.3927304100510951,2.1984796908159883,-2.4899717232223586,-0.48975008166073086,0.919502320895198,0.26756337252296625,1,left
2.7319999999999998,0.00961400761948977,1.4031528248581395,0.16137591610981813,0.3876983439764318,2.2038584888018384,-2.492540489540926,-0.4896776184427517,0.918442801240247,0.2686159254577022,1,left
2.735,0.013073682405704277,1.399383387700944,0.1696883657501094,0.38800797483238253,2.206277164179313,-2.497937882333418,-0.48970300026433683,0.9194554516898308,0.26743562510452706,1,left
2.736,0.01170898140909827,1.397713534904641,0.17670991833831276,0.3918267000335356,2.1993841337457454,-2.4903092523708716,-0.48972291523348044,0.9189488818823242,0.26815617769999844,1,left
2.74,0.009154907994044571,1.3986267409701876,0.18387928755444205,0.3836218624038729,2.208724140549391,-2.4956470616216944,-0.489632581376446,0.9182680371456935,0.2686573880575661,1,left
2.741,0.003935930551962041,1.402843529913269,0.19481867730993915,0.3966202798230085,2.197801430804078,-2.4950188761625984,-0.48982986067125767,0.9207969696103497,0.26624327999188413,1,left
2.745,-0.007581333850081512,1.4067105805045044,0.2069860803645711,0.3797462227717624,2.2095355260968725,-2.490893021882317,-0.48951041515006066,0.9162139663318356,0.27077141097616697,1,left
2.7460000000000004,-0.021431932743479598,1.4138116620462478,0.2098704201843163,0.396625257810334,2.1990358731930235,-2.4975215649420797,-0.4899044375942097,0.9220596139795818,0.2649400535536947,1,left
2.7510000000000003,-0.035380653556859626,1.4238082169207926,0.20650297379643168,0.38743902197842683,2.2040765413459114,-2.4925528177597105,-0.4895813880738922,0.9171969209419168,0.2698132326996311,1,left
2.7510000000000003,-0.051479831759123025,1.4410605035417405,0.198895997921954,0.3783270908558236,2.2105828213618617,-2.4906679997989887,-0.4895820546400564,0.9173004109327958,0.26967635298404335,1,left
2.755,-0.06720960003029665,1.4679158141378932,0.1829996448788362,0.4156863800888059,2.1866702021867725,-2.503979544487314,-0.4902203244754018,0.9266465378536225,0.2603994160710981,1,left
2.7560000000000002,-0.07931572952248014,1.4927451005839165,0.16413531780479165,0.34713801101361824,2.2296859214659044,-2.477816938453677,-0.48866147028959034,0.903717466584214,0.2832038304493948,1,left
2.76,-0.0851793493891911,1.529438857780149,0.14138372292565565,0.4348307050789848,2.1750428306241494,-2.512066532048822,-0.4912447057075314,0.941716330486389,0.2453978252160234,1,left
2.76,-0.0850836852492737,1.5547853859352478,0.12939079465083758,0.36176135479871774,2.220407449914197,-2.4831921692528858,-0.4878349570230453,0.8916059894087474,0.295254571456168,1,left
2.765,-0.08438930499379246,1.5624315353677054,0.12615583627034865,0.36361484997505994,2.2194023613633362,-2.4842187266654094,-0.4735674493136339,0.6811913367108077,0.504651452768125,1,left
2.766,-0.0821325532525861,1.5962967692835848,0.10423251914192729,0.5031753517399565,2.1324862352195098,-2.5388209751708475,-0.47015025865568283,0.6310902309833817,0.5544891720383078,1,left
2.767,-0.08042165466939233,1.6372967438278765,0.06806186828625663,0.16037675867862247,2.34571451818789,-2.4041751527865705,-0.4727402602096776,0.6690762231211606,0.5167023009760903,1,left
2.77,-0.08513833815312047,1.6838062222073318,0.02101846449653097,0.7286423666323947,1.9923675069672024,-2.6276365976464495,-0.4711890219498756,0.6461535516080725,0.5395196870212631,1,left
2.7710000000000004,-0.08795106003754054,1.7230235464365173,-0.012490449665836687,-0.020838321661250298,2.4583291161317966,-2.332784702266764,-0.4717911957673094,0.6555117946834983,0.5301638635312411,1,left
2.775,-0.08982649002445897,1.7324397977285777,-0.01874856636532709,-3.166774580272092,4.414190252409309,-1.0951328123914617,-0.47186325590102995,0.6555751670527712,0.530189635980814,1,left
2.7760000000000002,-0.09916909721749873,1.7631165264799855,-0.03521042549859795,-3.916203098974107,4.880072559940764,-0.8002080243461664,-0.4714428635769318,0.6507812416661889,0.5348352750607479,1,left
2.7769999999999997,-0.10740276863317014,1.7989988476929875,-0.045109010326808974,-3.3480417601014634,4.52688753212406,-1.02382249600825,-0.47192754734463516,0.6565443624036651,0.5292234175411598,1,left
2.78,-0.11065379158356341,1.8072005002339508,-0.03412483210449496,-3.690692423175736,4.739878600498856,-0.8889439854790906,-0.4715806296084641,0.6520230557880013,0.5336699903291684,1,left
2.781,-0.10778389963581662,1.8104653813329485,-0.03634200780170619,-3.5512939205757514,4.653234186381294,-0.9438261788046938,-0.4716732207582106,0.6545627425788008,0.5310370899372789,1,left
2.785,-0.09878832681725704,1.8074339405302309,-0.05190606948709021,-3.5493251693275054,4.6520161251934695,-0.9446121822484548,-0.47187394769006974,0.6537438389249508,0.5321909539869973,1,left
2.785,-0.09246401801456361,1.8015117495205495,-0.0647082482748856,-3.622372987308464,4.697388560447699,-0.9157930837571437,-0.4714185638224301,0.6535338620965223,0.531816556440676,1,left
2.79,-0.09189431138240128,1.8006614383925081,-0.06799166448599289,-3.534935046310941,4.6431093388290225,-0.9503494224480564,-0.4719994184926195,0.6541201628119313,0.5319485976949487,1,left
2.7910000000000004,-0.10084792178864505,1.7996731300420228,-0.0669897536640748,-3.602940247290378,4.685277925113292,-0.9233826789717009,-0.47152569941204836,0.6534937179310458,0.532001859571851,1,left
2.795,-0.11621892138497497,1.7994463076625618,-0.0683380605702043,-3.566360495810769,4.662643044528727,-0.9379787207219166,-0.47157018474380963,0.654207001373608,0.5312865993967276,1,left
2.7960000000000003,-0.12531298893404968,1.7984183939758602,-0.06468424290753742,-3.574678786901413,4.667769189095695,-0.9346192820322419,-0.47229493305819015,0.6530952123998546,0.5334516639717609,1,left
2.8,-0.12231527471969546,1.7852078359020283,-0.056141386868393886,-3.584257431649263,4.673634608543523,-0.930679301804044,-0.4705908158844742,0.6549280511503486,0.5292090200293236,1,left
2.801,-0.10686532266878847,1.756903768861334,-0.05039716850497744,-3.5679324414025486,4.66377265808444,-0.937651531226029,-0.4731444126274116,0.6523632198040805,0.5353691556740525,1,left
2.804,-0.08005046400400026,1.7249825760878776,-0.04819301802986904,-3.582817330283432,4.672532824130866,-0.9308510896323261,-0.47042024877538346,0.6550660274065981,0.5288341393893603,1,left
2.805,-0.04275837340668226,1.6963351202270713,-0.04389262141378217,-3.573364222700794,4.667260974786893,-0.9357274328817797,-0.4719973905876306,0.6535537956791195,0.5325598306178511,1,left
2.81,0.0043377085442869185,1.6707203785699423,-0.03084695388372395,-3.5770849892014307,4.669092089519235,-0.9333417103060258,-0.4733409721890926,0.6520045241814676,0.5360191900181032,1,left
2.8110000000000004,0.05924128044424193,1.6499913131937842,-0.013486418812337617,-3.5770544984045474,4.669068812017127,-0.9333454855771294,-0.4674351019947576,0.658383332158303,0.5212857741239425,1,left
2.8139999999999996,0.12763072534767744,1.6351606388799893,0.004022493676844549,-3.576262727047044,4.669470702557417,-0.9353666322676537,-0.47839182882522313,0.646625569475429,0.5485347627916143,1,left
2.8139999999999996,0.2166681052403708,1.6205294125176173,0.029945966938446766,-3.5754930958047133,4.666949113519012,-0.931762830558939,-0.4643224536263375,0.661707930339486,0.513563633731648,1,left
2.82,0.31021808151244346,1.6063104642224286,0.0612259514267984,-3.578765481509001,4.672031319304717,-0.9363029882952247,-0.4760676933411727,0.6491212790671856,0.5427503561721132,1,left
2.822,0.4124488041419099,1.58792871604326,0.09741989738944204,-3.5740353835117875,4.665841763080103,-0.931951798864834,-0.47575042741934775,0.6494406582887333,0.5419910280129259,1,left
2.825,0.5220459304893463,1.5623246562937412,0.13657881439268682,-3.577165125437252,4.6696646390734315,-0.9343097522080585,-0.45335462602261034,0.6735143909349612,0.4862419882505094,1,left
2.826,0.6199994843615068,1.5329141218143238,0.1746757546329188,-3.58002876336782,4.673063170429581,-0.9362772397632243,-0.5083980131079108,0.6143656932769435,0.6232256686990255,1,left
2.8289999999999997,0.7342178747126435,1.489047020081065,0.2282050061904362,-3.5670198313421047,4.657893793539131,-0.9278542710892196,-0.4171366706338201,0.7124355754360696,0.39611635273299295,1,left
2.8289999999999997,0.8112462447131221,1.4577750720820357,0.2651493982904698,-3.5916009648783085,4.686308718775647,-0.9432951774597652,-0.5375063143909458,0.5830760875318071,0.6956635605049063,1,left
2.833,0.8288482779131454,1.448683396097747,0.2739482548910239,-3.559721888670489,4.649626844321292,-0.9235927118987527,-1.0427956058974146,0.04012829146348998,1.9531396291234682,1,left
2.8339999999999996,0.8934246727697062,1.4163654199905942,0.3038065471768826,-3.5864744946025793,4.68033541653141,-0.9399865444566283,-1.1631590805754746,-0.08924526413256684,2.2526765899100094,1,left
2.835,0.969258723528889,1.3661089213932678,0.3368426215074559,-3.5857677431993586,4.679519041927686,-0.9395368748120612,-1.071904413818709,0.008839840235998304,2.025578362692938,1,left
2.838,1.0017752310038361,1.3224135236081422,0.3526606205209072,-3.534469751898011,4.620774571630821,-0.9083873022810773,-1.12695033526982,-0.05030307534265311,2.1625662519838293,1,left
2.839,1.0263377773269649,1.2810088292268538,0.36951324588543166,-3.660632167483124,4.765205208875114,-0.9849171969397473,-1.1045324024062886,-0.02627981612677752,2.1067804529815675,1,left
2.843,1.0258688429841123,1.2338949176556178,0.39151109886691715,-3.4513672525051247,4.525678925219333,-0.8580590442692866,-1.1042627608490143,-0.02585182779556157,2.1061002275684313,1,left
2.843,1.0147046992728783,1.203128136922475,0.4087577238439132,-3.7274424578314354,4.8416627145324185,-1.0253649527061395,-1.1159397123093653,-0.0385942098202809,2.1351735242348253,1,left
2.844,1.012648933625305,1.195215608942878,0.4143705413794977,-4.886257317836709,6.168507051154416,-1.7277295348802024,-1.1019383436806192,-0.023356764474461108,2.1003153541759287,1,left
2.8480000000000003,0.9960552509581169,1.1633726900849708,0.4346994131244827,-5.162326007031626,6.48461491016406,-1.89506185563062,-1.112865716313323,-0.03518146023525686,2.1275155834396506,1,left
2.8489999999999998,0.9676456775716978,1.116749657990753,0.46867742306845933,-4.953100418966015,6.244834219781785,-1.7681363058293487,-1.1069014725560309,-0.02893578595848245,2.1126852136905034,1,left
2.853,0.9354902860725424,1.080323414302684,0.4989722262617322,-5.079151189494728,6.389639453822227,-1.8447928365359103,-1.1084331335202096,-0.030056129921610733,2.1164569660883408,1,left
2.853,0.9026496043311953,1.03734244015219,0.534438302257235,-5.028065510832381,6.330462733071123,-1.8134545737116572,-1.109686182952794,-0.032307459677854755,2.1196443470334843,1,left
2.858,0.870723829873438,0.9948336466341059,0.5709701466623865,-5.027059392448459,6.329990166893893,-1.8132215187129879,-1.107359786915103,-0.028697553268399307,2.113770019185577,1,left
2.859,0.8409387328761593,0.9554864490394719,0.6067957532646069,-5.054115190080406,6.36067512598351,-1.8294563769157322,-1.109596226357607,-0.03198562752184293,2.119403352370533,1,left
2.863,0.8220424747698086,0.9084281795886588,0.6379365522512266,-5.022091599331237,6.323430530635334,-1.809722865109183,-1.107889369291736,-0.030159096151680102,2.1151561742242833,1,left
2.864,0.8055176424525876,0.8600816717613629,0.660664372996717,-5.046442866225764,6.3531768506505495,-1.8255287478723428,-1.1092024793870099,-0.029929053602054216,2.1182984769525524,1,left
2.8680000000000003,0.784688656607096,0.8171191730706792,0.6835074092830243,-5.0342312531369116,6.335982362188588,-1.8163223867991798,-1.1079022054389966,-0.03228255164182564,2.1153496114634356,1,left
2.8689999999999998,0.7691748748574236,0.7741608206380497,0.70302078586718,-5.035685052110357,6.341588940760181,-1.8194196008708303,-1.109434774634912,-0.028333656019531812,2.118735283116785,1,left
2.872,0.7547221990567734,0.7330761967122654,0.715526059315758,-5.040585787700028,6.344057375881616,-1.8206225565927903,-1.1078767237874456,-0.032625023600922,2.1153146098157483,1,left
2.872,0.7374646119238464,0.6981380315950766,0.7255991827158828,-5.034382263828492,6.336927535427414,-1.8168475911830027,-1.1086574485713678,-0.030016296639393883,2.1169934353432502,1,left
2.877,0.7236983867432405,0.6617956032065905,0.7349412841108731,-5.0377815232914305,6.346648563613437,-1.8221863717284306,-1.1099229660458416,-0.028406585609306693,2.119915796749959,1,left
2.878,0.7123917330818544,0.6269659223691275,0.7416349719605064,-5.039429183147789,6.3352125626889,-1.815691116506149,-1.1053539125060534,-0.036498158910864956,2.109540091894429,1,left
2.883,0.6995363711139824,0.5986466398633881,0.7471733840203831,-5.032851075460636,6.347556828985862,-1.822884911329833,-1.1136527337391948,-0.02130265137899877,2.1283470303222227,1,left
2.884,0.6840626339307654,0.571926547454924,0.7500287131023995,-5.041677811270947,6.336473617450521,-1.816314613769336,-1.1030351974218147,-0.04085791450264914,2.104294509570799,1,left
2.887,0.6683519391840123,0.547516618264128,0.7479974319109477,-5.035652604946849,6.341820460404667,-1.8195520300297787,-1.1118844727888237,-0.0245132793487908,2.124337172856684,1,left
2.888,0.6516821894031971,0.5260438056379237,0.7422475675598919,-5.032405127341512,6.348651232981826,-1.8235169815484733,-1.1117033636043414,-0.025025552346124327,2.1239419361182588,1,left
2.892,0.6363957155496194,0.5078727122421536,0.7308145621722562,-5.050726447403598,6.323446537367452,-1.808643186672739,-1.0946355755241792,-0.0559659419501449,2.085237292317431,1,left
2.892,0.6228914630212812,0.49222948226628405,0.7213671772937358,-5.015552678421631,6.3688246876787336,-1.83550632279715,-1.1365195705713953,0.02016764489268461,2.180199155712711,1,left
2.897,0.6016769784487737,0.4746991976007518,0.7132838996155875,-5.0612463209207,6.311156426472245,-1.8013284330789636,-1.0670884003283372,-0.10609172090171,2.022786802567079,1,left
2.897,0.5878947413787645,0.4648486749897087,0.7028981436144407,-5.022877139005063,6.359055576114896,-1.8297344403559181,-1.158670484541051,0.06045183065539912,2.230416752447959,1,left
2.9019999999999997,0.5846830671987243,0.46311227083291995,0.6995205094335462,-5.024099039901797,6.357948516020026,-1.829060342540024,-1.5431249355243541,0.7593472524575929,3.10207337905362,1,left
2.903,0.5677374251120096,0.45551096902076205,0.6941285018935728,-5.0969291332833055,6.26628343234635,-1.774733731521897,-1.6347217320019765,0.9258937493041254,3.309735029919568,1,left
2.904,0.5459249331741791,0.44738495990480526,0.6813450582444858,-4.917596065649521,6.491253776794432,-1.9080977271320372,-1.5652746463236238,0.7996311975993191,3.152288382816601,1,left
2.907,0.5287436125364399,0.44065905242652736,0.6732395820085955,-5.215086340360266,6.118380403246009,-1.6870385665335528,-1.6071525793187058,0.8757635699950086,3.247237185754526,1,left
2.908,0.5171518893937852,0.43490459716116536,0.6701856633151809,-4.822636721018374,6.610159967389976,-1.9786026153756482,-1.5901376083400853,0.8448337557835632,3.2086463452627623,1,left
2.9130000000000003,0.5153058925195064,0.4333063687795338,0.6701876617890401,-3.175062852806811,8.67372260310445,-3.2019837039181014,-1.5898428676384646,0.8442987319205677,3.208006268094085,1,left
2.9139999999999997,0.5083925435579757,0.4260327088446221,0.6764279512024696,-2.7826028020439963,9.165544645306115,-3.493584550542772,-1.5988550586206078,0.8606759844558687,3.2283999654561972,1,left
2.915,0.4976446353502058,0.4158594761336293,0.6869905455644254,-3.0801569941360105,8.792685583509442,-3.2725174699184363,-1.5880753034970418,0.8410882446544867,3.203997909784464,1,left
2.9160000000000004,0.49140952426080364,0.4069735774190498,0.6986332533124033,-2.900641797328711,9.017424969417315,-3.4057533582724027,-1.596444098439787,0.8562977589068751,3.2229556256448433,1,left
2.917,0.482763284723346,0.3957323509036538,0.7087126102969904,-2.973818781104087,8.926352443481832,-3.351791699413922,-1.5920143917951979,0.8482340883755474,3.2128801636518656,1,left
2.924,0.47246267069098036,0.38310478056309316,0.7127786299426249,-2.974551053672451,8.924264435988185,-3.3504879430262755,-1.5928311167632239,0.8497539421592604,3.214835520650608,1,left
2.925,0.4673246218933439,0.3709006645377314,0.7139743375560379,-2.936678348669468,8.9733346803394,-3.379672195988009,-1.5943850829175767,0.8525174825318196,3.218180443619591,1,left
2.926,0.4668294373301104,0.3596860435006054,0.7164334663592649,-2.9821343430236187,8.91479425611734,-3.3448749114504603,-1.5918781208980677,0.8480361353656982,3.212715148444016,1,left
2.927,0.4595611572237527,0.34038452582346546,0.7126251974003416,-2.9465863842865914,8.960002804422658,-3.3717164220866653,-1.5941671333033405,0.8521364690299971,3.2177307456094946,1,left
2.931,0.44910442655527705,0.32229235762226816,0.7035103131985212,-2.966210229267653,8.936804930978594,-3.358040135278246,-1.5928737722476805,0.8497843731686368,3.2147967410523677,1,left
2.9330000000000003,0.4481212565473173,0.31453130603023394,0.7008704028146879,-2.9606568441186383,8.939335362879778,-3.3592927909507533,-1.5927827295935657,0.8497332660168136,3.2149135626727947,1,left
2.935,0.44770186155163694,0.3013296003516457,0.7010586589840946,-2.9575317055473507,8.950863011180427,-3.3665533379762085,-1.5942845169051714,0.8522022224855447,3.217580006033403,1,left
2.9360000000000004,0.4453318194601893,0.28760356310596746,0.6938739718649012,-2.963939391885379,8.933499934649909,-3.3557364905755414,-1.5917344300195886,0.8479558308897697,3.212899827288365,1,left
2.9410000000000003,0.44676254271505045,0.2779515807274246,0.6839435975334758,-2.957585775691949,8.94889938351739,-3.365283214579858,-1.5945102790519332,0.852587232643876,3.21801935084569,1,left
2.9410000000000003,0.4487811808628319,0.2658488029366972,0.6751690758103979,-2.963160281801363,8.941985119644313,-3.361187260158691,-1.5928158102794163,0.849745850349314,3.2148555840029367,1,left
2.946,0.4551174871904424,0.25467546807711716,0.6592443216109157,-2.9571350615273237,8.935721221144798,-3.356701132937792,-1.591804839985197,0.848116332019178,3.213148946180211,1,left
2.947,0.4652849442946546,0.24498144924082557,0.6386345970455505,-2.9653587907531227,8.956979347727414,-3.3710704197725536,-1.596964591502387,0.8565892738675387,3.2222871911787054,1,left
2.95,0.47258427121827207,0.23749706298646905,0.6195543225873152,-2.9544183362766185,8.92360417462266,-3.348648164223327,-1.5872639661310437,0.840634553635301,3.205040463014493,1,left
2.951,0.47896551282750777,0.22903306329321085,0.596987619239675,-2.965834353861892,8.959490913818533,-3.3727341741046084,-1.59974840878429,0.861174690872096,3.2272513133694467,1,left
2.9560000000000004,0.4848025131685844,0.22175600958040587,0.5750862559616521,-2.959627652285464,8.938268845239019,-3.358527412776854,-1.5893159462605588,0.8440060330180728,3.208684999016726,1,left
2.957,0.4884680679914539,0.21237975119063768,0.5610966150078316,-2.952346024599157,8.922390667336904,-3.3477172058014277,-1.5896394963724572,0.844552260386876,3.20928391253368,1,left
2.96,0.48985706223194975,0.19571687196131593,0.5537007702716678,-2.9810543561678378,8.9958315904024,-3.3973786046919354,-1.6093923092305988,0.8770192875732847,3.2443619494646763,1,left
2.9610000000000003,0.48970813558430243,0.18233913390185863,0.5502684648220982,-2.928382842617746,8.858925552899786,-3.304857025419292,-1.560798289618977,0.797125790691594,3.158038494121552,1,left
2.965,0.49152190277270086,0.16472088814124314,0.5494660160020701,-2.9958907222023976,9.034873556709801,-3.4237541312570325,-1.6413753441728907,0.9296139039848881,3.3011848631978324,1,left
2.967,0.4934919415308713,0.15116459221890877,0.5503029544691256,-2.939578719925966,8.887927944228771,-3.3244547265602966,-1.5351017196236212,0.754865368927806,3.112386957494798,1,left
2.97,0.49310515066256655,0.14656629835211593,0.5509449616379312,-2.9409153195809656,8.8921327403468,-3.327289602043502,-1.0889922410953783,0.021429011161089195,2.3199017642869793,1,left
2.97,0.49362165407308,0.12724058218928144,0.5519425800508941,-3.0489166343402165,9.171562525559313,-3.516149961330723,-0.982738017535628,-0.15330147000335856,2.1311400891905627,1,left
2.971,0.4964029156321202,0.10480998963385955,0.5510993688586072,-2.783673727864382,8.484508980189533,-3.0517815694912764,-1.0632940808224625,-0.02083289097298898,2.2742472591917147,1,left
2.975,0.4968402431611707,0.08404723321873456,0.549169718435422,-3.223416064257928,9.623716971912604,-3.8217692825416085,-1.0146920801871278,-0.10073381290422881,2.187908894937297,1,left
2.975,0.49344640188445243,0.067206898664855,0.5505755269280367,-2.6433847551592526,8.121135480557978,-2.806156993823457,-1.0345145159438838,-0.06820200079070715,2.2231169595667746,1,left
2.98,0.4930073360617982,0.062283822294121924,0.5506864493706771,-0.20863264329267317,1.8140376993664964,1.4566629263422506,-1.0346882604275711,-0.06779517182475839,2.2234361025614957,1,left
2.9810000000000003,0.493149708331525,0.048038414673083285,0.547792110721443,0.3714545577368895,0.3115423653295172,2.4722561569612154,-1.0244705913168128,-0.0847639562890955,2.205270921978707,1,left
2.9819999999999998,0.487247161509849,0.030372675981248223,0.5440425059669229,-0.06834825190790189,1.450657143240718,1.7022890645367852,-1.0367411413849807,-0.06442285668857126,2.2270823273010745,1,left
2.985,0.4809980153425257,0.019921705519300743,0.5387747738138148,0.19687166191273933,0.7635681348840448,2.1666652950853287,-1.0271328125931016,-0.0802916857422151,2.210007951364225,1,left
2.986,0.47934672754431423,0.00976551564322746,0.5328649053771801,0.0890709229765368,1.043307148308891,1.9777365460004095,-1.0324762226098265,-0.07164785126898524,2.2194892065885345,1,left
2.989,0.4810791607405598,0.0023997128384246093,0.524853277689393,0.08730275036412619,1.046846614732569,1.9750488246515499,-1.0308736145706545,-0.07382790174800913,2.2166776423507413,1,left
2.99,0.482461448212124,-0.0027660180319540135,0.5147436028366619,0.14423354769523933,0.9008549389447568,2.074137236295037,-1.030198575218889,-0.07572067171883368,2.215417707124922,1,left
2.9939999999999998,0.4838098900719621,-0.0029876858717505965,0.5041680805707088,0.07610946862821757,1.0758530347382245,1.9554502403579574,-1.0317233152311835,-0.0722534788265187,2.2182007551360106,1,left
2.995,0.4905931211105958,1.9760567780070424e-05,0.4927026606639059,0.1290468770808136,0.9393568392329665,2.047881152085637,-1.0301706928812213,-0.07557167165312828,2.2153833224144313,1,left
3.0,0.5002813952975966,0.0009167451792071988,0.4829377015538318,0.10086764583101882,1.0136135187272655,1.998039350134121,-1.0316813232742486,-0.07309452449854145,2.21806637781905,1,left
3.0,0.5093973655249694,0.0035974640816657487,0.47602244602706245,0.10644483190577225,0.9951076675975686,2.009430720572027,-1.0297393552443228,-0.07486793738879031,2.2147264073315838,1,left
3.0039999999999996,0.51733244822876,0.005747208749349541,0.4686121344294247,0.1155883930594123,0.9784131301952916,2.022636093091129,-1.0326760577218788,-0.07328384483487674,2.2196923008819294,1,left
3.005,0.524492644115435,0.005441543521907464,0.4608574689710193,0.10056807509029961,1.0087435173237682,1.9997790592886338,-1.028654435234552,-0.07505578267021103,2.2129225500764713,1,left
3.009,0.5315218230013442,0.007510994855674467,0.45716617644432245,0.11438210725231368,0.9797980402232496,2.0212214847488923,-1.03287484357543,-0.07327700413791954,2.2200206975047423,1,left
3.01,0.5339831155861064,0.006456918558446245,0.4586228422905561,0.10618385884402687,1.0010958643666734,2.0068435371694218,-1.0305416390976099,-0.07413076674488338,2.2161065825436035,1,left
3.014,0.5362914195652615,-0.00091199402431742,0.4610731912219842,0.10687677064709761,0.9866111112965489,2.013147807398237,-1.0280077767247815,-0.07572853285443243,2.211803997281563,1,left
3.015,0.5394557548860859,-0.007911544529340639,0.46134697874788166,0.11348859317572083,0.9984838320448189,2.013088570661077,-1.0382423711098703,-0.07014676968395121,2.229115297111924,1,left
3.02,0.5366253900369451,-0.01497949209412525,0.46201209016116274,0.1016620032097242,0.9858564732355544,2.0097408222648894,-1.0194158524393893,-0.08024337554610038,2.197284395717224,1,left
3.02,0.5345431135360779,-0.023544074810853563,0.46604993202473255,0.11463507253498503,0.9983702498861889,2.0139492819448193,-1.0435564200290461,-0.06733628255926785,2.2380969908696957,1,left
3.0239999999999996,0.5360076810136083,-0.030685808406623646,0.4713782023735829,0.10656177136362834,0.9926359288718098,2.0105072457647566,-1.0234150974641805,-0.07808814798320127,2.204046891612487,1,left
3.025,0.5364480588562568,-0.036260634936442965,0.4764864074056653,0.10246240951535876,0.9802831275731717,2.012545704210809,-1.0239100592439048,-0.07788696149160904,2.204878847153089,1,left
3.028,0.5372470700903134,-0.0426852912760271,0.48136792891350694,0.12508487385401762,1.0222151356681997,2.011817386274653,-1.062483608720767,-0.05709164916914028,2.270105332635435,1,left
3.029,0.5399658046153469,-0.04870586107503442,0.4838583625538896,0.0822860315117551,0.946642252511774,2.011689792004968,-0.9677302896909081,-0.10809712559483857,2.1098866717813665,1,left
3.033,0.5415398008288734,-0.050650505061503065,0.48492856171850585,0.1374318596117134,1.0431885131871657,2.012184743604615,-1.124825586962456,-0.02355654644379819,2.375517870122776,1,left
3.034,0.5398348314076489,-0.05064296925546345,0.4872714647271306,0.09131592827472487,0.9627884825848742,2.0116381697088186,-0.9176117808721618,-0.1350608753174664,2.02514212270495,1,left
3.0380000000000003,0.5391757896563516,-0.052023346983893735,0.4881532052016597,0.09286011344247187,0.9641958246479647,2.0121662012176946,-0.0477955559454514,-0.6032372094780014,0.5543702214979467,1,left
3.0389999999999997,0.5393898273864529,-0.05394400875780622,0.4851833459172028,0.17982437953210045,1.1200188483739142,2.0115224599036416,0.1594438352855254,-0.7147470630669586,0.2039515054386218,1,left
3.0389999999999997,0.5379040133851127,-0.05475867059585774,0.4773204154185368,-0.03427345991549205,0.7379367373519629,2.012502182671479,0.0023118648653047066,-0.6302033064334813,0.46964397198894914,1,left
3.0439999999999996,0.5361907509581108,-0.05476671644801473,0.46566125654270973,0.32080302096117863,1.3712032088281978,2.011030099520597,0.09708650455573284,-0.6811965921802934,0.30939064511966974,1,left
3.045,0.5355005062805587,-0.05497625721529931,0.45971033113852733,-0.14755226851241693,0.5359608847833468,2.0129644741761874,0.05853911787946246,-0.6604415527709345,0.37457084016365744,1,left
3.048,0.5350213056164997,-0.05372259205210522,0.45813995609932723,-2.1130549018346168,-2.9710444529867837,2.021811504105111,0.057943998662596516,-0.6601673730222308,0.37557449265437104,1,left
3.049,0.5325775861705527,-0.05222932462035175,0.45084571096798487,-2.5813898236828248,-3.806331400529078,2.0238250950404897,0.07826404654304309,-0.671012960053169,0.34122049104103436,1,left
3.049,0.5328384371549532,-0.05375570120989519,0.43691380655656986,-2.2263234855554517,-3.1730530556233076,2.0222581712592014,0.05390163544125816,-0.6580262006270876,0.38240781583135575,1,left
3.053,0.537301915216712,-0.05305985986213662,0.4173597664563297,-2.4404718337979974,-3.5549878527164847,2.0232376491099893,0.07290534576675277,-0.6681318121983948,0.35028131924607875,1,left
3.054,0.5418557700418043,-0.04868254199979927,0.4001119068282198,-2.353347621015182,-3.39959082221203,2.0228115086654817,0.06267351518030603,-0.6626769182516556,0.36757940092459285,1,left
3.0580000000000003,0.5472910171426844,-0.04653091009727725,0.3864984345850368,-2.352089559023259,-3.397444506733864,2.022826786359941,0.06487552289644953,-0.6639665671362095,0.3638502052179722,1,left
3.0589999999999997,0.5528957531763887,-0.04392216180058506,0.37112990265518697,-2.397841703307409,-3.47876187615989,2.0230510727676885,0.06796383850856061,-0.6652941472387328,0.3586468211255769,1,left
3.063,0.5597192643988113,-0.039821930659162535,0.3595017323223394,-2.3430000994029028,-3.3814797712049978,2.0227338430471464,0.06262209927690357,-0.6629944786350022,0.36764710689901947,1,left
3.0639999999999996,0.5661322290377986,-0.03755594018237493,0.3527827554557761,-2.3857754461494523,-3.4570402718406377,2.0230394527677893,0.06782835466022868,-0.6650911883899465,0.3588831549069472,1,left
3.069,0.5690074171498427,-0.03525897049863324,0.34648804040369036,-2.3626433930347552,-3.4165003280920287,2.022817846488791,0.06423327232494559,-0.6637182906505565,0.3649307556054971,1,left
3.07,0.5678520761864191,-0.03368846401980265,0.33585260989493015,-2.3679570742893885,-3.4256765738202386,2.022895976366695,0.06551117949710553,-0.6644112447450706,0.3627696799123742,1,left
3.073,0.5549607533032714,-0.029656090990409858,0.32871362512673885,-2.3741805222142993,-3.4361420395613234,2.023017870294477,0.06673199549271401,-0.664025324961711,0.3607634650237125,1,left
3.073,0.5395512062746053,-0.023480733938525806,0.31954094861559457,-2.3632202957954167,-3.4186098279460677,2.022654834276589,0.06323609299210939,-0.6645269319094492,0.36654197430519186,1,left
3.077,0.5399784816045861,-0.02616249361691894,0.2917120968391687,-2.3738264753927334,-3.4340617175131154,2.023246839641931,0.06828716971843321,-0.6636904958891449,0.3581991109984836,1,left
3.0780000000000003,0.5469539577453394,-0.029612014088385978,0.27800904905047724,-2.3663193996413505,-3.42492122033904,2.022543568781086,0.06312044721256815,-0.6646991869414309,0.3667244177751068,1,left
3.083,0.5434103840313512,-0.023799922660406175,0.2928863206786627,-2.3699194150409535,-3.427956230243148,2.023094196498791,0.0661077912160942,-0.6641177192800649,0.36179515117687466,1,left
3.0839999999999996,0.5302809663211343,-0.01713816422000456,0.30770637205314244,-2.3699122340456,-3.427910988270768,2.0230980286458053,0.06820125608274655,-0.6633564308355251,0.35836032191982076,1,left
3.0869999999999997,0.5197958502362373,-0.011600737152364338,0.3146495481166648,-2.3670506154440805,-3.429095905400308,2.0220954967025904,0.058416499381130735,-0.6663513128657426,0.37444540469395776,1,left
3.0869999999999997,0.5100492226760613,-0.0035189641746329876,0.3087350949386358,-2.3719778949479213,-3.423514958995675,2.0243805751340656,0.07659261411579141,-0.6608142307734625,0.34456457710360533,1,left
3.092,0.494230383630025,0.009814710043069176,0.2965890385762568,-2.365954969026914,-3.4342079097501883,2.0209771026290886,0.05329451783644907,-0.6679454567599137,0.382863662366515,1,left
3.093,0.4811448813299769,0.026198083019602095,0.29441312137293174,-2.3715995007103157,-3.4214252214784917,2.0246019940089806,0.07272540289691892,-0.6619824149984914,0.35092293293190646,1,left
3.0980000000000003,0.47130428731172025,0.04211898203000575,0.29838357850267094,-2.368586079955408,-3.4292530354660538,2.022508546541759,0.07215167310692418,-0.6621158661806281,0.3518677342470887,1,left
3.0989999999999998,0.4623334728475315,0.05784946986156323,0.3029472115458768,-2.366091716334197,-3.4361861076207103,2.0207046406414175,0.035310353500814656,-0.6736042284463926,0.4124194168826498,1,left
3.102,0.4603973688674112,0.07213842221489031,0.31129572569832586,-2.376710028679854,-3.4053139668153642,2.0285984935407195,0.12589426388086428,-0.6453892043983129,0.2635370327548282,1,left
3.103,0.4632898590054473,0.08802031696898652,0.32395400281126924,-2.3573033607461507,-3.463074417679147,2.013960468924819,-0.024289786971572504,-0.692172010959726,0.5103760935513744,1,left
3.1069999999999998,0.4651923728970416,0.09890122180884858,0.33077843491624537,-2.3820250947032977,-3.3885558091888752,2.0327554714081693,0.17378546082143637,-0.6304601266860448,0.18482580947816188,1,left
3.108,0.46598315693931014,0.10149704355478414,0.33251685315649926,-2.361472665240247,-3.4509207945645417,2.017065066985251,1.0051217492295121,-0.37134203847702224,-1.1815384509249731,1,left
3.109,0.470640971758959,0.11000238576109786,0.33881184938702547,-2.3620398038768866,-3.4492553980113536,2.017489129301137,1.2031717261937303,-0.3096220638137772,-1.5070445589381896,1,left
3.112,0.47728040940228195,0.12146342127229807,0.34214749331476385,-2.4010501699458144,-3.3300096472803187,2.047408675827042,1.053024422849962,-0.356418685522347,-1.260269199045907,1,left
3.113,0.48053577231667494,0.12962119760030227,0.33765793436295904,-2.3052165171846326,-3.62318436741777,1.9738711470293524,1.1435854153309428,-0.328189061356026,-1.4091134244582078,1,left
3.1180000000000003,0.48498014756451924,0.13939122764847048,0.33291380384023517,-2.464061440799634,-3.1369940543145742,2.095799848853166,1.1067220871607388,-0.3396853509898804,-1.3485193429131486,1,left
3.1189999999999998,0.4891338441622117,0.14490409829448983,0.3313099379135707,-2.254581866811044,-3.7783504398571397,1.9349743857977262,1.1062415981686733,-0.33982643917772837,-1.3477433601836597,1,left
3.1189999999999998,0.49046885217526254,0.14606569132818115,0.3312929167587919,-1.3753162248337216,-6.470825940206387,1.2598303324232472,1.1255020563010987,-0.33383267675775286,-1.3793799149468007,1,left
3.122,0.4951218006712209,0.1510023384107636,0.3306574936510074,-1.1658401055919843,-7.1122745455415455,1.09898476240928,1.102419562051645,-0.34101919096012523,-1.341461325934976,1,left
3.123,0.5012312377496566,0.15573281553131296,0.3275565041814734,-1.3246932255113018,-6.625911569440021,1.2209572958778077,1.1204174232620612,-0.3354123893067381,-1.3710338647372153,1,left
3.1260000000000003,0.5069131910204752,0.15786420118120528,0.3231523404494342,-1.2288158797274455,-6.919306509876476,1.1473498427002269,1.110643915111742,-0.3384654806307437,-1.354954128762714,1,left
3.127,0.512693756769818,0.15916151245121016,0.31831433283066746,-1.2679257929350767,-6.799859487104399,1.1773584416424998,1.1130389818080393,-0.33769848983229345,-1.3589429994586617,1,left
3.1310000000000002,0.5155309751285645,0.1600688040174016,0.31006867824142714,-1.268336958037196,-6.7982715828077005,1.177698595321171,1.115314892724348,-0.33702365207274565,-1.3625933718828298,1,left
3.1319999999999997,0.5178934717330743,0.1636195588782393,0.3007556400344909,-1.2479615651452476,-6.860810139014339,1.162042276599852,1.111224867251818,-0.3382564933171903,-1.355981850011137,1,left
3.136,0.5230761202579798,0.16474090141618175,0.2934515422147791,-1.2725651931990694,-6.785763087815075,1.180911031032032,1.115113499084252,-0.33707773000413743,-1.3622848179767377,1,left
3.137,0.5350102530837728,0.16086949550455015,0.28549481110888486,-1.2531014747169913,-6.84441191479142,1.1660412102009774,1.1123070055546065,-0.337952865219182,-1.3576714034917516,1,left
3.141,0.5531811272318371,0.1568062129253603,0.2789966737877444,-1.264070017535484,-6.812471876948074,1.1743324982958536,1.1140799910330785,-0.3373384753302136,-1.3607491136737615,1,left
3.142,0.570358661959655,0.15101270499303798,0.27939187054118436,-1.2608757121498837,-6.820227202436461,1.1720410917470603,1.1128262144924004,-0.33787022301975356,-1.3583143092502967,1,left
3.1460000000000004,0.5860109021511877,0.1429657657008025,0.2885203608501197,-1.2588249190404848,-6.828124213012359,1.170337492335094,1.1140265191975787,-0.3372859369113764,-1.3608452927425851,1,left
3.147,0.593297035266076,0.1365785444121621,0.2996815620985754,-1.263547116457084,-6.813678743823404,1.1739621651393204,1.112871778676058,-0.33786982168623275,-1.3583522735748002,1,left
3.15,0.5865505799608225,0.1342260241120352,0.30270907900171296,-1.2578713970834294,-6.828054207169535,1.1698440457744854,1.1133418090641756,-0.3375939682296049,-1.359468786443262,1,left
3.1510000000000002,0.5733514019051212,0.13595913250743585,0.3001750615022611,-1.2636974717569371,-6.8170809505060985,1.1737691314153147,1.1147235990685118,-0.3370516463877616,-1.3620359880153436,1,left
3.157,0.554758087692657,0.14302008778784364,0.29689748043470066,-1.2581323261769752,-6.823877046760331,1.1703141961252848,1.110274921310903,-0.3389265145912707,-1.353427438309712,1,left
3.158,0.5333219321005418,0.1568812706893052,0.2896704101095784,-1.2626876878569542,-6.820849582187512,1.1729398020247666,1.1182363585498556,-0.33553965374575645,-1.3689179506765163,1,left
3.161,0.5143092491543373,0.17599832543558525,0.28079619136820144,-1.2607589142090048,-6.8204460098627875,1.1719625182340003,1.108078446314904,-0.33986819232814325,-1.3491338143828022,1,left
3.161,0.5004746376794131,0.19737321434250615,0.2764372705145852,-1.2576147869471674,-6.824631261132133,1.169983434268184,1.1165322117818954,-0.3362629330259523,-1.3656074138432226,1,left
3.167,0.4944534531396927,0.22098165309361123,0.2776950917736338,-1.2682478030706652,-6.815883884272235,1.176245476822483,1.11640474897948,-0.3363286187463604,-1.3653270125073171,1,left
3.168,0.4905333259126742,0.2444351473222616,0.28034064870513353,-1.249440707205712,-6.829316072635903,1.165331963076805,1.099953363447975,-0.3433072433412687,-1.3333725025998864,1,left
3.17,0.4839977528346019,0.2662275405276946,0.28142961015903983,-1.2731847977140212,-6.813306538152643,1.1790350663965266,1.1402687053925669,-0.3261927268955973,-1.4117175839836704,1,left
3.1710000000000003,0.47414009141678887,0.29310990440127904,0.2807981331949463,-1.253536108768205,-6.826142811377979,1.1677276739295444,1.0734559259847927,-0.3545589177014398,-1.281868437727773,1,left
3.175,0.4652654007516648,0.3127212287326395,0.2784029933973305,-1.2539155490427076,-6.826253553838056,1.1679190015121725,1.1615776797056605,-0.3171458709558917,-1.453134384820902,1,left
3.175,0.46174892894776765,0.31764341794787226,0.2780077539977739,-1.2916653409428864,-6.800928376460609,1.1896924386031247,1.5316195439209974,-0.1600545850743083,-2.1722595344436972,1,left
3.176,0.45219105564788487,0.33081893174314514,0.2756448609893335,-1.199155071792137,-6.862353354952504,1.1363815496835366,1.6197497403058185,-0.12264038101165115,-2.3435448223785578,1,left
3.18,0.43033375902818655,0.3517684165551931,0.26768742277708657,-1.3524081381016022,-6.7608999715347675,1.2246754645603253,1.552929950711445,-0.15100645179913222,-2.213675612144107,1,left
3.18,0.41543307943222796,0.36110035835683596,0.26338941613527866,-1.1503367888587812,-6.894526039671492,1.10826355078766,1.593234294513,-0.1338972717989403,-2.2920096832806838,1,left
3.185,0.41153570493938285,0.3632494033402022,0.26328236238922864,-0.30215054747748826,-7.455395421997149,0.6196315081795623,1.5768287201473796,-0.14086172315260292,-2.260130876449807,1,left
3.185,0.39722544228799533,0.37219706978608086,0.26342411538270305,-0.1001312298904467,-7.588927931636248,0.5032413811957032,1.5766130516489336,-0.14095121046381326,-2.2596917934190963,1,left
3.1860000000000004,0.37922367061301887,0.38286925356171997,0.2661509398237122,-0.25327737766844494,-7.487685553778543,0.5914853471475522,1.585184989326943,-0.13731718392191386,-2.276389545124822,1,left
3.1889999999999996,0.36848123959621526,0.38845959838778144,0.27235300192751705,-0.16092500838192902,-7.548760181601249,0.5382589215098577,1.574919766350105,-0.14166767389909893,-2.2563864035364793,1,left
3.19,0.357482273773933,0.3944467034503557,0.2793828561991948,-0.19849186886929454,-7.523900888267883,0.5599179361288661,1.5829082593178856,-0.13828377407940345,-2.2719636063322577,1,left
3.195,0.35214965615167637,0.39914853224550406,0.2883547661586564,-0.19901795141611667,-7.523544765101207,0.5602267840432515,1.5785960820241378,-0.14011114322598756,-2.2635611074684885,1,left
3.196,0.3488351291800531,0.4015777858740381,0.30336786646120273,-0.17935672155955992,-7.536621684326393,0.5488539047079632,1.5796144620071948,-0.13967254533630905,-2.2654955072740086,1,left
3.201,0.3413481931344541,0.40285708708844276,0.31497085905097005,-0.20286634220863964,-7.52090802408361,0.5624935549797894,1.5806673564748448,-0.13924594525656664,-2.2676847990801807,1,left
3.202,0.3382576532203736,0.40108494250458315,0.3239972341813381,-0.18461899656286587,-7.533218197290033,0.5518463273658414,1.5788432738277545,-0.13998513412277164,-2.263893859858755,1,left
3.2039999999999997,0.3378590620962736,0.3992258435606685,0.34009497206907,-0.19439669597667064,-7.5265078442995,0.5576123918324052,1.580508544514055,-0.13932138700029745,-2.2674317569990174,1,left
3.205,0.3381510120530621,0.3982069672520585,0.3516914122757623,-0.192189871431521,-7.528073175416664,0.5562838890949675,1.5794169454576958,-0.1397503442443613,-2.2650700244762043,1,left
3.213,0.34056425269218793,0.3968081326183668,0.35662880061315055,-0.18967822894018999,-7.529945452338416,0.5547234438481543,1.5799646030825314,-0.13951755360270082,-2.266132149174774,1,left
3.214,0.3422655310037068,0.3964411315226968,0.3613680523472186,-0.19385256298425907,-7.526503207865489,0.5574932876895647,1.5796716242283466,-0.13970584560921506,-2.2660087050591486,1,left
3.215,0.34526250802625247,0.4004310116101565,0.3627320407390755,-0.1902295862060221,-7.530074688744669,0.5547776691697004,1.5800405223287128,-0.1394031569900105,-2.2657066632505702,1,left
3.215,0.3516634350118924,0.4088846001019425,0.3611097265219153,-0.19230015042324755,-7.527262057267233,0.5567414181151585,1.5794205449827907,-0.13988428854185664,-2.2660218318093834,1,left
3.22,0.3598432912733349,0.4165184406985965,0.3583064614662769,-0.19167784270959526,-7.528824574480944,0.5557684540386114,1.5801739758716575,-0.13933211322256855,-2.2658657061120797,1,left
3.221,0.3695295689131274,0.42354274895353705,0.3543883337440946,-0.1916894573392839,-7.52882714667688,0.5557696719255778,1.5797396483402704,-0.13965073101954395,-2.2659578392322444,1,left
3.2230000000000003,0.37960088344538423,0.4337397297904019,0.34756439391613303,-0.19119664522992463,-7.527016725262375,0.5566257965080708,1.579159937669222,-0.14001255275536856,-2.2656383130494735,1,left
3.2239999999999998,0.387795483153046,0.4436449014069847,0.33875872482417163,-0.19301802449809286,-7.530694632696906,0.5550698309071007,1.5814312240455033,-0.1385419120889393,-2.2665202978302057,1,left
3.23,0.3961367109312772,0.45128745754639427,0.32641625386298817,-0.18972827847226859,-7.525586261792238,0.557061161920859,1.577232341584759,-0.14126357758575786,-2.2649102700369346,1,left
3.2310000000000003,0.4035480281482804,0.4594642270371891,0.3107713592814377,-0.1935698965351525,-7.5308106874366185,0.5551311963807657,1.5826408838771742,-0.1377616938943551,-2.2670108020348785,1,left
3.233,0.4061265592311264,0.4668195166629322,0.2998532107807188,-0.19124329487678746,-7.527862714765198,0.5561847114842697,1.578117986267717,-0.14068827051370844,-2.2652419926928165,1,left
3.234,0.4048276071806606,0.4741335903459438,0.2890986438968126,-0.18919300146038281,-7.525350915879372,0.55706716994363,1.57821817832018,-0.1406190793813911,-2.265248067530416,1,left
3.24,0.40093658892271733,0.4807886078784209,0.2760635379772533,-0.19829436223713365,-7.536258654242592,0.5532791730773369,1.5869364851072731,-0.13499707592097354,-2.2687996166778666,1,left
3.24,0.3945024879072846,0.48624701005485177,0.26543685023184005,-0.1812929358262026,-7.516111525639333,0.5602331927283075,1.565524829792778,-0.14880742825696414,-2.2601014918963966,1,left
3.245,0.38155940079604683,0.4985597166616126,0.2563895937358136,-0.20320866485940442,-7.541924926811992,0.551352987059559,1.601028921984162,-0.12590770862468642,-2.274527464649993,1,left
3.2460000000000004,0.3697746890257139,0.5085388077184805,0.25369661498441404,-0.1848750602148999,-7.52039983398166,0.5587450049952013,1.5541902250924124,-0.15611837875589035,-2.255487429981504,1,left
3.247,0.3671383378878864,0.5114369256858888,0.25381178392577497,-0.18536654114729334,-7.520983820268475,0.5585426123277875,1.3574188126730982,-0.28307333852111194,-2.1754197536315427,1,left
3.248,0.3568609340769682,0.521022660985711,0.25368232828936577,-0.2204023360189476,-7.561981724134984,0.5444909084282328,1.3105431562090901,-0.3133186249458936,-2.1563520816657142,1,left
3.2489999999999997,0.3382005952954294,0.5333083335694553,0.2572657229391754,-0.1342676847216728,-7.461229931609936,0.5790156353816658,1.346122588159317,-0.2903457339725818,-2.1708282957663645,1,left
3.253,0.32789007048317476,0.5484525970909604,0.25618098672065387,-0.2771048581191613,-7.628267381613735,0.5217846385229119,1.3246009238839336,-0.30426835895909055,-2.1620695001352255,1,left
3.253,0.3265081136927458,0.5608222797326121,0.25348637298700616,-0.08868833063783546,-7.407949865235779,0.5972644915897151,1.333444736127603,-0.2985097612500346,-2.165670387007153,1,left
3.253,0.3266187744094427,0.5635274474988105,0.2539107865704901,0.7021881744220813,-6.482962160728014,0.9141331356124502,1.3334473442611627,-0.29856022356801404,-2.165669528497141,1,left
3.258,0.32295377075043863,0.5767793137853565,0.24681980460508726,0.8906033515479328,-6.262592120386358,0.9896242514429077,1.3289262944774385,-0.30145474113142906,-2.1638312216178948,1,left
3.26,0.32091594686674385,0.5978128986511948,0.23745725193736608,0.7477759001253161,-6.429748354201553,0.9323648329602419,1.3345054496000621,-0.2978105412529547,-2.1661001838303147,1,left
3.263,0.3245353682175388,0.616903610244874,0.2318419170209916,0.8338818462609888,-6.328798723561583,0.9669424340710666,1.3299127249577585,-0.30091715623041837,-2.1642332259956025,1,left
3.263,0.3284575484087299,0.6399082722341967,0.22533692503277147,0.7989015300267559,-6.370060547572086,0.9528125902933178,1.332775356788995,-0.29882323346243167,-2.165395142835801,1,left
3.267,0.33260460619564824,0.6628050867778548,0.2196899952098439,0.798330977763901,-6.3703789156360715,0.9526991222587984,1.3315602103186595,-0.29991021466742795,-2.1649042999010577,1,left
3.2680000000000002,0.3375985337037542,0.6855226113124827,0.21214655842317984,0.8167456961274601,-6.3489926989909335,0.9600270473192347,1.3314999795550202,-0.29970762333202583,-2.1648769303129956,1,left
3.273,0.3414102037497445,0.7063889226821536,0.2028616808467058,0.7947894795120852,-6.374970027310967,0.951131471582963,1.33255999960799,-0.2990214174023706,-2.1653079150776735,1,left
3.273,0.34648959871231466,0.7232747916987254,0.19355870505853734,0.8117335858637669,-6.354190996182674,0.9582391664332294,1.330551186923592,-0.3007658126082273,-2.164496870859114,1,left
3.278,0.3554754875314776,0.7385401132004373,0.1822733870233103,0.8028392918452947,-6.366250967259246,0.9541255748955553,1.333543276230979,-0.2978110483495322,-2.1657001868076673,1,left
3.278,0.3642326834257704,0.7483626521590852,0.1751903244667359,0.8045190792403086,-6.362252154968234,0.9554739299670435,1.3297791671812293,-0.30176746999197346,-2.1641895626122523,1,left
3.283,0.37315223708757983,0.7549789202922093,0.16785255042329578,0.8073156117055329,-6.3606031114476735,0.9560557433783158,1.3334836895601623,-0.29774888867104377,-2.1656747024781744,1,left
3.283,0.38626850300039706,0.7619864777813721,0.15800208994979448,0.8030764482129837,-6.36557563181799,0.9543528459350783,1.3315003560957848,-0.29996898187145293,-2.16488024064035,1,left
3.2880000000000003,0.39885809510908177,0.7671019210372774,0.15687618088922428,0.8064149211521932,-6.358661586512566,0.9566892638140642,1.32946002841837,-0.30209752718230043,-2.164061819763675,1,left
3.2880000000000003,0.41127724134721344,0.7686738330335249,0.1597587194265973,0.8052124951823728,-6.366945272613901,0.9539241852280674,1.337691440620345,-0.29323539472889815,-2.1673615621972337,1,left
3.292,0.4244182926060064,0.7675933846087967,0.16111203745928684,0.8041938207316011,-6.357877092405111,0.9569228698352904,1.3226295875935292,-0.30953783452493505,-2.161324133426581,1,left
3.293,0.4356966951996314,0.7690602652357965,0.1626781171254956,0.8065188184020882,-6.366094369064942,0.9542220953421203,1.3418797536409368,-0.28866398888693034,-2.169040620071775,1,left
3.2969999999999997,0.4471802185200748,0.7707183378491302,0.16094426205396423,0.8045425441908296,-6.3620874832610035,0.9555298986567247,1.325846721800779,-0.3060642653513208,-2.16261288080635,1,left
3.2969999999999997,0.45700705134475017,0.7685336796923099,0.15830984336712522,0.8041721741936503,-6.357071413059822,0.9571887503668774,1.3262488481746875,-0.3056178330265429,-2.162776377928321,1,left
3.302,0.465441801898988,0.7676777504269999,0.15738575983967928,0.8086074282539535,-6.375726808645101,0.9510507702222717,1.3568787321673943,-0.27239206388861925,-2.175050570753081,1,left
3.302,0.47129027848143284,0.7672926936276834,0.15484932519359085,0.7995612732617117,-6.342092731797903,0.9621071499910722,1.281650818877243,-0.35401210993396703,-2.144899995981265,1,left
3.307,0.47449580578023154,0.7671997641322437,0.15149517031194148,0.8115420617307905,-6.384851150087419,0.9480541619854096,1.4063562384313364,-0.21870578894890408,-2.1948846478311115,1,left
3.3080000000000003,0.4782506030117843,0.7705757702031144,0.15056877594835288,0.8013823411988242,-6.349342065480258,0.959726586952464,1.2418812442320277,-0.39715956246216494,-2.1289548522316633,1,left
3.3110000000000004,0.48009120833522906,0.7717909116334424,0.15047694940207684,0.8017967581566094,-6.350132020866528,0.959458586539953,0.5515194214436683,-1.1462454199045127,-1.8522487881908283,1,left
3.312,0.4837900195004986,0.7709635449570301,0.14765092414384495,0.8209083433674478,-6.418165267726472,0.937116077574892,0.3870432883607593,-1.3246804401682413,-1.786306395171757,1,left
3.312,0.48793170392921437,0.7724904218698945,0.14366043146748347,0.7736832955904569,-6.251257921321499,0.9919466758681821,0.5117454819637123,-1.189406663889879,-1.8363087030384602,1,left
3.3169999999999997,0.4903297976145809,0.7727454852095983,0.14317180111046524,0.8521074071551132,-6.527841859959599,0.9010720695692933,0.43653382827790904,-1.27099101954434,-1.806149050362886,1,left
3.318,0.4941797597275855,0.7714096076214154,0.1446736612356096,0.7486024115929651,-6.163116345774105,1.0209218490866592,0.46712707004021187,-1.2377874354855058,-1.818407434115337,1,left
3.322,0.49476937563433954,0.7706629426195708,0.14519451594251118,0.3142087232531091,-4.631964324231482,1.5238761579321016,0.46758628914027445,-1.2373530526993757,-1.8186245892594628,1,left
3.322,0.4999242088738863,0.7687333753134242,0.14760603987067766,0.2106599038190909,-4.2673103245251,1.6437291138824577,0.45148880768509364,-1.2546881890459107,-1.8121041875961212,1,left
3.323,0.5126472252530923,0.7654892742956481,0.15056183491661887,0.28916735076092903,-4.543774884042305,1.552865458725877,0.47078140904488885,-1.2339389957040003,-1.819932594923765,1,left
3.326,0.5213680712397684,0.7601881947948406,0.15076642559918005,0.24183310354335305,-4.3769868934231315,1.6076437877638337,0.45574161552606,-1.2500766287372929,-1.81381038271871,1,left
3.327,0.5319992188533003,0.7520202286849548,0.15182936611132025,0.26104971360646617,-4.4449700642988486,1.5854177424158271,0.46384357935401244,-1.2413632773758816,-1.8170981140101776,1,left
3.3310000000000004,0.5488197533874655,0.7441864867133785,0.15433726567019213,0.2614133880502092,-4.445662851856781,1.5849693437645906,0.46206019636944984,-1.243452663575245,-1.816463032037811,1,left
3.332,0.5638187185492554,0.7358972299767013,0.15285727948634728,0.2511861338039759,-4.410457136527171,1.5968442316717526,0.4597250447294977,-1.2454903775889354,-1.8152705920535759,1,left
3.3360000000000003,0.5760136528717383,0.7237338208949202,0.1488553088721883,0.2634093960328416,-4.452708558403383,1.5826598177852844,0.46376469195090675,-1.2419609691479025,-1.8173312398040609,1,left
3.3369999999999997,0.5887724183316698,0.7107961783752945,0.1460420842294546,0.2539332500064155,-4.419673720360631,1.5936425812940684,0.4598779886014273,-1.2451309552393528,-1.8152318328580552,1,left
3.341,0.6027214474297224,0.6983435495224064,0.14096507037532097,0.2589099825071495,-4.437887802455563,1.5879177429892553,0.46253573650514745,-1.2430819101989996,-1.8167288036417975,1,left
3.341,0.6147206040228156,0.6857317729896641,0.13408408709403982,0.2580852047823756,-4.432785006444781,1.5887623897634708,0.4615197449835502,-1.2441916258099242,-1.8163252014411215,1,left
3.346,0.6223759563431962,0.6739596184293734,0.1282523418191452,0.25615950017551137,-4.429783999918177,1.5911797461115094,0.4609136520895504,-1.2433008705059645,-1.8152818893656004,1,left
3.347,0.6274180072622191,0.658639429005296,0.12159624820267957,0.25920052554768824,-4.43585692818859,1.587428931150078,0.4628591640427846,-1.2447285568240334,-1.8178911141514118,1,left
3.352,0.6320623991737724,0.6424925300401407,0.11528929718453353,0.25644796037984147,-4.429858360808675,1.5907989097574595,0.46008698854826235,-1.242457335244557,-1.8140505343085254,1,left
3.353,0.6330234440478517,0.6295053663901986,0.11096765626654251,0.25790878124694605,-4.435036984507261,1.5891100786132037,0.4628694870406773,-1.2450660749780686,-1.8180757926842896,1,left
3.3560000000000003,0.6289946323940023,0.6160592459702261,0.10707365882828507,0.2583170370406669,-4.429615736469145,1.5882949794996306,0.46125983422933436,-1.2435604720341364,-1.815748616578389,1,left
3.3569999999999998,0.6232804050435379,0.6039582759158175,0.10823073204997932,0.25592127668836895,-4.436851858011839,1.5918504565538552,0.4602556081819562,-1.2418478488307874,-1.8138981223653432,1,left
3.36,0.6133938785224713,0.5909436929053227,0.1130629474853671,0.2598456551035702,-4.4272911473261,1.5861409013685699,0.46514701562999683,-1.248806896583347,-1.822199816856887,1,left
3.361,0.5974136623004588,0.5805264105748071,0.11655839580706616,0.2555969230502031,-4.43725308912752,1.592302952808708,0.4560509732371872,-1.2359272412926934,-1.8067925604665944,1,left
3.366,0.5790777120213259,0.5743866939083141,0.12220215029246467,0.2581549551960882,-4.431860191977007,1.5886231464725542,0.46769918792062715,-1.252500648201078,-1.82656534080329,1,left
3.366,0.560839744708042,0.5645746044448952,0.12694966348435988,0.25984936468503045,-4.425413103340658,1.5860421778795917,0.45798878851649505,-1.2386473705014982,-1.8100610066581082,1,left
3.37,0.5382389102051205,0.5590987453158065,0.1334316277178486,0.25159782204478204,-4.450684850351918,1.5983054731367674,0.45829280712265885,-1.2389816360892845,-1.8105306625925661,1,left
3.3710000000000004,0.513289897892347,0.554275345560389,0.13480573582318142,0.2670513945712507,-4.404349680136242,1.5753881926113678,0.476634471807205,-1.2655761534027292,-1.841915566205951,1,left
3.375,0.4857144593289701,0.5545279268999601,0.1281859493070106,0.24717419654033213,-4.463726786831739,1.6048546458884494,0.43152069400785703,-1.2002373167445977,-1.764749979706834,1,left
3.3760000000000003,0.44631298463554203,0.5734396486902464,0.13205414859221493,0.263782715381075,-4.4142045046366185,1.580238129607828,0.5063195311289475,-1.3085792766244135,-1.892701627339054,1,left
3.38,0.4134581516894158,0.5941729814203716,0.14482736470242313,0.2632798196664706,-4.415358874230925,1.580966628657069,0.4076693434752401,-1.1656630380301196,-1.7239314198142774,1,left
3.3810000000000002,0.3990624731821689,0.60620137773797,0.15734257302709648,0.23178505109140313,-4.51039734404257,1.627702526078633,-0.006273762933708862,-0.5657414456909117,-1.0157663177029685,1,left
3.3810000000000002,0.3457641386714354,0.6427351331191853,0.15248070424331123,0.3092589358343,-4.277024403441542,1.5127568426460472,-0.10490685651793526,-0.4228110979899635,-0.847009948019298,1,left
3.386,0.2236313143048592,0.7437837679073148,0.14434276448327096,0.18078637249884932,-4.66390970547935,1.703362873716694,-0.030139434103286206,-0.5311670091023957,-0.9749173223661647,1,left
3.387,0.13955085339146706,0.8219678684594898,0.1452751795555396,0.3502438743569563,-4.1536159981662735,1.4519502925523964,-0.07521448292240675,-0.46583863216465793,-0.8978498288716636,1,left
3.39,0.11745608397919038,0.8480115649250766,0.1638728890573532,1.0614569122340078,-2.0113902016713587,0.39674947480636946,-0.056905814562405635,-0.49237291892471924,-0.9290704275122605,1,left
3.391,0.059692478574324845,0.9574362603203104,0.2917908146653658,1.2309123941665558,-1.5010770317296385,0.14533679079929135,-0.05659382875947412,-0.4928303689147024,-0.9297506631441212,1,left
3.392,0.03275145686669961,1.1261756607661608,0.5183696454298093,1.1024397552094398,-1.8879813662235003,0.3359467250529328,-0.06626518918817978,-0.47880559999077793,-0.9130588426393804,1,left
3.3960000000000004,0.11124777185028237,1.2986474587117574,0.7407271410496226,1.1799224798187562,-1.6546236063732207,0.22098765290568217,-0.05471888326782574,-0.49554337049367064,-0.9328753706994629,1,left
3.397,0.24764454666612193,1.5080815657721418,0.90894796822938,1.1484039513681963,-1.749577441478782,0.26775087051715607,-0.06365389823397834,-0.48260468652728133,-0.9177146910762803,1,left
3.4,0.42404436888613606,1.7109679584771003,0.953781515152123,1.1479411477516863,-1.75090403533052,0.26843908514053,-0.05894471194386932,-0.4893952014861414,-0.9253671494330818,1,left
3.4010000000000002,0.6116009733699768,1.8702482402942047,0.8590563905465427,1.1645010139145129,-1.7011427271954063,0.24386551802379564,-0.05982597310186935,-0.4881783216643293,-0.9245557279027506,1,left
3.406,0.7791778432148698,1.9531573310487111,0.675394690814264,1.1446612321300702,-1.7607479746012937,0.27330770364006796,-0.06138409422207167,-0.48584533058794394,-0.9210355870542837,1,left
3.406,0.9252520265239219,1.9333944342834994,0.4418953883448403,1.1601191467936247,-1.7143327123136776,0.2503665370321866,-0.05894453498734732,-0.48944095872818993,-0.9258904545918638,1,left
3.409,1.0351322593657932,1.8360026463399892,0.1879360923002536,1.1517882662421068,-1.739366275701689,0.262729841966478,-0.06102550928343953,-0.48642568390643937,-0.9223363935981971,1,left
3.41,1.087201506884448,1.6909005788664921,-0.06842811673505117,1.1536570353318651,-1.733613715845511,0.25996290790258547,-0.060035546906474405,-0.48774809044621686,-0.9227657555283851,1,left
3.4139999999999997,1.07386598513538,1.5290008909760826,-0.2941878683313778,1.155960734376288,-1.7270653973418393,0.25652622259166774,-0.059718188564142585,-0.48846491436043654,-0.9261979596377561,1,left
3.415,1.0080708847975832,1.365809572430103,-0.4462649133873582,1.1519751933755202,-1.7384015032802869,0.26247197787287213,-0.06110008813464778,-0.4860787077339115,-0.9195234985366731,1,left
3.42,0.9060529221372513,1.2157901919394856,-0.49726311738337814,1.1557628312921322,-1.7278106967218378,0.2568122912126813,-0.059294534494878696,-0.4891043902956216,-0.9272073059487675,1,left
3.4219999999999997,0.7898545595665114,1.085853884865176,-0.45727577896215493,1.1531976409210563,-1.734886996180879,0.26065031384244713,-0.06056073988094507,-0.48703291312658276,-0.922386250439369,1,left
3.425,0.6689054057775827,0.9692133072041629,-0.35560249124176957,1.1542454681962582,-1.7317228542992287,0.25909563141897657,-0.06095897223420127,-0.4862521803414453,-0.9194161230020433,1,left
3.426,0.5434557522764524,0.8676920165999857,-0.21364661536976814,1.1545498911805916,-1.732016593442546,0.25858509612789604,-0.05793712774805932,-0.4915231587169651,-0.9346022901368399,1,left
3.43,0.42212469063064295,0.7774163034589066,-0.06630030455523556,1.1532776466982857,-1.7330862186327667,0.260607852050871,-0.0638433839537919,-0.48130983282522233,-0.9059226125285451,1,left
3.431,0.296550168356896,0.7106393050440447,0.06989381136367925,1.1550408568132777,-1.7318931598305778,0.2577896942622694,-0.05615047224965632,-0.4945824367875285,-0.9429349415895734,1,left
3.4339999999999997,0.1773243314855657,0.6665060968246794,0.1931875207998458,1.153339891080746,-1.7326304785013322,0.26052943531224315,-0.06261907432613134,-0.4834345776285698,-0.9119565378021137,1,left
3.435,0.0612035274073618,0.6555970766528907,0.2934406531983431,1.1543234898240349,-1.732196313395106,0.25894426866605763,-0.06237268949272193,-0.4838402970390944,-0.9129162666210806,1,left
3.4389999999999996,-0.05704726257964111,0.6861849775584673,0.37180423680337804,1.1547801879771362,-1.7330182341594282,0.2581612886552607,-0.050227903548195375,-0.5048208525465128,-0.9716632976074164,1,left
3.44,-0.16640484999379762,0.7474290313725552,0.436527543047046,1.1522779075128229,-1.7309757199985945,0.262341584408029,-0.08018170922204179,-0.45310192975648445,-0.8270949410781253,1,left
3.445,-0.29881434665070633,0.8923834782020672,0.4977815927716794,1.1569407114019135,-1.7346804424978215,0.2545533587484017,-0.030477458005418387,-0.5389127217243199,-1.0668620643457356,1,left
3.446,-0.384204697191043,1.0154725598387566,0.5326487226314927,1.1509893436899754,-1.7298315011943832,0.2645033527589042,-0.09605217295693433,-0.4257053176656519,-0.7505863236615318,1,left
3.449,-0.40544911187797805,1.0475599930169501,0.5391426795798002,1.1559381433705305,-1.7339143892674969,0.25622158062782735,-0.37124667895911145,0.04940224503879338,0.5768856871792796,1,left
3.45,-0.4591843664325641,1.182877155008448,0.5548603908960221,1.1557740638690004,-1.7339531699224688,0.2565005727818914,-0.4368274962109859,0.16262384343608488,0.8931668250355149,1,left
3.45,-0.49479291960198457,1.3725116195819083,0.5674022684627575,1.14648696262545,-1.7255751377339792,0.2720460045221972,-0.38710587539957253,0.07677841003988381,0.6533789098924871,1,left
3.4539999999999997,-0.47733220828251605,1.5038619576825114,0.561239548744227,1.1693229148302038,-1.7460258280385177,0.23380371806086805,-0.4170953080712954,0.12855979661247913,0.7979980076208177,1,left
3.455,-0.40847935005027114,1.6472711748871989,0.5440826197554537,1.1314777565592016,-1.7121397750949199,0.29719777477162956,-0.4048937973238947,0.10748936642268109,0.7391611599438368,1,left
3.458,-0.33780614038080303,1.7287460408096518,0.5306048388043041,1.1813738875481152,-1.756842397251952,0.2136032075925352,-0.40471693643055345,0.107182949115947,0.7383217398602854,1,left
3.4589999999999996,-0.3137086299088883,1.7411533733278253,0.5249001541602843,1.3910297375669716,-1.9455422875208168,-0.13730934550682428,-0.4111279091343524,0.11826374771796756,0.7691860445955279,1,left
3.46,-0.21350192237967622,1.7797827489116154,0.5010045868228192,1.4409215007050014,-1.9903208054345698,-0.22088656420812808,-0.40343985417246975,0.10496383952621069,0.7322143880197053,1,left
3.464,-0.05432554681933495,1.794497618323472,0.46659240282528675,1.4030486093155696,-1.9562335696298148,-0.1575007104841489,-0.4094415629206082,0.11536365964563638,0.7610119753042314,1,left
3.465,0.07920609526746777,1.7469025426975209,0.43535840146727683,1.4260013290088243,-1.9770747733581955,-0.1957875641572298,-0.40619077036997026,0.10971353741092442,0.7454787512720695,1,left
3.469,0.21075238630470233,1.6473761121160293,0.39655449890788164,1.4164615297713956,-1.968099656034022,-0.18010270823765218,-0.40693981475519675,0.11102301762580608,0.7490298641980051,1,left
3.47,0.31730282795326314,1.4925281377324495,0.3567593566899066,1.4166828173600998,-1.9688422838251498,-0.1800721563930528,-0.407821076634024,0.11257659343144172,0.753154708577594,1,left
3.4730000000000003,0.3958394569951482,1.309650392813468,0.32698030333997086,1.4212058500716436,-1.9723810410702318,-0.188038984190102,-0.4062548273989717,0.10976903090217273,0.7460015638887973,1,left
3.4739999999999998,0.45785199309075786,1.1225542334661247,0.3125060624732957,1.415520110677593,-1.967493052847363,-0.17835106383018037,-0.4077941980038794,0.11260495016482859,0.7527366826137152,1,left
3.48,0.5045200595505597,0.94213048615671,0.3127233702669153,1.4203623402329508,-1.972293320351299,-0.18612192083421877,-0.4066765228132635,0.11045664184856513,0.7481913197848713,1,left
3.4810000000000003,0.5459996703899415,0.7764374216134959,0.32519204004133917,1.4169544335030517,-1.9677987410313702,-0.18149604963372162,-0.40723361432109295,0.11159271466326498,0.7502046193378971,1,left
3.484,0.5811534688181479,0.6279175327288753,0.350962228802439,1.4191627755982723,-1.9722433348695798,-0.18333492378767124,-0.40723303143528533,0.11159336196758214,0.7501957327667982,1,left
3.485,0.6152081018278199,0.5001910283595092,0.38112442442437594,1.4177900027741859,-1.967994705004312,-0.18331619518816467,-0.4067341518322555,0.11040847674207172,0.7490394944956111,1,left
3.488,0.6407605137825135,0.39069266289747506,0.4059385566793994,1.4182779762526936,-1.9708352798445623,-0.18231592023801713,-0.40764853541329416,0.11272641922448481,0.7505933677648591,1,left
3.489,0.6540200683715924,0.29764633892386094,0.42593315091266404,1.4193464348215983,-1.97181701853254,-0.18408949614856368,-0.4064702949545194,0.10958950646669287,0.749171707213029,1,left
3.492,0.6602770552787676,0.22449044938467755,0.4408992025823226,1.4156493776144037,-1.9640387277126257,-0.18126919946752476,-0.40761773490673026,0.11274583212845868,0.7501633218890222,1,left
3.4930000000000003,0.6589603394578095,0.17208654345730917,0.45041817991748434,1.4227928703403183,-1.980640632585096,-0.18552740464007034,-0.4069893295408776,0.11098218531142849,0.7497575558480256,1,left
3.498,0.6560031128566208,0.1420566684867237,0.45275080914242694,1.4125953659587425,-1.9562864578922645,-0.17994521981005976,-0.4064625360707663,0.10948646474845714,0.7494784338547594,1,left
3.5,0.6498318784589746,0.13650650718272572,0.4496923872049684,1.4232986741551537,-1.9820985135572913,-0.18561387807954827,-0.40872721393625344,0.11595954162934044,0.750500521755694,1,left
3.502,0.6403455459182419,0.15114485288718263,0.44889145559631705,1.417225636537655,-1.9672829594822014,-0.18252800143392528,-0.40456686931285735,0.10402441913176405,0.7487967842954959,1,left
3.503,0.637798685788066,0.1873349947999923,0.44432250474156054,1.4116444688956087,-1.9542054064691075,-0.17927875043385388,-0.4098817360913146,0.11930165860652231,0.7508520135051877,1,left
3.508,0.6355588339704747,0.2396985900504137,0.4371224693142882,1.4354330897591832,-2.010876255140741,-0.1924116946457034,-0.4054560734495258,0.10656882032959426,0.7491932723425443,1,left
3.509,0.6445712070275023,0.3024843979646628,0.42595380092775315,1.3914655845068291,-1.9059091408928617,-0.16831402800872486,-0.4055789952932731,0.10691508182673348,0.7492488891264677,1,left
3.513,0.676278308332348,0.3733433086185567,0.40512221829986983,1.447871120272732,-2.0406505475601495,-0.19916290792639746,-0.4139887617148114,0.13115309070458248,0.7522822955796422,1,left
3.514,0.7113832670801514,0.44368604348115065,0.39336769049444287,1.4007979853771642,-1.9281705857669307,-0.17344977635153794,-0.39332245157193346,0.0715930260829869,0.74485369379564,1,left
3.517,0.7687993482626707,0.5264565041259179,0.3717140318348433,1.402050808267444,-1.9312109595744014,-0.17408089273899185,-0.42758268956538514,0.1703320079358261,0.7571386927569703,1,left
3.5180000000000002,0.8142802991277733,0.5798892532958002,0.3477405085528754,1.4918702311835133,-2.1457057232856664,-0.22328190248689064,-0.38239781504454484,0.04010677760809859,0.7409594007715079,1,left
3.5189999999999997,0.8224824777891315,0.5904287230946647,0.34682818495240186,1.2711274263011276,-1.6184934718691344,-0.10244837235476557,-0.1928006488264532,-0.5065091459145448,0.6732335308677528,1,left
3.5239999999999996,0.8768681445912649,0.63930464628278,0.30702674985768874,1.6371319228334116,-2.492661132227858,-0.30275578843438505,-0.14762276846036917,-0.6367263405991788,0.6570831246759918,1,left
3.525,0.9281780956604133,0.6839134981636963,0.2595037541763787,1.1543583357538896,-1.3396011433281354,-0.03857055092562686,-0.18186625400631978,-0.5379979598884717,0.6693093118271988,1,left
3.5269999999999997,0.9331232516481944,0.6845173132550013,0.25054891274366164,-0.871846461628059,3.4998780332422395,1.070474426263575,-0.16122960010527915,-0.5975545761795735,0.6619664392246728,1,left
3.528,0.9709818556133563,0.7026445545736495,0.20636803833663503,-1.354657262300746,4.653011423667747,1.3346456556474493,-0.169597395225065,-0.573301654107486,0.6649022700711944,1,left
3.529,1.0128921794223653,0.7167390174107636,0.14558126383027103,-0.9886166569899544,3.778768086490251,1.13436034794589,-0.16976581478773606,-0.5729967841661464,0.6650333886176001,1,left
3.533,1.0343951694064426,0.7084106488767068,0.11514314801753633,-1.2093294355149768,4.305936890619488,1.2551750163799942,-0.16531079276899902,-0.5856628253086154,0.6633740342756973,1,left
3.534,1.0536362116861655,0.6993563746855591,0.09734439411686574,-1.1196739002961467,4.091732857736106,1.2059745019860668,-0.17061008262232846,-0.5704614101091054,0.6652954136746825,1,left
3.536,1.0570337457327807,0.6890191754814878,0.09755600770784492,-1.118088716546335,4.088085179378056,1.2053762363294016,-0.16653967735036013,-0.5823465259815843,0.663899130781676,1,left
3.537,1.0572095143734677,0.6866675494677504,0.12212973115615923,-1.165622165736552,4.20142128991051,1.231015112684818,-0.16862597168163568,-0.5758481869666301,0.6644607619398539,1,left
3.542,1.0534353144813864,0.6952844805596197,0.16960643265360537,-1.1087785179284682,4.065845577949489,1.2002740932126503,-0.16834391588289882,-0.5774938140416348,0.6646750701590514,1,left
3.5439999999999996,1.0453267660933798,0.7164725632112295,0.2242920046778602,-1.152897429259188,4.171138808211257,1.2242622361963784,-0.16748107998993156,-0.5789602949602941,0.6639809522937892,1,left
3.5469999999999997,1.0423959004134553,0.7559105426071746,0.2675280516711237,-1.1295717313891709,4.11526243466545,1.2111818006110542,-0.16871737952433646,-0.5762098800074824,0.6647299195015337,1,left
3.548,1.0352903323985365,0.8065478202436014,0.300510146753483,-1.1338108729550624,4.125915036478998,1.2145115849470804,-0.1677653196197598,-0.5789617389578012,0.6643926226390833,1,left
3.551,1.0228292830584982,0.8639498256185669,0.3191909859412493,-1.1421115861797355,4.1448326524615045,1.2173169514145168,-0.16799800470766477,-0.5767815621008787,0.663905662817275,1,left
3.552,1.0028858735801944,0.9277937129419451,0.320329100556869,-1.1287643097771534,4.114067300680581,1.2121430953579049,-0.16864782143594553,-0.5783575638088942,0.6654403792920689,1,left
3.556,0.9695117926666565,0.9918423769985905,0.30597659992998105,-1.1409353176552184,4.1422495125013885,1.2171058634382002,-0.1672622957356143,-0.5772060541325845,0.6630023168074819,1,left
3.556,0.9216119151046516,1.0547148795994477,0.2784604712492087,-1.1341188454553555,4.125960243425645,1.2133600335306274,-0.16889157939625793,-0.5779946438867077,0.6656557335829476,1,left
3.56,0.8597430330360195,1.1172401731501367,0.24846786022303186,-1.133443629561155,4.125995660823941,1.2161415315793134,-0.16784801728638693,-0.5778333150946133,0.6640859900997538,1,left
3.562,0.7943865885899125,1.1681220051196115,0.2281435648278653,-1.1418062486379168,4.142203987441864,1.2135176504169705,-0.16726609995883673,-0.5767791747710094,0.6628467201725294,1,left
3.5660000000000003,0.7312482243369214,1.2052619798259805,0.2171884588456356,-1.127697718972815,4.114122844032747,1.2165380604987353,-0.17039892674955157,-0.5797044276000813,0.6684805426613702,1,left
3.5669999999999997,0.6718337836639836,1.2299915349409014,0.209286721554408,-1.1430414488443725,4.144784476515239,1.213484625758468,-0.16445052473306077,-0.574678328643323,0.657982725626875,1,left
3.57,0.6260275050010243,1.2304339483124491,0.2058327500091759,-1.1336960824832496,4.125920488407294,1.21498620980695,-0.17213861644430162,-0.5809884175925475,0.6714806946452303,1,left
3.572,0.5941588842292489,1.2110520397133784,0.20298100449445683,-1.1280178935056218,4.115344089052369,1.2175822062632093,-0.1656988512693832,-0.5757810312099405,0.6602036739414017,1,left
3.575,0.5743022073322348,1.1688832053173213,0.202560240540679,-1.156759389099824,4.170936963983566,1.2083510787223586,-0.16590633786000833,-0.5758287321040204,0.6605222511467821,1,left
3.576,0.5668675158750685,1.107718946264635,0.20817591924931345,-1.102756702289695,4.06615950439358,1.2250861988649389,-0.17809754600118635,-0.5860062767314601,0.6819901042727349,1,left
3.5810000000000004,0.5696093336717147,1.0405632422460072,0.21791675236804947,-1.1722548956565895,4.201076435730306,1.203683155785079,-0.14808471589290606,-0.5611257899375609,0.6292046060332142,1,left
3.582,0.5820160740950231,0.9508478960835618,0.24679258130569476,-1.1141726960215277,4.08828725034823,1.2215174810257121,-0.1978659933970861,-0.6023281612292446,0.7167339528133626,1,left
3.5860000000000003,0.5919784606648555,0.8870477663698879,0.272462193821476,-1.115984895966113,4.091928196982142,1.2211667061322147,-0.13219763144421548,-0.548000617091799,0.6012792050867759,1,left
3.5869999999999997,0.596957179158208,0.8700743511361871,0.2798381797072886,-1.2259434891066157,4.305067730833754,1.1867253249422633,0.14339761246975646,-0.3198991355071259,0.1167206843699412,1,left
3.5869999999999997,0.6143985739701607,0.8156515885563336,0.3047182011702289,-0.9554005888732949,3.780500962485465,1.2712246956048399,0.20906624638448632,-0.26557511575170745,0.001267501888883863,1,left
3.59,0.6461629139550721,0.7361318432842971,0.3272323503611899,-1.4040383338474718,4.6504400867068085,1.131157501021971,0.15928373352317315,-0.306761499543659,0.0887897578814181,1,left
3.592,0.6670459853346713,0.7005965547276553,0.3274549533296188,-0.812292819192779,3.5029729010328516,1.3159073809273116,0.18929978516517654,-0.2819226843551012,0.036022732912698814,1,left
3.595,0.6736353680708196,0.6897376811743483,0.32916862041002815,1.6712117181311048,-1.3126873534648205,2.09158282474203,0.17710268084270903,-0.29202397764417104,0.057456791220780644,1,left
3.596,0.6947944356191547,0.6647728727878852,0.3289177037580011,2.2628911662179956,-2.460113294981987,2.276366777582907,0.1769032895763123,-0.2921763524483997,0.05782175246931682,1,left
3.596,0.7189929817955556,0.6427123933045416,0.3218466468480381,1.8143487838855266,-1.590195675671135,2.1362510810034214,0.18333512334411112,-0.2868664335412563,0.04649930634858383,1,left
3.6010000000000004,0.7232719660472928,0.6425360588381752,0.3111262393712539,2.084834276311142,-2.1148613020883733,2.220777650422531,0.17565033844337366,-0.2932192309213369,0.06001617889716694,1,left
3.602,0.7199362774767127,0.6515876918081112,0.29757410446672916,1.9748129757919601,-1.901404932208957,2.1863735751278486,0.18160583933256785,-0.28828499364289095,0.049559100388912654,1,left
3.605,0.7149646002631977,0.6698610197494719,0.28501513430138736,1.9732522091089986,-1.8983329163532288,2.1858857604976416,0.1784505277260076,-0.290919439103791,0.055064024488152216,1,left
3.6060000000000003,0.7058786374140913,0.695066828978627,0.27288328131944,2.0308806205064576,-2.0103966691960977,2.2039620268770803,0.1790710775861067,-0.29036486373595616,0.054046143915457,1,left
3.61,0.6920164004757452,0.7199561999512976,0.26351732283225826,1.9619508349346952,-1.8760893169476773,2.18226128026601,0.18006726171584614,-0.28959097545742396,0.052204977877623605,1,left
3.611,0.6748493753260516,0.7462153465469101,0.25831539751494653,2.015491856181474,-1.9808132372514151,2.1992303019713297,0.17847574427904866,-0.29086771129500155,0.05507462759237777,1,left
3.614,0.6553228550076082,0.7715192525968275,0.2567876755042442,1.9867609514617963,-1.9242141789499676,2.1900118223324823,0.1798616091744763,-0.28972091020339824,0.05263879472134091,1,left
3.615,0.6336937289739293,0.793293702541384,0.256583544226034,1.9932628652013489,-1.9372013819811218,2.192149081005435,0.17914169118611312,-0.2903900768568314,0.05377148277980737,1,left
3.62,0.6139302305759088,0.811135493086584,0.2517989633987409,2.000702035482873,-1.952382759715572,2.1946783306287525,0.1790692258068966,-0.29028192466042846,0.05420285527519106,1,left
3.6210000000000004,0.5954229811541882,0.8272599032589765,0.24599867969068895,1.9882145309637274,-1.92574030542715,2.1901118524842005,0.17978223325305262,-0.28994273654598146,0.05249580011746936,1,left
3.625,0.5786950697154765,0.8404894653499229,0.24119945981907037,1.9992742098036806,-1.9513642048939313,2.1947145703686317,0.17880081961991195,-0.2904875181338388,0.05470473300176005,1,left
3.6260000000000003,0.5643798912407749,0.8514315626393084,0.23455822998400386,1.992660261479649,-1.9334149558687355,2.191239486198487,0.17951629232799293,-0.2900498721387684,0.05316742009722213,1,left
3.6289999999999996,0.552196293082124,0.8611490580092152,0.22872781947178694,1.9949207524485861,-1.9418818217700884,2.193069065047691,0.17967159958489348,-0.29005458111684895,0.05265368513691054,1,left
3.63,0.5451087499332534,0.8681357006872549,0.21998676435894363,1.9948908068295699,-1.9418609485386435,2.193069401827505,0.178140612124828,-0.2907387445827937,0.05639910919786292,1,left
3.636,0.5429987742613143,0.8766951984617437,0.20513666655870327,1.9955213776937724,-1.9355057800015016,2.1911825374355063,0.18118094782536562,-0.28930335219749803,0.04909943855191387,1,left
3.637,0.5446682797262843,0.8842171722942479,0.18925426317829086,1.992044192117732,-1.9460789886146768,2.1948589210479588,0.17720455924896344,-0.29120663189310525,0.058600126930356565,1,left
3.639,0.5484132133376376,0.887362514446522,0.17319918260981265,1.9989083682534377,-1.933558592435692,2.189898092470644,0.18055481542933555,-0.28959207119591046,0.050614474600821455,1,left
3.64,0.5520314744612373,0.8905045930651811,0.15314516098943093,1.9906111576619379,-1.9450041376791791,2.1948803361892217,0.18041706348568823,-0.2896754249756331,0.050913969185896066,1,left
3.6460000000000004,0.5550195274202523,0.8924745109074801,0.1342742926210755,1.995717682577684,-1.93899879560867,2.192099319194396,0.17415405351070257,-0.292648777531646,0.06591939204440815,1,left
3.647,0.5562155024120519,0.8913905529740455,0.1249494950691623,2.0002529130106415,-1.934074076665704,2.1897431870972337,0.18961575670526742,-0.28528290513619403,0.028917125977263283,1,left
3.6489999999999996,0.555282450926301,0.8893110004745635,0.12102382999726063,1.9800337963812729,-1.9548942831693155,2.1999379122159577,0.1639540055611466,-0.29751819558164316,0.09031448244416358,1,left
3.65,0.5546630879720639,0.8884143599692693,0.11903595744682804,2.017887992309873,-1.916982313602663,2.1811438730147064,0.1978108342783026,-0.28137101162408495,0.009314525969612557,1,left
3.654,0.5535703173345832,0.8889320992647026,0.11974099403347946,1.9690346212174454,-1.9651788812919344,2.2051987747597277,0.3398891908563675,-0.21362993756434578,-0.33061374140110505,1,left
3.654,0.5479085613466532,0.8893647290147211,0.11989090492773448,2.009925056774724,-1.9251546357388836,2.185150146513765,0.37374711062512017,-0.19747835805420066,-0.41161860034531794,1,left
3.655,0.5381922166848487,0.893067596761842,0.11570555409584146,2.008841981878844,-1.9262634779545504,2.1856984570943974,0.3480789527234517,-0.20972440899240907,-0.35020531540135114,1,left
3.658,0.5281444392322907,0.8997918406781884,0.10835374919304908,1.9306210822384342,-2.002144633966716,2.223852955384132,0.3635587186909337,-0.20233907621476535,-0.38724319576930677,1,left
3.659,0.5160546279710039,0.9086752477552623,0.10101169902764601,2.1229221966917873,-1.8157623504790052,2.1300909020836025,0.35726146062422004,-0.20534050199792125,-0.37217778602867857,1,left
3.6630000000000003,0.4989629911100155,0.9263470947720562,0.09256303867713972,1.8040231556076842,-2.1246593557372573,2.285533181442309,0.3571719021235219,-0.2053927461047952,-0.37195553179655994,1,left
3.6639999999999997,0.48822230068595224,0.9393755194695474,0.08792112261790422,2.2246916481868375,-1.7173280450839203,2.08052059311865,0.3604734707345829,-0.20379933755333277,-0.37987193209955017,1,left
3.665,0.48655501246363014,0.9415521122806731,0.08553639044757745,3.9908948697679123,-0.007847306087233163,1.220075314470614,0.35652006837044936,-0.2057108492348581,-0.370388373009064,1,left
3.6689999999999996,0.47661085338843806,0.9541570220236026,0.07581334689602108,4.411621069275041,0.39939336397862524,1.015079060103334,0.3595978316843636,-0.20421750429397417,-0.37777690179665124,1,left
3.67,0.4612074193521616,0.9718285061360108,0.06361042374191479,4.0925953828553485,0.090645527918057,1.1704894514641517,0.35793801020730487,-0.20501995215772992,-0.3737949869727035,1,left
3.673,0.45316603891735696,0.9825279650301523,0.05526092767477524,4.285100185244963,0.27688410535340036,1.0767710292242718,0.3583206409215889,-0.20485928571221715,-0.37468897789561717,1,left
3.673,0.44823352386389453,0.9905859067586491,0.05328455809921512,4.206617512710398,0.20105080648788137,1.1148803421441058,0.35875098065569,-0.20458416412218539,-0.37578770233634895,1,left
3.679,0.4444994197740692,0.99449819359214,0.05633675592168262,4.2057844343011626,0.20008829069261497,1.1154565250154913,0.3580063263073088,-0.2050594991674104,-0.3738869822984079,1,left
3.681,0.44582961443396185,0.9964784666773795,0.05911966636596515,4.246567215905588,0.23970313169158367,1.095423457658065,0.35869967373413847,-0.20458144398093625,-0.37569201952741627,1,left
3.6830000000000003,0.4491956367200196,0.9962721075451509,0.06176083696524709,4.197507772751058,0.19216359200598832,1.1193935052854358,0.3582376986807734,-0.20491921420704712,-0.37447020358967353,1,left
3.6839999999999997,0.45221083378671584,0.9939521538627742,0.06344197045253773,4.236032645007879,0.229328991425089,1.1007648831788168,0.3584475773268506,-0.20482019179977892,-0.3749712451071483,1,left
3.688,0.4578463606464147,0.992419472641738,0.06253033189694421,4.214649924885814,0.20901171334473037,1.1107356635717833,0.3584144060243924,-0.20461806317447823,-0.37510828032437415,1,left
3.688,0.4650557548983466,0.9887935647252089,0.0598753478062652,4.220627301884897,0.2141519674463759,1.1085903344130776,0.35837489545666196,-0.2051349268359105,-0.3745193100109292,1,left
3.693,0.47115556104149525,0.986176810836572,0.05818160025656752,4.224558012148437,0.21874417688315367,1.1057359080277922,0.35840701796574453,-0.20437668262446418,-0.37533370752382533,1,left
3.694,0.4768402555064121,0.9842278566383711,0.05525208578090652,4.216313869393996,0.21013860998287143,1.1105005560694239,0.35840833049756715,-0.2051680043306028,-0.37455071057057376,1,left
3.698,0.4843458424532846,0.9785426465021569,0.04850214911843603,4.2252118046490725,0.21874413849509744,1.1061727101683225,0.3584079780206297,-0.2047106149248783,-0.375003914070398,1,left
3.699,0.49548441888672723,0.9711306495151735,0.0456268751317241,4.216974192057439,0.21193390950619687,1.1087972046408647,0.35832872263410576,-0.2043539029574822,-0.37520627857270156,1,left
3.7030000000000003,0.507684087036793,0.9621642136406625,0.04742561224693662,4.224791934295082,0.21684542875713397,1.1081612602740212,0.3585733056553923,-0.2059636385425192,-0.37407716414443526,1,left
3.7039999999999997,0.5199310433048343,0.9516414310378963,0.05097792811976981,4.217006090535211,0.21326930573387254,1.1072218752192517,0.3581248802998292,-0.20297598466747568,-0.37618294574049904,1,left
3.707,0.5330726907672236,0.9394897359102574,0.05859118453975465,4.2238871765113775,0.21570922280775687,1.1089139390421994,0.35870713971461543,-0.20680912662348694,-0.37349497850471663,1,left
3.707,0.5439275842208895,0.9266134785302602,0.06688024054666022,4.22086273781863,0.21521942227929472,1.1074734581002803,0.35821818466026806,-0.20361048883747002,-0.3757314538028009,1,left
3.713,0.5534261153539952,0.9153540299435252,0.0757680830569403,4.2152976585455075,0.21193670052776264,1.1076706600912138,0.35822283387322695,-0.20370093761757524,-0.37565209781736797,1,left
3.715,0.5623064951775694,0.9042348024600608,0.08710251373475646,4.234195711945603,0.2210266556697863,1.109461801610768,0.35919125290950926,-0.20978341724259536,-0.37146979442385175,1,left
3.717,0.5677580204773791,0.8951669891662396,0.09749110853289471,4.200438813784626,0.20541535749753637,1.105513676714207,0.3568178692105065,-0.19483059867616245,-0.3817623490916138,1,left
3.718,0.5706636631205069,0.8895002789482804,0.1062431140270487,4.243319071443319,0.22501277290616722,1.1108080804076117,0.3607531978319708,-0.21962264266881465,-0.36469981953038927,1,left
3.725,0.5711741541333388,0.8863190255386277,0.11131642536433828,4.207717712510673,0.20883990283055803,1.1062946085086982,0.3555609789006414,-0.18692313659448478,-0.387198872067523,1,left
3.7260000000000004,0.5714664685353954,0.8853876547655609,0.1111130035483763,4.208376742969843,0.20898933993580443,1.1065590917376413,0.3337395895367187,-0.049676428960806665,-0.4816038564932955,1,left
3.727,0.5721727729942131,0.8826066145129645,0.1100679881883707,4.277070927878347,0.24059583144779093,1.114785474426591,0.3285451998601491,-0.016978482883218245,-0.5040933189633588,1,left
3.727,0.5696747047004932,0.8799410887125885,0.10805359028875772,4.1086707341093875,0.1633253151337073,1.0943631254423196,0.33248441435650133,-0.04176810596540691,-0.48704484356195077,1,left
3.728,0.5646917844918249,0.880930141647815,0.10341843579722326,4.387717635787453,0.2912904220021128,1.1282969921642056,0.3301064788624044,-0.026817242111118047,-0.49732831574612607,1,left
3.7310000000000003,0.560655627917886,0.882036381147424,0.10149548240822012,4.019719314569724,0.12255619341858782,1.0835169970359022,0.3310783328051895,-0.032899967164585535,-0.4931384546872442,1,left
3.7319999999999998,0.560328745299701,0.8810837494789965,0.10153911150392436,2.4747783560054613,-0.5858533170016689,0.8955793503035543,0.33108309077100795,-0.03298631155633136,-0.49309330426513426,1,left
3.734,0.559129867242409,0.879898459416669,0.10035923884991223,2.1067953668428956,-0.7545891923103693,0.8508072664364145,0.3305879754933652,-0.029796421965989153,-0.4952663688467487,1,left
3.737,0.5558998119533503,0.8800119431102988,0.10319069285066396,2.385790673393057,-0.6266561719109607,0.8847496232684396,0.3311838695380448,-0.03361727577600437,-0.4926594920047313,1,left
3.738,0.5548079586097203,0.8799106248051212,0.11056034604894005,2.2175081657607865,-0.7038060488395632,0.8642636287986014,0.33071563246726465,-0.030641566309498026,-0.494696956636202,1,left
3.741,0.551382311337266,0.8806931382874061,0.11883084404207618,2.286001747432581,-0.6724527800494645,0.8726429039830054,0.3309806036595851,-0.032246547701837755,-0.4935750081292528,1,left
3.742,0.5474484217193611,0.8834173883752239,0.12438143350039178,2.2869216262072727,-0.6719237221308683,0.8726615931900299,0.3308908860469475,-0.03187881992752293,-0.49388640269718803,1,left
3.747,0.5441847495535063,0.8868329000596941,0.12478334359288303,2.2510829878450016,-0.6885086147167896,0.8684339504952178,0.33087722036690775,-0.031455356694489255,-0.4940767534565755,1,left
3.748,0.5344699989205313,0.893158985416272,0.1218551805702832,2.2940287453939514,-0.6686661365390733,0.8735269043703545,0.33092814497676637,-0.0321891750126709,-0.49369595820663914,1,left
3.7510000000000003,0.5209884038310562,0.901217172937212,0.11506330208852908,2.260560718430586,-0.6840763574342061,0.8695112461191277,0.3308710224081828,-0.0315004724083943,-0.4940708000708768,1,left
3.7510000000000003,0.5083658925167324,0.907232924033199,0.10867487667944013,2.278671776794484,-0.6759038198775014,0.8718312761390246,0.3309450820401004,-0.031963417078715736,-0.49375156219126815,1,left
3.7569999999999997,0.49563491079176125,0.9134834162473,0.1059127035588257,2.274384658235502,-0.6774475604238799,0.8709370681611563,0.33081521192620444,-0.031757330159440114,-0.4940766410834259,1,left
3.758,0.48224310473879833,0.9214443737253323,0.10412657921729684,2.269871962623514,-0.6802431913304179,0.871029523299876,0.33103855292691653,-0.03176631921324162,-0.49365137832337774,1,left
3.761,0.46996423707770607,0.927782975565433,0.10370464686585044,2.277821490482623,-0.675706808182689,0.8712094748310963,0.33072295545617003,-0.03186357172666984,-0.4942097601504211,1,left
3.762,0.4594747041085334,0.932126188081408,0.1037456379591434,2.270316424840462,-0.6798585834661679,0.8709240050242295,0.33105613270486034,-0.03173925895785794,-0.4936286337752339,1,left
3.766,0.44922139976840725,0.9375362213387938,0.10643200748110032,2.275528983330487,-0.6774750606274756,0.8715639271954536,0.33086874638202524,-0.03184369443285373,-0.4939420894629176,1,left
3.767,0.4380487932277456,0.9441232368209385,0.11016744144405047,2.2727534633640887,-0.6774284991461396,0.8700609164308034,0.330681757726524,-0.03177231812991857,-0.4943229812629612,1,left
3.7710000000000004,0.4240306005904104,0.9504083248259567,0.11217172631974962,2.2738965813203276,-0.6799189216565975,0.8728631414284362,0.33145851167914586,-0.03182040396321555,-0.4928371042523675,1,left
3.772,0.4081130755480582,0.9573451520038256,0.11618485290352956,2.2734368477889695,-0.6756325448518525,0.8688340793776121,0.33002544020001906,-0.03177903554528233,-0.49556008394205886,1,left
3.775,0.3934481433954508,0.9648472365986184,0.11848205109633564,2.273694752984138,-0.6803083685915505,0.8731011455999895,0.3318640219757321,-0.03182128219978622,-0.4920708387383102,1,left
3.7760000000000002,0.37976215200160346,0.9714844645675006,0.11707835549016202,2.2739122789379067,-0.677438651632359,0.8706798609692215,0.33032954995848995,-0.031790616813171524,-0.494981083452141,1,left
3.78,0.3650789117084581,0.9758831133589461,0.11868684841197465,2.272284833291509,-0.6757968985121328,0.8683729197075903,0.3303689595809802,-0.03177420443219016,-0.49491320883059764,1,left
3.781,0.35230857733597243,0.9790402294238323,0.12306535590946512,2.276436022850734,-0.6843440418014076,0.8781100276741927,0.3333023074224775,-0.03188867547607879,-0.48932775146775126,1,left
3.786,0.34117336174270085,0.9804275381977061,0.1239459309122268,2.2692743209742345,-0.6682472949882403,0.8601167490932422,0.3260945637018251,-0.03162817911190276,-0.5030437259176084,1,left
3.787,0.32742730211389326,0.9754751457345532,0.12607357113210083,2.2783493010702056,-0.68897169550573,0.8832073128214435,0.33804532232475004,-0.03205406727549372,-0.48030467887733175,1,left
3.79,0.32098172927772983,0.9709517981805176,0.12986948575960838,2.270822801555303,-0.6716472348456711,0.8639346783625774,0.32228159694453845,-0.03149371295099748,-0.5102979024360256,1,left
3.792,0.3191157251435841,0.969588484301099,0.13179959555526077,2.2708373227675116,-0.6722026513871533,0.864436864788769,0.2561189273375023,-0.029106412370740974,-0.6362012230629348,1,left
3.792,0.3081363419305824,0.9642628939395574,0.1422413599100195,2.285807398245512,-0.7049538830716091,0.901252627496913,0.24035351784169873,-0.02854565542750291,-0.6661972562001575,1,left
3.7960000000000003,0.297291156698423,0.9576567368650831,0.15756981458079716,2.249237719763739,-0.6243527184409293,0.8107841364453117,0.25230609807653137,-0.028971979331672598,-0.6434551680657271,1,left
3.7969999999999997,0.2879541521800245,0.9498533745747549,0.17138521557887182,2.3098115489722435,-0.7580204425000381,0.9607831656770889,0.24509904909761465,-0.02871164816985405,-0.6571699910464115,1,left
3.801,0.2792702428450487,0.9443793238780137,0.18182526342249125,2.2299230985805574,-0.5817100193934861,0.7629306577964869,0.2480263492706212,-0.028824675239118386,-0.651594607319464,1,left
3.802,0.27712583081642733,0.9432496488876445,0.1836685406375784,1.894282260306107,0.15821257928934662,-0.06752704968953818,0.24807876881362584,-0.028811370401254664,-0.6515050515992762,1,left
3.803,0.26916725104904027,0.9382233965501541,0.19134688928467786,1.8143765966627052,0.33451477965619225,-0.26539114873558367,0.24652564513318592,-0.02877624890841348,-0.6544463877325728,1,left
3.807,0.2535718590846054,0.9339620154901376,0.2064815277157735,1.8749690411824518,0.200855948596164,-0.11537957714507902,0.24838279767084542,-0.028822933564279674,-0.6509261755639173,1,left
3.807,0.23924012280665372,0.9338732315097097,0.21471108934113303,1.8384064752445615,0.2814605091123781,-0.20584330373534182,0.24694171771275278,-0.02877964902469512,-0.653662528809864,1,left
3.815,0.22434782130981057,0.9325962110613124,0.21434530525958984,1.8533147138688246,0.24867974170952956,-0.16906912951247907,0.24770251445473745,-0.02882392667386528,-0.6522032161101747,1,left
3.815,0.20888004037335253,0.9308821378323555,0.20534474418706516,1.853462244316541,0.24818785804838886,-0.16847745305429163,0.2475669106678527,-0.028764822357954765,-0.6524984898686452,1,left
3.8160000000000003,0.19417747631825558,0.9309561492711746,0.19267429028540423,1.8457450690224664,0.2654212390170717,-0.1878784037886965,0.24729099614022879,-0.02884810998086421,-0.6529594957061164,1,left
3.8160000000000003,0.17977467612875864,0.9312120684422265,0.1825662515386826,1.8550098818350205,0.24478751791782452,-0.16466005667468897,0.24773280898858102,-0.02874975379795528,-0.6521972599849637,1,left
3.82,0.16556534363607744,0.9311100286445171,0.17756417537879765,1.8477663459905371,0.2608451697094777,-0.18270848470377193,0.2473306179737249,-0.02882630818811619,-0.6529000731998911,1,left
3.82,0.15180807250717848,0.9346515768691459,0.1769876639846978,1.8517543503764786,0.2522200864318301,-0.1730810752238623,0.2475531504481439,-0.02883512263254627,-0.6524760002695598,1,left
3.825,0.14018892307772185,0.9417532235637638,0.17615677040390876,1.8506522702988866,0.2541127808832125,-0.17503459491355564,0.24758405957546226,-0.028667423389393452,-0.6525332758244751,1,left
3.826,0.12806543776487195,0.9514202576647895,0.17178390840468552,1.849964739286369,0.25655018643748084,-0.17806486935515353,0.24729075200584436,-0.02904262157676738,-0.6528262341275219,1,left
3.8289999999999997,0.11311863627070004,0.9647693957065616,0.15654455057915467,1.8513331958201844,0.25240484170995625,-0.17305038848986093,0.2477816280397275,-0.028484836836221043,-0.6522876372442792,1,left
3.83,0.10024296213499875,0.9805605818781792,0.12989151220295989,1.8499883468766627,0.2562684079068758,-0.17767537251184393,0.24724843873038108,-0.029079075921886285,-0.6528807628426991,1,left
3.835,0.09118600509333313,0.9967796964686526,0.1006531169613605,1.8511229560349474,0.25377395747472675,-0.1748783500919435,0.2475721577605323,-0.028736290912442244,-0.6525080927292304,1,left
3.8360000000000003,0.08545689410848403,1.0090466601858226,0.07221019208393828,1.849991400996764,0.25460574043594947,-0.1752757351232072,0.24777364430290894,-0.028438018438726422,-0.6523350507860382,1,left
3.84,0.08214929871767856,1.0188087631621996,0.046105057949777414,1.8514480793172756,0.255195242157639,-0.17716273113627606,0.24676494478234148,-0.029738838477597493,-0.6533351253186628,1,left
3.841,0.08080788123925756,1.0265906453367715,0.023828392843740373,1.8495452740855063,0.253719478413276,-0.17367829325307532,0.24865842007895084,-0.027327278282168473,-0.6514364858938114,1,left
3.844,0.0868141820492001,1.0266648143343249,0.006356907230397554,1.8515237639851752,0.2554036285294271,-0.1775173434334224,0.2462220801090378,-0.030423660001982027,-0.6538845481561233,1,left
3.845,0.09647442621465215,1.0225620289532538,-0.006631970316287766,1.8504592049941913,0.2542552177891073,-0.17510241469619964,0.24825795578235282,-0.027838705292478692,-0.6518363343574032,1,left
3.8489999999999998,0.10944840822072063,1.0130168112922249,-0.017519751956852413,1.849150571982288,0.2541339498479438,-0.17399548070518267,0.24819529577919602,-0.027908428860671887,-0.6519081452526133,1,left
3.8489999999999998,0.13162737304889346,0.9968357580203009,-0.024698499704761973,1.854239196417367,0.25608639863677657,-0.18043528640028692,0.24433845296818146,-0.032838244885320236,-0.6557609161792146,1,left
3.8539999999999996,0.15408364145029693,0.9811718609953671,-0.027114803328137184,1.8449160569224534,0.2522091459529471,-0.16820493347503535,0.2538266639111285,-0.02072161416215834,-0.6462711230107075,1,left
3.8539999999999996,0.1765624360547126,0.9607520936945345,-0.027227059777350085,1.856863933540693,0.257245030924584,-0.18397350022047887,0.23809293223693498,-0.04081150852076479,-0.6620117361588461,1,left
3.859,0.19449351298779788,0.9431593960815008,-0.02580480405088695,1.8468959940366028,0.2530179087621478,-0.17078357592690346,0.2588453869055359,-0.0143130083845291,-0.6412484758136796,1,left
3.86,0.1989693383730406,0.9399855723582325,-0.027053384409155203,1.847134004878833,0.2532208849004043,-0.171239560793705,0.3459548993374735,0.09691300160101843,-0.5541508288339656,1,left
3.861,0.20820232618133927,0.9338160383538641,-0.0294167849728075,1.8662531648612661,0.2609897528261531,-0.19606403793603933,0.36670678848529875,0.12341147440914506,-0.5333907819930097,1,left
3.864,0.22141867813978866,0.9225749614407994,-0.025720216538550188,1.8192901254202312,0.24179131670066173,-0.13493320005527434,0.35097208971456806,0.10332182869617608,-0.5491235486792136,1,left
3.865,0.22226357711708614,0.9237756660579746,-0.024735222558839712,1.8971595019042782,0.2736488144538648,-0.23631897655642792,0.36046612605897066,0.11543769468315711,-0.5396479106279026,1,left
3.8689999999999998,0.219672337221413,0.9305520213315236,-0.027840228859728956,1.7944343878114641,0.2316285263931965,-0.10259195911138348,0.35659572378359816,0.1105093803424976,-0.5434803061528084,1,left
3.87,0.21741038763029968,0.9336178225558527,-0.029176719286946314,1.363279256654081,0.055366828912236724,0.45859767942653257,0.3565545360246972,0.11043749444818571,-0.5435746406656812,1,left
3.87,0.21125012558830575,0.9423922181463567,-0.03699939629662699,1.2605056372129746,0.013361882212401938,0.5923056516634049,0.358565791681863,0.11302469385303367,-0.5415111988843315,1,left
3.873,0.2027481690730525,0.9571805364370761,-0.047525940638507375,1.338448336582133,0.04520090593527354,0.49094346474777334,0.3561462651830185,0.10992714565950071,-0.543953107656071,1,left
3.8739999999999997,0.18993898806585968,0.9715032548449565,-0.056127979629859444,1.291431429497609,0.02600280064039263,0.5520715705179533,0.3580467897999817,0.11233722449607894,-0.542096708860967,1,left
3.878,0.17690982596986668,0.9862868866745422,-0.06452299609934553,1.3105287113199835,0.03381303023320052,0.5272005315986772,0.35699069252185067,0.11104197927044145,-0.5430108531309376,1,left
3.8789999999999996,0.1661860684009675,0.9997482987620633,-0.06440430243417325,1.3109154770828173,0.03391786128734255,0.5268592868890369,0.3572881568344605,0.11133016129012832,-0.542957692893695,1,left
3.884,0.15482712754101277,1.0101778100830017,-0.057149897754221274,1.3006528433117341,0.02983878528537349,0.5398730425021732,0.35747869404026855,0.1116858659806387,-0.5424675505846994,1,left
3.885,0.14524304982291686,1.0198479897184352,-0.048071462436075706,1.31299586803204,0.03471809578953494,0.5242944614466708,0.3570747622233988,0.11108051503354813,-0.5431102254038258,1,left
3.889,0.1350592794172299,1.027762437874142,-0.03609257215945119,1.3033133766151357,0.030925396833363816,0.5364158030420598,0.35751367259688616,0.1116400707490092,-0.5426734989387167,1,left
3.889,0.12178447380251416,1.0308101596395498,-0.023067293008872655,1.308497865236307,0.032973136163791036,0.5298751547885994,0.35710228428347035,0.11128120765011631,-0.5426418659218784,1,left
3.8930000000000002,0.10540738316009902,1.0310060105135528,-0.007062264065244278,1.3076290480916057,0.032477543359348035,0.5314141022682355,0.3574994929696469,0.11140817700118902,-0.5432569307143111,1,left
3.8939999999999997,0.08630290509392646,1.030112932284252,0.011695144369799449,1.3053817406827557,0.03201234871888954,0.5330238216922765,0.3570981564706909,0.11146285606542136,-0.5421482719300873,1,left
3.898,0.06841393614168148,1.0255282266550632,0.0251765719971003,1.3092629005810235,0.03281742377438439,0.5302375499095522,0.35745597900084214,0.11131526384487303,-0.5433999815677915,1,left
3.898,0.052447560303020314,1.0170542413856458,0.032719457417347775,1.3051694422711484,0.03210313116044032,0.5327862087024797,0.3572962312313436,0.11146040040386977,-0.5426299843487485,1,left
3.903,0.03908240442608377,1.0053691865176155,0.03884166148926151,1.308157233652627,0.03255987938719031,0.5311128597239618,0.357012385028486,0.11139941046893664,-0.5421116265676886,1,left
3.904,0.02943787501907334,0.9917680144751126,0.04573417956003446,1.3075343424405346,0.03229862728269461,0.5319428752249844,0.3579849478295319,0.11132302930265625,-0.5446483141088707,1,left
3.908,0.024049864185768075,0.9779623531132524,0.05313235193237026,1.3046927171643024,0.032555332373247835,0.5315320649347876,0.35624514424320264,0.11154574132752845,-0.539880839785527,1,left
3.909,0.021684484000539857,0.9654254855104167,0.058313676577009414,1.3115367444784543,0.03211151920554234,0.5320157516248116,0.3584559778677102,0.11123062329034505,-0.546025015141114,1,left
3.912,0.018752975864803807,0.9558613506096286,0.0625384125772232,1.3014079713194961,0.03280700382322804,0.531188049751226,0.3566203058796258,0.11150589860297279,-0.5408864593047005,1,left
3.9130000000000003,0.01661677308182352,0.9487094860725763,0.059614183252298225,1.3120976386292995,0.032021391279972236,0.5322110840498582,0.3566542349311767,0.11147977331029768,-0.541039106381626,1,left
3.9189999999999996,0.015842070020261265,0.9458089679515584,0.05006328850004886,1.3059198025633703,0.03247496145620598,0.5316210943464887,0.3601961828250565,0.11100465090888176,-0.5508008549699677,1,left
3.9189999999999996,0.020143547193012194,0.9463410343768458,0.04289123953965545,1.300834303550175,0.03296344138946319,0.5308022527945414,0.3515137786801236,0.11219923464803208,-0.5267888405633521,1,left
3.923,0.031410305405961896,0.9469000620943341,0.026893126115966885,1.3234019684202658,0.030951553181031984,0.5339852100824414,0.36590017376315703,0.1102087389190542,-0.5666079159984755,1,left
3.923,0.03678026748405022,0.9480765349862706,0.011431724989189734,1.2815340570802967,0.03467660983128809,0.5281013999162893,0.34692883883342285,0.11283738729972287,-0.5140858950949606,1,left
3.927,0.03905920799184614,0.9493526325734538,0.00724456155688878,1.3352752418736995,0.029885059922741375,0.5356833755084033,0.26727045582369136,0.12386286284742805,-0.2936130742352844,1,left
3.929,0.05086955232573789,0.9523659750378097,-0.004482079824695812,1.2904175072404613,0.03388939613371683,0.5293402234744049,0.24830177374546977,0.1264912018105824,-0.24109397723320736,1,left
3.929,0.06880775883453509,0.9580206160334951,-0.019820140009676752,1.2916591779022883,0.03379032046842922,0.5294828912968798,0.26268357265892506,0.12449883682823357,-0.2809116155443764,1,left
3.932,0.08656245449379332,0.9642453567120748,-0.03144936477640223,1.3770806569793845,0.026113360551975908,0.5417086088938274,0.25400619027090343,0.1257013545979689,-0.2568922832077036,1,left
3.9330000000000003,0.10573511045444475,0.9704582488548759,-0.04260565862376883,1.1671015465457462,0.044976500718491644,0.5116768473299929,0.25754505557889773,0.12520902745058038,-0.2666771314962735,1,left
3.937,0.1345042386393853,0.975167803664208,-0.051255639316479695,1.5152576138576608,0.013698513895138088,0.5614781770246636,0.2575771974227601,0.12520916839007706,-0.2667884983482945,1,left
3.937,0.15446847392249052,0.9779597480079267,-0.05647009255315777,1.0560455365388888,0.054957515276329263,0.4957787280080328,0.2557508288907748,0.12545539137818143,-0.261702387481047,1,left
3.938,0.1597554783739245,0.9781855770608144,-0.059782389865312105,-0.871348449265261,0.22814144984801582,0.22002452263996802,0.2579439781372931,0.12515845106300522,-0.26780276058624414,1,left
3.9419999999999997,0.18132868820081327,0.9761707198664924,-0.06784180182644833,-1.3305476925467241,0.2694034820951588,0.15431605422674266,0.25622744077310855,0.12539328637672847,-0.26303854682255157,1,left
3.943,0.21047088389427354,0.9734840554412506,-0.07326793355527034,-0.9824210188686491,0.23812352561206285,0.2041207950602993,0.25717916093103627,0.12525528795125068,-0.2656488844992292,1,left
3.947,0.2325769529965692,0.9676555043734767,-0.06816512127896045,-1.1923504805509684,0.2569807801626778,0.17411522711626992,0.25690047204761624,0.12531363318894878,-0.2649552760932713,1,left
3.948,0.253144821593444,0.9591962734009075,-0.06194726182833098,-1.1069961848406793,0.24932426028282162,0.1862622258213442,0.25676702691770936,0.12529808612552973,-0.26445204598821903,1,left
3.952,0.26635988167474944,0.9523673204895582,-0.061745451755880205,-1.105685614241532,0.24918759356793996,0.1865433035587874,0.2570551964824791,0.12529996801446025,-0.26541374717874155,1,left
3.9530000000000003,0.2761001422387453,0.9468604678482602,-0.065678868152127,-1.150581567759025,0.25324071345820565,0.1800264888484734,0.25676523121634853,0.1253067869187261,-0.264480443634514,1,left
3.9560000000000004,0.2820551533390905,0.941107982350363,-0.0685882202254256,-1.0968779832257147,0.24840697283609037,0.18775043410109424,0.2570348648177928,0.12526915016519322,-0.2652256685844247,1,left
3.957,0.28018125629906954,0.9362382559362181,-0.07001367360708904,-1.138589173917378,0.2521383733993777,0.1818628588500929,0.25671178976287945,0.12537580086507466,-0.2645735652005829,1,left
3.9610000000000003,0.2764538559285783,0.9330902524693252,-0.06786999363296925,-1.1163129637586708,0.25019004252857147,0.18479143573081203,0.2571819751486274,0.12516916946204892,-0.26532166546708064,1,left
3.9619999999999997,0.26931186882889324,0.9294180087031323,-0.059716471526917406,-1.1210165540089303,0.25052080613367433,0.18456410872090825,0.256544796920358,0.12546857264075298,-0.264383403960397,1,left
3.967,0.2575377162720699,0.9245319298667656,-0.04884149542051229,-1.1275362613829871,0.2512194266415785,0.18308433116839073,0.2572120354617847,0.12515101198884337,-0.26535046899273823,1,left
3.968,0.2477682102848423,0.9214481076264325,-0.03637434689953417,-1.116762794185376,0.25016144943890256,0.18506186228006738,0.2568454588286634,0.12533195569778632,-0.2648440422074797,1,left
3.971,0.23860955823970534,0.9194696687871506,-0.024394831261450853,-1.1264567719030847,0.2510316534085941,0.18367871955396955,0.25643571580663904,0.12550066900427007,-0.2641483398941369,1,left
3.972,0.22790999552730237,0.9174844839103782,-0.013098197231848845,-1.1207636297815644,0.25068712855470626,0.18368406271681675,0.25807539242253,0.12478303686988365,-0.2667687681154115,1,left
3.977,0.22124305909064215,0.9164076531936889,-0.003016104915816459,-1.1217628795662637,0.25039525278838337,0.18539052294548253,0.25506241851520994,0.12611026389247137,-0.2619858462072981,1,left
3.978,0.2142084188143843,0.9156552208395278,0.0015454287586347893,-1.1245020347204826,0.2512107160367318,0.18223946677857525,0.2589248387339546,0.1244066991875619,-0.26811000058710865,1,left
3.9810000000000003,0.2060501891022668,0.9175078753602126,0.004461104130845378,-1.1200344829687023,0.2502024164784325,0.18582010688493344,0.25570307499951084,0.12582886500059226,-0.26300447170716396,1,left
3.9819999999999998,0.202523257143818,0.9219267576085175,0.006062472699684976,-1.1236532315773269,0.25087811273283245,0.1836026040353907,0.25578003401874005,0.12579102674852366,-0.26311537804119667,1,left
3.986,0.19870022318792696,0.924729490887028,0.003740118798722628,-1.1235472908809268,0.2511711369852946,0.18215308126571148,0.26195634930486045,0.12307649328584881,-0.2729395501738572,1,left
3.986,0.19769365000062616,0.9277195328457482,0.0032260766000723716,-1.1180609504319379,0.24935486682225455,0.18934933580268298,0.24678830853927997,0.12974828823537388,-0.2488256055843319,1,left
3.991,0.2005893255320184,0.9324288970906072,0.0020865754366507956,-1.1296405389919393,0.2528490962683238,0.1758022905296831,0.2719337500184759,0.11868550805764796,-0.288798583816982,1,left
3.992,0.19980044776557632,0.9339400630798282,-0.0012320538891552827,-1.1142663057968176,0.2483172263565639,0.1932701551194954,0.23876821191020692,0.13327827982819418,-0.23607601424324942,1,left
3.9960000000000004,0.19952324018386244,0.9348484227802154,-0.0004680459830884898,-1.1273135697584726,0.25211926634505766,0.17865607940833772,0.099531683268711,0.19452111459831176,-0.014724543945039033,1,left
3.997,0.20119680688371644,0.9418133922234356,0.0012348168966711634,-1.1266351089091344,0.2519881495169768,0.1790997478703804,0.06636648197146752,0.20911583177620627,0.03799981881190479,1,left
3.997,0.201574434019803,0.9493969404710199,0.0009892888109287756,-1.102623354580373,0.24481388625989356,0.2068381241463944,0.09151155868915775,0.19805094662735373,-0.0019750996867975183,1,left
4.002,0.20091207389961238,0.9541907965371479,3.1393223610924294e-05,-1.1621087525841853,0.2624872229327001,0.13859043364819373,0.0763433805819372,0.20472194164817137,0.022138107583098893,1,left
4.003,0.19932036608691484,0.960727984801602,-0.0025094722364693554,-1.0633071309854918,0.23317027975443508,0.2517755103484581,0.08252090205623755,0.2020143887884033,0.012320369801881998,1,left
4.006,0.19942344349495278,0.964673115096954,-0.0035673233671789017,-1.193682316878895,0.27184230205418636,0.10247387444050052,0.08259526408363801,0.20196153007762419,0.01219561837907612,1,left
4.007,0.20008126263053402,0.9645763335878895,-0.002076124542852981,-1.740723189381002,0.4341595709767868,-0.5241724196040897,0.07937722529012511,0.2034052328292495,0.017320998922852635,1,left
4.007,0.19743755042152275,0.9674212904592366,-7.972628937768334e-05,-1.8710868098137696,0.4728255909488429,-0.6734804766692462,0.08323593451929481,0.2016802210180689,0.011177075659627878,1,left
4.01,0.19274249105438207,0.9709761645247769,0.004641110242074772,-1.7722703917901776,0.4435150764362033,-0.5602806583408526,0.08022456504001148,0.20301670357384896,0.01596852890296014,1,left
4.01,0.18935789319855298,0.9717717070562782,0.01439342590515657,-1.831857279937425,0.4611911149123257,-0.6285533143743388,0.08186742094155755,0.20231748485604045,0.013365073163364525,1,left
4.015,0.18778196977703077,0.9703866330294492,0.02657162637533367,-1.807604597902022,0.45399483190060075,-0.6007810667424265,0.08144742386444562,0.2024268775351732,0.014006096796803084,1,left
4.016,0.18772398206435115,0.9677202268585638,0.03647581343725341,-1.807311299259826,0.4539107741788123,-0.6003722532394542,0.08109852260192059,0.20271003651143826,0.014606740411734924,1,left
4.021,0.19022482006400615,0.9650028563665327,0.044244876022979926,-1.8199129779517444,0.45764559604077515,-0.6149667963622738,0.08174406138271803,0.20226702855351886,0.01352404434024836,1,left
4.021,0.19418447712071868,0.9598883044572734,0.05037926483127868,-1.8048492306440909,0.45318034365876314,-0.5974803562419726,0.08112419467559134,0.20266644966628952,0.014554497512224793,1,left
4.025,0.19852843328586073,0.9546311083995841,0.05205987738215136,-1.8165422361810166,0.45664641704546527,-0.6111060303128487,0.0815945080372865,0.20246069741844847,0.013807207272841465,1,left
4.026,0.20615849909645922,0.9495193978270584,0.05140790768734404,-1.8102192535808905,0.45477158975534854,-0.603763013625874,0.08123936770279644,0.20238176918522655,0.014288253790372973,1,left
4.029,0.2207263552471604,0.9411057038684438,0.050954399162328745,-1.8118276785005323,0.45525090744609187,-0.6054053756887761,0.08158232882607286,0.20276826403730105,0.013933971587261472,1,left
4.03,0.23834970619806412,0.9328052619856899,0.05042494753159356,-1.8130493063602957,0.4556069513176038,-0.6074495174317133,0.08118293260171039,0.2021423299128789,0.014284035352607916,1,left
4.035,0.2538954106846937,0.924871337889225,0.04966477309991808,-1.8109321759567676,0.4549894972998495,-0.6039128805122885,0.08158780493504772,0.20281876298275592,0.013944102025039845,1,left
4.0360000000000005,0.2695249367137529,0.9165273478360818,0.04668628150369891,-1.8126813307981409,0.4554955741770239,-0.6072809626175422,0.08138684997335188,0.20241342880462515,0.014088044487376623,1,left
4.04,0.28412785035622623,0.9119320618325065,0.03979324976583666,-1.8116364097648245,0.4551957427433668,-0.6049960516850121,0.08105021290786793,0.2021358605921952,0.014472027353364158,1,left
4.041,0.29620423492149495,0.9112205418586068,0.027239399993466203,-1.8124510348002496,0.45543748019287583,-0.6059194806671296,0.08225606205585209,0.20346817710204249,0.013216948604181152,1,left
4.045,0.3069025310263871,0.9124543571830632,0.014272232671442243,-1.8109615568863988,0.45497692056870565,-0.6062326060324914,0.08006802248722882,0.20097621303065136,0.015467739418427846,1,left
4.046,0.3131564116721448,0.9181864154093956,0.006787044615776864,-1.8139215262775714,0.45589774068520417,-0.6050083263723477,0.08286682193475627,0.20418070778370653,0.0125948102494286,1,left
4.0489999999999995,0.3150928724014127,0.9265207158073068,-0.002583867567326056,-1.8094024360922674,0.4544933667155446,-0.6067165319368527,0.08053450170110965,0.20150361238967018,0.01498635487357325,1,left
4.05,0.3132784500962201,0.9364813209317258,-0.013542902990907161,-1.814356835133119,0.456031145816304,-0.6050523324042937,0.08058109892223198,0.20158323732392855,0.014948250389652971,1,left
4.053999999999999,0.30711811099372177,0.9495979065273186,-0.019965389455729586,-1.811495709359121,0.45514293172186165,-0.6060156589788313,0.0850828741758764,0.20666419003051084,0.010300579464486426,1,left
4.053999999999999,0.3006001823041078,0.9596215477714853,-0.027283524547947868,-1.808725437409715,0.4542875724551833,-0.6064980553352746,0.07403726148018716,0.19416760566303687,0.021692739864362293,1,left
4.059,0.29440811046131066,0.9695242141137557,-0.03455488315486949,-1.820455844293582,0.4579152166586511,-0.6039361472599514,0.09234679797047331,0.2148893566413111,0.0028119074071596036,1,left
4.06,0.2895094902807282,0.9787077902877286,-0.03717462899910409,-1.7987214625784615,0.45119318455148144,-0.6087098324180392,0.0681964279955756,0.18755774665488684,0.0277152573430554,1,left
4.064,0.2881794985591528,0.9810946558793615,-0.037445606539760326,-1.8266544270519083,0.45983240521040936,-0.6026088188593013,-0.03319534925780255,0.07284165996041683,0.13228351185624615,1,left
4.065,0.2877199997735857,0.9867666602541509,-0.035898503838130306,-1.8033234643129026,0.4526160560566461,-0.6076894324495902,-0.05734934324112545,0.04551207224362528,0.15719087973103174,1,left
4.066,0.28687179130840457,0.9974797162981895,-0.034356334063015914,-1.803922224700914,0.45280305579277724,-0.6075145772269219,-0.03903517832657465,0.06623111764061147,0.1383054144007369,1,left
4.069,0.2867816778878458,1.00677393497975,-0.03063020153944959,-1.8485478075533526,0.466600829638415,-0.5979847339742846,-0.050081805689433864,0.05373553453493225,0.1496969334921911,1,left
4.07,0.28686953599196297,1.0170566180593812,-0.021626845731632774,-1.7388893804206442,0.43269243614532316,-0.6214371762441078,-0.04558787037002954,0.05881996517339725,0.1450615960278973,1,left
4.074,0.2835386569356605,1.0291489103060834,-0.016845620428879965,-1.9207091439621604,0.4889165516177625,-0.5825534154373551,-0.045520953174797756,0.05888958176730176,0.144995560679882,1,left
