time,gFx,gFy,gFz,ax,ay,az,wx,wy,wz,subject_number,foot
2.655,0.2097785571164399,0.9697373568162041,0.0810847401361951,-1.4606606338344603,0.8131920961775774,-1.0228112503849767,-0.09173733478571708,0.1647620179888687,0.25852691561001473,3,left
2.655,0.22084301257265165,0.9657621524886709,0.09297740559569817,-1.46314899783636,0.8230120989241141,-1.0254058359017466,-0.09133647601901265,0.16463436439631923,0.2578333239442422,3,left
2.66,0.23689874160897598,0.9598654071008933,0.10681514000348544,-1.461925446939846,0.8177808294933735,-1.0240314883340704,-0.09162759241124532,0.16479645046332841,0.25825382798051183,3,left
2.661,0.2559605666358108,0.9523509522978152,0.12169635995302494,-1.4619276259956853,0.8188259515655754,-1.0242879699708736,-0.09136181412747567,0.1645529546220944,0.2579844828926118,3,left
2.665,0.27443270223846145,0.9444990045799357,0.1355228782141607,-1.4627904481540723,0.8205042649446342,-1.0247637544274621,-0.09166260730218902,0.16488576558759904,0.25822063775956605,3,left
2.6660000000000004,0.29273951230799544,0.9359912135192027,0.14640208368928415,-1.4615563039285857,0.817739883438723,-1.0239941403696577,-0.09135978699432981,0.16453671578221024,0.25799974131869696,3,left
2.668,0.3111317429076683,0.9265621991686143,0.15394072428066286,-1.4626251282074425,0.8202849385023959,-1.0246976485723633,-0.09150661438150313,0.16472933304408743,0.25807867955947694,3,left
2.668,0.3309252436702591,0.9180601123269474,0.15724931926416713,-1.4622496873515973,0.8187637339749869,-1.0242964597871316,-0.0917725606602525,0.16494003485256886,0.2583879544895972,3,left
2.674,0.35032309964156916,0.9118203636649479,0.15591857055975167,-1.4614844295558203,0.8189255961954283,-1.024280253270771,-0.09083680127656964,0.16409119734938193,0.25742924829810887,3,left
2.675,0.36670603530581947,0.907420592437334,0.1499682083785167,-1.463612410144603,0.8200761665538769,-1.0247185346511931,-0.09253099698866143,0.1656519454671954,0.2591359539274176,3,left
2.678,0.3837722065846221,0.9049936572712491,0.1415816628248015,-1.4603469454386278,0.8179955481821788,-1.0239685856119354,-0.09036480423901949,0.16365115385345236,0.2569603863307198,3,left
2.678,0.40218620898580293,0.904051697745456,0.13372560234582848,-1.4638451062453388,0.8202813847093093,-1.0247860062999279,-0.09216951698768856,0.16531981187613926,0.25877029036920973,3,left
2.6839999999999997,0.42356493477286017,0.9033459964069874,0.12223438805584556,-1.4617967673935846,0.8188534457003189,-1.0242852753732385,-0.0921349962626784,0.16528039581066534,0.2587458902114521,3,left
2.6839999999999997,0.4473103369161469,0.9047890089230561,0.10921760199200964,-1.4601646129484758,0.8181533170522514,-1.0239941857884522,-0.08864675153564347,0.16208079471192827,0.25521387619838726,3,left
2.688,0.4706010839337531,0.9079822142007713,0.10079531594749162,-1.4675268999683553,0.8220863528276245,-1.025498427612963,-0.09720357170800857,0.169937241651547,0.26386638507104365,3,left
2.6889999999999996,0.4958160824845241,0.9125027801613237,0.08911559811798975,-1.4538332741328621,0.8146355408617179,-1.0226669739281584,-0.08302028979454154,0.15691410662151914,0.2495272716182716,3,left
2.696,0.5113857588006621,0.9166719978982016,0.07822513533174924,-1.4714264369346797,0.8242381409208894,-1.0263124378511868,-0.1017276673063371,0.1740896071908933,0.2684403042557013,3,left
2.697,0.5156422556024283,0.9169199176776172,0.07497179070936474,-1.4567336145921987,0.8162068347149107,-1.0232645920054733,-0.18027174690235412,0.2462111681052621,0.34785851320092004,3,left
2.697,0.5226740444689297,0.9218489551769564,0.06739580239423756,-1.4571486419865143,0.8164796187981949,-1.023363049546907,-0.19898100612472658,0.2633841781911551,0.36677534465977324,3,left
2.698,0.529102663423168,0.9315026070122274,0.058687532638517566,-1.485111398494963,0.8316126454593795,-1.0291237174469225,-0.18479568881439257,0.250363737208512,0.35243212126748574,3,left
2.698,0.5297017509978048,0.9386987759351455,0.05758476297409203,-1.4163585638554794,0.7943515366906677,-1.0149444976425355,-0.19335173293636482,0.2582212107114916,0.3610830664653997,3,left
2.705,0.5223916825073565,0.9509798621686062,0.05750585973322844,-1.5303643334454118,0.856150058898943,-1.0384612782222815,-0.18987024502103572,0.25501266797601396,0.35756468695256627,3,left
2.705,0.5155231053647046,0.9607001906395712,0.055396558708439056,-1.379983833233227,0.7746353027781752,-1.0074394615555922,-0.18982118856457686,0.25499248855704804,0.3575109511280377,3,left
2.708,0.513198794739957,0.9634295032750225,0.05576046367490247,-0.7488208492123712,0.4325637327527994,-0.8772621254395794,-0.19164674067952947,0.2566335670646511,0.35936291601420445,3,left
2.7089999999999996,0.502012378160682,0.9731728950982271,0.055256333263930604,-0.5984232770714885,0.35105160471411784,-0.8462343710799269,-0.18945979867248824,0.25466023647789243,0.35714546527305735,3,left
2.7089999999999996,0.4867509101211746,0.9840600841879216,0.04726336046435952,-0.7124565706400114,0.4128493807237913,-0.8697613203745238,-0.1911629428434653,0.2562091401549793,0.3588702414370361,3,left
2.7119999999999997,0.47137014935224003,0.992546396932477,0.03961275520593631,-0.6436786941321201,0.3755797621418542,-0.855571280730149,-0.19024501137130928,0.25533671121295665,0.3579475037115464,3,left
2.713,0.452970951137013,1.0036200791466812,0.03651209596810491,-0.6716462902918865,0.39073753492539076,-0.8613379821796683,-0.19045354674282777,0.25562338974218357,0.3581409193687405,3,left
2.717,0.43472460098657445,1.012882861291783,0.035482211955722306,-0.6720950698211913,0.3909673056293336,-0.8614417249593258,-0.19069928544632248,0.25568510607657113,0.35841948505192256,3,left
2.718,0.41261761850491163,1.0211438272818367,0.040139959856823226,-0.6573184933903394,0.3829894805339271,-0.8583716757570541,-0.19027508686352468,0.2554966937527167,0.35795359882080513,3,left
2.722,0.38906779094303157,1.0284389705226804,0.049429605703238566,-0.6750392286079818,0.39254905688465,-0.862057519074661,-0.1906726326488499,0.2557014528734807,0.3583850666620705,3,left
2.7230000000000003,0.36767868988656416,1.031616084054362,0.06277613251150824,-0.6612085294371512,0.3850978067499048,-0.8591747147603219,-0.1904077534460074,0.2554567787973083,0.35811747300783014,3,left
2.727,0.34649198786389906,1.031243572225491,0.08187745698651651,-0.6686502899809295,0.38911157492885484,-0.8607224634550168,-0.19051923800897502,0.2558565803092846,0.35817550278983146,3,left
2.728,0.3262467293234105,1.0301333717920014,0.10308531672009971,-0.6670872928099147,0.38822671021360744,-0.8604257170348748,-0.19052883083202699,0.2551857351918323,0.3583102656321664,3,left
2.7319999999999998,0.3060039653577417,1.0289907412153174,0.12315326673895342,-0.664735225897567,0.3870743234362177,-0.8598583942582778,-0.1904511984348766,0.256128312257082,0.3580451396771074,3,left
2.7319999999999998,0.28633970370417394,1.0275711000887147,0.14318981531925784,-0.6688020903813673,0.3890673816849938,-0.8608385880139211,-0.1905457451767022,0.2551344059408103,0.358339755096572,3,left
2.737,0.2680426733510416,1.0279582833807925,0.1611940823770048,-0.6647905830804566,0.38715238785079464,-0.859837827769764,-0.190472511115298,0.2556914741779461,0.35815061006318744,3,left
2.738,0.2528399263589265,1.0272784489966669,0.17010880806157147,-0.6675854338783266,0.3884604579155517,-0.8605524478748823,-0.19050155926788653,0.25625671644773323,0.35808108731560884,3,left
2.742,0.24439474374001224,1.0252455842863917,0.17447313707515533,-0.6666598202416831,0.38795710138092765,-0.8603627308058568,-0.19052528936517077,0.25392230695643275,0.35853856813089025,3,left
2.742,0.24170415494414743,1.0225289717373376,0.18256642305834847,-0.6654286850822476,0.38767302387225966,-0.8598525735756375,-0.19045408112105078,0.25822616813554267,0.3576623804198141,3,left
2.7460000000000004,0.24568862208789374,1.0175800200622829,0.18961433322086646,-0.6687543861082335,0.3885995816345138,-0.8611241153924013,-0.19055158019295632,0.2527057078080166,0.3587938559548711,3,left
2.747,0.25360209786380217,1.0149896502214446,0.19731121520042585,-0.6639122096354593,0.3872820747930994,-0.8592517424201911,-0.19046778156812624,0.25731177388142346,0.3578464190314921,3,left
2.7510000000000003,0.262882703545151,1.0115433787895323,0.2089165210669407,-0.6689160198766726,0.3886007408697323,-0.8612151999298872,-0.19047937530437115,0.2571967655870325,0.35788239561758156,3,left
2.752,0.27683130689563484,1.006035999226266,0.21939617429914415,-0.6660232760056626,0.38783823611243295,-0.8600802608794469,-0.19060841199163603,0.24838309196578107,0.3596557390406082,3,left
2.7569999999999997,0.2926598984461718,1.003213692623647,0.2286913739128813,-0.663879497467976,0.3873697448383636,-0.8591745121906236,-0.19028042289868347,0.2700337889871417,0.3552842432772665,3,left
2.758,0.3111750369846492,0.9983336277404897,0.23163058694914274,-0.6737141978907626,0.38966366157503257,-0.8632327468212155,-0.190826837656785,0.23414017750331534,0.36253653111196493,3,left
2.761,0.3243573919463556,0.9939421672458022,0.22881762521867838,-0.655453490174577,0.385398245377059,-0.8557017638951073,-0.19010621799321564,0.28148167682318037,0.3529691751394539,3,left
2.762,0.3297958010747405,0.9924503378571252,0.22714279984730085,-0.6788717031080691,0.3908586325732425,-0.8653662170804559,-0.1870931846738053,0.4802192438250336,0.3128314628538048,3,left
2.762,0.3461958173755293,0.9898294639260206,0.22067982851938175,-0.6593347660963271,0.3863084416416026,-0.8573001431606476,-0.1863745690223489,0.5275572930493466,0.30326166085112555,3,left
2.766,0.372958176874988,0.9885248459731344,0.20736540932767145,-0.659899240211736,0.3864487490440571,-0.8575270694408175,-0.1869184359526676,0.4916696112302269,0.3105183636144732,3,left
2.767,0.3995852884209128,0.987126891468468,0.1932001621243986,-0.6969978507357019,0.3950465399117681,-0.8728726511257218,-0.18659096683540527,0.5133139465262477,0.30614161037128695,3,left
2.773,0.4260557698724423,0.985453117575025,0.184528954299379,-0.6057884893894303,0.3739049452105925,-0.8351472304129369,-0.18672442363342925,0.5045039330266163,0.3079190891021877,3,left
2.7739999999999996,0.45501990032306605,0.9853898603372493,0.18004347687021588,-0.7570132480105889,0.40895252863843673,-0.8976988732827063,-0.18672465502975258,0.5043917667639408,0.3079547953862586,3,left
2.7760000000000002,0.47278172865178225,0.9844178252363956,0.17651482666532428,-0.5575593927721221,0.3627349966733886,-0.8151934208191182,-0.18665863040691952,0.5089851773081597,0.3070008386502324,3,left
2.7769999999999997,0.4770265248942054,0.9849194502821916,0.17450505987199494,0.279564133180187,0.16875940285917818,-0.46890733624743447,-0.18673657813518485,0.5034880378429585,0.3081474349803777,3,left
2.778,0.49399804477695725,0.986716021488919,0.16485438601117322,0.4790009182869904,0.12256203814772235,-0.38639915763560906,-0.18667724549575254,0.5077619313446098,0.307248699363469,3,left
2.781,0.5152662565595135,0.985368892601105,0.1491151558892963,0.3278028432132182,0.15757809644701914,-0.4489550618000326,-0.1867098386161975,0.5054533643486199,0.3077301196263962,3,left
2.782,0.5316144674086629,0.9828121683863307,0.13675252350083653,0.41899013188885303,0.13646258005209722,-0.41122611652671,-0.1866967019698224,0.5060142657472021,0.3076469994400236,3,left
2.785,0.5539350192882598,0.9788621030225916,0.12173721671607077,0.38189024467394356,0.1450618774390247,-0.42657149327462884,-0.1867038932251136,0.50653402596241,0.30744522959678405,3,left
2.786,0.5725637547676788,0.9709017744203341,0.10628022401657616,0.3813685923143227,0.14515159639599795,-0.4268052598616549,-0.1866915213718739,0.5056334564285012,0.3077936167643175,3,left
2.79,0.5919828759918737,0.961374660713946,0.10022257484101399,0.40081204622135136,0.14071184681380938,-0.41872425476093555,-0.18671140058828734,0.5064306070461034,0.30742845551107045,3,left
2.7910000000000004,0.614072900554139,0.9519557799012475,0.10186183959131026,0.3775270027928026,0.1460149045273446,-0.4284099764513657,-0.18669362093866454,0.5059219036608549,0.30769389357809795,3,left
2.7960000000000003,0.6278736701425626,0.9465468562232928,0.1102343249751839,0.3956558193649128,0.14190531070740298,-0.42085793102162217,-0.1866889256302089,0.5062167098659055,0.30763579490523185,3,left
2.7960000000000003,0.6398737350359054,0.9467687187223972,0.12271850328774317,0.38587827951292475,0.14413168930874842,-0.4249252905409,-0.18674080276902488,0.505915412417024,0.3073948537048301,3,left
2.8,0.6481677897749182,0.9477769664169831,0.12957652751342102,0.3881329757235957,0.14353216840925348,-0.4240372628634611,-0.18662469351805852,0.5064425312588363,0.3079780582794187,3,left
2.801,0.6526016595521192,0.949401890631605,0.1318610124730737,0.3906671307362021,0.14319329678612985,-0.4228450467665075,-0.18679847104161607,0.5056187596338311,0.30711558697317787,3,left
2.807,0.663070991402332,0.9530308255199598,0.13748176105959806,0.3862812035180221,0.14378198892019955,-0.4249071903717916,-0.18661248032150046,0.5065465670485059,0.3080249769698701,3,left
2.807,0.6750338372902249,0.9560768208772619,0.1442029789623195,0.3903652330243833,0.14336017952945085,-0.42291373708229,-0.18671990825056534,0.5060111251220614,0.3074993705882205,3,left
2.8110000000000004,0.6859141024256575,0.956637204672855,0.1487729528632388,0.3876439154689429,0.14357267978099722,-0.42428179001587496,-0.18681428137821082,0.5054389406849703,0.30706874051261307,3,left
2.812,0.6931610462292593,0.960151424205953,0.15008249553350694,0.3888802319519308,0.1432825282029096,-0.4237724884776688,-0.18640362520192535,0.5077996032369656,0.3089825905464504,3,left
2.8160000000000003,0.6879977496303783,0.9699272924888314,0.14527384133502114,0.3886850367908594,0.14410325934572077,-0.4234037298941551,-0.18716499809978382,0.5034291374114472,0.30543174721378497,3,left
2.8160000000000003,0.6723078191124295,0.9823871854546905,0.13587599632749464,0.38845177444555057,0.1423850626550941,-0.42452749472740486,-0.186187307555955,0.5090498694872692,0.30998951909333206,3,left
2.82,0.6500503928662715,0.9979075431825086,0.1182741298282345,0.3886417643307055,0.1449848929758355,-0.4229163914378094,-0.187003460881893,0.5043536946063805,0.3061850497059537,3,left
2.821,0.6263001904172343,1.0173128172611607,0.09618621563629508,0.38864877475228815,0.14216488813009256,-0.4245471818392519,-0.18698186748381646,0.5044681137868567,0.3062909855691056,3,left
2.827,0.6096439073216949,1.0349070282556911,0.07595506543455509,0.38864687224024985,0.14379377128476883,-0.4236040184648811,-0.18542409105549185,0.5134749248860062,0.3135338270938943,3,left
2.827,0.6001440293427748,1.0480111689418485,0.05301790667170594,0.38818095648190676,0.1453055139004096,-0.4229830543805151,-0.18925216044553744,0.491348171833813,0.2957288425404355,3,left
2.83,0.597897081414305,1.0633039028558025,0.045556014554471336,0.3896192549768713,0.1388287060162738,-0.42594924566230596,-0.18290545147968418,0.5280347860007482,0.32525094283751155,3,left
2.8310000000000004,0.600052314064559,1.0746101836615451,0.052991563727477875,0.3869814883200005,0.15083308930063283,-0.42043611323787333,-0.19127645468109997,0.479643541570316,0.2863114221004103,3,left
2.8310000000000004,0.6011430602813228,1.078611727437842,0.05908734375871347,0.3904075566223211,0.13540993298350124,-0.42749927666963394,-0.2264235025370358,0.27645779098218065,0.12288827761542204,3,left
2.835,0.6090095706587975,1.0881734972338344,0.08355405975084729,0.38752863519913494,0.14829005466295597,-0.4216098170651421,-0.23479491624187734,0.2280607723650815,0.08395037555016305,3,left
2.8360000000000003,0.6176353872158503,1.101695102706773,0.11369032434587667,0.3875609749580057,0.1479526537058736,-0.4217896785437141,-0.22844654522554128,0.26476029469127904,0.11346780753534705,3,left
2.84,0.6205193796676948,1.1125522083740043,0.12447691442823808,0.3932497817247098,0.12334482300161609,-0.43293262965902296,-0.2322787595745938,0.24261232472668265,0.0956724890497195,3,left
2.841,0.6233037550817038,1.122654191569824,0.13362803293146097,0.3793000801346432,0.1838194699473863,-0.40552928303373625,-0.23071356291414272,0.25164705208710086,0.10289983908866805,3,left
2.844,0.611872397629166,1.139286996160506,0.14521396135793624,0.4024318169671186,0.08354881603167476,-0.4509629804488846,-0.23070199370302963,0.2517338999059541,0.10302487666244446,3,left
2.845,0.5974810435467832,1.1531195662376095,0.15085862878257122,0.37191876954906306,0.21580808634780418,-0.3910435362683478,-0.23150853111280537,0.24705124144390755,0.09920441218281215,3,left
2.846,0.5921580348674484,1.15791566333454,0.15075174133874142,0.24406615241691984,0.7709908309542198,-0.1396502032229494,-0.23053447441116748,0.2526910100841314,0.1037638809644525,3,left
2.8510000000000004,0.5677609618685928,1.1771595120438394,0.13371040277569302,0.2136207261486936,0.9032539118025894,-0.07975599101252123,-0.23130531270670718,0.24825198527029907,0.10023873182912643,3,left
2.852,0.5253447608891786,1.2092385209778929,0.0994840618600826,0.2365937395637892,0.8029776524870168,-0.1251395514131141,-0.2308661126772729,0.2507353523071779,0.1020902316749131,3,left
2.855,0.481905293088733,1.2423753369281156,0.06579556698278685,0.2229192749123207,0.863455983003232,-0.09780671372291437,-0.23100869553955383,0.2500071182036157,0.10175569076125093,3,left
2.855,0.436223817397863,1.2804533973803323,0.04197645284844552,0.22822597031395467,0.838851001256339,-0.10887345279058247,-0.2310578869589665,0.24960475677000227,0.10112399055293848,3,left
2.859,0.385798914002896,1.3203158152579848,0.029533111392119782,0.22866307766830476,0.8385002374093126,-0.1091058852042662,-0.23091699519620068,0.25051345297783023,0.10210042448311374,3,left
2.86,0.33403671102003557,1.3640880705287675,0.024670416656296903,0.2255379588789509,0.8514053099238532,-0.10323024297004976,-0.23109422037626226,0.2494894774297679,0.10127886550477806,3,left
2.864,0.2868983469457692,1.4074173702831891,0.029313493079623536,0.22879182028722583,0.8359500733774811,-0.11016823993382316,-0.23088742174379187,0.25051077964599666,0.1016451856032684,3,left
2.865,0.24203835684110075,1.4439860612156914,0.04377470976287805,0.22700334570510983,0.847981734054002,-0.10491598658862947,-0.2311410496184516,0.24944317151797155,0.10182675866553784,3,left
2.8689999999999998,0.1969508928750908,1.4797401493188023,0.05508495541812421,0.22680385681477283,0.8415015129567794,-0.10751299063851152,-0.23083977116743212,0.2505897903482916,0.10119700875947651,3,left
2.8689999999999998,0.1461715064634811,1.5143128325464033,0.06111049638233111,0.22854143407874228,0.842970993266384,-0.10726119306337083,-0.231132773549047,0.2495307907192058,0.10199982872970087,3,left
2.8739999999999997,0.09015979152901027,1.5472239010714832,0.0545632953222665,0.22648737228534077,0.8447029212792625,-0.10614757200043734,-0.23098229966515657,0.2500330471572805,0.10144752346324085,3,left
2.875,0.033536124300804035,1.5804736660704726,0.028016368478667373,0.22715937012594,0.8417243734259351,-0.10749292693366841,-0.23079407239116834,0.25080684095126765,0.10124640064122471,3,left
2.878,-0.0238440570103734,1.608792333698324,0.0025341358715793676,0.22958998862958965,0.844498496280271,-0.10684862319764599,-0.2315099732806319,0.24804934448821617,0.10263425283771574,3,left
2.8789999999999996,-0.07106053498920673,1.6288658691450455,-0.012038552333984504,0.22299454631995724,0.8426716574181382,-0.10627860727490067,-0.23020769112835587,0.25301428217458766,0.0999400230139372,3,left
2.883,-0.1090207889220052,1.6423635041297011,-0.02436730931736029,0.23328992615783412,0.8434216321386041,-0.10802247890875895,-0.23187092623365602,0.24669307929150072,0.10344370026485405,3,left
2.884,-0.14142064822031875,1.650312853001523,-0.033895160241299946,0.22211269572932263,0.8434932697279223,-0.10577021409119955,-0.23048585965997245,0.2519469153851248,0.1004987724634946,3,left
2.888,-0.16907322260647406,1.6544101946058904,-0.04356950463438343,0.22867632687572242,0.8430052961702836,-0.10727177571014702,-0.23051830765698672,0.25184144528377655,0.10061046970415312,3,left
2.889,-0.19711407115479224,1.6580599306406592,-0.06003753538157103,0.23410903304909475,0.8435278136424704,-0.10814535764392874,-0.2331730155371824,0.24172624515846203,0.10614181480835377,3,left
2.8939999999999997,-0.2261662948478986,1.663285468534875,-0.07189637302577928,0.20985741054888446,0.8432319129952108,-0.10343390360279885,-0.22665479403184985,0.2665339235429162,0.0924978741773522,3,left
2.895,-0.27116426483827566,1.6688460671422973,-0.06654424743298293,0.25497355113662706,0.843198028020982,-0.11242961953160162,-0.23746051962461973,0.2254236271413639,0.11514156659406286,3,left
2.898,-0.30500709691672445,1.671853533266896,-0.057569772004702584,0.1969746699138376,0.8435041452558323,-0.10076529328427213,-0.22320750191399108,0.27963801570627456,0.0852629240657975,3,left
2.898,-0.31382783310942863,1.6725091137735562,-0.056149092701158046,0.2454330703974756,0.8431286854851598,-0.11054944205801445,-0.16339327565098186,0.507263613952266,-0.04005961758885367,3,left
2.8989999999999996,-0.35399121255975674,1.6734628414163364,-0.06355844871247132,0.24406971812579994,0.8432582813320271,-0.11024931667366408,-0.14913791629569587,0.5614718641373913,-0.06994960804329056,3,left
2.9019999999999997,-0.4088818954406475,1.6750469757304636,-0.08746597250022964,0.15178152820960888,0.8437393451602845,-0.0916542642507395,-0.15994547856052355,0.5203722373960789,-0.04729039961831477,3,left
2.903,-0.4455606185814941,1.677736882849873,-0.1171888582018091,0.378714320806845,0.8423370427981075,-0.13742018670827935,-0.1534306888321852,0.5451681732154061,-0.060941140776078,3,left
2.908,-0.48437450554546735,1.680708672424853,-0.13705385425626404,0.0023846711452866626,0.8447814503331947,-0.06151301369785033,-0.15607190439349006,0.5350603590345989,-0.05542687520425683,3,left
2.908,-0.5063726448658048,1.6817059112970907,-0.14518988437724542,0.4988171089237176,0.8414790506416261,-0.16164058450848987,-0.15612998342175732,0.534958648662076,-0.05526263176994259,3,left
2.9139999999999997,-0.5107071199269756,1.6817116449003033,-0.14715673362397724,2.58205736474132,0.8280460983706062,-0.5820631157883467,-0.15471088874184155,0.5401913608571589,-0.058295547730576186,3,left
2.915,-0.5226274972128124,1.6797584697967591,-0.15745636602036242,3.078573106513838,0.8246572551818148,-0.6821813593421251,-0.15640460922305688,0.5339108451831855,-0.05468845465558066,3,left
2.9160000000000004,-0.5265239370385745,1.6737650136887898,-0.17237243904719757,2.702147519793028,0.827220405195756,-0.6062728611658922,-0.15509548595948724,0.5388217337294312,-0.05745664269728171,3,left
2.918,-0.5160419513822164,1.665226921552374,-0.17676490761151584,2.9290666039979696,0.8257643569339301,-0.6520830598614478,-0.15577066260485856,0.5361133879808382,-0.05608999736251262,3,left
2.9189999999999996,-0.502372904702732,1.6551647679574004,-0.17417991783630205,2.837034973299807,0.8261193216067235,-0.633371165672761,-0.15568859449541772,0.5368735193083939,-0.05610651370634068,3,left
2.9219999999999997,-0.4878859558269122,1.6445597481974454,-0.1740718564189032,2.8350912707511475,0.8266432474617426,-0.6332667464297741,-0.15536941115168657,0.537317186847732,-0.05704292593352579,3,left
2.923,-0.4780655812601393,1.6357950747816976,-0.1699797825129064,2.8844044569754486,0.8256039168974015,-0.6428148799194011,-0.15585437328671015,0.5364173180349725,-0.055698590281807805,3,left
2.929,-0.4696306642662825,1.6263765090425104,-0.14851674416297742,2.8255260580236587,0.8266941174258515,-0.6313298843358733,-0.15542260042755993,0.5373067399894709,-0.05686483185479961,3,left
2.93,-0.45656503903621126,1.612132952648437,-0.12473605377683401,2.871074298356547,0.8260935083217362,-0.6403516337250936,-0.1556231572225848,0.5365369126378169,-0.056446818504945866,3,left
2.9330000000000003,-0.4407749039008515,1.596949086671147,-0.1170434689498556,2.847456720794855,0.8256505870809316,-0.6352479122251986,-0.1557776211771809,0.5373470094409755,-0.055638376103705645,3,left
2.9339999999999997,-0.41906147791771586,1.5825081089272013,-0.11174350509582351,2.8506384580072934,0.8275521611582193,-0.6369751461477249,-0.1552233536265461,0.5362616596021852,-0.05790767917348576,3,left
2.938,-0.3893900914908094,1.5632843382585557,-0.09504352152116441,2.861199011580631,0.8241738798458629,-0.6372386059940178,-0.1560983961626656,0.5376974102544777,-0.05442136364782019,3,left
2.9389999999999996,-0.35180775487336774,1.5397636325525563,-0.06767540787408959,2.8449907590690326,0.8283388628191857,-0.6362585026975478,-0.1551566531119653,0.5362009211765568,-0.05815653924723193,3,left
2.9419999999999997,-0.3055235679613593,1.5147605376212736,-0.041318112469878675,2.8594851441947133,0.8250089804907169,-0.6373577941059625,-0.15571489352914913,0.537011865341378,-0.055968802832590495,3,left
2.943,-0.2518106581499609,1.4850408902786434,-0.024928458074991243,2.8524940497626394,0.8250262093604381,-0.6359306636103884,-0.156126109377388,0.5379774453409001,-0.05422965931792302,3,left
2.947,-0.19162607519949115,1.4505318234874924,-0.0077882207893247195,2.8481263642365513,0.8310557184168181,-0.6384365040128286,-0.15421197184172022,0.5341875382087968,-0.062080906287696656,3,left
2.949,-0.12509616242122262,1.4142053515452955,0.020710969145307644,2.865119363069417,0.817230679221769,-0.6341251972082091,-0.15778229284583606,0.5411376462200402,-0.0474776471655405,3,left
2.952,-0.05202980380477563,1.3745898603961364,0.05880316338574714,2.83809006973168,0.8378660692410442,-0.6402178837616401,-0.15319338543460373,0.5322304297148251,-0.06623826754280365,3,left
2.952,0.01764011575554373,1.3354240533190254,0.09851353810621194,2.8672159344655173,0.8158662456442978,-0.6337861184752418,-0.15702600759212204,0.5396604196685615,-0.050572632302280124,3,left
2.957,0.08394417841847321,1.2998993772952012,0.13526816328038765,2.849893969519012,0.8285812252360503,-0.6374026917509249,-0.1569157571412294,0.5394845583786056,-0.0510104008993337,3,left
2.9610000000000003,0.14800473941805176,1.2680373128506293,0.16620463123349458,2.83740618625683,0.8395248308653493,-0.6410140374888309,-0.1496297286310273,0.5252322420768187,-0.08083523362365021,3,left
2.9619999999999997,0.20035337143379167,1.2448051941378726,0.19165769234925592,2.8960579878464836,0.7916022698399213,-0.6260173472526359,-0.16754496150419074,0.5602348770379229,-0.007514434617460333,3,left
2.964,0.25665414189428837,1.2241879908023727,0.21638778821537222,2.7865672304968916,0.8804806034190377,-0.6536829556470953,-0.13783959670955465,0.5022037625727946,-0.1290861048275008,3,left
2.965,0.29569121871759707,1.2093655307075384,0.22858226525679057,2.9273185460044866,0.766354630204984,-0.6181916977647668,-0.17701988491854367,0.578749384856855,0.031264506346148024,3,left
2.969,0.3059246023803296,1.2076733897036447,0.2310051137770311,2.8097499539574056,0.8616343940627417,-0.6478083473434637,-0.34148095882104224,0.9000476786744405,0.7043371489669141,3,left
2.971,0.3453437278950834,1.1976829119507855,0.24578722173206963,2.813176601456747,0.8590507272394322,-0.6470574507333735,-0.3806585362957592,0.9766027340915496,0.864682441885085,3,left
2.972,0.3992693771271356,1.1791001797976437,0.2624202183862357,3.0365474930313323,0.6773843756273626,-0.5904179672319014,-0.35095610554133794,0.9185614140508083,0.7431165286150914,3,left
2.9739999999999998,0.4386251550046515,1.1633014968308912,0.2720512357309678,2.487247505893164,1.1239062742798738,-0.7295712215446838,-0.36887244960278975,0.9535601657193067,0.8164395056511905,3,left
2.975,0.4843706155129082,1.1418221205897003,0.284166065647328,3.3980769183255584,0.38354729977606816,-0.49886401856539025,-0.36157670138653913,0.939341707107682,0.7865956077995764,3,left
2.98,0.5096257034430016,1.1296797359630228,0.29244962677832387,2.1967030577275715,1.360081956242564,-0.8031646524272591,-0.36148736996887,0.9390929989899464,0.7861988745309574,3,left
2.9810000000000003,0.5147593423458936,1.1269901369351258,0.2950187985994901,-2.8458183662962298,5.459015190267841,-2.0805331487563445,-0.36528999378683036,0.9466274346980191,0.8018056619878579,3,left
2.9819999999999998,0.5339281073772372,1.1159559064441562,0.29442061618962523,-4.047143047479866,6.435559013528857,-2.38484084632319,-0.3607309643207996,0.9376162142863357,0.7831036560238194,3,left
2.985,0.5477371483132648,1.1111395168222105,0.29017439745914586,-3.1363668507561764,5.6951901205976245,-2.154126000276401,-0.3642883826631582,0.9446111938458888,0.7976815975524014,3,left
2.986,0.5438082913782079,1.1177831047817584,0.2854930533999957,-3.6856870508197996,6.1417082491410095,-2.2932763500485116,-0.36234861366123483,0.9409106057927227,0.7897800789015528,3,left
2.989,0.5321627396316139,1.1351909237883315,0.27494516209915565,-3.462139710043934,5.960074791968326,-2.2366622129258413,-0.36284243862682475,0.9415884812364548,0.7916812665718507,3,left
2.989,0.5104938940928764,1.166565989345596,0.2592054902799046,-3.4590927482583145,5.957420345931471,-2.2358567774782796,-0.3632583156554894,0.9428951427080248,0.7935897344827196,3,left
2.9930000000000003,0.4829074156188462,1.200926931032676,0.24405156394131594,-3.5761169216302724,6.05280159496099,-2.265551627007635,-0.3624913140878135,0.940790294532263,0.7901973546500694,3,left
2.995,0.45709155378323,1.2390423129690458,0.22582629318111705,-3.435907766487234,5.93857456101947,-2.2299824953916243,-0.3632270056136919,0.942711042920785,0.79341028236988,3,left
2.9989999999999997,0.43923091486670096,1.277070600771344,0.20257904201274357,-3.545164530435211,6.027496505401465,-2.2576817102492246,-0.3626715851671817,0.9416300509564337,0.7911387603464328,3,left
3.0,0.4305016118848297,1.3082057792717565,0.18655527802607758,-3.4860473105029985,5.979660714951505,-2.2427518786854996,-0.363084443815104,0.9415400380252688,0.7924540397566278,3,left
3.003,0.43266890221666177,1.3404882493331973,0.20158750886545973,-3.5000345766718963,5.990324789059738,-2.2461478329376106,-0.3626943213151447,0.9428271959407564,0.7917133674609729,3,left
3.0039999999999996,0.45403282602271355,1.3717591011370411,0.23810579656732073,-3.5147727330716707,6.003521424129107,-2.2501355467381896,-0.3631438757130918,0.9406479818723761,0.7922760132641591,3,left
3.009,0.48017539449025115,1.3995073049233047,0.2462969624534098,-3.488817994235648,5.980930476920804,-2.2432482862702057,-0.3626891625842069,0.9430192889684721,0.7917769251547087,3,left
3.01,0.48732612503800277,1.4339558712790632,0.19993454025795804,-3.5133188967461746,6.002037156383084,-2.2497041345152193,-0.3629131903167686,0.9415730016526652,0.7919062955652743,3,left
3.013,0.4676957752089592,1.479106456864796,0.1307644007719139,-3.496303863156851,5.988216277800818,-2.24539602045831,-0.36329855137741607,0.9407035093777092,0.7928064728307223,3,left
3.014,0.420978358936391,1.5265703442291294,0.07468517391610409,-3.505362433386051,5.99337128816855,-2.2472280288297837,-0.36192628647768965,0.9451262611635479,0.7901569459440347,3,left
3.0180000000000002,0.3589893988505384,1.5651297355215337,0.020358273545826668,-3.5016323941251115,5.9953871091662965,-2.2473409075431854,-0.3644148857370615,0.9368128372194097,0.7948385646065561,3,left
3.0189999999999997,0.2955783226026476,1.5850901571097107,-0.036196229799072485,-3.5031329220208,5.989075593637278,-2.2461426924726684,-0.3612314392182581,0.9475126054713063,0.7888779915073924,3,left
3.023,0.238755736234241,1.5830672655153424,-0.08022127125347775,-3.502289329813034,5.996419141957693,-2.2476118622438106,-0.3638850591846692,0.938569895667203,0.793835180777332,3,left
3.023,0.195741810146287,1.5526829837995084,-0.11094484182918116,-3.5015827263681194,5.9912041794106266,-2.2464600201872296,-0.3638306013331288,0.9388505347931686,0.7937773245324993,3,left
3.029,0.17053092604770348,1.4995439896327794,-0.12788221068332264,-3.5068910954138786,5.99152280326304,-2.2469675579617014,-0.3587113996465542,0.9557756333124797,0.7840699391862321,3,left
3.029,0.1598811222561802,1.4383238226904504,-0.13482085838759483,-3.493342963558519,5.99800828138611,-2.247202510660751,-0.37127558845551945,0.9141305807061275,0.807844174082983,3,left
3.033,0.15322240607136672,1.3662300954259203,-0.12378311907680047,-3.5167226534279363,5.984558635544884,-2.2463233290788067,-0.3504453715025033,0.9831913381023982,0.7684415501693875,3,left
3.034,0.15051143360019947,1.3212435360656394,-0.10450126461748384,-3.487090458369206,6.002147831404584,-2.247551942981036,-0.37792465600920844,0.8921000922984426,0.8204211393526535,3,left
3.04,0.1486654023474907,1.3106332429690135,-0.09826305155557208,-3.5116759069231014,5.987334108052734,-2.2464855884258883,-0.4932711173540531,0.5097981282912556,1.038668775202825,3,left
3.0410000000000004,0.14296136963999345,1.2782870034148759,-0.0684148247063779,-3.511606402956782,5.988231167713778,-2.2466697927852515,-0.5207653141851301,0.4187126889457085,1.0906834226919377,3,left
3.0410000000000004,0.13767920102931702,1.245874801527287,-0.01417800556406099,-3.462759523049959,6.014850727554518,-2.2481942559090573,-0.49991301109883496,0.487766761808043,1.0512310068441777,3,left
3.042,0.1337821203252706,1.235166333568929,0.0332049035410827,-3.5821288063546133,5.948838278641871,-2.2442635581730483,-0.5124921455921851,0.4461207449276328,1.0750328278705206,3,left
3.043,0.14795672679978383,1.2278941299714243,0.09506864622830356,-3.3843728233107617,6.058440976826869,-2.2508290455014652,-0.5073829999476509,0.46306374425031416,1.0653646501431868,3,left
3.048,0.16684316137123142,1.2304194597190397,0.13985297421209059,-3.6452189805296538,5.913863190317807,-2.24216419702186,-0.5072778692949228,0.4633039048605934,1.0651645706912176,3,left
3.05,0.17371133305326414,1.2308407742794816,0.14917832974793926,-4.740746059662679,5.30771794981723,-2.2060305071856336,-0.5100273910623718,0.45442080442806193,1.070372006541164,3,left
3.05,0.2066187079637638,1.2316389251692104,0.18236996305290293,-5.001704525843651,5.16320075033113,-2.1973826719304403,-0.5067194067471081,0.46505925126153846,1.06410436971573,3,left
3.052,0.26225012203477294,1.244035837110471,0.22611184989413352,-4.8038270202287,5.272737893754702,-2.2039297485046014,-0.5093156702881152,0.45677593165693486,1.0690259498500563,3,left
3.053,0.31856187951515846,1.2560316331398198,0.2530473280038915,-4.923150130286895,5.206700526306487,-2.1999920625411944,-0.5079260774015611,0.4612429408664809,1.0663924559303442,3,left
3.057,0.3840483683147615,1.271755551741134,0.27657310562585047,-4.874706228534858,5.2335374994608115,-2.201577558044885,-0.5081534816676105,0.46021643323382155,1.066814974267314,3,left
3.0580000000000003,0.44847143130849265,1.2927591523009399,0.29090705443255327,-4.873769609935465,5.233966749767502,-2.201630426240528,-0.5087710171326576,0.4590488918928979,1.0680091812307013,3,left
3.062,0.5068190528128853,1.308778407123667,0.30164514870554937,-4.899598369964112,5.219823783844578,-2.200752394938836,-0.5077045442002346,0.4610693998892065,1.0659465441545357,3,left
3.063,0.5618740452393554,1.320039910140173,0.30755281507436016,-4.868728039893577,5.236745028129375,-2.2017934608911167,-0.5088342187985269,0.4591828644924808,1.0681391340607325,3,left
3.0669999999999997,0.6094740196338978,1.3268039226501802,0.3040979708983922,-4.892642066550636,5.223583622882715,-2.2009952348835005,-0.5080073603121242,0.4604427005044148,1.0665305788493469,3,left
3.068,0.650672241895602,1.3270670426408095,0.3010417374392069,-4.880156895061791,5.2306426054522355,-2.20139116322933,-0.5081737153193651,0.45987820244090605,1.0668450456137462,3,left
3.073,0.6843896454189015,1.320561538319531,0.29818180690472107,-4.882040763147868,5.229113687893535,-2.2013800270150297,-0.5089851328962325,0.459935877780584,1.0684619232610897,3,left
3.074,0.7130169176162976,1.3057101411925245,0.29989916514195136,-4.887234950807198,5.2270821869075,-2.201121953850199,-0.5070372244262846,0.4601143555483561,1.0645896276251605,3,left
3.076,0.7411272498445378,1.2827057245128857,0.309688000897807,-4.8791493618743855,5.230518755214266,-2.2014941687857297,-0.5099213421840436,0.45992023117471104,1.0703252543562725,3,left
3.077,0.7663788467248898,1.2521084084624932,0.32378061244339706,-4.886423926638555,5.227322183622187,-2.201170613003568,-0.506875743496468,0.46003151091079475,1.0642655810031028,3,left
3.0810000000000004,0.7879482954763017,1.2148332406473652,0.34045596447568494,-4.8827444980865495,5.2293655088972,-2.201291024027298,-0.5086356966725116,0.4599661617366365,1.0677674131177208,3,left
3.082,0.8078102331479204,1.171170410081956,0.35966355681924833,-4.881089920501974,5.228740591125433,-2.201500497864327,-0.5100891119989468,0.46012208381441777,1.0706650496175785,3,left
3.0860000000000003,0.8254295844271571,1.1232065093055552,0.38096815606049533,-4.888559525397821,5.228129232582086,-2.200900890065167,-0.5036460695086189,0.4597145468082434,1.0578270360990336,3,left
3.0869999999999997,0.8376460787564515,1.0765685679053794,0.4038848773181909,-4.876532096865177,5.22952908430921,-2.20182386964616,-0.5155985915642172,0.4604565785268352,1.0816429526650022,3,left
3.091,0.8446575119924828,1.0297133111346546,0.4295877322272532,-4.889518932562291,5.227946537021715,-2.2008352420060353,-0.5002565636188385,0.45948627486768095,1.0510722989646093,3,left
3.092,0.8486412789970192,0.9851232020712609,0.44995267089330127,-4.881754356688786,5.22900389702518,-2.201413980906736,-0.5130620177775467,0.46030419017661217,1.0765894989056108,3,left
3.096,0.845706762821449,0.9412137251379552,0.46884874410008237,-4.876350585214933,5.229205393568289,-2.2018735976520034,-0.5127096576880137,0.4603047574403888,1.0758863688679776,3,left
3.096,0.8404376582016178,0.897280754846139,0.4957846457890276,-4.902112339228161,5.227162620690015,-2.1997994112530797,-0.48831859168856784,0.4586489978588769,1.02728391058061,3,left
3.1010000000000004,0.8343475961294746,0.860129947864422,0.520892182163196,-4.853954062763795,5.231159330678388,-2.203655648087464,-0.5482720515285304,0.462701016768652,1.1467519000908317,3,left
3.1010000000000004,0.8191095753186828,0.8150961201942644,0.5438644912654034,-4.915879741023382,5.22598214164854,-2.198704194055762,-0.44886826203358754,0.4559814202685013,0.9486698606350424,3,left
3.1060000000000003,0.809715798894735,0.7840028636503189,0.5579495998657648,-4.8641423131404835,5.2303205239693025,-2.2028345933095137,-0.5799787085094305,0.46484966393570903,1.2099355919613732,3,left
3.1069999999999998,0.806078723933231,0.77639960462435,0.5594065273533697,-4.865685254080315,5.230136605989539,-2.2027290251984386,-1.1303219492120662,0.502147898050386,2.3065657710758556,3,left
3.1069999999999998,0.794599541276723,0.7478978949159267,0.5693021823955194,-4.963878769340701,5.222088090324126,-2.1948416138900564,-1.2614306847982255,0.511025463735868,2.5678265748337448,3,left
3.112,0.7859816992958907,0.7126404071631042,0.5812046945085994,-4.722355510406948,5.241943500199659,-2.214212547412612,-1.1620269534053045,0.5042891357180611,2.36975231478063,3,left
3.112,0.7736067026250253,0.6826437038466494,0.581070370582042,-5.1228653559118555,5.209008989594171,-2.18210710708627,-1.2219874680160387,0.5083608579084697,2.4892136607483115,3,left
3.1180000000000003,0.761540173725302,0.6588272175248493,0.5801189932545951,-4.594582021312947,5.252444404299103,-2.224443701878525,-1.1975771691227506,0.5066900256014342,2.4406113944941104,3,left
3.1189999999999998,0.7591038296850787,0.6531406714862737,0.5793346371619585,-2.3776119141349517,5.434858004882701,-2.4024556719719694,-1.1972574444020438,0.5066906036146358,2.439919794001314,3,left
3.1189999999999998,0.7464047286460262,0.633890179577395,0.57535853216679,-1.8493568421173285,5.47829127575732,-2.4448030847055673,-1.210023108539077,0.5075344599514495,2.4654109011265914,3,left
3.12,0.7288251095491822,0.6078695793387495,0.5745731146599071,-2.249796947286612,5.445334128091257,-2.412646662427285,-1.1947119567638098,0.506505901343187,2.4348781746177726,3,left
3.1210000000000004,0.7162887848980455,0.5915749945630409,0.5745403561000333,-2.0084007715765293,5.465278816880076,-2.432152266901197,-1.2066673973516366,0.5073332795541867,2.458655545180146,3,left
3.127,0.70259095883138,0.5731747918133423,0.5760225982730426,-2.1064097472543057,5.4570403688116755,-2.4240168653895884,-1.2001604192432365,0.506837023258873,2.4458360760510622,3,left
3.127,0.689639046647947,0.5586097977032323,0.5818765309001814,-2.1081587030275974,5.4571433681215025,-2.4242532702494852,-1.2017554054217394,0.5070400546404111,2.448761903002455,3,left
3.13,0.6777768860838538,0.5415043564691963,0.5819957521687728,-2.056278844572514,5.461167840572223,-2.4280467540011443,-1.2033079829455704,0.5070290220272218,2.452165252840853,3,left
3.1310000000000002,0.6671596508144761,0.5212551748733675,0.5782700830788581,-2.1181553018455594,5.4561814897179435,-2.4232391814788903,-1.2004780506946444,0.5069297762477102,2.446279430497095,3,left
3.136,0.6559819667331375,0.5047469598094756,0.576819868957585,-2.0703730393131115,5.460321942363429,-2.427389159248774,-1.2032482732458583,0.507118385526911,2.451797318100618,3,left
3.137,0.6436613088522917,0.4857064653604563,0.574984414779747,-2.0953595725991923,5.457594339633723,-2.4243715198472717,-1.2011656708919927,0.5068056266505425,2.44810521719119,3,left
3.139,0.6353326425301656,0.46530292171048504,0.5754076337666245,-2.0910466115237094,5.459105621057956,-2.4264597182086716,-1.2024952364851127,0.5072877414031709,2.4497084020863187,3,left
3.14,0.6295302688205296,0.44434931697813385,0.5764604625403686,-2.082200963257235,5.458414983788881,-2.4250331394303517,-1.2017196760098823,0.5066505541557892,2.449723671264076,3,left
3.1439999999999997,0.6224577989342914,0.4216984516423482,0.576836815295473,-2.0956665483119794,5.458437268874778,-2.425655038482185,-1.2021043868674006,0.5072996506850489,2.4488265422385664,3,left
3.145,0.6138771445394853,0.39808359364828777,0.577060341290536,-2.0845244646885144,5.459365102128827,-2.4265647958830847,-1.2021785964722174,0.5069449975892604,2.449935722849555,3,left
3.15,0.5993092078690698,0.3732979081909046,0.5758295343038049,-2.089084748027138,5.4568905014090054,-2.4230392468705846,-1.2013207315389078,0.5065758966840188,2.4490549299499285,3,left
3.1510000000000002,0.5807421870996431,0.35153546650737144,0.5795597418761498,-2.092480531192479,5.461406946472315,-2.429986343848137,-1.2033743790323994,0.5080740623962636,2.4495205751954803,3,left
3.155,0.565871134129263,0.33075230371592734,0.587139905748024,-2.0825484145830098,5.45507108157459,-2.4200137256707714,-1.1999678454700438,0.5053237451050281,2.449458054593072,3,left
3.156,0.5492006596631844,0.30752031474210095,0.5958121323113801,-2.094917249039101,5.461676899854433,-2.430501104704042,-1.2041969277096416,0.5088446830880557,2.44924922471907,3,left
3.161,0.5297695959946211,0.2883231694231782,0.6095948978219978,-2.086575634999545,5.457961461602361,-2.4245384731717365,-1.2007278860675963,0.5059104778522319,2.4495463766027665,3,left
3.161,0.5116643962008822,0.2720732841663194,0.6218864566923268,-2.0831002516557993,5.454443278123669,-2.4190970880809255,-1.2007265335436104,0.5059810577144541,2.4493484204564737,3,left
3.1639999999999997,0.49231276852383776,0.2557383883022091,0.6330697598813121,-2.105165115927468,5.469256096721345,-2.4423540542833067,-1.2075943146333994,0.5115986713904406,2.449286263342301,3,left
3.1639999999999997,0.4754156304034089,0.24275629009654634,0.6445777744136014,-2.0626249205857796,5.4419274165475455,-2.3993567670957154,-1.1908526080010282,0.4978057970667277,2.4497151970466797,3,left
3.1689999999999996,0.4590785515552572,0.2320762218404248,0.6447119506476305,-2.1178344085842076,5.4769621558974135,-2.454517510796914,-1.2185577979443873,0.520666894198002,2.4488975126743817,3,left
3.17,0.4472821478376836,0.22669489661338388,0.6409428069640345,-2.0714924172829683,5.447746345730218,-2.4084907942797393,-1.1820358452538513,0.49052033173246284,2.450018304010034,3,left
3.174,0.44524978289689177,0.2255031538285701,0.6387855102095216,-2.0731357532572385,5.44847652500658,-2.4096958570852376,-1.0286617958311353,0.3639744857657773,2.4545766636905806,3,left
3.175,0.4364009228662441,0.22109223813837567,0.6300452142982067,-2.160468214053693,5.504338640723178,-2.497565129208617,-0.9921511181914845,0.33384776407214395,2.455721182470791,3,left
3.176,0.42339535238533,0.21900711115584615,0.6205206852575127,-1.9452477541417679,5.3671409830484835,-2.2816580333067726,-1.0198276195594365,0.35667315693910884,2.4548441017349765,3,left
3.18,0.4169377584288849,0.2223328223831983,0.611942035488547,-2.302314612152437,5.5945588456448,-2.639609484955993,-1.0031396802458539,0.3429225489707334,2.455382725843881,3,left
3.181,0.4120918270532238,0.22386765380716284,0.6071090762361128,-1.8312556186023115,5.294647367667366,-2.167495177953149,-1.009927514757091,0.3485074014389439,2.4551594578387603,3,left
3.1839999999999997,0.410134511272535,0.2249935406277317,0.6065572531361942,0.14554692928408675,4.035229042304444,-0.1855966867229274,-1.0100177347760917,0.34857901330463104,2.4551436304972274,3,left
3.185,0.4096385437840442,0.23197769534494517,0.6008073565504805,0.6166436876078103,3.7353941559408765,0.2864906943036305,-1.0064818009303562,0.34569893962566745,2.455311366601486,3,left
3.185,0.41099092329523035,0.2429394175144822,0.5921504340708557,0.2594920349530111,3.96272553868205,-0.07142809406130313,-1.0106970449131345,0.3490965051406579,2.455066872940004,3,left
3.1889999999999996,0.4170822636132629,0.2541311261693272,0.5798899439414689,0.47485257606680276,3.8255091604738785,0.14447757431599687,-1.007445876842672,0.3465284314286591,2.455325284116272,3,left
3.1889999999999996,0.4274576096516469,0.2666266979919173,0.5647239258952941,0.3873348202600483,3.8816197729889406,0.05653745338032942,-1.0091671592644427,0.3478352483873177,2.4551174930007558,3,left
3.194,0.4409348341212044,0.2806757282807808,0.5472287202225907,0.3858758375648311,3.88179765619428,0.055502056696291435,-1.0087877180052245,0.34757113557410557,2.455194818134445,3,left
3.195,0.4521448027293794,0.294276625828395,0.5198043143695619,0.43212510034288976,3.8533878363494853,0.10127171514359509,-1.0083737674304767,0.34732584213274786,2.455340684855763,3,left
3.2,0.46055312778140345,0.30879756103489664,0.4892417045753008,0.3767936107115986,3.887602353089299,0.04638417419871197,-1.0090005835134328,0.34753259890032284,2.4548956739346863,3,left
3.2,0.46374534337147477,0.32401158026240096,0.4600154527543995,0.41978446794679597,3.8606603116726546,0.08923159042542544,-1.008565278865103,0.34770816547801897,2.4556411234663305,3,left
3.2030000000000003,0.4611968723052302,0.3366114425011698,0.42984556179119215,0.39690723511821213,3.876102052290649,0.06581373206928447,-1.008670296271101,0.3471387502551363,2.4547402398564375,3,left
3.2030000000000003,0.460340107604331,0.34878780654141534,0.4024199761216115,0.4014216643325384,3.870428199956337,0.07190020449206927,-1.0087724060221066,0.34774590959450746,2.455452468865386,3,left
3.208,0.45837028761189624,0.35854953563203706,0.375578612460594,0.4088687218801868,3.870500723359171,0.07667933132837684,-1.0087764038705627,0.3477539835754815,2.4554587386358886,3,left
3.2089999999999996,0.45172806061563797,0.3619351340775293,0.350255540030027,0.39664637094410765,3.872379537683265,0.06772086982671932,-1.0082891798799785,0.3463815034448985,2.4541464670818556,3,left
3.214,0.4464979751985769,0.3635611600038806,0.3343642521752237,0.4078831709942211,3.86992914744321,0.07636031865505138,-1.009528341668861,0.34962146945845163,2.457141488604591,3,left
3.214,0.44693155583205746,0.36369035413800277,0.3258962127573695,0.4012262195551911,3.8742111160667942,0.06966437335779854,-1.0075761370929301,0.34470279707855417,2.452676554664177,3,left
3.218,0.4520975556462895,0.3599737438210444,0.32213426348022334,0.40175397543623104,3.8651435361967885,0.07506042432186098,-1.0097178873407848,0.3499959184906552,2.4574346179072757,3,left
3.219,0.4612092922593548,0.3532717931378296,0.3253372807284045,0.4072019573683935,3.8816264168648402,0.06939905512681332,-1.0084607555848373,0.3469219376135168,2.454685558065056,3,left
3.2230000000000003,0.4729344351299621,0.3434664835280071,0.3283388383387158,0.3974812626806211,3.858052551755135,0.07624752717002758,-1.007369955255781,0.3442644040120575,2.4523174963902044,3,left
3.2239999999999998,0.4824109440033291,0.3322000696127902,0.32576839435818195,0.4081401045286738,3.8829933115576116,0.06924393811486942,-1.0121690287177743,0.35591200192915257,2.4626835761414085,3,left
3.228,0.491196537509488,0.32055106727080174,0.3216016439037488,0.4015131097895074,3.8688815657530142,0.07282167813166807,-1.0032460336329758,0.3342940115124352,2.443458972541525,3,left
3.2289999999999996,0.5003918395946007,0.30905592759954514,0.3193059699664771,0.39812131730666855,3.8552367835319235,0.07823023387290834,-1.0147198539591462,0.36206432393234605,2.4681451817703763,3,left
3.234,0.5092186024193848,0.29909688505868337,0.3171371729266369,0.41676359101158034,3.912529350116301,0.058363263824017436,-1.005132859809148,0.3388761270022044,2.4475340121426745,3,left
3.235,0.5260145886486182,0.29378609904243524,0.31407082222013355,0.3815064473762699,3.806717820523282,0.09452176759604046,-1.0053946754382013,0.3394997102579589,2.448096957927662,3,left
3.239,0.5442072696094206,0.2939729291246739,0.3139220788264171,0.426931186834699,3.942485860012592,0.048244123692326384,-1.0236813546920116,0.3837346401095394,2.487385505782199,3,left
3.239,0.5538395744283995,0.29448812998826335,0.31567770416439345,0.38894750233617126,3.829181097949679,0.08682046075700821,-0.9787249103861353,0.27501386346033596,2.3908094374969044,3,left
3.242,0.5627464808444798,0.29823639529500245,0.32211260555499105,0.3902113497283224,3.8320923558625837,0.08600681938430552,-1.0532730574642097,0.4552769699957233,2.5509433661157206,3,left
3.2430000000000003,0.5691026019840987,0.3037411342515234,0.33020446912660756,0.4618621176557135,4.0486489732570465,0.011685268182775349,-0.9549381142067139,0.21751152230161072,2.3397227172316235,3,left
3.2430000000000003,0.5701230490348279,0.3051519136140448,0.33184885026657196,0.28547838173429074,3.516565281372032,0.1940947509644005,-0.5422624273168317,-0.7806106298446025,1.4532768669759162,3,left
3.247,0.5716422695000409,0.3106195878131349,0.33924792561806294,0.5779980806123499,4.39873315688361,-0.10828986415354488,-0.44392804734805913,-1.0183819435485764,1.242061864681873,3,left
3.248,0.5726772436880834,0.31618109477221856,0.3498417838884489,0.19216556142596056,3.2351667212532305,0.2905624470074608,-0.5184653138344046,-0.8380991143783391,1.4021704571490585,3,left
3.252,0.5712089924570026,0.3174022552262135,0.34977838012448526,-1.4270773768479528,-1.6491629212032772,1.9649206882461026,-0.47354501844364116,-0.9468648553175809,1.3056601675533788,3,left
3.253,0.5665301310194206,0.32171720549253746,0.34951007677770096,-1.8128719378890625,-2.812741565020024,2.3638271766937953,-0.49175871684112804,-0.9025533033334322,1.3448285809803955,3,left
3.253,0.5598624789929059,0.32465211364243685,0.35263315342408097,-1.5203933152100668,-1.9305604777218655,2.061383944109731,-0.4921274541039276,-0.9020293296456483,1.3455562159661436,3,left
3.258,0.5532559679019329,0.3229416799443453,0.35215143224809986,-1.6967926424354094,-2.462639157803745,2.2437711374907208,-0.4824272709286721,-0.9251269489141245,1.3247840088475764,3,left
3.258,0.5471822328914133,0.3180728569633211,0.35134719354343613,-1.625005705597206,-2.246126329786109,2.169644013228928,-0.49396369753389074,-0.8973815769495859,1.3495367792734358,3,left
3.262,0.5435407092978303,0.31033150273496524,0.35188050875981525,-1.6240348815364625,-2.243120837314679,2.168412032172573,-0.48510673294396506,-0.9191099850151636,1.3304576358604754,3,left
3.263,0.5428691097801803,0.30060646540496166,0.3539584594990613,-1.6615983990298366,-2.356560725572046,2.2075881879214396,-0.4896376534684273,-0.9071617430737648,1.3403652066687282,3,left
3.2680000000000002,0.543087324857112,0.28877241506708784,0.36152316519869493,-1.6165920969499576,-2.220658112405849,2.160713244212479,-0.4890418033166522,-0.9103073633446883,1.3387836506179323,3,left
3.2689999999999997,0.5434996257309554,0.2751470435949199,0.3704042457514857,-1.6516686206914637,-2.3265277381084397,2.1971294821386618,-0.4871412646258544,-0.9128130585420563,1.335071408720276,3,left
3.272,0.5455463476337077,0.2587470748189036,0.3734355940893531,-1.6326671956044603,-2.269350662251134,2.1777753965944897,-0.4898502031352886,-0.9079277500437853,1.340595207630452,3,left
3.273,0.5463093692889235,0.24231270561151308,0.3730611187071665,-1.6372161982695181,-2.2826232980056207,2.1815317696549994,-0.4877781993944186,-0.9129539848582319,1.3361418464937853,3,left
3.2760000000000002,0.5426032702001367,0.22840975234402153,0.37461297546916694,-1.64184911041332,-2.297376335118753,2.187956311683615,-0.48825090867849824,-0.9087188191156887,1.3377047520849856,3,left
3.2769999999999997,0.5364270428338346,0.2160634212018962,0.37682909938242104,-1.633637678730354,-2.271648478616269,2.1774589595587157,-0.48974228872842396,-0.9121771638175018,1.3396571202533134,3,left
3.282,0.5271053483973681,0.20747013506703046,0.37423981251241534,-1.6414069248999663,-2.2958499618646515,2.187092862456378,-0.48661187062489714,-0.9092085611579285,1.3347993058781662,3,left
3.283,0.5140911572146845,0.20199779063171494,0.36924193294329966,-1.635942139264643,-2.2793724288998694,2.181456237408681,-0.49028013970041046,-0.9115715548354999,1.3406893605396464,3,left
3.287,0.502083081344028,0.19783220959733416,0.3660509650415071,-1.639034409800719,-2.287275878145831,2.181683444675583,-0.4879387970819457,-0.9107436993312189,1.3368093584278509,3,left
3.287,0.49367788573712107,0.1989208770767601,0.3611894272570816,-1.6374173330094917,-2.2856547804120364,2.1868001687513727,-0.48661015523646034,-0.9083590317647501,1.3349469118481712,3,left
3.292,0.48832498334141555,0.20337165393055623,0.35590134246876637,-1.6385248906513885,-2.284135226393361,2.177816919349353,-0.4936968877597118,-0.915712605353034,1.3458318059983598,3,left
3.293,0.48800160361883865,0.20527743520316605,0.35371679335927386,-1.6375868209523374,-2.286488905266131,2.1876448150763235,-0.48025446550270956,-0.9028036749223463,1.3250005120936192,3,left
3.2960000000000003,0.490444759983739,0.2076160474179538,0.35312892081421604,-1.6377455359120705,-2.2839701279151168,2.1815690753750134,-0.4976225743594216,-0.9191169344712522,1.3519802961142569,3,left
3.2969999999999997,0.4935629425453422,0.21137693113810463,0.3537744825926903,-1.6397823040100847,-2.2875374762310026,2.1782985775342523,-0.4830786457126962,-0.9056085836715688,1.3293602964967768,3,left
3.301,0.5085039121181423,0.2125259397316231,0.3537653469631269,-1.6339774616397462,-2.2813194919393487,2.195831721087319,-0.4835390612949106,-0.9058036361408925,1.3301184038182448,3,left
3.301,0.5296346490122252,0.21367441962068523,0.34936564065869735,-1.644182396811352,-2.291154033048193,2.162734893870436,-0.5110927817278363,-0.9320151417919524,1.3728606174824942,3,left
3.306,0.5475191629109518,0.21462393063129817,0.34481232041428994,-1.631203214973603,-2.2789083219182986,2.205363691488819,-0.44327482401409324,-0.8678369438800555,1.2675979873782977,3,left
3.306,0.5770906220501753,0.2101021021109417,0.3443059914258958,-1.6419901619097925,-2.288974646343312,2.1697215084653845,-0.5557526507071229,-0.9741545944455432,1.442201939850735,3,left
3.312,0.6007946955825121,0.20619530529154873,0.34381018585895085,-1.6418886499068717,-2.2892998335819783,2.170890460427315,-0.40738701445973635,-0.8339554359301227,1.211879335490365,3,left
3.312,0.607195415379409,0.2053321546944089,0.34367593550648906,-1.620690520094929,-2.268150859514768,2.238184428115131,0.21538992153802033,-0.24534446622106623,0.24511636249813185,3,left
3.313,0.6257909233967157,0.20211679998477486,0.34420770096354975,-1.6725730999618778,-2.319422410924348,2.0725419687057363,0.3637480527928494,-0.10515005704066882,0.014803639364690029,3,left
3.319,0.6470853438902318,0.20248868642542694,0.3441850879079068,-1.586600576671861,-2.2346018068276434,2.3472488838979384,0.2512701669754579,-0.2114427886371159,0.1894144681065567,3,left
3.32,0.6537631806447853,0.20476180970198138,0.34516098808552487,-1.700001579793052,-2.3464549690303187,1.9849043045904984,0.3191201833042595,-0.14733269945570265,0.08408554877180463,3,left
3.322,0.6563375278281851,0.20573609315442518,0.34568574062834634,-2.1761864409703433,-2.8169276726184025,0.4642894037697414,0.2914798031714023,-0.17341680810563231,0.12699150404388784,3,left
3.323,0.6580059071851063,0.21234885268379924,0.3497043404966723,-2.289625927659846,-2.928836597106778,0.10196503503998464,0.29116594681634533,-0.1737894755333228,0.12748299881464092,3,left
3.324,0.6535569792426457,0.22152862609934287,0.3566480862969751,-2.20361176336326,-2.843955663702385,0.37665008794856875,0.305531683667877,-0.16010371643445984,0.1051766566407773,3,left
3.326,0.6391810940606195,0.23303634134198606,0.3596080221458209,-2.2554785227335827,-2.895204262784602,0.2109992970019583,0.288301115185036,-0.1764971384468585,0.1319298045216079,3,left
3.326,0.6211118826284397,0.2474570919308916,0.361928311149054,-2.234418474279906,-2.874255426102593,0.2783658289169329,0.3017582867174994,-0.1637328144436987,0.11103715624494037,3,left
3.3310000000000004,0.5995666878585005,0.26092480308923405,0.3663752661566284,-2.234019841958464,-2.874150001670042,0.27937867054205784,0.2943827134201892,-0.17060464402151682,0.12248336997911305,3,left
3.332,0.573296343119037,0.27652900431840316,0.37123837153998834,-2.2452328158295387,-2.8848337285044163,0.24396030144420688,0.2963480647259641,-0.16906144851345054,0.11944362976297941,3,left
3.3369999999999997,0.5494260031340157,0.29131764421611595,0.37617282756203463,-2.23182937923025,-2.8719732226073207,0.2863662478638096,0.2977590856607859,-0.16718698825874176,0.11723399328814633,3,left
3.338,0.5239087149768353,0.3014813486632813,0.381053028133321,-2.2422174111805333,-2.882073019214471,0.2533655382543958,0.2950554488901921,-0.17040611014757473,0.12145448162783204,3,left
3.34,0.498120619963889,0.3097187855965121,0.38351356122198704,-2.236776792163112,-2.876383005714086,0.2710901355975206,0.2976814362616016,-0.16739492813084392,0.11735936843925747,3,left
3.341,0.47924926609013446,0.3153529003014106,0.3835194493643975,-2.237640143515964,-2.87824968292901,0.267203065436067,0.2955762964340599,-0.16937942833374875,0.1206271240095015,3,left
3.345,0.4648674023457331,0.3175257379730517,0.3852182155844001,-2.2398207908931513,-2.878661193463115,0.262189618447112,0.29743758972815354,-0.16860403547886882,0.1177721933115892,3,left
3.346,0.45559415842188533,0.3191221137620033,0.38454021302548835,-2.2364012117491825,-2.8774187166855505,0.2707139073455412,0.2952802519186142,-0.16839501301785553,0.12104250970489241,3,left
3.3489999999999998,0.4501303601268721,0.3189218705433809,0.380229656403682,-2.2394872847566054,-2.87876612796886,0.2627698176663419,0.29799658256655526,-0.1691814283311059,0.1169429846932202,3,left
3.35,0.4474944626649051,0.3143472110357586,0.37701917405976026,-2.2378875263858076,-2.8771707262233246,0.26789612140549374,0.29519437837974083,-0.1682545869313137,0.12116823663576091,3,left
3.355,0.4501684727394616,0.31023122838280676,0.37241307069482,-2.237308913834509,-2.879753508758075,0.2661941908605635,0.2966658848953478,-0.16892982628603492,0.11895578073207531,3,left
3.3560000000000003,0.4562860707990158,0.30420050110228564,0.36673627473877435,-2.240233885358763,-2.875435202538803,0.26496570838577527,0.298665627915614,-0.16882025678428098,0.11591413573860818,3,left
3.36,0.4659961558898163,0.2922215945818407,0.36008305545431957,-2.2354865208847596,-2.8814973080683344,0.26802384278872216,0.2911107041450698,-0.16816738824468064,0.12736937617376787,3,left
3.36,0.4779576764687402,0.28248665815849583,0.3494906345796863,-2.2406186533936836,-2.8751061994940645,0.26453584796441265,0.30490544879353515,-0.1695827996689848,0.10646005161997268,3,left
3.365,0.4915727117030747,0.2753325803398562,0.33945980983156676,-2.2375407925269366,-2.878687045669655,0.2669114045198431,0.2872406425539279,-0.16771904841659777,0.13323433199809495,3,left
3.366,0.5055748151985429,0.26876077968722284,0.3314540584384199,-2.235445518229006,-2.88232699188622,0.26717418659900616,0.3019687319440393,-0.1692942695644147,0.11091084536115418,3,left
3.3689999999999998,0.518982450950018,0.26455600472323854,0.31979678789475974,-2.2455281096721134,-2.8673030195402034,0.2631028662110988,0.3016447696947303,-0.16917877160759834,0.1114016476919287,3,left
3.3689999999999998,0.5345035632773611,0.25995372398320093,0.30553921884300983,-2.2266657341076455,-2.8950009918341486,0.27117990583197304,0.27331574699351835,-0.1664127632007808,0.15434304969905713,3,left
3.3739999999999997,0.5505993174050134,0.25561092667974844,0.2904843395075696,-2.2509219192811485,-2.859472939885645,0.2606910615641146,0.3428575225485877,-0.1732983936091117,0.04892931185337937,3,left
3.375,0.5734088226496367,0.2474957278749036,0.27311178904286343,-2.230658251798948,-2.8891175470847643,0.26949441068751373,0.22757610210915347,-0.16185792488999895,0.223679180615316,3,left
3.3789999999999996,0.5911835564673928,0.24067569123456256,0.26096318596665397,-2.231260548294987,-2.888374569019103,0.26907496931560565,0.379630575828903,-0.17695114622113084,-0.006815712334434398,3,left
3.38,0.5951115889731324,0.2380592610693339,0.25790462857003305,-2.269719377826403,-2.831655732518878,0.2528855563314595,1.0179664720851282,-0.24015182147204686,-0.9743798945679614,3,left
3.38,0.6099185785424921,0.22835133404724278,0.2464856948338392,-2.1751320304707917,-2.9709915307961685,0.2928882663392716,1.170029906797684,-0.2552340194091784,-1.204886001833985,3,left
3.384,0.6218910568026108,0.2246936923688676,0.22789836792838553,-2.331973889082238,-2.739987590746634,0.2265103533232691,1.0547411211554831,-0.24381212215151254,-1.0301369263906666,3,left
3.385,0.6136632271424767,0.2311770796667482,0.22518569216284384,-2.125104688153166,-3.044675356680692,0.3140626111011965,1.1242709563800526,-0.2506787523088454,-1.1355002637012155,3,left
3.389,0.6105127605453793,0.23539730954062868,0.21495196763231023,-1.256790142855708,-4.323724350726824,0.6813466983781612,1.0959911078139097,-0.24792170467935054,-1.0926935006028988,3,left
3.39,0.6270048674822137,0.23102014256208697,0.1864089062418552,-1.0499375449387063,-4.628413053880275,0.768869048151626,1.0955727077726651,-0.2478193423024659,-1.0919760653097141,3,left
3.39,0.6542737487646396,0.2138741083131721,0.17282641754834563,-1.206761449420398,-4.397408111938772,0.7025235018528894,1.1104271016022111,-0.24934977725144744,-1.114574011423674,3,left
3.395,0.6720450699001095,0.20286654645682228,0.178183948784983,-1.112167237293592,-4.536743481633787,0.7425384897199254,1.0926478894696583,-0.24756304067398463,-1.0875894885586708,3,left
3.3960000000000004,0.6756818493108102,0.2013003028293674,0.20354722814684564,-1.1506857204833132,-4.480028097187193,0.7262418005686682,1.1064708901413958,-0.24888502470314097,-1.1084724255179794,3,left
3.398,0.6720083395626402,0.1978013537234467,0.22604217910686486,-1.1511597097581687,-4.479277750712583,0.7260532173639644,1.09906284585669,-0.24830473079056348,-1.0974675564183698,3,left
3.398,0.6642598328071307,0.19646099249338939,0.21289912545413125,-1.1310799726425325,-4.508932875381383,0.7345255307345935,1.1006731252250397,-0.24820000890189192,-1.0995226479698967,3,left
3.404,0.6566786320661979,0.19648527980699076,0.18986532824212637,-1.1551530467178088,-4.473394409354725,0.7243663689441036,1.1027681891659082,-0.24873141969029924,-1.1031714299087694,3,left
3.405,0.6484795077631511,0.19980132587657723,0.17237754739881606,-1.1363695963330362,-4.501096765329445,0.7323010824886087,1.0992511770074098,-0.24812497666604877,-1.0974633506438511,3,left
3.408,0.6454062560766075,0.20318611655984603,0.15293841219539867,-1.14660962068512,-4.486081988692009,0.7279468308517418,1.1024620026746192,-0.24844097119222114,-1.1023268400586086,3,left
3.409,0.6526458909840502,0.20274904006233885,0.13967278858472668,-1.144007544268245,-4.4896927482679105,0.7291213061863245,1.100482637192884,-0.2487227363747476,-1.1000262377063725,3,left
3.4139999999999997,0.6678940181769826,0.20494867660673954,0.13384746182861962,-1.1418027355857712,-4.493323637157786,0.7299258108131671,1.101028044984596,-0.24768462553851398,-1.0992541358069752,3,left
3.4139999999999997,0.6873133340011993,0.20602027841785703,0.12672359884339454,-1.1458636149948576,-4.486871375980656,0.7283660670445271,1.1016154569960908,-0.24937209747021458,-1.102529553776762,3,left
3.418,0.702031251497794,0.2049218361367272,0.11510591217624323,-1.1419700051268595,-4.492981843462756,0.7298866433307019,1.1004764891220948,-0.24752239457334077,-1.0982607737265773,3,left
3.4189999999999996,0.71044530908204,0.2088288808957485,0.10494740368592287,-1.1449032757702513,-4.48866487015254,0.7286450645512537,1.1014785105246783,-0.24862534773652112,-1.1012483765928693,3,left
3.423,0.7162840572196798,0.21515547715677638,0.0969466583381775,-1.142738735685006,-4.491155836841654,0.7297950460521013,1.1012730465079317,-0.24946971736271348,-1.1022036963973114,3,left
3.423,0.7201733383953547,0.21998299827455886,0.08679644876924701,-1.1447620958646758,-4.489768628483808,0.7284026831889152,1.100199470834732,-0.24557798228975933,-1.0950338449089427,3,left
3.43,0.7236647990276031,0.22399140718345373,0.07670888988626004,-1.1424440694264635,-4.490806761073773,0.7301842664468883,1.1026567504154587,-0.2528417950138731,-1.1090366657503872,3,left
3.431,0.7255404176795592,0.22920171872542475,0.06757384683938628,-1.144784157763953,-4.489892374897876,0.7283396759463563,1.099333107908873,-0.24349767372467762,-1.0908017118432454,3,left
3.4339999999999997,0.7250629493965812,0.2389351205006991,0.061816975902395,-1.1436390143612685,-4.49011706520114,0.72931914104874,1.1021794920088346,-0.2513062426653993,-1.106132926544681,3,left
3.4339999999999997,0.7201643732235656,0.25182163273665226,0.064035944656851,-1.14162866474223,-4.49181405295309,0.7305926195977015,1.1019915042789745,-0.25108263643706724,-1.1055516957466123,3,left
3.4389999999999996,0.7112717264804076,0.2633933716123753,0.06857869252345106,-1.1487504677851192,-4.486848498838377,0.7257206307827543,1.0968586960740005,-0.2362255104452362,-1.0767602646560954,3,left
3.44,0.7002709360846512,0.27746716588479825,0.07192084680751057,-1.1358472875103243,-4.495612339565717,0.7346303376645502,1.1096359097568669,-0.272761045020388,-1.14776687282746,3,left
3.443,0.680849331277829,0.29661063677690885,0.07806081278483326,-1.1523450234035442,-4.484459750059242,0.7232164538371744,1.088388535193435,-0.21217537225501681,-1.029943358848072,3,left
3.443,0.6677675362395272,0.3060165697467852,0.08280886371704477,-1.1386036357349023,-4.493728660167536,0.7327366399128387,1.1164378953442067,-0.2920919101826279,-1.1853856968406615,3,left
3.448,0.6649390022865334,0.3104947229808295,0.08393508552688281,-1.1388604313172033,-4.493635927248167,0.732516705084236,1.2340604892163731,-0.6275068851481637,-1.837713338901513,3,left
3.45,0.6493261547579691,0.32592744843523425,0.08811570621808065,-1.16543126808506,-4.475446233866418,0.7142338834840092,1.2621178753288658,-0.7074275740981006,-1.9931630742166684,3,left
3.45,0.6282563914530044,0.3422936964160872,0.09626080223035892,-1.1002676188089873,-4.519965015378018,0.7591320099122911,1.2408491663539243,-0.6468361565015822,-1.8753123797743552,3,left
3.4530000000000003,0.6071038465460117,0.35883699256137935,0.10469786071338331,-1.2082645070393576,-4.446203111236877,0.6846920832057695,1.2536678870363915,-0.6833744235842598,-1.9463838695915245,3,left
3.4539999999999997,0.5910084215304554,0.3706355458570682,0.1089494523352987,-1.0658352917432996,-4.543485665688937,0.782887252050443,1.248471503615936,-0.6685230403177252,-1.9174789513714476,3,left
3.4589999999999996,0.5868703965070243,0.3735829372100377,0.10986713304454825,-0.46766068944507494,-4.9521110818148575,1.1950056031957832,1.2483585910253816,-0.6682809619621037,-1.9170483505516316,3,left
3.4589999999999996,0.5719933203415875,0.3853833216876855,0.1156520060840553,-0.3252443834529418,-5.049404085031783,1.2932237247434686,1.2511467422445515,-0.6761209126610156,-1.9322384910509984,3,left
3.4610000000000003,0.5523990129306386,0.39942159493165974,0.12291883190396856,-0.43322730865525316,-4.975630874631272,1.2187589620578452,1.2478193703947298,-0.6667394255444945,-1.9140504623991705,3,left
3.463,0.5397966758540029,0.4050912202683765,0.12550715408212698,-0.36805833313657516,-5.020145361429535,1.263647653005314,1.250392865332509,-0.6740307183650152,-1.9282067640743572,3,left
3.464,0.5241528443740557,0.4105708762706305,0.1293400209230135,-0.3946755289712527,-5.001993157304336,1.2454471864312526,1.2490584123999013,-0.6701448995635959,-1.9205963066301805,3,left
3.467,0.5114986947493325,0.4153323953919242,0.13240254069536547,-0.39483259670418447,-5.001819754827979,1.2450500414987227,1.2492389884091435,-0.6709251885933003,-1.9222822529273194,3,left
3.468,0.5004940729110672,0.41615070785566743,0.13221206091639764,-0.38123418289418187,-5.011204334067317,1.254824321207249,1.2498337732320999,-0.6721641156482265,-1.9244019391780576,3,left
3.4730000000000003,0.4871939030899079,0.4173160459626519,0.13541930431283503,-0.3975895662013772,-4.999936555556276,1.2431574002819699,1.248920651097412,-0.6701203918930893,-1.9207830592568396,3,left
3.4739999999999998,0.4779894783149949,0.4187371228292378,0.13925725019613172,-0.38474777214403055,-5.008750110629092,1.2521763118790812,1.2497373061775732,-0.6720031076772175,-1.924160788850692,3,left
3.478,0.4703410630697341,0.4188374143633485,0.1424750199957312,-0.3919918986430002,-5.0038834420357965,1.2475215539331428,1.2493423860450275,-0.6708733488236016,-1.9219610857955673,3,left
3.478,0.46161034288738323,0.4193741480706421,0.14795908066717398,-0.38958765546591784,-5.005261843158225,1.2480951775576434,1.2490998065091756,-0.6710070646445728,-1.922748237745193,3,left
3.484,0.4540562372940731,0.41785951943650756,0.15359690645616575,-0.389121125225083,-5.0060354992758205,1.2502805752553332,1.2500500693931924,-0.6718307190178292,-1.9231451550643186,3,left
3.485,0.4474719631328711,0.4155969227688643,0.15946451949245702,-0.3906284720914156,-5.0044473650346415,1.2469559466298685,1.2485377941026599,-0.6703313960013993,-1.922027285696712,3,left
3.487,0.44278398358621596,0.41493001906168286,0.1645772867867739,-0.3889742173062968,-5.006022685866735,1.2499175719172038,1.2501673516697123,-0.6719802930057903,-1.9233167117845744,3,left
3.487,0.44089530971633356,0.41469971659498106,0.16874278105793614,-0.39100379211279257,-5.004640164122511,1.248535531463817,1.2491982042857113,-0.6709476172868283,-1.922417223513475,3,left
3.491,0.4405813305810287,0.41404768594447416,0.17190757233337026,-0.3876067806579089,-5.006134481998876,1.247496111015447,1.2485000768968522,-0.6704526852634074,-1.9224074455174915,3,left
3.492,0.441381363734908,0.4107261836672873,0.17075556857287938,-0.3933561149263919,-5.004095365404643,1.2512583950281158,1.2517796791794709,-0.6732663292189545,-1.9237030666981292,3,left
3.4960000000000004,0.44213276737862484,0.4088530488458289,0.16987119526117678,-0.38526183165703376,-5.006807493768084,1.2453137395615426,1.245657633700821,-0.6679308708569267,-1.9210745557764415,3,left
3.498,0.44235417017213785,0.41024312176220257,0.1746964744413843,-0.3938001938755462,-5.003978124028338,1.2517124551195873,1.2535269672728444,-0.6748091172344768,-1.9244998914600675,3,left
3.5010000000000003,0.4404766840929645,0.411284780392001,0.18028935428133813,-0.38900924346832116,-5.005515420838003,1.2479180304087054,1.246954751123003,-0.6690545500258653,-1.9216205310398768,3,left
3.502,0.43467130092382034,0.417726000701844,0.1875033747951144,-0.38417483106096284,-5.007322323064336,1.2451297188530857,1.2471440959100668,-0.6692548005185384,-1.9217754200167383,3,left
3.5060000000000002,0.42838304426780205,0.42677086908164763,0.19857680715205683,-0.40417828987487225,-5.000203918081477,1.258121904344831,1.2596359323097248,-0.6800850956796789,-1.927011577968438,3,left
3.5069999999999997,0.42109063332874025,0.43282569183784786,0.20846658578094138,-0.3672910677368139,-5.013261620080371,1.2338860478291838,1.2289213828325551,-0.6534098121615411,-1.9140527319347846,3,left
3.512,0.4108903809996528,0.44689537533356016,0.21701503941869582,-0.4146077017905804,-4.99652833551786,1.2650369191687272,1.2798475583982705,-0.6976569932031191,-1.935560036315464,3,left
3.512,0.4042619908828949,0.45971697112972226,0.2216687278409442,-0.3751267944099683,-5.010482925988235,1.2390193813512589,1.2126801454665581,-0.6392881468300912,-1.9071931551589614,3,left
3.5180000000000002,0.4027823948341383,0.46121615938186045,0.22358436796487474,-0.37611740178511943,-5.010159849855257,1.2397694526139182,0.9307170921648865,-0.39441346662681864,-1.7882022225830365,3,left
3.52,0.3996506256889357,0.4684143209220384,0.22969432752850533,-0.45165021732683547,-4.983376849497112,1.2892255370381247,0.8635585536224344,-0.336039437445655,-1.759850191032295,3,left
3.52,0.3954605949745871,0.48069113215118026,0.2347685076857449,-0.2660968378852756,-5.049137102411285,1.1676180792256114,0.9144751257155903,-0.38029222448056055,-1.7813414252318016,3,left
3.5210000000000004,0.39854821459412704,0.4892264462084498,0.2319324254293531,-0.5737212974341072,-4.940127404650797,1.3692572449172995,0.8837569314411181,-0.3536190788470186,-1.7683764824218864,3,left
3.5210000000000004,0.4045665834285225,0.4941574075170964,0.2268026120325528,-0.1679786602133153,-5.083899535961987,1.1033025113161472,0.896280602588412,-0.3644307628437181,-1.7736659054508617,3,left
3.5269999999999997,0.4061850818286883,0.49647775728334853,0.22410556620045924,1.5352833772025218,-5.687505614483732,-0.013009658612070873,0.8964014413505033,-0.364671050434407,-1.7737061690228144,3,left
3.5269999999999997,0.412242516468085,0.5006870012782779,0.21640344424291078,1.9410079092707155,-5.831258434777107,-0.27893942595436844,0.8899274565825146,-0.3588590838935115,-1.7709911732790278,3,left
3.528,0.4234484621267269,0.5043903210587803,0.203688167871943,1.633416204912103,-5.7222819646731455,-0.07733621897833379,0.897698962652363,-0.3657944808537855,-1.774252817179982,3,left
3.53,0.43425200017800336,0.5074099452795521,0.19318247438510022,1.8189303981505738,-5.788006475262224,-0.19892226030052784,0.8916191456556162,-0.36043437639555165,-1.7716949712661638,3,left
3.531,0.4464005505051304,0.5100955270632579,0.18246253504006973,1.7434287504762336,-5.761244238179371,-0.1494419067113865,0.8949827127169574,-0.36319891377615365,-1.773131075771712,3,left
3.536,0.45860451466726415,0.5106410979244698,0.17147063785870947,1.7424353131599035,-5.76093665909781,-0.14878769972898018,0.8940140414772073,-0.3628621146907993,-1.7726686235737117,3,left
3.536,0.47327763087082564,0.514280997763219,0.16252578726601413,1.7818688518032482,-5.774820854072901,-0.17463284289461492,0.8935110921719974,-0.3615569993869018,-1.7725491904167432,3,left
3.5410000000000004,0.4907274256175244,0.517579589963746,0.15255628828069867,1.7346636268833615,-5.75821784817588,-0.14369729225964928,0.8945684656812227,-0.36354021610964454,-1.7728812099810565,3,left
3.542,0.5071164060487781,0.5166307706327804,0.14406370509279387,1.7713834804763846,-5.771107580054673,-0.16775917789358707,0.8935124260194341,-0.36177440503769653,-1.772526755667559,3,left
3.545,0.5235276050155684,0.517604756939362,0.1394208369744864,1.7515592563471778,-5.764134830846264,-0.15476889355365908,0.8944666099875529,-0.3625955746281756,-1.7729301900616097,3,left
3.5460000000000003,0.5408309574578674,0.5212303490831176,0.13461981793946348,1.7562892053301375,-5.765915546544502,-0.1578724220786214,0.8933777096849433,-0.3632240740242402,-1.7723013019049874,3,left
3.552,0.5576940748206719,0.5245305063248122,0.13134631407109193,1.760991725490138,-5.76724650475726,-0.16094131728088634,0.8949171763269135,-0.36096376971351396,-1.7733382404349638,3,left
3.553,0.5722350991301214,0.5258503641102141,0.1273634913161631,1.7528468737188927,-5.7649373359216085,-0.1556266579426137,0.8928478305605401,-0.3645329154900977,-1.7718870108100058,3,left
3.555,0.5866226643932824,0.5258929733429747,0.11989220110683606,1.7602018240298778,-5.766836028397177,-0.16041784723039904,0.8950115108473591,-0.36069161376581665,-1.7734164253344158,3,left
3.556,0.6008969490007245,0.5265594397712389,0.11508932170554392,1.7554254325519048,-5.765707282298495,-0.157310884657809,0.89382810339904,-0.36296883204141683,-1.7725605950597194,3,left
3.56,0.6146611463391933,0.5278948037870281,0.10914337394233178,1.7579477516474165,-5.76660642719685,-0.15896418083126143,0.8924771128928045,-0.3646452673124032,-1.771684142438421,3,left
3.5610000000000004,0.6304056269005687,0.5296166575533316,0.10034228064007536,1.7561396910599019,-5.764918970005587,-0.15773551822613385,0.8978482265877523,-0.3568398212703782,-1.7752933846974113,3,left
3.5639999999999996,0.643649916858299,0.5296583985187513,0.0950918763470375,1.7588892102016556,-5.768284817763995,-0.15963743294063842,0.8879850434654317,-0.3713991378455437,-1.7686403688699481,3,left
3.5660000000000003,0.6542928031123822,0.5300124588035807,0.08866079110605157,1.7544659424563673,-5.763150103342062,-0.15658939658343185,0.9006281303584861,-0.3526860987349659,-1.7771748104807985,3,left
3.569,0.6654456087238488,0.5309307497902958,0.07887152181047727,1.7596078389089431,-5.768774489840521,-0.16011819873325248,0.8900816017463782,-0.3683151287655332,-1.770052282862122,3,left
3.57,0.6767812801580263,0.5304888343960882,0.06972585665792867,1.7566405683658421,-5.765526838343132,-0.1580818807977549,0.890333746499447,-0.367865351698571,-1.7702336386378115,3,left
3.575,0.6870392386808368,0.5318949569833002,0.06136492809579958,1.7531402996481358,-5.7623908465830525,-0.15570822901486153,0.9105538572193383,-0.338154343632487,-1.7838550723794413,3,left
3.576,0.6915301328441208,0.5310055250759171,0.05550494987187184,1.7672413175234305,-5.775678642515112,-0.16529696855956796,0.8608938403607643,-0.4112092983127037,-1.7503860343126694,3,left
3.58,0.6936306148720566,0.5310033704202217,0.04843516080223116,1.741149305707248,-5.751059193883119,-0.1475534300259922,0.9432233930772091,-0.2900766780723076,-1.8058798691214921,3,left
3.5810000000000004,0.696470579645011,0.5358433042100723,0.04075815368735423,1.7747335371369422,-5.782698253259754,-0.17038939822687654,0.8346304314276025,-0.449845285251068,-1.7326784571853642,3,left
3.585,0.6965950958514422,0.5353812202469883,0.039314889130284435,1.7466564282926047,-5.756273592163806,-0.151299874836222,0.3787720178082045,-1.1204596476022113,-1.425426198414414,3,left
3.5860000000000003,0.6933081802904447,0.537008976677724,0.036919359740666166,1.7473253802792486,-5.756949322512692,-0.15175493569931536,0.27017076408887786,-1.2802109499837502,-1.3522082445276493,3,left
3.5869999999999997,0.688922928503179,0.5439202903747349,0.03192225725430931,1.8012666420252734,-5.807496307536632,-0.1884242774521684,0.35251117954263234,-1.159103556503268,-1.407727050808199,3,left
3.589,0.6839593459333508,0.5471601105620485,0.028066868136602134,1.6687439142284417,-5.683293332710358,-0.09833774603251193,0.30284787593545004,-1.2321425943395354,-1.3742397628204865,3,left
3.59,0.6714548163927738,0.5531156513523823,0.02465892034803079,1.8884927146432928,-5.889223516688173,-0.2477154303163931,0.32305203778424574,-1.2024169756821852,-1.3878534864342797,3,left
3.597,0.6601925104630311,0.5573702366075043,0.02598307322594151,1.5986082835201654,-5.6176007704962245,-0.05066592421518537,0.32334772480927565,-1.2020303645849193,-1.3880859419453513,3,left
3.5980000000000003,0.6576002127437437,0.5578483958953825,0.026186619204032986,0.381708214558106,-4.477299309539864,0.776556710154874,0.31273137851980626,-1.2175434236432792,-1.3808625173251283,3,left
3.5980000000000003,0.6464715293810744,0.5639058996251884,0.023534414477842096,0.09176665453324728,-4.205674844578728,0.9736385226787592,0.32545321667360755,-1.1989776008551096,-1.3895319460638094,3,left
3.5989999999999998,0.6263923102586089,0.5701767380403865,0.027016490856488794,0.3115956838453592,-4.411613407266385,0.8242138124633989,0.31553891789070476,-1.2134144651801155,-1.3827565895316507,3,left
3.5989999999999998,0.606435700675471,0.5759291409974749,0.03405195474564056,0.17903122318168171,-4.287388048871765,0.9143298110178542,0.3208818941313793,-1.205618400545201,-1.3863976167927818,3,left
3.605,0.5857432299316043,0.5824672483609392,0.042336146851813986,0.23290195659372293,-4.337976469261761,0.8776882573609819,0.31968946972101364,-1.2074982212629113,-1.3856728562729188,3,left
3.6060000000000003,0.5642276209164986,0.5858700411819528,0.055047161086257776,0.23381251472617037,-4.33859484892588,0.8771145127549499,0.31819428968566865,-1.209292400273604,-1.3844114347210466,3,left
3.608,0.5416440826021243,0.5893764604544476,0.07027670406259881,0.20531704995463904,-4.312226954598534,0.8964213574334943,0.32078152822683337,-1.2061846864477754,-1.3865917278194413,3,left
3.609,0.5219018570151451,0.5922144917179599,0.08481362991563371,0.23940774343518495,-4.343841292871011,0.8733100810131653,0.31831336720330544,-1.2089587374746622,-1.3843929160551038,3,left
3.614,0.5059067419568535,0.5933225331629314,0.10055710995798836,0.21293031380550365,-4.319173443648259,0.8912817941392241,0.31998997945212515,-1.2071752199804147,-1.3859494749932961,3,left
3.615,0.49224987947512244,0.5958358675495813,0.11812749396923652,0.22698099655369325,-4.332618579436922,0.881677405828743,0.31931845948017434,-1.208169372798186,-1.3855007954143472,3,left
3.6180000000000003,0.4797944922975038,0.5993081287145416,0.13594254515793472,0.22430442549007634,-4.3292098980940406,0.8836678629613066,0.3190634783065404,-1.207276872507819,-1.3845374060081146,3,left
3.6189999999999998,0.46532423232096903,0.601828015014146,0.1591899308264858,0.21954238246760494,-4.326299197889261,0.8866105605110677,0.3200161075926699,-1.2087718639880238,-1.386988044942541,3,left
3.6239999999999997,0.4502939886927447,0.6030923453027874,0.19023538119077915,0.2272855867544022,-4.33165116381339,0.8817081010126981,0.3186810610854047,-1.206415336023953,-1.3833904202774736,3,left
3.625,0.4324744610790512,0.6082763628420598,0.22983185736605527,0.22019303779872562,-4.32652290705637,0.8862415228370281,0.31998999812761064,-1.2090949825373967,-1.387148275415999,3,left
3.628,0.40654588367979516,0.6162182168418776,0.2811225577073482,0.22428906052413483,-4.330373803261857,0.8834547129596875,0.3192328117652299,-1.2075489151569285,-1.3849768345706668,3,left
3.63,0.3846711991090822,0.6274167990768091,0.33272282481753945,0.2242915168524753,-4.32756196520886,0.883986890649038,0.31883199152392466,-1.20584267639117,-1.3832734228635517,3,left
3.633,0.37699846171115936,0.6440278823367687,0.37231058879237733,0.2201896850187743,-4.330150633089563,0.8855550370882096,0.32091138958113297,-1.2128253752217357,-1.3909446862336392,3,left
3.634,0.38082868524252406,0.6667852352269389,0.4030662151947221,0.22728993665877897,-4.327207310419663,0.8825488802147388,0.3170397839870547,-1.1999010454624508,-1.376709116133859,3,left
3.638,0.4036378055955868,0.7119341451517418,0.4142685463733492,0.21953830168472693,-4.330174727122342,0.8858774797709605,0.32198918656716946,-1.216526204824679,-1.3949723162842063,3,left
3.639,0.41777550970252664,0.7667490373950177,0.3983287843283574,0.22430550789013515,-4.3287287867630155,0.8837585248717138,0.3178681281387481,-1.2026343470752898,-1.3797343917838636,3,left
3.6430000000000002,0.4168758306100025,0.8527784074108524,0.3809719264231643,0.22698647086250975,-4.326148633194599,0.8829020347535421,0.3180030528035922,-1.202967247477197,-1.3801586085220245,3,left
3.645,0.4164983885163876,0.9726114130155934,0.3891128504774216,0.21291542169987576,-4.335260044550651,0.8882376924628803,0.3257553143709496,-1.2296326799498591,-1.409152505890464,3,left
3.648,0.4131754157600931,1.0911638098894625,0.44596428171271496,0.23943189655928077,-4.318753644356548,0.878056916184335,0.3066875748314389,-1.1641299870746527,-1.337887928991058,3,left
3.648,0.47121723121092096,1.2806447291736105,0.5460501208958808,0.20528938369034283,-4.339864854344219,0.8911926208233176,0.338295890867961,-1.2727331701898468,-1.4560371075560652,3,left
3.6519999999999997,0.5227318294924497,1.427025766703108,0.6343627668258327,0.23383060687410862,-4.322268544970971,0.8802021947534144,0.2966160493253634,-1.129482848749217,-1.3002127475121719,3,left
3.653,0.5422767386962126,1.4666313673449056,0.6457036673761594,0.23291331721401376,-4.322624997261395,0.8805949564925637,0.12167880043895749,-0.5280177981982004,-0.6460806281071045,3,left
3.654,0.6633516686665888,1.6216253792169635,0.6229136480253583,0.1789679376151459,-4.35658575691183,0.9012349051429576,0.08001660922319905,-0.3847637728196721,-0.4902782939176668,3,left
3.658,0.8465654331522416,1.841161996285353,0.564038455557962,0.3117278129657931,-4.273241875242295,0.8503957759144243,0.1116008981707024,-0.493378213916016,-0.6084003173360799,3,left
3.659,1.095786149536035,2.007301180289712,0.3253504137190469,0.09156440104295922,-4.411411474816614,0.9347135212925072,0.092543359883664,-0.4278513635509234,-0.5371384527853988,3,left
3.6630000000000003,1.2871534082273222,2.1093483957801995,0.11856516534407165,0.38195979970332583,-4.229151946852738,0.8235012277683563,0.10032296218617663,-0.45455644804211814,-0.5661871212696686,3,left
3.6639999999999997,1.336609679735444,2.1217084689577934,0.055172963801782424,1.6007459041325394,-3.4644521838154723,0.356695135754535,0.1003750065636631,-0.4548394031357606,-0.5664772723833966,3,left
3.665,1.5076145089464639,2.1278756789835453,-0.18053449352643447,1.8911246973530682,-3.2821943743653117,0.2454907156082434,0.09639203958719467,-0.440990837449742,-0.5514445560528403,3,left
3.667,1.704169116056728,2.097327495528596,-0.46238402495773345,1.6709715898789623,-3.4202952666067272,0.32981692917397276,0.10117987562505276,-0.4576082624264949,-0.5694871909947279,3,left
3.668,1.748549301832047,1.9873177489728746,-0.5960184857194035,1.8037654356759871,-3.3371874552102687,0.27891439287665576,0.09742265712802299,-0.44462157526521917,-0.5553769136263584,3,left
3.674,1.7040784718418673,1.8471518247589103,-0.6682460536585637,1.7497045147854537,-3.3706662427440657,0.29970663868213665,0.09953784957453388,-0.4517622989782543,-0.5631681652442034,3,left
3.676,1.5390028914909157,1.672944911848606,-0.6505738563174361,1.7489984511677796,-3.3717336122668735,0.29985458045514146,0.09884463564266906,-0.44980743510928567,-0.560958829905995,3,left
3.677,1.2970823014118513,1.4900911438117244,-0.5834853172574687,1.7772667423851782,-3.3533790761616933,0.2891488326925693,0.09869177448455602,-0.44854194302910694,-0.5597268942707683,3,left
3.678,1.0360515093271443,1.3228031961935842,-0.4968327430703423,1.7433586358409494,-3.3749192036052116,0.3020839266648469,0.09915233334393966,-0.4510341883277994,-0.5622597821767263,3,left
3.6839999999999997,0.7730648048716615,1.1732153209907357,-0.3604965261604926,1.7698433761972576,-3.3588333215655033,0.29183582485248105,0.09865303432818684,-0.4485926923567607,-0.5597462266203667,3,left
3.685,0.5451643431152486,1.052996667160744,-0.19510904339822233,1.755411108388172,-3.3661809989701625,0.2976983372991576,0.0992463012365779,-0.4506263345786963,-0.561959194254892,3,left
3.687,0.35114177822302756,0.9633771035990011,-0.006666809223861675,1.7589805134360414,-3.3668816691320127,0.29575472934149816,0.09828172662873613,-0.44865430125528105,-0.5595513514680703,3,left
3.688,0.19453775293630993,0.9094816035565041,0.19194166397338477,1.7623731019418076,-3.361145636804908,0.29516259762681574,0.09989747401238547,-0.45113674135076554,-0.5628525347140392,3,left
3.6919999999999997,0.05901694434389095,0.8981609261453931,0.4004109376614129,1.7561425668763482,-3.367930573834725,0.29698522465214794,0.09762795555869555,-0.4479180601517241,-0.5584549108561261,3,left
3.693,-0.06865299557958213,0.9322189482824423,0.6080431994835465,1.762278003154583,-3.3641065046788405,0.29463012369529745,0.10002117438825815,-0.45125925292118096,-0.5630448567745621,3,left
3.697,-0.18818356760047567,1.0059900576361067,0.7944242136074493,1.7575968551893153,-3.3617077593131848,0.29746942421337486,0.09867965017956146,-0.44947069373408144,-0.5605475351192242,3,left
3.698,-0.3004533954765888,1.0990713937940564,0.9485946750791909,1.7606992243192097,-3.371955597378064,0.29389015722294365,0.09731839792228685,-0.4472245720766671,-0.5576276634490043,3,left
3.702,-0.38965036670303543,1.1915865254115068,1.0508134990994913,1.7587456593463346,-3.3549890181657065,0.2982052113587629,0.10294089313623059,-0.45590265933117063,-0.5691512212747873,3,left
3.7030000000000003,-0.44862084157192245,1.2717683654781387,1.0842945938959934,1.7598498326239191,-3.3736902470153822,0.2939802035457676,0.09257408653270219,-0.4400160030733046,-0.5480066960675039,3,left
3.708,-0.4703571531509669,1.3259178316897589,1.036991399336142,1.7598674863333952,-3.36247224199841,0.296169934033193,0.10587247760718858,-0.4603701717824382,-0.5751073054432982,3,left
3.7089999999999996,-0.4526973366127913,1.3500323167555879,0.9343905939257379,1.7578441621706034,-3.3540843964300624,0.29883945849014637,0.09477505972363749,-0.4433938561733163,-0.5525016020605134,3,left
3.7119999999999997,-0.3761507885899641,1.3299179286494858,0.7949077456127391,1.762938958258645,-3.3931598319802747,0.2885989534386204,0.09505607628230653,-0.44378668458750087,-0.5530375992913303,3,left
3.713,-0.25691240932323367,1.2757991402345197,0.6387349481710114,1.7543781529213347,-3.3201342796880207,0.30724914759347255,0.11628169508660638,-0.4763811454171105,-0.5963938531650574,3,left
3.718,-0.12980181419329076,1.196955131068103,0.5038185855881789,1.765052002822808,-3.4141054764765375,0.28342438539926057,0.06413299894201183,-0.3963413574327813,-0.48991612615634006,3,left
3.719,0.03581546484055867,1.0596437651257218,0.37340339519735866,1.7562736066774123,-3.3355661658909797,0.3032623111304892,0.1505942648706528,-0.5290382308965863,-0.6664420301576299,3,left
3.722,0.1570761105978677,0.9486866192721835,0.2921726506798175,1.7563087984952812,-3.3378286743080703,0.3028059812728048,0.03655000282091371,-0.3540040526139834,-0.4336021073391771,3,left
3.7230000000000003,0.1924285841375276,0.9131224454255764,0.27493606228084344,1.7735877206142319,-3.4872253305319703,0.26476481042377137,-0.4421476838675014,0.3806962641577356,0.5437963297403647,3,left
3.7230000000000003,0.2974311599335386,0.8069452159270822,0.23365131642949827,1.7314069345698084,-3.1198252297914797,0.35814835571009673,-0.5561993956548806,0.5557554626017305,0.7766548125980977,3,left
3.725,0.46905152123546556,0.6110394465030353,0.20335247994940753,1.801241377363769,-3.7290726271628776,0.20335890691994674,-0.46973006855305144,0.42303151808154127,0.600108828571621,3,left
3.7260000000000004,0.5582525098317218,0.49741593420571395,0.21024435718341716,1.7091593615143745,-2.9254412645558148,0.4075083574193105,-0.5218757028782766,0.503061013543636,0.7065789156832223,3,left
3.7310000000000003,0.5885480605386701,0.46149995500945995,0.2063183697389382,1.3225487813632761,0.44763245483521974,1.2644926257173104,-0.5006768126372196,0.47055634057256535,0.6632892767822874,3,left
3.7319999999999998,0.680314652845146,0.33702299577279193,0.20435184000099793,1.2304426696221245,1.2512988184645137,1.4686365345479098,-0.5003382811340504,0.4699703180561955,0.6626099526270357,3,left
3.7319999999999998,0.7973434511482905,0.16877966830044233,0.20505053047442395,1.300293983055901,0.6419836683433222,1.3138637116510516,-0.5115181678337033,0.4872236381596641,0.6854211548545055,3,left
3.736,0.8800853664216012,0.03951473437010567,0.19680571212536607,1.2581556974233639,1.0094752159743983,1.4072118849634696,-0.49813764996244697,0.46659362659587,0.6581159151166054,3,left
3.737,0.9578307019057698,-0.09296569253737992,0.1831093455653147,1.2752809646011989,0.8599859553004289,1.369228449654123,-0.508539902166974,0.482599311711771,0.6793487278480863,3,left
3.741,1.0196217107767618,-0.20726732549684862,0.1729719257958588,1.2756018867680599,0.8577769127064672,1.3686997520201007,-0.5029879085150826,0.4741580760404269,0.66800090392594,3,left
3.741,1.0662271845071336,-0.29595137880175415,0.1768331155992081,1.2664497387846494,0.9363562825762701,1.3885999206026516,-0.5041220186075174,0.4756412029688286,0.670354715005488,3,left
3.747,1.1067762190137496,-0.367801438843283,0.19018033970712148,1.2774508948994783,0.842199399094783,1.3647650374856313,-0.5058549392788928,0.478744450960756,0.6738273672949946,3,left
3.748,1.1354610723250222,-0.40560451612205395,0.2071930555846528,1.2688321817192518,0.9155758167793204,1.3833232960541075,-0.502981356590297,0.47378978749942535,0.6680404626402192,3,left
3.752,1.1660193386241982,-0.4141405872793032,0.2133087842247798,1.2734539453190141,0.8760359573938641,1.3733133871604961,-0.5056338774892581,0.47829483198425404,0.6733923350016696,3,left
3.753,1.1997966148102934,-0.38982744390368235,0.19813096811372968,1.2726240842592362,0.884846578802293,1.3756218553615307,-0.5040214669570439,0.475823794452062,0.6700997128243891,3,left
3.7560000000000002,1.2439396695179097,-0.33449094521498474,0.16374019251114297,1.270772931736846,0.8959453807301019,1.3782169737235632,-0.5042754652242584,0.47540881735317,0.6707365913051511,3,left
3.7560000000000002,1.3078998830445754,-0.25448593337920045,0.10607596393931015,1.2739712600226243,0.8767434844243573,1.3737246217964678,-0.5053062401145589,0.47883039834806806,0.6725707623961596,3,left
3.76,1.3894282654423167,-0.15042294474365364,0.03249409674035952,1.270646199856476,0.8950756452685134,1.3779089325697242,-0.5033826213306145,0.4731334990322426,0.6690467274190974,3,left
3.761,1.4838398255395648,-0.02331404816050712,-0.03924001631022874,1.2730496341320956,0.8826153087729252,1.3751202180042572,-0.5055050873130307,0.47931708516383625,0.6729499535598935,3,left
3.766,1.5921439997035087,0.12071824742734975,-0.10291276938407729,1.2724900977232454,0.8875833779750475,1.3763856861828672,-0.504165260541386,0.47556955896568454,0.6704633205288407,3,left
3.767,1.6997057564593452,0.27613448883792424,-0.15187671156349658,1.2704496213857992,0.8895708162848003,1.376191729780234,-0.5035724003110517,0.47320339152055324,0.6694664215842085,3,left
3.7710000000000004,1.7936916427200476,0.4412481836405041,-0.17946988751702891,1.2754243014673685,0.882292558761127,1.3759397284458892,-0.5070870713661254,0.48497424179133075,0.6757056418001921,3,left
3.7710000000000004,1.8778137644766115,0.6089481769371243,-0.18922643461070504,1.268077659278105,0.8925127504783159,1.3761537027951345,-0.5004030756068951,0.46288892544770877,0.6637969042834484,3,left
3.775,1.9203218837009066,0.7809596265691362,-0.18469731419917423,1.2758103715280655,0.8824635323485394,1.3761404967958057,-0.5090228355039992,0.4913059917576395,0.6791633266319907,3,left
3.7760000000000002,1.9347954678717014,0.9493045493272226,-0.1702674784586583,1.2713452343197909,0.8882762623599807,1.3761495677992333,-0.5018116553095655,0.4675569989733977,0.6663054220222198,3,left
3.779,1.9084910907785437,1.1107055951411198,-0.14237407767780375,1.2676985704107044,0.8914236147332362,1.3756845657218042,-0.5020644651299646,0.4682929609994394,0.6667680182708651,3,left
3.78,1.8260338721769493,1.2590335777791561,-0.1082368901661212,1.2839102377965943,0.8752440848956464,1.377109740670016,-0.5156254377208209,0.5132756792075226,0.6909063586776902,3,left
3.785,1.725857096670405,1.3812961426281674,-0.08210325839377909,1.2538425112186637,0.9053620929030499,1.3744949476524475,-0.4822265541048454,0.4026002640396682,0.6314453433559062,3,left
3.786,1.5318859725730292,1.496984416680025,-0.05048656239906688,1.2924221484552876,0.8668520940421676,1.3778943829984627,-0.537620592464416,0.586138734977796,0.7300647312532718,3,left
3.79,1.3832752655022627,1.5666550879684755,-0.030590245293303467,1.2602387453962622,0.898919767130964,1.3750346355594574,-0.4645551651024446,0.34404363849508596,0.599989043746647,3,left
3.7910000000000004,1.3400324103300312,1.5811511354036507,-0.02580852014766639,1.2610926303399186,0.8978825962604504,1.375070984024942,-0.1579424062769756,-0.6719435171934545,0.054103505696439014,3,left
3.792,1.1546840417157287,1.6246985938165206,-0.005047686248374535,1.322460963372952,0.837508280845623,1.3807153947886555,-0.08488478081561714,-0.9140390037122131,-0.07594824764282329,3,left
3.795,0.9138618555481347,1.667845074691988,0.02676640569721438,1.1716849573746206,0.985996358188501,1.3668626343068349,-0.14027037759326985,-0.7305001091678924,0.022645246456211805,3,left
3.7960000000000003,0.6903537597678148,1.6620539246981778,0.0857136391809854,1.4216251000983564,0.7398470757657423,1.3898465219113059,-0.1068682850895955,-0.8411753695506745,-0.036825622596727725,3,left
3.799,0.5228306207388052,1.6542699796161122,0.13467722856128755,1.091999988845015,1.0644408382121289,1.3595097428428238,-0.12045725455699381,-0.796194039357591,-0.012601375154984749,3,left
3.8,0.486749700128268,1.647229774413968,0.14722306410897873,-0.29269942185358183,2.427178325525385,1.2322949715113736,-0.12064982346699553,-0.795455082976174,-0.012323611790753872,3,left
3.8,0.3702379889820214,1.6115529436390978,0.2020649451121776,-0.6223581518146024,2.751723134984431,1.2019479127093649,-0.11352501819226855,-0.8192083753561119,-0.024916509111424776,3,left
3.804,0.22548276464731062,1.5555261024460503,0.2754089630072682,-0.37223981715292764,2.5055705773555204,1.2249212246095866,-0.12205876460002973,-0.7907870196794177,-0.00981397176828175,3,left
3.804,0.17331710335501171,1.487408959017706,0.32544785922959063,-0.5235043148661378,2.6542779992835364,1.2111495480719436,-0.11541188595859192,-0.812874201414328,-0.021608860698159794,3,left
3.8089999999999997,0.13182373874314784,1.4047071488625802,0.3798600606130437,-0.46122104215826165,2.5933173250008723,1.2165986241221702,-0.11900040884383878,-0.8011070008092112,-0.01514300959040549,3,left
3.8110000000000004,0.13163742102005876,1.3159961940204066,0.42201584170422457,-0.4616439274766532,2.5932674280356496,1.2169494118060773,-0.11816963619225793,-0.8034613537695164,-0.016869897633582542,3,left
3.815,0.15529818488580976,1.2251532158189034,0.4538075050211918,-0.49255059309364496,2.6241391941925674,1.2137235641499504,-0.11723975106763526,-0.8072292696827705,-0.018098758457038316,3,left
3.815,0.17671914292947932,1.133572034535298,0.48759611372495754,-0.4545504593760098,2.5865457243016348,1.2173817111958405,-0.11885910677277722,-0.8010206253680411,-0.01573910268364273,3,left
3.819,0.21073434376231664,1.050668340318515,0.513167474697128,-0.4856528955471422,2.6167776948113888,1.214851838875823,-0.11733660532711128,-0.8067375543839679,-0.01803257605868318,3,left
3.82,0.2381757830184228,0.9756165102022586,0.5303347417320408,-0.46598322885951454,2.5986373262515556,1.2156019669626263,-0.11837092367717345,-0.8033160319592832,-0.016187329874084982,3,left
3.824,0.266585847429228,0.9045825937179928,0.5376378087208908,-0.47567608186302723,2.606081587396947,1.2165323109433615,-0.11788062563024596,-0.8036941143071077,-0.017834298197664432,3,left
3.825,0.29533513689945573,0.8436006116655661,0.5378196910949906,-0.47261480133137906,2.6056372205011513,1.2145795293205566,-0.11796923608102988,-0.806249686211024,-0.01590776833049591,3,left
3.8289999999999997,0.32050439730213703,0.7918819017121489,0.5399195990965839,-0.47104797346414085,2.6020489198508128,1.216504091662237,-0.11808406503106955,-0.8016183556813112,-0.018341864647463,3,left
3.83,0.34707626459745583,0.7451413642736298,0.5490943369271484,-0.4780673181641999,2.6089387337168457,1.2158754449563822,-0.11791577713252036,-0.8067078569732546,-0.015828935096319684,3,left
3.835,0.37306394049418723,0.7088163885241899,0.5613088435792014,-0.4625251365608427,2.5974380074963133,1.213998769049216,-0.11808550493415151,-0.8035263349239647,-0.01715153694291499,3,left
3.835,0.3990964750773176,0.6843902757696758,0.5723998546843233,-0.4894128927285275,2.6152279094853723,1.2190794986244353,-0.11787231156734199,-0.8019768791518047,-0.018932646547150524,3,left
3.839,0.42135453075707524,0.6680849973296714,0.5837275230625146,-0.4523418371601519,2.591679689794617,1.2112215089408727,-0.11821720513305371,-0.8107108100770126,-0.012186789447869092,3,left
3.84,0.4419619295097712,0.6582058033599183,0.5894862490596615,-0.49074613562155844,2.615687528841568,1.2196994424491372,-0.1176834255808333,-0.7941613176614367,-0.02450777626180712,3,left
3.843,0.46544347228115135,0.6537985672051572,0.5855796656549221,-0.46930538117845955,2.6025509661307584,1.2147341721914209,-0.11834551928221192,-0.8154905980762892,-0.00872938908080471,3,left
3.844,0.48570141835447106,0.6557306194707782,0.5774313379406077,-0.4484936399671696,2.5889411036975742,1.2106613534718451,-0.11780158918431943,-0.7976520371143598,-0.02188496489212407,3,left
3.8480000000000003,0.5078811163108067,0.6648853086087478,0.5602387634595049,-0.5352753145068502,2.644286148226106,1.22886704393331,-0.11778124043693033,-0.7982572728962478,-0.021594428004682913,3,left
3.8489999999999998,0.5310238382424766,0.676966212700251,0.5320839695911374,-0.3753581694300774,2.5426464258297834,1.1950164859466261,-0.11893514816251079,-0.8318698083432612,0.003706026152688672,3,left
3.853,0.548354417178617,0.6914290033288983,0.49783713589413603,-0.5803258206523529,2.6727947571750494,1.2385109007006978,-0.11613877792357472,-0.7491104760605527,-0.058402544451618826,3,left
3.8539999999999996,0.5741808722006078,0.7119601721067244,0.45048149167680007,-0.40937611367757565,2.5642970328331467,1.202192369554508,-0.12076665779563134,-0.886365846330089,0.04455689621197011,3,left
3.858,0.5977670882750495,0.7259930840234184,0.4124961431295103,-0.41373513334354406,2.5669886366096355,1.203181441968294,-0.11466138713922136,-0.7053243822116122,-0.09124500851287962,3,left
3.859,0.6040289833852688,0.730878082672812,0.4009448123383945,-0.7404054638687269,2.7745203314818343,1.2724128123745766,-0.08903994103960244,0.05442925838738133,-0.6613523973149742,3,left
3.859,0.624497542346723,0.7457973930046631,0.37273619452734474,0.06210302790558983,2.2647946213181878,1.1022518109196695,-0.08293204189130526,0.23545524097122272,-0.7971622467668847,3,left
3.862,0.6674326051270472,0.7691757733913787,0.31603059161466696,-1.2683112767447358,3.109796129183869,1.3843718951205772,-0.08755545907734949,0.09821580497038587,-0.6941959449597022,3,left
3.863,0.6915669304427661,0.7822908768108023,0.2827397386161464,0.4863930163788971,1.9953116490083667,1.0122825112185263,-0.08478605041162354,0.18098439717322556,-0.7562951026044724,3,left
3.867,0.6999816964359624,0.7870205298623243,0.2725735871408962,7.852248656634249,-2.683027493713587,-0.5497037036162373,-0.08587717074282031,0.14731034369270282,-0.7310358270418891,3,left
3.8680000000000003,0.7293264929776597,0.7993236386069518,0.230576170223066,9.606796951942556,-3.7974490768052,-0.9217173205229329,-0.08595627327090663,0.14683349222308034,-0.7306651508549986,3,left
3.8689999999999998,0.7652868897932262,0.8167030278482447,0.17317476378330865,8.276650109089779,-2.952569126607048,-0.6397134987806159,-0.08529828696172376,0.16449116216346146,-0.743928855679663,3,left
3.872,0.7918075948582202,0.835259824134851,0.13150629252640883,9.078873257876513,-3.462131194994134,-0.8097842307833737,-0.08603831185892416,0.14333803181113192,-0.7280512565112645,3,left
3.873,0.8122285407429665,0.8575830992245659,0.08573395162497476,8.75236366903672,-3.254764490672872,-0.7405313159457908,-0.08553709772957659,0.15981890877381422,-0.7403993379757424,3,left
3.877,0.8226663414404398,0.8792496817126533,0.041550118819906424,8.74814020172877,-3.251978915546098,-0.7397558666649959,-0.08566255055139085,0.15091668733922892,-0.7337748829394128,3,left
3.878,0.8285286952729818,0.9026833525119836,0.010899395245403159,8.918510124037674,-3.3604023915489627,-0.7756341844993817,-0.08589384325120034,0.152978957720185,-0.7352272139456816,3,left
3.8819999999999997,0.8293628768253913,0.9245223349215188,-0.009548975337921844,8.71460127426223,-3.230589043648286,-0.7327454201030035,-0.08544666965176217,0.15529351070792713,-0.737080950952375,3,left
3.8819999999999997,0.8243291799048404,0.9414353154223727,-0.018973054932050572,8.873167482608942,-3.331599458143164,-0.7660239814485015,-0.08587726158295061,0.1512503334540613,-0.7339537445665646,3,left
3.886,0.8148305555759494,0.9593864465595041,-0.015803597338770917,8.787536853883356,-3.2770838075481104,-0.7480141053913676,-0.08575102683868965,0.15507387713777862,-0.7368214532639565,3,left
3.887,0.7987545433853365,0.973138393570698,0.003576859320521386,8.808184974812804,-3.2899436369508988,-0.7526876576455835,-0.08529321798059654,0.15245033856028006,-0.7350279959152992,3,left
3.892,0.7789659109335842,0.9818242524389021,0.02721978564879598,8.827895800984852,-3.3032816637338502,-0.7559188294599669,-0.08649906030477986,0.15371072295301713,-0.7355738350895142,3,left
3.8930000000000002,0.7534099790697384,0.989384748605579,0.04603302714357374,8.793750734507071,-3.2801849565769636,-0.750311181601087,-0.08464392744047144,0.1534979795645768,-0.7360107735575805,3,left
3.8960000000000004,0.7235859194499463,0.994116111333704,0.06610195186157332,8.824235456011955,-3.3012763987151557,-0.7547725784755754,-0.08664212150402668,0.15311459308795888,-0.7350871165761802,3,left
3.897,0.6956772743848885,0.998741305100912,0.08539701227028279,8.804633111537957,-3.2874478544046655,-0.752212160507288,-0.08547376743251775,0.15374534382077779,-0.7359278086061531,3,left
3.9019999999999997,0.6653823206819458,1.0014124949851797,0.10441368962600606,8.81555141009676,-3.2943699708594494,-0.7545420308094201,-0.08450949818426336,0.15301662270774627,-0.7356980689522117,3,left
3.903,0.6273578380613029,1.0025467201408422,0.12291630937490067,8.805775765735781,-3.2907189195041906,-0.7495064290539606,-0.08880871656946432,0.15385835109320234,-0.7349426676730246,3,left
3.907,0.5872611539287754,1.0041228676877765,0.1321039408056593,8.82213539794557,-3.29526471122245,-0.7597452204119914,-0.08081707462267662,0.15285204162071392,-0.7367596008779465,3,left
3.908,0.5503068457296387,0.9999004168168681,0.1396967362870812,8.796341481146717,-3.2876010077640814,-0.744177027057892,-0.09108548146535977,0.15394418103862884,-0.7342766347732028,3,left
3.911,0.5171090522641177,0.9932011468770339,0.15750076223050535,8.825680659396443,-3.2969413330988235,-0.7611629772317863,-0.08251003649925931,0.15311709738581014,-0.7364128712319093,3,left
3.912,0.4881913514008619,0.9851777082575037,0.17592642417853632,8.808748901962874,-3.291556608161251,-0.7513540328067279,-0.08274658216246572,0.15300876136432368,-0.736257475131495,3,left
3.918,0.4639271582702359,0.9744857981428723,0.18668132337992305,8.79006422011398,-3.284320331338421,-0.7420276478334212,-0.09908644097590824,0.15493340480118173,-0.7324436552563904,3,left
3.9189999999999996,0.44545943883991035,0.9663174862426739,0.18959077734894775,8.866542046433036,-3.3126321085190673,-0.781713557046227,-0.05891861236355092,0.15039228668473942,-0.7419586452745387,3,left
3.9219999999999997,0.42615982057401647,0.957182837152644,0.18319211667215735,8.724978020597199,-3.2602934906528063,-0.7081751566754693,-0.1255211972459781,0.15784965433501227,-0.7261291546967874,3,left
3.923,0.4111078688313684,0.9512889785442616,0.1784887512894478,8.907090585731844,-3.3277155479807496,-0.8026702270716162,-0.03767173155008269,0.14804032991624516,-0.7470274284216532,3,left
3.926,0.40786839401379466,0.9501880241772775,0.177249318313602,8.754901714630524,-3.271327981001925,-0.7237538366122304,0.3310715840974437,0.10675850478336622,-0.8346723526532283,3,left
3.926,0.3960042869901846,0.9464303559673486,0.16727442797619066,8.758585865936881,-3.2725863633219934,-0.7257855178147963,0.4189216906402482,0.09695663362560594,-0.8555738586560814,3,left
3.927,0.37700451374783783,0.9473200782122939,0.15727750698028845,9.050626021580381,-3.3812581938373723,-0.8766842287403441,0.3523176668381549,0.10438939129589703,-0.8397295914288054,3,left
3.931,0.3667367078068111,0.9536615595221166,0.15308838146131218,8.333162359457837,-3.1143526368722956,-0.5058881009512313,0.39248787255635387,0.09990381270892916,-0.8492832038009439,3,left
3.932,0.3561560113155299,0.9599104653704331,0.14787063754165614,9.522775177940051,-3.5569213984179857,-1.1206746688988136,0.3761448693831906,0.10173438203658507,-0.8453986183909057,3,left
3.937,0.3482301839970173,0.9647520570770108,0.14593876841263462,7.953581063499509,-2.973102966638387,-0.3097648528828536,0.375911452083597,0.10174774125522765,-0.8453404579932164,3,left
3.938,0.3465258689066031,0.965609243928455,0.1454332955376339,1.365565652636321,-0.5219260790413286,3.094654053230833,0.3844853235612747,0.10081079445025633,-0.8473813319879135,3,left
3.938,0.3442903968026475,0.9647938550688959,0.1410643720391768,-0.20380462352401696,0.06199533290685849,3.905613923777798,0.37421484622822443,0.10193161404889761,-0.8449382997836197,3,left
3.9419999999999997,0.3441369855484461,0.9623950471479152,0.1359823470342111,0.9861151488361943,-0.38072798704688915,3.290704687480962,0.3822141361011383,0.10106282524836843,-0.8468401855317151,3,left
3.943,0.34373922488534703,0.9607454278096221,0.1267490418553055,0.2683118320442095,-0.11371200093539094,3.6617228915578663,0.3779011313623298,0.1015345292830622,-0.8458150382335069,3,left
3.947,0.3410998150310657,0.9620551186769686,0.11260901465889578,0.5605694379101352,-0.22232926895519795,3.510503525846398,0.3788830343876428,0.10140354961228366,-0.8460491537648112,3,left
3.947,0.33722862770467177,0.960765367784445,0.10125509620606572,0.5643533559985742,-0.22391550581352307,3.508827546030864,0.3800362050721855,0.10134170716836202,-0.84632057223052,3,left
3.951,0.3320154700323222,0.9580003777861793,0.09317342754072161,0.411566971728788,-0.1668893615589231,3.587501521422925,0.37804050284503193,0.10145003911860065,-0.845851314363314,3,left
3.952,0.3265884116360229,0.9577477884550609,0.08558167119453419,0.5948422289648261,-0.2351577948537772,3.492913598703195,0.37991776390276977,0.10138055262334837,-0.8462909163882948,3,left
3.9560000000000004,0.318486910638344,0.9567985094162994,0.07689543909013699,0.45172229690283217,-0.18206309028613718,3.5671127553837465,0.37865660370252974,0.10140982900047937,-0.8459965558024722,3,left
3.9560000000000004,0.310791853081263,0.9546513964309172,0.06339499609265328,0.5296309716789158,-0.21054883096132276,3.526076341396638,0.37920070999162103,0.10134797269877528,-0.8461259876436267,3,left
3.964,0.3046538225987351,0.953994130153044,0.045134884101362856,0.5105161703175523,-0.20430167141281144,3.537292568001556,0.3792304053672738,0.10155177290444262,-0.8461226247471272,3,left
3.965,0.2968193139343931,0.9534004641671056,0.02622962530832694,0.49195330375473434,-0.19633316719596772,3.545242056276904,0.37886319140703834,0.10111964472467418,-0.8460591868796115,3,left
3.966,0.29100641267331767,0.9524071511702121,0.009997973903152909,0.5258131111256239,-0.20977812480800467,3.5290547366699743,0.37934147091326104,0.10177198412360988,-0.8461372583435945,3,left
3.966,0.2898848689752863,0.9481478012544821,-0.0016041057624563396,0.49265282198707283,-0.1974477161493814,3.546202357461478,0.3789238696247591,0.10106629969858985,-0.8460759554626428,3,left
3.97,0.291668376316348,0.9380849769181816,-0.007424832807928995,0.5176068128433446,-0.2051606536886702,3.530875699679683,0.3791661714405722,0.10147395064383563,-0.8461116973505218,3,left
3.971,0.2922905264844865,0.925810566778062,-0.008499860036911718,0.5016360862661274,-0.20281050577787424,3.544685350502207,0.3791703377741382,0.10184811740820914,-0.8460935368595693,3,left
3.975,0.294075562798783,0.9123847213595014,-0.007225876874144315,0.5110020406621886,-0.20093623458254514,3.5315558940352614,0.37888704478389595,0.10023999197202335,-0.846109389521355,3,left
3.9760000000000004,0.2985717395568007,0.8979853740023144,-0.0031020257679320227,0.5063087922077523,-0.20490319419659297,3.5428178159617243,0.3794256533384247,0.10322088456685727,-0.8460833834316321,3,left
3.98,0.2995845549033661,0.8827360206409428,0.004588494910114517,0.5054732674123843,-0.20129087033232268,3.5381442145492352,0.37875096420704646,0.09939128259225569,-0.8461205473948679,3,left
3.98,0.29917932454223184,0.8694949825214686,0.01186533196110931,0.5157809952267589,-0.20228119623840174,3.5284151168922904,0.37930658786287985,0.10258944546410481,-0.846088082977881,3,left
3.985,0.2951423769513752,0.8605559527965161,0.01544537464666959,0.49101473548534685,-0.20551921504963006,3.560477510718961,0.3792698127111895,0.10250490806582713,-0.8460829040969324,3,left
3.986,0.28516445204712615,0.8526175908433506,0.017362470754402684,0.532137681467044,-0.19772501425082845,3.503502481610221,0.3783026723983131,0.09639731460494008,-0.8461688980907656,3,left
3.99,0.27382010890361874,0.849338930348606,0.019236344864650038,0.4810650320304961,-0.20837822833473876,3.575765340294076,0.38069652277459864,0.11140797454262263,-0.8459633118790155,3,left
3.991,0.2571697588540307,0.8518313021238977,0.0209336215298087,0.5229732713215378,-0.19921155617367362,3.515815551515355,0.3767286292647921,0.08651886103831577,-0.8463031104064473,3,left
3.997,0.24453836077086474,0.8533361328552338,0.022146008934004736,0.5229617362095931,-0.1998803484434905,3.516854098303975,0.3819574277161215,0.11934864149066199,-0.8458551413519113,3,left
3.998,0.24177558377108413,0.8539641077765447,0.023117083178995936,0.4400629306402015,-0.2162407340750685,3.6327195075487126,0.40384447632704773,0.25715080606380997,-0.843944596199451,3,left
3.9989999999999997,0.2310410971483549,0.8583817996721477,0.026671096234597364,0.6421980866664394,-0.17541981212222774,3.3487819881711056,0.40906626401627855,0.28998246082112966,-0.8434972574581432,3,left
3.9989999999999997,0.2133948578672974,0.8664959839787137,0.03260314514881744,0.3076543120514442,-0.2433336701548673,3.8192431862552514,0.40510994360223407,0.2650908751917571,-0.843837323078991,3,left
4.0,0.20593516408737628,0.8712545835486312,0.0362497329136514,0.7487052710929095,-0.153670139766929,3.198825130905125,0.40749255360623204,0.28010233740632384,-0.843628115939696,3,left
4.004,0.20336867246312226,0.8730065141123238,0.0370783669181476,2.6008861848617904,0.22236681913244616,0.5941714958446,0.4065293730126742,0.2739982265986102,-0.8437233022025209,3,left
4.005,0.1932181400687109,0.8783564635141969,0.03939667752569796,3.041941878868701,0.3120532742795319,-0.026219424574121297,0.4065035325538333,0.2739040286189103,-0.843702974832619,3,left
4.005,0.18322710804935322,0.8866626305565829,0.039643145907530805,2.707494280196189,0.24405994402039635,0.4441397222766627,0.4070279020466705,0.2771177779573749,-0.8436885234510718,3,left
4.0089999999999995,0.17649258863814918,0.8965941286171853,0.030207112051653492,2.909268684282951,0.2850650720539102,0.16044851757400586,0.40640379252028525,0.2732704876282373,-0.8437123806125126,3,left
4.01,0.16676284446204365,0.9059373589456468,0.017316094803353575,2.8271265813041606,0.2683877542214961,0.275880489849226,0.4068844439839483,0.27626303758942483,-0.8436835171540515,3,left
4.013999999999999,0.15880213842922702,0.914974888675283,0.005023846555506272,2.825981072035871,0.2681341871550311,0.27749701023804196,0.40664098050520375,0.2746608259640082,-0.8437306116218066,3,left
4.015,0.15156483483840444,0.9252174900583439,-0.013523799510979645,2.8691195705120203,0.27691903009669755,0.21700243861864948,0.40666007752867994,0.2749999867803722,-0.8436458995369982,3,left
4.019,0.1429778333209844,0.9330744184524151,-0.03366236506757538,2.8173160058674482,0.2663793305878418,0.28945315079077505,0.4067953523986899,0.27547701122943435,-0.8437769643988318,3,left
4.02,0.13869707829671035,0.9372216965508422,-0.04770937956640414,2.857836703482528,0.27461982170564325,0.2330556158568993,0.4065954162201424,0.2746765726197944,-0.843619218139587,3,left
4.023,0.13702354926424282,0.9355498687528967,-0.05609673222510344,2.8358124708384365,0.2701430998317474,0.2634392372494223,0.4067712544047387,0.2754188148059518,-0.8437435009250095,3,left
4.024,0.13642426466699975,0.9299471480033573,-0.05881062173180113,2.8409250301880244,0.27117965748610284,0.2565073393673193,0.40669802615334005,0.27495443800504055,-0.8437510799825716,3,left
4.029,0.13749441885045924,0.9230295681071056,-0.056454591617188465,2.8469756544489266,0.2724141650766762,0.24849610872172626,0.4066084914654722,0.2750672069470914,-0.8435000179475307,3,left
4.03,0.13920379684961348,0.9103231957696281,-0.05053888603647647,2.836025228457178,0.27018167842622304,0.2622801427204488,0.40688672357000777,0.27527335922747675,-0.8440674052502923,3,left
4.033,0.1433717831147398,0.8964499590937848,-0.044666804520284216,2.8471011591807343,0.2724416336876969,0.24949159570345314,0.40645402956526927,0.2748547056679608,-0.8432224535942229,3,left
4.034,0.1479084089586076,0.8856025642655838,-0.037865707907047345,2.8386954406017404,0.27072369021387943,0.2578900273649031,0.4069185868157816,0.2753217130563148,-0.8441229769203458,3,left
4.038,0.1489218754647813,0.8735968904054024,-0.02575584971717002,2.8431513887020103,0.27163634996074715,0.25435291929563036,0.40664491985564777,0.27501915941841737,-0.8436029648904497,3,left
4.039,0.14716432472833213,0.8638366554701423,-0.014436695042959176,2.843152496141835,0.2716372864513504,0.2543746878189679,0.40643492183260627,0.2749203314547234,-0.843152920535648,3,left
4.043,0.14351088955860236,0.8588285274946142,-0.007406218805999421,2.838484857682726,0.2706742246280149,0.2558763731790466,0.40739646582802536,0.2756180530760153,-0.8451198199704398,3,left
4.044,0.13537275153414208,0.8577869461610735,-0.0032826463675407727,2.847635167867324,0.27256591990294265,0.2545789040686699,0.4056055042115515,0.274276185762965,-0.8414724455796105,3,left
4.048,0.12307500934654263,0.8625083308168657,-0.003289629507967298,2.83523431582444,0.2699982547586778,0.25475623581212503,0.4079070759711495,0.2760100630599407,-0.8461561183010629,3,left
4.0489999999999995,0.11042951643442045,0.8703263326382398,-0.0014265454956987546,2.847723228194969,0.27258676875596766,0.25559499690078924,0.4059846264003781,0.2745579978855729,-0.8422453777363028,3,left
4.053,0.0967615071921927,0.8823513676696156,0.002499043695423548,2.840740562377972,0.2711386574972545,0.25478202776117076,0.40604001519010324,0.2746144294175983,-0.8423525250648961,3,left
4.053999999999999,0.08598715169528398,0.8975014562142344,0.0019244345131598634,2.8348190383755867,0.269910003975515,0.25394385487989624,0.409695317398834,0.27732741409078165,-0.8498065325428361,3,left
4.058,0.07857147005626128,0.9115248018427506,-0.0038388380400939635,2.8604543280466936,0.27522983110710986,0.2580060271731036,0.4007065478236323,0.2706387010711811,-0.8314828153485796,3,left
4.059,0.0679734862785614,0.9285848536517358,-0.012514041173465053,2.8131818313905614,0.2654188138935767,0.2500954081132841,0.4156120559909465,0.28173454555578475,-0.8618662828196271,3,left
4.067,0.06129776476903475,0.939413546110196,-0.01625213485854758,2.873696073854931,0.27797883033870185,0.2605141041588133,0.3959510156638334,0.2670983474022791,-0.821789158594322,3,left
4.0680000000000005,0.058727380241405905,0.9426443083590159,-0.016354438319344678,2.823257460115138,0.2675096345695847,0.25170220199829035,0.31344882427710574,0.2057009519192251,-0.6536107337664039,3,left
4.0680000000000005,0.052466009116936885,0.9539874469965105,-0.015246836383247904,2.824632245468983,0.2677952203005829,0.2519241654385841,0.2937888992730494,0.19106741426848506,-0.6135352440479596,3,left
4.069,0.045943523626159506,0.966358986584085,-0.008840953745170826,2.9206417146859476,0.28772316198874426,0.26896990353930056,0.30869051958451776,0.20215855334975213,-0.6439111952754937,3,left
4.069,0.04138503148033586,0.9720841345704535,-0.002986204545710058,2.684709255333738,0.23875198436906506,0.22701126537773458,0.29971078776264565,0.1954752165260365,-0.6256071644014125,3,left
4.073,0.04146256656512619,0.9729163611360714,0.006554607128250375,3.0758475699189916,0.3199383422971217,0.296650141250961,0.30335051435651417,0.19818440887158123,-0.6330250660560066,3,left
4.073,0.04341761353399147,0.970245670866258,0.016621676134511116,2.5599702720101756,0.21286163565756328,0.20474183119341063,0.3034263365229325,0.1982400878002421,-0.6331818598978965,3,left
4.075,0.04389150104980018,0.9691603783135712,0.020049252662456045,0.3945319630727522,-0.23656343931420815,-0.18132454047339067,0.3014850612388863,0.19679623696561094,-0.6292223851989436,3,left
