time,gFx,gFy,gFz,ax,ay,az,wx,wy,wz,subject_number,foot
10.294,0.26289119811496153,1.2474111549474265,-0.17581279200020924,-0.6912282671510839,0.7173584908704547,-0.6084526722004064,-0.09207944320530695,0.287294717529661,0.1561327983840276,2,left
10.295,0.2163727565118081,1.258750158802688,-0.1908372222710692,-0.5061953622353889,0.6339784998699378,-0.5719057928301778,-0.09267358543809288,0.2854317242939586,0.1565901725224516,2,left
10.298,0.17629950876206077,1.2692111763428657,-0.1871440227708704,-0.6177945238720923,0.6842466307148567,-0.5939426989086826,-0.09196082121372806,0.28765810552860344,0.15603443447268533,2,left
10.299000000000001,0.13838766364130564,1.2844381289503928,-0.17545973548172497,-0.572389245036079,0.6638075257972258,-0.584980287504629,-0.09251769418733097,0.2859319913203553,0.15647991447221374,2,left
10.302999999999999,0.10653552592442264,1.302225811609826,-0.17285248085693766,-0.5717394650580199,0.6635239523030932,-0.5848543408077909,-0.09221188588041326,0.286839245462,0.15620054790509735,2,left
10.304,0.078476302339371,1.3200528320761813,-0.1782469958035327,-0.5955701822427748,0.6741899817268655,-0.5895419186130461,-0.09229475058539825,0.2866869838729411,0.15635631947485784,2,left
10.307,0.05396216760704418,1.3425534295622397,-0.19439429746021866,-0.5670108504524263,0.6614746664290312,-0.5839421769343589,-0.09235058515403688,0.28633970631049777,0.15625184825455762,2,left
10.308,0.03247485320446084,1.3674562207604941,-0.21293884770596067,-0.589275508606729,0.6712878552896916,-0.5882810750686819,-0.0922418190750256,0.2868893152615142,0.156346785163758,2,left
10.314,0.0061282830095273355,1.3933030944261002,-0.2051295282012621,-0.5772465755131566,0.6660855707680411,-0.5859634894805135,-0.09234801435743281,0.2863913555282751,0.1562871771194452,2,left
10.315,-0.019948867626442254,1.4202759412066888,-0.17785146968624982,-0.5800051586825883,0.6672345839089806,-0.5864832059733813,-0.092260839583137,0.28665762258088745,0.1562140569371295,2,left
10.318,-0.040993685676554426,1.4442212697863033,-0.1608414125996915,-0.583224896610663,0.6684986749243145,-0.5870692597500553,-0.09234256837111504,0.28672520550748903,0.15655432388834806,2,left
10.318,-0.06043610320411626,1.4654720653360789,-0.15955300009027445,-0.5775868358641962,0.6665596786240279,-0.5861163890697104,-0.0922425818043403,0.28630410855359534,0.15584816341177055,2,left
10.324000000000002,-0.08161732043059228,1.4860789280373972,-0.16863242866717687,-0.58298781056775,0.6679570187680146,-0.5869062557049224,-0.09237095650520087,0.28699626129513894,0.156884582378008,2,left
10.325,-0.10299645719696082,1.5070061092869564,-0.1775849235866525,-0.5792302836415937,0.6675356456857557,-0.5865038892395956,-0.09223797973189593,0.28624635435761814,0.15578280768843739,2,left
10.327,-0.12398167992579737,1.5305664930665668,-0.18409349559485425,-0.580983205565808,0.6673116322138242,-0.5865792247144401,-0.09230869656840268,0.28669873764565146,0.15641459088671916,2,left
10.328,-0.1436557631959756,1.5549369828000845,-0.19230396284112464,-0.5809781802020392,0.6673003423377966,-0.5865758268915461,-0.09239994927191969,0.28699471031708756,0.1569834781687136,2,left
10.332,-0.15483547606980572,1.5794335997731288,-0.19340864545320655,-0.5797158865428964,0.6686129567210697,-0.5868291607744447,-0.09205017572409374,0.2855450776660098,0.15453317058695906,2,left
10.333,-0.1609570722709977,1.6022676778638307,-0.18113842264324903,-0.5817605975771685,0.6652346858455193,-0.586084285744426,-0.09268987719572853,0.2882617931993028,0.15907052650826364,2,left
10.337,-0.16465559174624445,1.6196388734566942,-0.162009949942249,-0.5794020519382683,0.6705862398257267,-0.5873321625238556,-0.09187048742893297,0.28476632472109686,0.1532453650546748,2,left
10.338,-0.16148390717535185,1.6335300253946108,-0.1523701765847057,-0.5815119531401809,0.6646991532771864,-0.5859220270073171,-0.09255372607087256,0.28768840220037456,0.15810879463303867,2,left
10.342,-0.1580015104297977,1.6441727645078241,-0.15529057372796135,-0.5804220371985711,0.668158893363846,-0.586762315277068,-0.09253838839860358,0.28759641339351205,0.15797742103650192,2,left
10.343,-0.15685695347100476,1.6519929681927903,-0.1562948957400307,-0.5795364423098512,0.6711656945645383,-0.5874973395901102,-0.09122526975001026,0.2820641522423031,0.14870105959693544,2,left
10.347000000000001,-0.15456062572203255,1.6571245852912262,-0.14721315288715375,-0.5832571290175936,0.65793688330261,-0.5842499328510702,-0.09444900916468063,0.29567947553488116,0.17150265193880893,2,left
10.347999999999999,-0.1509162231097359,1.6601528222388442,-0.12410488897019957,-0.576505398963377,0.6825365036600488,-0.5903015606875999,-0.08910489647004191,0.2730974354646267,0.13369436004755594,2,left
10.352,-0.14856087595974615,1.6643461817954441,-0.10500917228302287,-0.5850726056257349,0.6509035687660687,-0.5825107691462243,-0.09615364420520967,0.30288650621632374,0.18356549999965965,2,left
10.353,-0.14722539863910394,1.6653629960473078,-0.10051600513327533,-0.5779640679420464,0.6773313762687718,-0.5890235598316171,-0.12574622892276055,0.4278141276532085,0.39283457424583557,2,left
10.353,-0.1392588772020607,1.6683056783299448,-0.07690261536403645,-0.5781661485331134,0.6766224666533991,-0.5888491713585795,-0.13279541521561744,0.45759837349787935,0.44270353453057865,2,left
10.356,-0.12660943048264822,1.677332248730865,-0.03364822374187184,-0.5916158598948323,0.6261769247265623,-0.5764099652116326,-0.12745068981814733,0.4350339912334863,0.40490625863357743,2,left
10.357000000000001,-0.11655617960964464,1.687429709856969,0.00903462772218436,-0.5585790141645872,0.7501728175372164,-0.6069881293274102,-0.1306747383200899,0.4486072457349552,0.4276780819620345,2,left
10.362,-0.11187491287936008,1.7063851224294941,0.05760901004871734,-0.6133257596602821,0.5445673541721368,-0.556282346221413,-0.1293621843442446,0.4431484906145198,0.41845711876067193,2,left
10.363,-0.11213589200447724,1.7216244372340468,0.08701116207007585,-0.5411493248586196,0.8157824158444358,-0.6231694901963714,-0.12934495746479813,0.4429590188578004,0.4182487841442659,2,left
10.363,-0.11361561257433193,1.725870757330053,0.09228962360208495,-0.23871911273345525,1.954688967841776,-0.9040247395352025,-0.1300314446519675,0.44597229043210906,0.4231887462054376,2,left
10.366,-0.11962378798177326,1.7435625245327244,0.10864999205673567,-0.1666746071070958,2.2260247537140936,-0.9709359651700872,-0.12920814574578882,0.4424466883634939,0.4173296111445264,2,left
10.367,-0.13111183983132801,1.7691837530353536,0.12180868834602587,-0.22114241704443224,2.0201602420302986,-0.9201793960387326,-0.12985078602375477,0.44506373182738923,0.4218031940792786,2,left
10.370999999999999,-0.14382355083965107,1.7884349407395255,0.12081703911101627,-0.18853369662187036,2.1445613700295487,-0.9508352495296302,-0.12950148420097685,0.4438996030185637,0.4195627857487896,2,left
10.372,-0.15579305978593902,1.8060983406743039,0.12731953320919526,-0.20146234143562577,2.09361124376342,-0.9383018756244956,-0.12958625388541717,0.44372254769651553,0.4197664467140855,2,left
10.376,-0.1613493173866712,1.8188591660161921,0.13845304618050247,-0.20212115470384642,2.0933614800813833,-0.9382094547258428,-0.12967095910179927,0.4447363996048369,0.4208510153299262,2,left
10.377,-0.15941806769238498,1.823310278438197,0.14862085135233755,-0.19488967529728163,2.119632559756667,-0.9447013091562807,-0.12951782231426173,0.44356674752339204,0.41938103023252693,2,left
10.380999999999998,-0.15213114262777888,1.8213918536079245,0.15961711851567634,-0.2029149128014629,2.087529182442273,-0.9368107218884164,-0.12966674115659282,0.4441911431467851,0.42043089665064426,2,left
10.382,-0.1374997547156189,1.811225688119984,0.16989513281443794,-0.19763073896016722,2.113495144094414,-0.9431294325692433,-0.12955664222473567,0.44469592658979273,0.4203697777249271,2,left
10.386,-0.11857070310538334,1.7899641607027688,0.1832483097941486,-0.19897415709048422,2.0979897627389743,-0.9394515354330215,-0.1296238686500336,0.4427634991554702,0.4192053644278796,2,left
10.386,-0.09928097693341598,1.7596887167761706,0.1968659288910536,-0.2008556989475579,2.103718200447423,-0.9406852097175936,-0.129588502828416,0.44592068736141754,0.4214016600346723,2,left
10.390999999999998,-0.08073413083712451,1.7210784950792153,0.2051607497906805,-0.19777478691575762,2.1051070596230614,-0.9411705441864888,-0.12960246582680746,0.44245454314353894,0.4188924224804591,2,left
10.392000000000001,-0.06417313424292767,1.6756784607586557,0.2121398699556475,-0.19937822896922772,2.098979579194676,-0.9396603722115563,-0.1296102838788658,0.44452489441058896,0.4204547508147519,2,left
10.395,-0.04482873927317205,1.6274682580418443,0.2214921729576072,-0.20183232426721154,2.1086807587233363,-0.9417885708619754,-0.12956763783193037,0.44609932288517773,0.42145176163939824,2,left
10.395999999999999,-0.022028440043775136,1.5764928941672847,0.23567057610917502,-0.1937663951322155,2.095765071322135,-0.9392078646017448,-0.12966320561291478,0.43882071948479306,0.41644329522540324,2,left
10.401,0.0007447672917016541,1.5222871857150349,0.2476327813173643,-0.20687457952474245,2.1109833246879512,-0.9420586018727324,-0.12950743265438222,0.4524110522530199,0.4258837018225896,2,left
10.402000000000001,0.027929838339653255,1.4652793358277982,0.24498733133901018,-0.1924274080785283,2.0965442254079765,-0.9394602506784948,-0.12969980599303654,0.4349266315135082,0.4137072810732144,2,left
10.405,0.055388661656275956,1.4124902403766066,0.23141052831135744,-0.20101673814195314,2.1039764615565444,-0.9407358317824994,-0.12954229067741058,0.44953873176407727,0.42389519960958705,2,left
10.405999999999999,0.07902683748979661,1.3625190111296615,0.2089736885617022,-0.2079117576087213,2.1123008495798823,-0.9423119897038956,-0.1295419532009871,0.44911868106838093,0.42358549758411923,2,left
10.411,0.10303971263284717,1.314240103078763,0.17846714411362932,-0.17666117085197441,2.0799174203767947,-0.9364199709549128,-0.12985466341880542,0.42132083857539243,0.4042499992244496,2,left
10.412,0.12487078797898948,1.2741617860142271,0.15372047557139445,-0.2349289167613136,2.1387925431237553,-0.9470525283916045,-0.12909244438451833,0.4896818570321698,0.4518222919640593,2,left
10.415,0.14581929137472588,1.2324938898187257,0.14354341969464718,-0.15997135728223727,2.063717839202276,-0.9335321101817731,-0.13035418916687005,0.3763196508573055,0.37292860349321766,2,left
10.415999999999999,0.15943767476252735,1.2054798357423429,0.1427443176638592,-0.22260899224668046,2.126169895987614,-0.9447598766678145,-0.12869023648326056,0.525852945140702,0.4769931602794378,2,left
10.42,0.16265018043221882,1.198778165625635,0.1444385171225735,-0.22086233000440691,2.124673647788108,-0.9445141174208925,-0.12171012672488543,1.1534443986140004,0.9138082257199466,2,left
10.421,0.17152651304540095,1.1779776478165456,0.15335322409619506,-0.10151993531317365,2.0052303587086007,-0.9229920156764073,-0.12004513870700977,1.3029867811266258,1.0178692595763676,2,left
10.422,0.18361803036051919,1.1533802034204514,0.1714426706082065,-0.3949408001140656,2.29845927572552,-0.9757834954126319,-0.12130741737083192,1.1896122658628387,0.9389752369751191,2,left
10.425,0.19009745836850012,1.1415230508729763,0.18733402129094373,0.09160818564393293,1.8124388435805727,-0.8883111992156997,-0.12054770099790095,1.2579783154069413,0.9865636635918221,2,left
10.425999999999998,0.19282228060039047,1.1349700285956628,0.19393738867098753,-0.5501687540535106,2.4534158748383126,-1.003647044595288,-0.12085241435850472,1.2301950075210961,0.9671852489385739,2,left
10.429,0.1924733455783569,1.1347902127007923,0.19482493948273005,-3.2440284551253264,5.1438939352132556,-1.4878694470463616,-0.12086642304692895,1.2297316040041772,0.9669476625843638,2,left
10.43,0.19381698483469106,1.1396491207184622,0.18878550607700104,-3.885817379135312,5.784828357744061,-1.603144109931517,-0.12069062805385597,1.24441553459901,0.9770483735459292,2,left
10.431,0.1950369799750359,1.1561719120399228,0.160252441662192,-3.3992419622824563,5.2989035079976325,-1.5157745999673307,-0.12089834395253175,1.2268475056224148,0.9649385684763584,2,left
10.436,0.19203706192388728,1.187733140454879,0.10173399734029095,-3.6927055885605675,5.591974689443501,-1.5684616504924627,-0.12074126220830599,1.2404963462446639,0.974387788390851,2,left
10.437000000000001,0.18966004511701462,1.228449771891733,0.030560136225683827,-3.5733078801403653,5.472739817730766,-1.5469871661120207,-0.12081141679515664,1.2332378485787672,0.9692355787235951,2,left
10.439,0.1899000026528556,1.2775418715617273,-0.028629538972609118,-3.5716145470871785,5.471036522690645,-1.5468174544252118,-0.12082957900088108,1.2346585851937735,0.9705467450879169,2,left
10.44,0.19524591945765135,1.332751123437268,-0.06263080801307418,-3.634228305511769,5.5335921900161225,-1.5577932716005434,-0.12074457512074604,1.2370442390547314,0.9716522936117593,2,left
10.446,0.20632203664141782,1.3875965634850704,-0.07386778495501217,-3.5592288398149217,5.458655688963601,-1.5447022566689035,-0.12085975874344695,1.2331375209151654,0.9696138697989759,2,left
10.447000000000001,0.21531394815949656,1.4363080373310828,-0.07508768343976138,-3.617636630422229,5.517022976408942,-1.5548180338543254,-0.12076266331389868,1.2367260695244302,0.9715689384120597,2,left
10.45,0.21959376757457577,1.4775195505585628,-0.08329179615295526,-3.586141009903436,5.4855535895680365,-1.5493211501661799,-0.12078566673408712,1.234613032177717,0.9700935570584919,2,left
10.45,0.2216224391025468,1.5075507627972824,-0.10098413159407482,-3.593341857317604,5.492710394084133,-1.5509385773648923,-0.12089032590531328,1.2347405408330678,0.9711886527794645,2,left
10.454,0.22516948638009696,1.525057731657789,-0.10644405628414035,-3.6016787703706363,5.501145513960386,-1.5513970513085917,-0.12062763241042587,1.2365615602629374,0.9701560887219512,2,left
10.455,0.23188419551474793,1.5331471079173755,-0.09073999498241725,-3.5872497077429246,5.486547516338387,-1.5505936972547434,-0.12102517232447,1.2333390429980327,0.9713445667240734,2,left
10.459000000000001,0.2384922458903267,1.528282534560293,-0.06791415711270538,-3.6007794327685723,5.500290192279353,-1.5508299113501731,-0.12060031039680523,1.2368684857168515,0.9701429345833888,2,left
10.460999999999999,0.24108907473325297,1.5143864048090312,-0.04839029813013558,-3.591713105698725,5.491051783703705,-1.550950339912203,-0.12084750020508231,1.234680411253379,0.9707341233553102,2,left
10.464,0.23762512749800624,1.496186870606489,-0.03861939838133653,-3.5956895895859224,5.4950211300601595,-1.5516801379211422,-0.12105222893200313,1.2335312389664974,0.9717553381878381,2,left
10.465,0.23036587641263306,1.4699251354297675,-0.04029709756652954,-3.595633081050299,5.495307155679622,-1.5484247502229826,-0.12014249103941138,1.2397668554172485,0.968122763269991,2,left
10.469000000000001,0.21477200752819942,1.4427734176823455,-0.04511884275149836,-3.5935750084469977,5.492469365408416,-1.5554716764153005,-0.12183216687211529,1.2279851856634831,0.9747090862879794,2,left
10.47,0.18982870542551597,1.415463373611919,-0.04558198478583635,-3.5961374597594036,5.496195661669461,-1.5448672660112668,-0.11966186261595385,1.2431621923027225,0.9662847145578075,2,left
10.472999999999999,0.16452198584200803,1.3879388541258197,-0.03992968388633293,-3.594079597052356,5.492896250944398,-1.5562934448100183,-0.12147415627514224,1.2304719998545535,0.9733057863038761,2,left
10.474,0.1469489328539686,1.3661646177086344,-0.02163392551836582,-3.5952763657889655,5.4948102757855555,-1.5496916892047696,-0.12142381203013618,1.2308911354836747,0.9731645623779129,2,left
10.479000000000001,0.14061045932877816,1.3435932421586005,0.006343977145701058,-3.5948114556623274,5.494966022799195,-1.5437354373881278,-0.11797196126998608,1.2548403419207028,0.9596129796532965,2,left
10.48,0.14684225405897783,1.3213234804239038,0.03389816249760462,-3.5949074521576727,5.49234904620447,-1.5694618452853129,-0.12645811478760474,1.195887203716108,0.9928672288288813,2,left
10.482999999999999,0.17875043821831427,1.2985967573193675,0.060903279531558926,-3.5948270793087533,5.497299501704877,-1.5217664566638591,-0.11238667172074625,1.2936568408847084,0.9377394260060935,2,left
10.484000000000002,0.21048367201203305,1.2806570736303806,0.07505108359075147,-3.5950529007212992,5.491065593281462,-1.5830347787674586,-0.13094771230386199,1.1646977866623607,1.010459114874274,2,left
10.489,0.2203342467223957,1.2762992637441297,0.07741079065644625,-3.5948099029077776,5.496215186948016,-1.5318705529156678,-0.20885169452673535,0.6234990756098016,1.3157333284791133,2,left
10.49,0.26612316314140494,1.2675040449212436,0.0783661798328345,-3.5946545650346273,5.495915005726706,-1.5332370153493449,-0.22741488410823263,0.4945501462730909,1.3884794114751375,2,left
10.49,0.34119517252070175,1.2552494519978548,0.07000954161439543,-3.5957998527560227,5.4867746324546065,-1.6308937044115828,-0.21334003004258367,0.5923086277533137,1.333313601739461,2,left
10.493,0.40440134639384356,1.2516340369546652,0.05201307167439878,-3.593113466440907,5.509367157439744,-1.3908669356170127,-0.2218291456225046,0.5333520359650478,1.3665904626740302,2,left
10.494000000000002,0.4854235527492703,1.249918962347814,0.021240542278395474,-3.5975717417746713,5.4719132090835005,-1.7888594754959448,-0.21837707773421022,0.5573361099884843,1.3530645981013805,2,left
10.498,0.5420065137671392,1.2489372741796259,-0.00159509510474227,-3.591660804694664,5.521282948868619,-1.2638872478944152,-0.2183219031259882,0.5576792419923693,1.3528219367539291,2,left
10.499,0.555260015906025,1.2497131675878481,-0.0057211173421691285,-3.566350616653443,5.728029151689476,0.9395763444616855,-0.22014536395834466,0.5450988092355651,1.3600253598416838,2,left
10.499,0.6043324757045732,1.2536731967936399,-0.027280969088839292,-3.5603964546140214,5.777353494566597,1.464584772643719,-0.21795864131882736,0.5601655363941341,1.3513732968502041,2,left
10.503,0.6682971078234732,1.2587772651437819,-0.0561384593448276,-3.564930641112153,5.7399777627954744,1.066547830260161,-0.21966524051229525,0.5484332733403707,1.358143488948813,2,left
10.504000000000001,0.7108222748244217,1.2614750363626628,-0.07451738687653225,-3.5621588108873317,5.76248589518231,1.3065782482162747,-0.21874692850131017,0.554759386913436,1.3545091265719265,2,left
10.508,0.7564875153527454,1.26529455149654,-0.09535227838283172,-3.5633617888998077,5.7533950925036095,1.2090132454341291,-0.21894027407352037,0.5533114715455353,1.3551966800512012,2,left
10.508,0.7953427824925321,1.2673215957096327,-0.1081111288603078,-3.563224501400991,5.753130215185706,1.2074239660717878,-0.21922921602885698,0.5516422458636236,1.3565554401795308,2,left
10.512,0.8225325180874815,1.2650640870638785,-0.11212045322954278,-3.5628417896699487,5.758115530633175,1.258928116336302,-0.21872960951959636,0.5545305760799573,1.3542072614899405,2,left
10.513,0.8448246599088061,1.2627374976889207,-0.11525149312065068,-3.563348933225869,5.752187188220521,1.1972957549177004,-0.21922184161063796,0.5518256884505981,1.3566152962029885,2,left
10.517999999999999,0.8599331191015109,1.2566113997135102,-0.11020835404965601,-3.5628831070665896,5.756742132705374,1.2451956595539226,-0.21887920461744823,0.55363635242609,1.354890553872497,2,left
10.519,0.8669285014147332,1.2451502889080617,-0.09812609262092327,-3.563346033325003,5.754470338562158,1.2196725387367555,-0.2189934378012097,0.5528376093753989,1.3553350148335581,2,left
10.524000000000001,0.8649933104453493,1.2316830940553016,-0.08563119500926734,-3.562745918696387,5.754559337317824,1.2247858937528875,-0.2191411573691417,0.5528685266827248,1.3566222918051793,2,left
10.525,0.8592507677696681,1.2118325917242245,-0.0714357992164276,-3.563581485123376,5.755995113887147,1.2329467369364253,-0.21874041821519072,0.5532368564543289,1.353432625183549,2,left
10.527000000000001,0.8507297777548295,1.188224290812114,-0.050661566466394546,-3.562597727882103,5.753912490350933,1.2194938408843585,-0.21932348845150107,0.5527896851334232,1.3581334621273986,2,left
10.527999999999999,0.8393580421678906,1.164719174818681,-0.02358190499871097,-3.563361758233301,5.755728051209793,1.2318832934610247,-0.218721495254472,0.5531307376565243,1.353198673379381,2,left
10.532,0.8281873909236456,1.1367045721312425,0.003973557047324893,-3.5634558751870777,5.755038139136759,1.2244627585432801,-0.2190694074687073,0.5529325452745556,1.3560507894566278,2,left
10.533,0.8156454971666931,1.1055898808146367,0.029880186312732298,-3.5617636382979105,5.75390445568396,1.2252989923362752,-0.21932648184228465,0.5530610672852136,1.3583400296172252,2,left
10.537,0.8036293670090724,1.0751442641029691,0.05541185562210097,-3.5655438805467288,5.757189890969839,1.2308045783391117,-0.218146276462149,0.5528853492897499,1.3481020593037094,2,left
10.538,0.793779547711581,1.0448252609480475,0.07707946085596315,-3.5599261949114993,5.75212283077723,1.2208150207268214,-0.22033741161727016,0.5531927299679682,1.3670993117403616,2,left
10.543,0.7835831692363548,1.0131907996618787,0.09330877609334001,-3.5659095906802554,5.757554658633257,1.231794772845427,-0.21752782042144864,0.5527722945399955,1.342720031292111,2,left
10.543,0.7780739360455076,0.9852007626573728,0.1049488267119219,-3.5624604266122204,5.7543681992344595,1.224928402109958,-0.21987126638693527,0.5531358540801625,1.3630665850679913,2,left
10.547,0.7707808276390712,0.9581953010847684,0.11264998864139678,-3.559451259330674,5.751861069927905,1.2215968175796206,-0.2198044632533504,0.5531548040028262,1.3624982256502598,2,left
10.548,0.7580669832292408,0.93119382157326,0.11915469325751923,-3.5725590240525347,5.763224190707442,1.2404123320914477,-0.21535257040989492,0.5523335238327645,1.3237770563516658,2,left
10.552,0.7485469821797319,0.9118316967925882,0.12191383093672276,-3.5482648090934643,5.74208224962304,1.2047546954300854,-0.22629584842544706,0.5543338636074364,1.4189621031261161,2,left
10.552,0.7326623210671241,0.8865717615579398,0.12475474210558807,-3.579452399936148,5.769242886141496,1.250711951032145,-0.20815352242665208,0.5510106402051984,1.2611424947690082,2,left
10.557,0.7207230385707413,0.8661812182860587,0.1282936413021347,-3.5534240826492853,5.746565261797215,1.212275667777152,-0.2320802558253042,0.5554058574057048,1.4693012320929477,2,left
10.558,0.7172487037598758,0.8621411685008936,0.1268789291731649,-3.5541074168644866,5.747194994586154,1.213581161571895,-0.3325211180756401,0.5738888393167523,2.343000540763498,2,left
10.558,0.7018359975003958,0.8482483772142719,0.13417505167285124,-3.603791561767947,5.790376339067542,1.2860003209064514,-0.35644324879706313,0.5783024049073977,2.5511528421759753,2,left
10.562000000000001,0.6819936770332209,0.8287327520754039,0.14355740970596215,-3.481714273986653,5.684230804644323,1.1076916174960276,-0.33830674599567034,0.5749534784840904,2.393343500694104,2,left
10.562999999999999,0.6581540733455882,0.8096601171859621,0.13986471108325343,-3.6840952542911944,5.860218588550582,1.4034144218822822,-0.34924893063738716,0.5769669933054811,2.48851949424591,2,left
10.568,0.6401799387805979,0.7954334053414676,0.13778036064033986,-3.417183804781347,5.628105016756692,1.0133532425785696,-0.3447866780337333,0.5761688362017978,2.449799351066238,2,left
10.568,0.636648470437333,0.791696414880779,0.14131314393038563,-2.2965018513231525,4.653686801317239,-0.6235644895690501,-0.3447462796519812,0.5761094892888706,2.44924490022445,2,left
10.569,0.6182283003571163,0.7759573907064099,0.1486845491675685,-2.0296364803830285,4.421599516533398,-1.0135895396749117,-0.34704857240098486,0.576608164522376,2.469558608524672,2,left
10.571,0.5908243668355487,0.7562983264598777,0.1584996674280017,-2.231967608310566,4.597558846026198,-0.7179058197781615,-0.3442840761585644,0.576024633824584,2.4452281537467435,2,left
10.572000000000001,0.57002655275657,0.7393195472120955,0.1666088395419766,-2.109871353754974,4.491402542798813,-0.896229407613301,-0.3464481119585424,0.5764554030955023,2.464174405796426,2,left
10.575999999999999,0.5483399174832225,0.7142722812437243,0.1772337186655802,-2.1597208808007498,4.534678128893383,-0.823680548976841,-0.3452467921836211,0.5762975696403673,2.45396348436366,2,left
10.577,0.5294584887070999,0.6926991346535472,0.18781336161651568,-2.1600483825430903,4.535105022767169,-0.8226540953703735,-0.34560217391002146,0.57615832293713,2.4562842484103298,2,left
10.581,0.5120760968042468,0.6723252408870256,0.1998524051042977,-2.1345302503472157,4.512718281258723,-0.8606903110186392,-0.3457635042928032,0.5765407955131256,2.4590146968668467,2,left
10.582,0.4922167376359366,0.6506338147099127,0.21728093027548143,-2.165209811394413,4.539589192988173,-0.8151314150243517,-0.34540874863342397,0.5760425793948951,2.454300730333393,2,left
10.585999999999999,0.4727143148457783,0.6342310223728771,0.2369934221314824,-2.1411347868798822,4.518572385698958,-0.8506172119003387,-0.345767446645584,0.5764536535469498,2.458718727813517,2,left
10.585999999999999,0.45687911497542877,0.6190272332849363,0.25668618986240416,-2.1546788373096124,4.530184013326441,-0.8314595176084563,-0.3454274523957577,0.5763943278708591,2.4557723152950333,2,left
10.591,0.44374539340481284,0.6050900654337612,0.27595502791372645,-2.150264333598515,4.526875888061713,-0.8358931786374466,-0.34584763398984153,0.5758310013559352,2.4570207472891497,2,left
10.592,0.4296959876360462,0.5926506835602106,0.2964657045975004,-2.149236588182979,4.525069854246357,-0.8408607275241912,-0.3452253454055357,0.5771802014417232,2.4571080016636095,2,left
10.597000000000001,0.41847950362058883,0.5813105525870621,0.31350709791489295,-2.152248333448373,4.528807260805922,-0.8322111973194836,-0.34607280494363823,0.5751528894683154,2.456273883048937,2,left
10.597000000000001,0.41096209851994414,0.5727507956024407,0.3234556967663118,-2.1489997347647107,4.525091512552562,-0.8403431520505557,-0.34518437484272196,0.5773163402830839,2.4572938152272927,2,left
10.603,0.40465670093845374,0.5637664783769687,0.3307086533748473,-2.1528012196786195,4.5283879832847225,-0.8348206373814712,-0.34567406727661043,0.5760627679029448,2.4564980340924225,2,left
10.604000000000001,0.40155672589804897,0.5541176992222514,0.3360468928784809,-2.1467122835775965,4.524748931823287,-0.8374324829232898,-0.34621360989553707,0.5750011797464067,2.4568360221401964,2,left
10.605,0.39863288671951097,0.5467192463522346,0.3355315768838958,-2.1568540857570557,4.529786445145727,-0.8369736886441111,-0.34404426126169707,0.5796770707742609,2.4570319150855076,2,left
10.606,0.39343105429724984,0.5398040887111664,0.330903870080862,-2.142628786763664,4.523056154456629,-0.8363383720571171,-0.34803295966430753,0.5710015332169807,2.45636735558276,2,left
10.612,0.3882816128295002,0.5312345800489895,0.3246761763984681,-2.1576237922402197,4.530085403634384,-0.8372617424036586,-0.34291862874563145,0.5821404332366042,2.457286849412704,2,left
10.613,0.3823192383916785,0.5243328954374691,0.31524236487044166,-2.149227304379022,4.5262533465804236,-0.8363392412010613,-0.3471858492984371,0.572843996298495,2.4564943741411605,2,left
10.615,0.37316029801590445,0.5167207909319189,0.3064791506473185,-2.1406673351703356,4.521810667780052,-0.8374694364207106,-0.3470808940775156,0.5730898455169688,2.4566152076547145,2,left
10.616,0.36240201574012343,0.5057151946832392,0.30095239803005247,-2.175963003915033,4.539391300485829,-0.8356760422974789,-0.33890815946477076,0.5908281400692377,2.4577946996239435,2,left
10.620999999999999,0.35464764476001864,0.49567888031318524,0.2970582413536371,-2.1109009932084435,4.507121507969181,-0.8384314458970312,-0.3589846732244425,0.5472431601276375,2.454783871048832,2,left
10.622,0.34725771548329826,0.48134971327336024,0.2917917887843524,-2.1943511444017236,4.548486168292319,-0.8350233809583042,-0.3256981225768495,0.6194974249260237,2.4597983889427635,2,left
10.625,0.3409217063336139,0.4702167507698838,0.286813941865095,-2.124726252613347,4.5139766851752965,-0.8378130367212184,-0.36960510551727455,0.5242067387741566,2.4531914595520092,2,left
10.626,0.3401279855155752,0.4667457379078236,0.28475996848928053,-2.1264559784941155,4.51480945520218,-0.8379449908385119,-0.5538931147522617,0.12408676226938095,2.425499389001624,2,left
10.626,0.33464277218254423,0.45438226684185856,0.28132315491315973,-2.2597083029789133,4.580958137722405,-0.8319529275649677,-0.5978058147881462,0.028816954133139585,2.4189218575660867,2,left
10.63,0.32428678822460727,0.43752170061594997,0.2791296691189631,-1.9323873366240665,4.418479605753931,-0.8464291272435622,-0.5645130794447651,0.10104862807866846,2.423904571186153,2,left
10.630999999999998,0.3212319934007196,0.4185161738226624,0.2775288500700603,-2.4750342559582306,4.687862147885056,-0.822499260347594,-0.5845872377257493,0.05745506478197392,2.4208816370760076,2,left
10.635,0.321206451356855,0.40342965157611593,0.2751588296222049,-1.7593079032808896,4.332534490697888,-0.8540487644593227,-0.5764350271061403,0.07526827185080728,2.422166652137266,2,left
10.636,0.32116910413311417,0.39961066210732066,0.2731005046349334,1.2457010674611326,2.8413689438223684,-0.9870426178555457,-0.576285915981812,0.07535292665263102,2.4220604511717303,2,left
10.637,0.3266501346181109,0.3866716373045379,0.2641772898010431,1.9614652468346365,2.48604406890115,-1.0186278985525132,-0.5806164438905288,0.06628761834970964,2.421593487846831,2,left
10.638,0.33265909849284103,0.3673561371750811,0.2508518278497517,1.418706633168665,2.7553619826119338,-0.9946232292555203,-0.575439076116895,0.0771963518046278,2.422188851488624,2,left
10.642000000000001,0.33807518568522427,0.3516332882267066,0.238205059370211,1.7462626973470723,2.5931005590185188,-1.0092125546901207,-0.5794549662158552,0.0686201466879309,2.421664126285508,2,left
10.642999999999999,0.3490395115674024,0.3354651838454376,0.22605602160225158,1.612629361567012,2.658809276473571,-1.0030853189584858,-0.577339765441922,0.07349363875193628,2.422138404032423,2,left
10.647,0.36055443680606647,0.3208672345858645,0.21274394111117115,1.611374198552816,2.6602880930614443,-1.003332033077053,-0.5777049128393006,0.0717954448535609,2.4215797249940807,2,left
10.648,0.3723609368102845,0.30533448042614686,0.1940474586964734,1.6805950590120338,2.6250929687786955,-1.0060981182343114,-0.5784950784493432,0.07163881498029065,2.4223288889136967,2,left
10.652000000000001,0.38537220586872967,0.2898950560812066,0.17188305859323422,1.5972019954860017,2.66683978018634,-1.002537437877931,-0.5772379105952989,0.07245599549160986,2.4214528392245267,2,left
10.652000000000001,0.3943566771812502,0.27632138336352763,0.14927228049628932,1.6628804765198733,2.634963306735677,-1.0056856782651025,-0.5783793184857933,0.07150206496929702,2.4221302093802937,2,left
10.657,0.40866230092009725,0.2621207270247983,0.12577150283865757,1.62605853464812,2.6509295341833097,-1.0032698839416856,-0.5777597120661464,0.07286067012254224,2.422231116744625,2,left
10.658,0.4265972034874066,0.2456799161659874,0.10220500186726181,1.6369936160278138,2.6494744639750794,-1.005108776413421,-0.5776342595499495,0.070305799389497,2.420674204664235,2,left
10.662,0.43687742508310656,0.2308813498744961,0.08107217400179635,1.6427405171245004,2.641750910662142,-1.0037010569809404,-0.578541107121801,0.07479810565187658,2.4241386040197606,2,left
10.663,0.44711887127578853,0.21815709245085993,0.06252664305809005,1.629464833750374,2.6522217476658767,-1.0044383391061698,-0.5770398107160889,0.06841865113861734,2.4189929778992374,2,left
10.665999999999999,0.45927211261099365,0.2007106929511821,0.04607494020211437,1.644609003973856,2.644741219097229,-1.0051191596741742,-0.5786677419728018,0.07515958599365355,2.424473736149786,2,left
10.667,0.47097771854614806,0.1845359713145861,0.0333321510488445,1.6292038056400555,2.645182056101259,-1.00198339350135,-0.5776836801925661,0.071358840622429,2.421314300870896,2,left
10.672,0.48758021768187637,0.17151801648070633,0.022055742703601427,1.6456828220005477,2.6534666428290583,-1.008321861525544,-0.5770510476881554,0.06761486850185355,2.418555784019224,2,left
10.672,0.5064332361179544,0.15633030373502632,0.009958288831062666,1.6276942254648752,2.6378355432068545,-0.999157540311989,-0.5801723688982627,0.08323580742210315,2.4305699116212036,2,left
10.677,0.5242977783434526,0.14326766324189202,-0.0015851538603010877,1.644457076422632,2.655695235670292,-1.0088203844570245,-0.5743205963438403,0.054403517107785467,2.408301370079609,2,left
10.677,0.5449934069780282,0.13338337266133565,-0.011846246279107554,1.63638963670642,2.644574502891553,-1.003308154899273,-0.5818482216295336,0.09139636797455328,2.436890960382523,2,left
10.681,0.5663421057395257,0.12589876675630185,-0.018507276416010646,1.6244047080699677,2.637479764605541,-0.9983361497366592,-0.5755589722687091,0.060522634228185955,2.4130269620303513,2,left
10.682,0.5863557710980482,0.12190761867872528,-0.023309787592864332,1.6675754669697462,2.6731250612829713,-1.0196898635404992,-0.5757491812894366,0.0613166024315784,2.4136622534321934,2,left
10.686,0.6086183906254826,0.11907995510318342,-0.028124098916960074,1.5897075998803087,2.605936735736262,-0.9801844778786036,-0.5876739213441151,0.12032922986377165,2.459194516694584,2,left
10.687000000000001,0.6330727900693505,0.11845800947451587,-0.03151732233579341,1.688903661763728,2.6925976076119444,-1.0308780564430822,-0.5583427805059422,-0.024673149089519335,2.347300456661577,2,left
10.690999999999999,0.6573946296792363,0.12244047397465707,-0.03978407047355592,1.6064232650006856,2.620089521867766,-0.9885687496754649,-0.6069783727416915,0.21574302765496256,2.5328137307848246,2,left
10.692,0.6717822030334415,0.1264902732205785,-0.04908304615086134,1.6081424394617585,2.6222925808851745,-0.9896971706263163,-0.5428313052238166,-0.10137392999433333,2.2881339685226507,2,left
10.696,0.6756046637619091,0.12986964513139926,-0.051094409840596336,1.766781533352951,2.759907195432911,-1.0704185547790428,-0.27356599899252143,-1.4324186594749824,1.2609604050416718,2,left
10.697000000000001,0.6892828027161064,0.1371502051551443,-0.053810029563200704,1.3776076386842324,2.421328075336855,-0.8720360501710901,-0.20942759161856866,-1.7495594229751337,1.0162987173734446,2,left
10.697000000000001,0.7147540908076879,0.1490008896734974,-0.060924949081212876,2.0225968814859483,2.9828242632691486,-1.2009600760711092,-0.2580538137209378,-1.5091174900785167,1.2017924359892347,2,left
10.700999999999999,0.7287050820350504,0.15829999509877146,-0.06546097437913886,1.17195917861503,2.2421859802171373,-0.767106174504801,-0.22871911079222756,-1.6541100722953601,1.0898909383044983,2,left
10.702,0.73271124855082,0.16117335413341652,-0.0663878919753359,-2.398959119404049,-0.8666969688274664,1.0539012296358887,-0.24067492793800496,-1.5951828827410943,1.1354880692074796,2,left
10.702,0.7465553753461529,0.1694826402402952,-0.07344521806324378,-3.249583660489283,-1.6073065781577285,1.4877704253026431,-0.24079826863793097,-1.5942050853279257,1.1359837898623821,2,left
10.706,0.7591346324769744,0.18377319716008134,-0.08412924859747625,-2.604668208970976,-1.0458118583063654,1.158832488118538,-0.23460489651063215,-1.6253423919219459,1.1123199075035377,2,left
10.707,0.7632517300775052,0.1950325618887422,-0.0867447277862273,-2.9936365880863787,-1.3845074620800408,1.3571993627623153,-0.24203704604496534,-1.5880870786776566,1.1407102242116969,2,left
10.710999999999999,0.768683754084323,0.20527484609497504,-0.08850884649980331,-2.8353851140143345,-1.2465741235628842,1.2765521154356292,-0.23622647328948893,-1.617032614468334,1.1185276652172396,2,left
10.712,0.7684706259982531,0.21668182988834167,-0.09486702724640945,-2.833122436371293,-1.2449126602170728,1.275277038748046,-0.23942977193641818,-1.6016370600940264,1.1307129121268373,2,left
10.716,0.7654932847737509,0.22777621305233403,-0.09858415649970123,-2.9161495212769584,-1.3167596390084255,1.3177863250325248,-0.23853305263954913,-1.6046550154148491,1.1274031743185002,2,left
10.717,0.7666285466400964,0.23531483046373838,-0.09895653814350772,-2.816699592140221,-1.2306129074125671,1.2669064680620181,-0.23800403177103996,-1.6097067126973847,1.1251935146997654,2,left
10.720999999999998,0.7637000676960375,0.24114580468536967,-0.0984009461196524,-2.8941375143500374,-1.2978471352817382,1.3064683499159715,-0.23907350494972318,-1.6014305520553076,1.129508661358869,2,left
10.720999999999998,0.7563413710350897,0.24415181832320806,-0.097157686457754,-2.8524278521150417,-1.2611433943548382,1.2853296195309378,-0.23801745133634267,-1.6090339537561213,1.1252923149973348,2,left
10.725,0.7488424309897479,0.24310923369130522,-0.09574468955207502,-2.8618447872285717,-1.270586290950541,1.2897037662207023,-0.23892823676284738,-1.604552575512294,1.1287650006624212,2,left
10.725999999999999,0.7366527894804014,0.24149195246360272,-0.09122031990854007,-2.8731228535081055,-1.2782636206029976,1.2961923886865114,-0.237976599984029,-1.6048360762054825,1.125483579450427,2,left
10.73,0.7192848619366423,0.23419987841613185,-0.08202652722329606,-2.853709251993277,-1.2639898743107099,1.2853883436789346,-0.23924515380164052,-1.6086682694214702,1.12952555493527,2,left
10.731,0.705892228881114,0.2241049208297986,-0.06911035610352188,-2.8718844714410574,-1.2777182937993992,1.2953772025822958,-0.23756968959170746,-1.6018784021748764,1.124323498318639,2,left
10.737,0.694902620129042,0.2129078016985897,-0.051209281435535534,-2.8598431265945194,-1.2672151684340434,1.2892424381677758,-0.23931542840700296,-1.6093162576952973,1.1297150503842854,2,left
10.738,0.6827500483148583,0.19730154585063783,-0.03304298965163942,-2.864723907974036,-1.27535657227669,1.2903975565839967,-0.2383704431763106,-1.604703249208904,1.1268428491560396,2,left
10.74,0.673985355574346,0.18383816567301048,-0.016010615755080997,-2.865588799942846,-1.2672154184296986,1.293887171243525,-0.2372400484562435,-1.6022894481048058,1.1231622427487729,2,left
10.741,0.6676113690438352,0.16778437564364931,0.0002161719540522012,-2.8614195107195224,-1.2768544528630326,1.287213246370245,-0.24167047940590333,-1.6154110791877603,1.1372991043224205,2,left
10.745999999999999,0.6614942184192127,0.1497884065018527,0.011244169178751255,-2.8664007042738042,-1.267045605075268,1.2946012709176946,-0.2335472521158437,-1.590615522137992,1.1114371749669427,2,left
10.747,0.6548961575843399,0.1364467495562003,0.02394200580407433,-2.862675222476863,-1.2719763029146782,1.2899004988158023,-0.24395727952013682,-1.6225574068817106,1.1445665414409039,2,left
10.75,0.6484961976682095,0.12159364731739532,0.035344814533341325,-2.863659406276012,-1.2798771427513898,1.2879877100979242,-0.2352744215171065,-1.5958493807104757,1.116938902584816,2,left
10.751,0.6369545909646094,0.10932167206665466,0.03691157887885989,-2.8662209987583847,-1.2512742084909827,1.2998611669918732,-0.23547810692420812,-1.5967318702476545,1.1175670144204881,2,left
10.755,0.6218634792505526,0.10111752495825857,0.040294551693133805,-2.860229544140985,-1.3032406648160384,1.2772092721870396,-0.2521384779476751,-1.6471338499009016,1.1706441099211604,2,left
10.755999999999998,0.6109410764609382,0.09239181856290599,0.04908787702607098,-2.868202968142959,-1.2367544515732978,1.3064378374385641,-0.21122512248103778,-1.5230651481737556,1.0403240017257085,2,left
10.759,0.5933673305295808,0.08840197869873799,0.05428235727560836,-2.8614305735692787,-1.2921636672988353,1.2819779203231207,-0.27905353370010183,-1.7288233005627802,1.2563706556422152,2,left
10.76,0.5772912326081172,0.08878970529977254,0.05464141503242646,-2.862053323253951,-1.2910369403446722,1.2828627270264512,-0.18958661608908095,-1.4574280029113935,0.9714004854798358,2,left
10.765,0.5727809889987827,0.0886285894457716,0.054799833915172055,-2.8735316011098835,-1.1841565229096387,1.3287741272705258,0.18598362489259135,-0.31846417241558506,-0.22488933659606983,2,left
10.765999999999998,0.5602302394168822,0.09035201214105262,0.05762883442602153,-2.844795921253172,-1.4464182997249297,1.2156651978849573,0.27546081006952106,-0.047094561018698904,-0.5098977321783291,2,left
10.765999999999998,0.5401549507026794,0.09524281351745309,0.06185018749129644,-2.8925818328978754,-1.0116864955365004,1.4032749958860875,0.20761835296039285,-0.25282246975735145,-0.29379897082611417,2,left
10.77,0.5295204592002984,0.09674402040453646,0.06437199005025424,-2.8295350209498045,-1.5850896828199255,1.1558111196281557,0.24853788649874384,-0.12875188618117148,-0.4241414263354666,2,left
10.770999999999999,0.5253801712317807,0.09781267069768325,0.06511313098857102,-2.565747169472824,-3.9923955585512725,0.11747989127892505,0.2318929175627139,-0.17922813979515217,-0.3711230183632759,2,left
10.770999999999999,0.5140358768050568,0.10634016675718741,0.06735942079903964,-2.502764404926488,-4.5658438212930665,-0.12995266263792724,0.2316417645750454,-0.17993885391120407,-0.3703161902628695,2,left
10.774000000000001,0.49910855213101224,0.11809097901172153,0.0689702906324183,-2.550450536024679,-4.131073666199988,0.05761233993435931,0.24040415303186058,-0.1534866989645894,-0.39824205953945774,2,left
10.774000000000001,0.487390601373797,0.12996469199908978,0.0693330440598556,-2.521796481339192,-4.393279994660208,-0.05547084655448586,0.2299006000425735,-0.18516182224269234,-0.36476326855873564,2,left
10.780999999999999,0.4746302194382957,0.14263433061898373,0.07027275531757032,-2.53328200563428,-4.286637420616507,-0.009526677571363204,0.23809079339020472,-0.16050359158281932,-0.3908733699094018,2,left
10.783,0.4665904883451317,0.15537231750396693,0.06921078573009723,-2.5337404458810875,-4.285049765176954,-0.008765583325232244,0.23367935182359537,-0.17380308261363728,-0.37681211571577666,2,left
10.784,0.46322463659210994,0.16764690593691595,0.06797747925836992,-2.5273227027115968,-4.341079170526012,-0.033005524305327515,0.2346430874107937,-0.1707282499123765,-0.379863065151521,2,left
10.785,0.4584626257523585,0.1783880262844756,0.0674246976932026,-2.534794244873388,-4.274026201242986,-0.004049217631293255,0.23593511028602243,-0.1673042305401613,-0.3840393497699286,2,left
10.789000000000001,0.458160849819503,0.18723013916186754,0.06611882699330536,-2.5292955156338555,-4.326142825325809,-0.026484832340475686,0.233699898472333,-0.17322980962752293,-0.37681468247570304,2,left
10.789000000000001,0.4606295058862018,0.1944036235167529,0.06374116461175486,-2.5316517131349423,-4.2982440379005045,-0.014605255079787747,0.23586053340102942,-0.16772488681416775,-0.383825677740903,2,left
10.794,0.461543695659324,0.2015949610430806,0.060872740648699936,-2.5322027383769843,-4.304250752936897,-0.01692944006024493,0.23437780156843652,-0.17138605822120107,-0.3790000764195006,2,left
10.794,0.465608494397018,0.20849387531116592,0.06062559306186666,-2.529845145124006,-4.312232706248284,-0.020698993280241215,0.23493025530973802,-0.16970356948191595,-0.380758921098507,2,left
10.799000000000001,0.4711584953007424,0.2136177440369055,0.0597115407222619,-2.5324874805750506,-4.298904787398621,-0.014689975472323456,0.2353282269480982,-0.1700462442642745,-0.38221704148596164,2,left
10.799000000000001,0.47780450507956945,0.21896747963236793,0.05385379478287508,-2.5311691469938644,-4.3110123400921605,-0.019911622250556142,0.2341137941911941,-0.170187349746506,-0.37791337965103583,2,left
10.802999999999999,0.48802520724426063,0.22346195552461334,0.04413643840265176,-2.529788570870141,-4.303669222787303,-0.017221509324543652,0.2358547119070779,-0.17019186633364283,-0.38410821295507414,2,left
10.804,0.4965778454838278,0.2240887517798139,0.03437155966803071,-2.5345890860535114,-4.305449146826776,-0.016897342901474523,0.23409281085771477,-0.16990194590495683,-0.3778036087730343,2,left
10.808,0.5047218220060392,0.2244729189315373,0.026446383557699397,-2.5268483990912696,-4.308077118027685,-0.01966009948869129,0.23511186599202447,-0.17006648349294093,-0.38144975953171695,2,left
10.808,0.5143465522830963,0.22836181633724034,0.018621248624591726,-2.5353120299270637,-4.303342333351743,-0.015880822906650625,0.23578183602524272,-0.1708402073100984,-0.38392853896308476,2,left
10.814,0.522273016476611,0.23150644089848754,0.01357614694994822,-2.5302793305978373,-4.307374253753093,-0.01862417819528033,0.23257979091675277,-0.16827188173931096,-0.37221992173651675,2,left
10.815,0.5317239478627693,0.23182675575351205,0.007929095940751505,-2.526384288432915,-4.306820341137075,-0.019248650136530703,0.23853148580130357,-0.17299431802544715,-0.3939767746066295,2,left
10.818,0.5421849829766403,0.23481266899255093,-0.002684992526121762,-2.5442485769483443,-4.301810492092107,-0.013304626762437774,0.23090645345409655,-0.16687792870061935,-0.3660946073041199,2,left
10.819,0.549775859802271,0.23871654255956204,-0.011609864186744864,-2.510925647349053,-4.312857564591406,-0.025087056910417595,0.2372644211663244,-0.17200823481161953,-0.3893475269812707,2,left
10.824000000000002,0.5570057985531476,0.23975871304659546,-0.0164960869371214,-2.553784105257348,-4.298039915050239,-0.009683396379192622,0.23707019344176866,-0.17193551911434501,-0.38864689469221236,2,left
10.824000000000002,0.5653635850673715,0.2421500735566129,-0.017470043734642865,-2.5179731883348913,-4.310677208288517,-0.02266051255095946,0.225040890517734,-0.16187024815907342,-0.3446096714197272,2,left
10.828,0.5758321915489559,0.24590486777804166,-0.021824658457968896,-2.5189906069742056,-4.309924648791,-0.022126785725544322,0.25462444536902,-0.1865598126217087,-0.4529033491058593,2,left
10.828,0.5876633133641831,0.249512004586159,-0.033432856108612095,-2.587147426302943,-4.286920222446943,0.002133737323436259,0.20557492901983182,-0.14561797479345043,-0.27335089374434085,2,left
10.833,0.5927332257988522,0.2523605754080431,-0.03824201869124899,-2.4195550494510636,-4.34405500340903,-0.057762216671937164,0.27026577325311646,-0.19963679969517256,-0.5101637635002129,2,left
10.834000000000001,0.5961736037042413,0.254235751802179,-0.042186514229119024,-2.6974599696829973,-4.24910056570479,0.04165215940206547,0.5417366113437927,-0.42655605291345244,-1.5039438876574878,2,left
10.835,0.6037844546864152,0.2567068217169717,-0.051339320102299746,-2.3308913482735067,-4.374424005907764,-0.08951726817514054,0.6064184405208675,-0.4806010160189779,-1.7407272392702422,2,left
10.838,0.6066149330353334,0.25804432134110833,-0.05591969332374575,-0.7923112495004547,-4.900176235197362,-0.639878489744913,0.557384719845332,-0.4396167259015886,-1.5612287500478508,2,left
10.839,0.6105139635051599,0.26064590244588715,-0.06577024117778522,-0.4257331127844776,-5.025509599398573,-0.7710661579520188,0.5869505835341908,-0.4643457338178746,-1.6694565454881538,2,left
10.839,0.6177800423275013,0.2657966936272558,-0.07943594046418909,-0.7036535467416389,-4.930496708165503,-0.6716114714562418,0.5749330464034708,-0.4542707795473246,-1.6254742487820388,2,left
10.843,0.6218853486341478,0.27036974559714794,-0.08482312680873724,-0.5360466002983852,-4.987796418258812,-0.7315727976423851,0.5747429780092375,-0.4541497602111144,-1.6247629025067116,2,left
10.844000000000001,0.6284345455091065,0.2745845826581499,-0.08593015178880954,-0.6042073791482553,-4.964479171648042,-0.7072274927065817,0.5810713836151956,-0.4594046786018717,-1.6479451425754186,2,left
10.847000000000001,0.6372824420411366,0.2786380674349377,-0.08488969651985237,-0.6052417372987783,-4.964166908109229,-0.7067758120200947,0.5735052667148437,-0.453095055042365,-1.6202408343872094,2,left
10.847999999999999,0.6468069129748357,0.2812400444540278,-0.0836899160932598,-0.5693861498804702,-4.976359269419873,-0.7197156501704591,0.5793767995329987,-0.4580292768974257,-1.6417213571466007,2,left
10.853,0.6587572114195894,0.2811283261374834,-0.08377674058408782,-0.612314550097854,-4.961751894672904,-0.704248734433164,0.5762503036303013,-0.4553309877646079,-1.6303199191952276,2,left
10.853,0.6705791436148847,0.2825888333455656,-0.08396792002345288,-0.5789141638440957,-4.973140508925827,-0.7162448528000385,0.5768939072505819,-0.4560143408444835,-1.6326003716288284,2,left
10.857999999999999,0.6800138973058484,0.2866761397477987,-0.08540184152829222,-0.5968273313538998,-4.966954039326859,-0.7099256499950151,0.5778352137843127,-0.45662352447781346,-1.6361391265977396,2,left
10.859000000000002,0.6866487545324222,0.2896389623761511,-0.08680687690781572,-0.5929622533986907,-4.96847675183735,-0.7110197794168981,0.5762995230157375,-0.45548113972877907,-1.6304432220502632,2,left
10.863,0.6914316538502181,0.2945597851227616,-0.08609986064335755,-0.5877715236558693,-4.969903407341194,-0.7133733850538551,0.5776647329846325,-0.45662345614164085,-1.635440413801717,2,left
10.864,0.6946616837473116,0.3020669322946844,-0.0838939387146091,-0.5965421023793587,-4.967332705609466,-0.7096269021314682,0.5768966344956766,-0.4557201631306821,-1.632765830954485,2,left
10.867,0.6975436601836296,0.31053011840140243,-0.08188300767240597,-0.5883878565623555,-4.969779156152397,-0.7130291934383304,0.5769602928510815,-0.45637022729715443,-1.6326849180269893,2,left
10.869000000000002,0.6983795495622682,0.31979365791468184,-0.0782099885250771,-0.5935734365269212,-4.968003028643466,-0.7111780618204088,0.577461000477327,-0.4558985952127059,-1.6349865269281056,2,left
10.872,0.6942593637589506,0.3291341438325036,-0.07398829051651384,-0.5920683574582352,-4.969152152299844,-0.7108177269496201,0.576709363640298,-0.45621904636991173,-1.6317350374506654,2,left
10.873,0.6887204593635341,0.34029221327101083,-0.07113493073912167,-0.590329728869158,-4.968296496838764,-0.7134938623925491,0.5772896378002841,-0.4561561074638181,-1.634148730395819,2,left
10.877,0.6809173810349269,0.3532397015999623,-0.06615291289666883,-0.5941632660012515,-4.96914905456808,-0.7090579884510393,0.5773359591725657,-0.4557219781848594,-1.6345659668657624,2,left
10.878,0.6683005553912109,0.36714932494256713,-0.0610711273903668,-0.5898462537595004,-4.968319191434455,-0.7138691985447475,0.5762960534328959,-0.4569210505400343,-1.6296713338386706,2,left
10.880999999999998,0.654621618629141,0.38186062148283384,-0.05358916180933706,-0.5927044437464439,-4.9686737339077665,-0.7109589079275653,0.5784221111046137,-0.4548629769078095,-1.6394732455572294,2,left
10.882,0.6404511368731717,0.39621696325974554,-0.042093666619434436,-0.5933642940058099,-4.969598057478889,-0.7090963532822039,0.5756213121359027,-0.45744594919629766,-1.6266262123331612,2,left
10.887,0.6267302927673859,0.4090225347369846,-0.03328953371756247,-0.5875250595401411,-4.966565819208759,-0.7183052526637594,0.5779889207772455,-0.45531476610473126,-1.6374613213902691,2,left
10.888,0.6121785117167322,0.42002764936052095,-0.02152193260425684,-0.5988851713018183,-4.972005908531996,-0.7010366101766514,0.5778801736892611,-0.45533362873966554,-1.6369993536087395,2,left
10.890999999999998,0.5981155322912339,0.4303111346354049,-0.006079653467344325,-0.5841810389463655,-4.9650622293366835,-0.7232529152870348,0.5734849725634593,-0.4595006196593556,-1.6167881828686266,2,left
10.892000000000001,0.5879196434060926,0.4397968821501443,0.00612588984077345,-0.5965015860573661,-4.9708415199939235,-0.7046887181924628,0.5843512678688614,-0.4493147948718893,-1.666707780282594,2,left
10.897,0.5686751319848202,0.44980420140863764,0.017094890055888226,-0.5959904627177541,-4.970751150367576,-0.7052568091292633,0.566312165927596,-0.4661822039574041,-1.5838484487034392,2,left
10.897,0.5534046306353182,0.4560206849145329,0.021957213793407364,-0.5730881908071515,-4.959516704760503,-0.7404388127955701,0.5901113800321228,-0.44394180895055235,-1.6931703731729542,2,left
10.902000000000001,0.5524346336852022,0.45583667487527046,0.022165595222697617,-0.6295808737699147,-4.987049578996412,-0.653889301080085,0.6899909752972976,-0.3505581445929453,-2.1519311275590542,2,left
10.902999999999999,0.5344415995192271,0.46134462516862007,0.028750231950051885,-0.5358711292806384,-4.9414222308565705,-0.7974109569007981,0.7137828715127552,-0.32831889002969106,-2.2612519078786883,2,left
10.904000000000002,0.5166298584641777,0.46906205667155787,0.03483519884967208,-0.6594622768277456,-5.001598313181448,-0.6081067875881332,0.6957505788431808,-0.3451806443685794,-2.1783774150473567,2,left
10.907,0.512897185626922,0.4710411191681816,0.03522537277577336,-1.1780562491798063,-5.254302549327345,0.18641049848310548,0.7066238107342163,-0.3350100091038959,-2.228355569507296,2,left
10.907,0.4928273376255822,0.4768643069764735,0.03848420461624495,-1.3015835629062766,-5.314474542428471,0.37570233416132576,0.702194254062938,-0.3391488107808712,-2.208020542055884,2,left
10.908,0.4684949885768735,0.48508664045248745,0.04446528966788306,-1.2079621504121294,-5.268857499019784,0.232195862753232,0.7021540212820194,-0.3392067597214009,-2.2077450673574934,2,left
10.911,0.4482877062354232,0.49310310732587004,0.05227857922257905,-1.2644128530218497,-5.29637122724424,0.3187439315588219,0.7044277218239072,-0.3370368010776518,-2.218376831771436,2,left
10.911,0.4251641669483647,0.5028569630534214,0.06351749426247477,-1.2414221878539922,-5.28516504615002,0.28353110168891604,0.7017150314383367,-0.3396368185881391,-2.2056522857437493,2,left
10.915999999999999,0.4047234412913126,0.5114877053170431,0.07374623405503976,-1.2411952501140333,-5.285042548976322,0.28303831450732625,0.7038131051713246,-0.3376114395105474,-2.215549904537341,2,left
10.917,0.382496934893075,0.5227550545549746,0.08360173183874986,-1.2530330757068884,-5.2908449360219585,0.30148735374203683,0.7026744248398966,-0.3387035921085007,-2.2102077809868597,2,left
10.92,0.36221878798154483,0.5352567661670744,0.09537449530856437,-1.2389036414360561,-5.283906948383539,0.27939470024408375,0.7029991482678057,-0.33845511903606973,-2.2114775961603397,2,left
10.921,0.3447461571471021,0.5456373875811011,0.10730049717777138,-1.2498412020551841,-5.28929130126083,0.29659331582540926,0.7031223238180837,-0.3381624197762119,-2.2127566120728135,2,left
10.925,0.32608893107334447,0.5584704779971015,0.11968181348918441,-1.2439107595245837,-5.286376952695192,0.2873166569418446,0.7029076261294243,-0.3386691164157243,-2.210542525929149,2,left
10.925999999999998,0.31015677613249004,0.570842213451891,0.13318167088199062,-1.245556456818525,-5.287132727940063,0.2894635780939281,0.703016236887027,-0.33819203275788956,-2.212547730413296,2,left
10.931,0.2966861587088825,0.5791984694167267,0.14539674698706084,-1.246323179746569,-5.287657802235973,0.2918463773149748,0.7029934409832043,-0.3385127275216243,-2.2112422751076943,2,left
10.932,0.28577030054653185,0.5869108024152394,0.15410988437765932,-1.2449899658766892,-5.286745933461067,0.28772236177272903,0.703143564132543,-0.33837515800311757,-2.2119214932973725,2,left
10.936,0.2758128583394315,0.5931536229706447,0.16305434584123704,-1.2458218445733389,-5.287473785401816,0.2915508867995884,0.7025602556923571,-0.33836460977947014,-2.2114691324712377,2,left
10.937000000000001,0.2650179431330856,0.5973717250411867,0.17265660283127743,-1.2454899041929413,-5.287054496437803,0.2890062413030533,0.7038123817785154,-0.33846419508900516,-2.2121307754166626,2,left
10.940999999999999,0.25577489285918503,0.6000440988613129,0.1793345311805513,-1.2462673103078865,-5.287431621912092,0.2901796494741407,0.7019254500503271,-0.3383335000063933,-2.2110569482754716,2,left
10.940999999999999,0.24898425655952328,0.5996875811342097,0.1869607495631604,-1.2436355495161715,-5.286625923023276,0.2899242165408177,0.7039621195527057,-0.33844912426960483,-2.2123166895641315,2,left
10.946,0.2430168195936231,0.5978202670298385,0.19568759944324685,-1.2492299035796561,-5.2882614114545285,0.2898638410352301,0.7027853230569292,-0.3383826619745055,-2.2115897598507424,2,left
10.947000000000001,0.23722613727820085,0.593862447470273,0.199197448248312,-1.2407856370338277,-5.285774365348427,0.28980340935579585,0.7017163291594153,-0.33837530001105554,-2.210709336845459,2,left
10.95,0.23406019283597992,0.5885342287360134,0.19919468491563258,-1.249917894799981,-5.288488345558394,0.29006737994451315,0.7063248161032738,-0.3384706313289735,-2.214234635857,2,left
10.95,0.23196841239171578,0.584299063711295,0.19991963686496828,-1.2446414710188622,-5.286921640439619,0.2899157573971553,0.6977811341824727,-0.33829217180487264,-2.2077125806077897,2,left
10.955,0.2278423794835724,0.5784610019929486,0.19999678323643608,-1.239809035880104,-5.285428565157583,0.2893479915698921,0.7087570230684401,-0.3385153175778272,-2.2161090916884243,2,left
10.955,0.22254207787049637,0.5731374192263101,0.20380595153777809,-1.2605933776193656,-5.291776546765652,0.29127011505713973,0.6995905075130968,-0.33833358116919454,-2.2090885124167032,2,left
10.959000000000001,0.2209606304759018,0.5692519946686965,0.212603414489827,-1.2220638981957155,-5.2800152197267245,0.2877305458372988,0.699835657205639,-0.3383377504912384,-2.2092544386868758,2,left
10.96,0.2239343838743667,0.5648580235716791,0.2178971169256927,-1.271564724537411,-5.295126962273687,0.29231543248390035,0.7173321907832918,-0.33867621036578777,-2.2227489604815203,2,left
10.965,0.2274449029680763,0.5618898302438922,0.2228157353115086,-1.2302233384612535,-5.282508545453727,0.28846618632505755,0.6743267106851045,-0.33785218067055045,-2.1895961461846984,2,left
10.966,0.2376670028305222,0.5538019186177038,0.2275486582784758,-1.2313231055382234,-5.2828285940592625,0.28853534831301025,0.7456359171619661,-0.33921000336079477,-2.2445705116807737,2,left
10.97,0.24578511760348573,0.5457534210333099,0.22746088658283575,-1.31025537530212,-5.306968429081249,0.29604569784799056,0.6515751942340802,-0.3374264729501498,-2.1720503638193076,2,left
10.970999999999998,0.24721682647436502,0.5453997631125611,0.22832705135837356,-1.1162500546215635,-5.247660487410128,0.2775983380779941,0.2568252145416746,-0.329773406551227,-1.8676523198529673,2,left
10.970999999999998,0.26344481152231614,0.5374950942593437,0.22438533295735175,-1.4379388997991929,-5.345986472090283,0.3082056665236641,0.16276530632502076,-0.3279853885736772,-1.7951244165354385,2,left
10.975,0.2778663642080641,0.527419885254604,0.21679063401184434,-1.0136085535369932,-5.216301866290797,0.26780608473057554,0.23406414080415616,-0.3293698079426658,-1.8501033118856562,2,left
10.975999999999999,0.2799969258223374,0.5261874946936929,0.21529445396865832,0.7673965478009156,-4.671794185934925,0.0983075481035046,0.19109194118511919,-0.32847061614376305,-1.8169673648543685,2,left
10.977,0.29568018020286124,0.5203381937880852,0.20700862714368695,1.1917667187706655,-4.542121649755694,0.05786224531780303,0.20852209654800202,-0.3289517316460189,-1.8304058588538714,2,left
10.979000000000001,0.3163607275453995,0.5108635243873249,0.19059254039833062,0.8700291796485393,-4.640437307142912,0.08852763235602278,0.20886376946332197,-0.3287550211354968,-1.8306735008057466,2,left
10.98,0.3317348988997352,0.5068741933800924,0.17788940994908262,1.0640379700489575,-4.5811147247718935,0.0700686553227913,0.19959592561220219,-0.32877639164252837,-1.823522160868343,2,left
10.984000000000002,0.3499645709609284,0.5050945945136598,0.16552159647392456,0.985207688587172,-4.6053178202575875,0.07747765440665523,0.21062641729256543,-0.3289033503709992,-1.8320300486238499,2,left
10.985,0.3689663492936806,0.5026704829594864,0.15184507191805535,0.9838611316795915,-4.605515080105752,0.07780679699771087,0.20214515014177797,-0.3285694358165287,-1.825494907118443,2,left
10.989,0.3881940890743328,0.5040978763030624,0.13846493297735335,1.0255782610400563,-4.593062049656009,0.07355123482350305,0.20650864379715828,-0.3292012005496604,-1.8288439899422788,2,left
10.99,0.4077658865241129,0.5107108441969768,0.12528977245740636,0.975675920229299,-4.608022427690544,0.07858264502132994,0.20588802137201254,-0.32824661301014346,-1.8283925729540669,2,left
10.994000000000002,0.4280281878538816,0.5155358433851834,0.10993810598371082,1.0144294412906276,-4.596301664729909,0.07477256535162141,0.20413215741627533,-0.32936899237370487,-1.827005173710639,2,left
10.995,0.4516462020944523,0.5229949849160702,0.08973409688647219,0.9938728340749384,-4.602836650284253,0.07649063298777647,0.20667397422985515,-0.32849639823255933,-1.8289918262439604,2,left
10.999,0.4766976501626624,0.5382542009062377,0.0686681992259032,0.9977703180166283,-4.600839281795027,0.07688876319230462,0.20469139718336715,-0.3284501195699331,-1.8274635309745824,2,left
10.999,0.500951289765406,0.5538094995149987,0.04631474423083032,1.0047719935188235,-4.600085812937185,0.07489770991587408,0.2052356101576566,-0.3301700895576781,-1.827833036476671,2,left
11.004000000000001,0.5250899991409645,0.5700697015151635,0.02214957185534716,0.9934010771656439,-4.601860865517432,0.07760507963002397,0.20645215559993493,-0.32628670118697634,-1.82888533168875,2,left
11.005,0.5485008641402898,0.5881719288057548,-0.0010134775839653483,1.0038113273925073,-4.6000340897003875,0.07531893752919151,0.2037708312347461,-0.33206349070954044,-1.826647661959972,2,left
11.009,0.5715565179646734,0.6055173485174541,-0.02353497925687356,0.9978174247843506,-4.601878656636528,0.07587788468799374,0.20694628262731987,-0.3259111664015633,-1.8292771917629587,2,left
11.01,0.5950431402845188,0.623975169833344,-0.04463110868050667,0.9977574466679239,-4.5993816142668855,0.07828678150733748,0.20489879185878773,-0.3294623757108893,-1.827594536644821,2,left
11.013,0.61691758740484,0.640672966177676,-0.06652932154522807,1.0038883692901597,-4.60325530738805,0.07221150056707845,0.20379517235756667,-0.33253474483175605,-1.8266517569979628,2,left
11.014000000000001,0.6381234246707241,0.6541991795094548,-0.0868540175127963,0.9933071501997653,-4.597915460901893,0.08141102953994957,0.20984537154763527,-0.31910877156392264,-1.8317139767605604,2,left
11.017999999999999,0.6584781988441124,0.6664403950467361,-0.10137010350622079,1.0048533851049752,-4.603526067909513,0.07157916324402606,0.19833677201163036,-0.3440031968698736,-1.8221055922541247,2,left
11.019,0.6753438874741192,0.6761973723883614,-0.11500244005143437,0.9977612510754382,-4.60041334095818,0.0772994227089913,0.21321855757712,-0.3120381489421712,-1.8345215976761682,2,left
11.024000000000001,0.689524532375815,0.6824747723852478,-0.12946447896275068,0.9937345655012254,-4.597090747970039,0.08203374325612314,0.2007501042656929,-0.3387253968237739,-1.824124754654366,2,left
11.024000000000001,0.7027205469325786,0.6845784629476491,-0.1423706673352808,1.0147708865229101,-4.610585474844616,0.06099336622554187,0.20115642896607577,-0.33799950834125486,-1.8244525335570292,2,left
11.027999999999999,0.715600591870939,0.6856903117017776,-0.14985916179456488,0.975145190529014,-4.5857482240417,0.10006957080944227,0.2247484467389434,-0.287120501714845,-1.8441523565982552,2,left
11.029000000000002,0.7276487563781981,0.6840690421625385,-0.15509111543822215,1.0261607815170488,-4.617598164592625,0.04988285286914189,0.16666187405144545,-0.41218282071014045,-1.795668865663024,2,left
11.033,0.7380793919685489,0.6765300457200187,-0.16398558597527174,0.9835208918639825,-4.591025241153682,0.09178321713993304,0.2630108625710397,-0.20481703494642237,-1.8760763152843998,2,left
11.033,0.7429767371880471,0.6712658992590079,-0.16807203442776666,0.9848746880378375,-4.591679087287758,0.09063655479274083,0.1359117212003326,-0.4783387294596525,-1.7700178660043044,2,left
11.038,0.744831464883094,0.6684349232819338,-0.168534254040172,1.0655121345712955,-4.642563184211461,0.01078886795358032,-0.3975104928109487,-1.6263572447303278,-1.3247776771618838,2,left
11.039000000000001,0.7519049001611154,0.6584659376191448,-0.17127577187557746,0.8670918187249235,-4.517573012368294,0.20705348624850478,-0.524615334405321,-1.8998918387183614,-1.2187321926514172,2,left
11.04,0.7595586515245649,0.6387289000592762,-0.16938640079434808,1.1961266130579364,-4.724793012972794,-0.1183580645593543,-0.4282523552021672,-1.6925122446712462,-1.299131647736421,2,left
11.042,0.7626056268269816,0.6238938375274046,-0.16742399145750622,0.7621419411992058,-4.451472017018933,0.310850705665976,-0.48636429302536055,-1.817568731026376,-1.2506214546215482,2,left
11.043,0.7629711561278743,0.6198926034450616,-0.16786848780918592,-1.0596493629783348,-3.304130561655169,2.1126495267705234,-0.46273560427108285,-1.766737100517609,-1.2704118573045102,2,left
11.044,0.7642611953331454,0.6048024567241912,-0.16249283412525273,-1.493622866448856,-3.0308017142075974,2.5418639588512906,-0.46237001664598437,-1.7659099988889464,-1.2705741712264271,2,left
11.048,0.7675137030345016,0.5791370774849987,-0.15558843418135287,-1.164543629991512,-3.238028281306823,2.2164176996110476,-0.4748106166865694,-1.7927417874023732,-1.2603910106084113,2,left
11.049000000000001,0.7659343223830359,0.5553702110415033,-0.15151109518004902,-1.363168756689828,-3.1130481704196944,2.4127812286800494,-0.45991840064902567,-1.7606335297467548,-1.2726236625431313,2,left
11.052999999999999,0.7615306265916322,0.5312734145647646,-0.14609712092195004,-1.2820784652626394,-3.163890008350935,2.332745144239081,-0.4715023744082094,-1.7855884056043414,-1.2630397421157005,2,left
11.052999999999999,0.7597509690089027,0.5091324724740891,-0.13857885412202445,-1.2814232715574212,-3.1646253730912974,2.331864407433354,-0.4652978223765521,-1.7722885000157276,-1.2683853351063374,2,left
11.058,0.7555944300267993,0.4842000208295734,-0.1295797727269637,-1.32328227571149,-3.13794309981394,2.373495122083175,-0.4666177002768921,-1.774960089653562,-1.2667463720614114,2,left
11.058,0.7474307091649063,0.4576952933238785,-0.12180944330690932,-1.2727685234923034,-3.169892522700735,2.323437478286717,-0.46845207319462817,-1.7791988387160873,-1.2661402783761104,2,left
11.062999999999999,0.7401883682363283,0.4345009093300588,-0.11274842250123394,-1.3126897608568342,-3.1450298160520633,2.362716925293907,-0.46536876622718,-1.7722059383538271,-1.2675792230614782,2,left
11.064,0.7375249707876905,0.40845234265606906,-0.08769615543673878,-1.290042562507197,-3.1583988637304405,2.3409690623845405,-0.46822974279478147,-1.7786480829114586,-1.2660955720755487,2,left
11.068,0.7379622429221375,0.3820383662898923,-0.0484829922119252,-1.2972283774029731,-3.1554118682575076,2.3469559275772234,-0.46643202659450345,-1.774781659040003,-1.2676039549617268,2,left
11.069,0.7328085323496758,0.36648139203724284,-0.019765748199590285,-1.30002964980077,-3.151760207599005,2.351100746721227,-0.4668915534359836,-1.7752415863739683,-1.2655431587107413,2,left
11.072000000000001,0.7119207622862469,0.37079090450766417,-0.030445475749869874,-1.2925253965523325,-3.1579904662654377,2.342583423976299,-0.4676368487875192,-1.7780549174013867,-1.2687541818262618,2,left
11.073,0.6753740535972063,0.3875766647568126,-0.10134613544199783,-1.301712952499264,-3.1522189916631644,2.3516596835927643,-0.46609508299138613,-1.7729322640573288,-1.2643227055761606,2,left
11.077,0.6236765149877768,0.40989465891483956,-0.20492293684134755,-1.2913589694219263,-3.155945195395336,2.343454157823245,-0.4678185978971604,-1.7785657369482943,-1.2689800895243484,2,left
11.078,0.5742193172064882,0.4396506300774642,-0.2796448342900587,-1.3036662227216327,-3.154578718921761,2.3509769791023896,-0.46669643523153137,-1.775038016636765,-1.2663942897953164,2,left
11.082,0.5812345562111665,0.4776311361318307,-0.29376272602493403,-1.2893051546890768,-3.1540999991024767,2.3437091692583434,-0.4663551476687767,-1.7733469668244277,-1.2636434113501274,2,left
11.083,0.689851149711012,0.5244966620815563,-0.19582850098806032,-1.3031503415475285,-3.1555307225295497,2.350009261875257,-0.4688732753727287,-1.7829581709822273,-1.2748288281811453,2,left
11.087,0.8889742213788252,0.5897790256581851,0.0032201130415576568,-1.2961332835666326,-3.154087997369449,2.3473402150698557,-0.4640187281977065,-1.7647343764194092,-1.2542389441468562,2,left
11.087,1.1017175879847003,0.7234757120065645,0.12639223237682343,-1.2870290300917981,-3.1547595701488724,2.3420200869389567,-0.4702933081252868,-1.7882253706112272,-1.2806435946931822,2,left
11.092,1.2863774667969392,0.9269195665282275,0.13933297205419928,-1.3212354686746464,-3.155352399249019,2.359732436772237,-0.46503875807036715,-1.7685757184443314,-1.2586124020136444,2,left
11.093,1.4172516690160535,1.173808652099999,0.11265757943446926,-1.2591332631198202,-3.1534206517053054,2.3282019647220062,-0.4652441402757266,-1.76925100349645,-1.259157880909794,2,left
11.095999999999998,1.4473000822092286,1.4300424513083376,0.04708589205491201,-1.3383920144045685,-3.1561979382435874,2.368212440584051,-0.4750550534063015,-1.8062525654977606,-1.3013364374085987,2,left
11.097000000000001,1.4374108784696686,1.6106436541879412,-0.026590759596783493,-1.272431630559168,-3.1537590841426955,2.335013245462637,-0.4508678393844231,-1.7151340943373095,-1.1977238676451174,2,left
11.102,1.3906111802370482,1.7832916492550894,-0.21597936260280381,-1.273890349607036,-3.1540047257098576,2.335595616438541,-0.49098864875480575,-1.866262612115984,-1.369506994587438,2,left
11.102,1.336104638222991,1.9077773033613195,-0.39039254911997673,-1.400528420261014,-3.1581728971501075,2.399738892338477,-0.43807051893330407,-1.6669126923344182,-1.1429214141520667,2,left
11.106,1.3368081671139214,1.9231892752179425,-0.4230341217957305,-1.0897482998725225,-3.1476779940948125,2.2425443073104123,-0.21602520406138287,-0.8303884458027793,-0.19178492439430667,2,left
11.107000000000001,1.224622110865175,2.0675271310231214,-0.6420771166415442,-1.604843252460895,-3.1651603759031643,2.5029999599268127,-0.16312147777721708,-0.6310322796347274,0.034822648285155924,2,left
11.107000000000001,1.092008935789477,2.2176201220516543,-0.862955937449605,-0.9255199121718327,-3.142088336119553,2.1595331837832736,-0.20322374238910204,-0.7821791080399503,-0.13699154289910037,2,left
11.110999999999999,1.0586508508466268,2.23992317097734,-0.8836915309846365,1.9264321955100563,-3.0450986186088804,0.7174599911913935,-0.1790410895854824,-0.6910222882383482,-0.03336227206066794,2,left
11.110999999999999,0.89168483280073,2.3796670556011326,-0.9966422629569327,2.6057079803535377,-3.0220633865816406,0.3740231465594646,-0.18888207291144982,-0.7280857908912519,-0.07551498856722534,2,left
11.113,0.6435616327069884,2.559244266443033,-1.0887397856855905,2.0907005882261176,-3.039528688682511,0.6344107054799901,-0.18900831009756894,-0.728684160052018,-0.07615153159042104,2,left
11.116,0.4372625435428898,2.6733841518843535,-1.0389872936335194,2.4013723798279933,-3.028938080061013,0.47733028873698785,-0.18387880331236306,-0.7090996679258932,-0.0539613759116534,2,left
11.117,0.23554631250503863,2.7755665751955383,-0.9096056784748499,2.274827311741981,-3.033404431047987,0.5413202242290458,-0.1900144192217984,-0.7325821406609907,-0.08055979102174124,2,left
11.12,0.0991401126665123,2.8180627243550918,-0.665266455103463,2.27334463529249,-3.0331194539431783,0.542058322601821,-0.18524666153268798,-0.7142573505527221,-0.05982042988443056,2,left
11.120999999999999,0.03714960203247447,2.816251721406819,-0.3792012206311061,2.339198342191212,-3.0313525698177552,0.5087753153902896,-0.18782229574297205,-0.7241170737302425,-0.07099124911454081,2,left
11.126,0.030685484910030113,2.789859880433278,-0.10149439837817005,2.2602219744695002,-3.0335716706858595,0.5486950406059645,-0.18718941230872715,-0.7220404018461448,-0.06854851012274513,2,left
11.127,0.059212428507712356,2.7425076792123564,0.14801590326040026,2.3218752229841817,-3.031674728788503,0.5175272266521087,-0.18663004801000088,-0.7189416065135099,-0.06528356001503229,2,left
11.13,0.08646142543301744,2.6806431667092374,0.33900687926016615,2.2881800454392063,-3.03322164575065,0.5345720829757805,-0.18759877773553302,-0.724298728148974,-0.07093178825440724,2,left
11.130999999999998,0.11198153876237664,2.5759429402130047,0.4681228573905052,2.2969341175971714,-3.031636619509193,0.5301197258490583,-0.18675447842794063,-0.7190229644147595,-0.06547536048574865,2,left
11.135,0.11229091156721044,2.428588712245026,0.5189401792160524,2.303818368770031,-3.0336184028275324,0.5266835266376511,-0.18728570149823168,-0.7226943787945712,-0.06921810585222474,2,left
11.136,0.06815534548082575,2.2527425501435836,0.5054057619635886,2.2909180465454173,-3.0313388834660104,0.5331518651887857,-0.1869561773155186,-0.7214671689876638,-0.06781881574053658,2,left
11.14,-0.014615586842833105,2.0593986679137872,0.4421152961677919,2.303357589223075,-3.0330823025216676,0.5269052537480503,-0.18736143724765553,-0.7198968684400249,-0.06683400447195846,2,left
11.140999999999998,-0.12120229179009076,1.8564049159406733,0.3500599043624364,2.2937229599679183,-3.0334298449981203,0.5317771314586608,-0.18661529832119447,-0.7241645136042354,-0.06985702098540303,2,left
11.145,-0.21714230985456795,1.6480074300287213,0.2600464428285556,2.301471359370939,-3.02914509267287,0.5277798060057188,-0.18777044818086389,-0.7179556726297897,-0.06552638943804784,2,left
11.145999999999999,-0.27490099396858114,1.445307696963911,0.1749180133657128,2.2933617633462156,-3.038609607440036,0.5320617371202694,-0.1864833212866686,-0.7243653437815623,-0.06990518110833158,2,left
11.15,-0.2930940880584204,1.264205291871792,0.09696971016532879,2.303161493998382,-3.0245690518594346,0.5268362692806229,-0.1872266503498961,-0.7206590161005241,-0.06737216612609781,2,left
11.151,-0.2712494967151281,1.1044736967831774,0.026052086540540323,2.2931420535987233,-3.0395213273357147,0.5321903243518485,-0.18798995993849854,-0.7179302398550824,-0.06571772229537501,2,left
11.155,-0.21314145446485505,0.9633254706872761,-0.022866907527586383,2.2982568864444106,-3.0309060436937316,0.529438280064443,-0.1848074398656643,-0.7304776399318335,-0.07364427562896114,2,left
11.155,-0.12535038305959273,0.8381582054310168,-0.034721155488007,2.3060094245744027,-3.0233619641357397,0.525373835452271,-0.19070211130392056,-0.7071768148282878,-0.058909337678052315,2,left
11.16,-0.0020101028405932024,0.7122417089344373,-0.02663167701401527,2.277550915930334,-3.0561844480139033,0.540392451816412,-0.1831222629712943,-0.7370593906088904,-0.07778701163250559,2,left
11.161,0.1368904090269641,0.5956874003928591,-0.004182589278717418,2.3293428077660483,-2.9953515555541186,0.513039598347393,-0.1894558055606473,-0.7121269393429344,-0.062045347895473724,2,left
11.165,0.2834193140717361,0.469342095760514,0.019240980777144097,2.263056898901639,-3.0734534975586305,0.5480506850721776,-0.18929536334264332,-0.7128565266294993,-0.06253062783783905,2,left
11.165999999999999,0.4290244787458819,0.34043413458008254,0.03342885529333901,2.3183123111478703,-3.0082571861183016,0.5188657686247502,-0.17716802303952522,-0.7601751763505888,-0.09230114087110444,2,left
11.17,0.5532521741349429,0.22052398865297743,0.04593719200346694,2.317146916848652,-3.010001180438935,0.5194844719137115,-0.20696972047093104,-0.6438227518391808,-0.01907933476885776,2,left
11.171,0.6717581250438728,0.06473711105120664,0.04451307646814837,2.2106887495539644,-3.1343766002471414,0.5756989453906487,-0.15755318076790567,-0.8367459673021732,-0.1404861077890104,2,left
11.175,0.7391862269268712,-0.030458512521970387,0.03919280627927048,2.471975247061512,-2.828710060683164,0.4377293427105193,-0.22273951168597086,-0.5822837620161441,0.01964120718608131,2,left
11.175999999999998,0.7593377187677055,-0.07295919398309422,0.03332341626001804,2.038827281630372,-3.3354988634159115,0.6664422120940869,-0.49635762032537967,0.4855835978554613,0.691561115270257,2,left
11.175999999999998,0.7962523897887195,-0.15039800685744176,0.01966339633766804,2.6101740363909043,-2.667068214413244,0.36476779554602873,-0.5615537032414779,0.7400443008958426,0.8516786632737828,2,left
11.18,0.8157864918477631,-0.1938394551352616,0.01270672118835791,5.008881419814447,0.13868590980690298,-0.901754350647138,-0.512124209642359,0.5471317629571737,0.7302927433865807,2,left
11.181,0.8286011603964039,-0.2707009813634259,-0.0035668581324890206,5.580389317882695,0.8070490741729819,-1.2034757670788139,-0.541930405210648,0.6634527425869599,0.8034821356423524,2,left
11.181,0.8481889561386458,-0.38806416199143795,-0.033277364955889614,5.146986506193453,0.3003807371214565,-0.9746950587885016,-0.5298205173937609,0.6161948023343904,0.7737516798244835,2,left
11.185,0.8444153564600188,-0.45241148756254623,-0.06159322176570511,5.40849182573177,0.605906971376302,-1.1127054934875864,-0.5296108018524158,0.6153787510298487,0.7732303903019498,2,left
11.185,0.8406698577397029,-0.5012298538726875,-0.08929661387201299,5.302024158707718,0.48163585828291994,-1.056535646666041,-0.5360243775429134,0.6403998179309733,0.7889835096029431,2,left
11.189,0.8395809125547506,-0.5276369859614647,-0.10830606852372587,5.300486494443549,0.47989892340888884,-1.055738048783066,-0.5283531093706293,0.6104731651057638,0.7701446131983927,2,left
11.19,0.8365350499866457,-0.5188443676016976,-0.12024569541429876,5.356590089046515,0.5448997719704596,-1.0852458173398962,-0.5343089982440276,0.6337109900726461,0.7847696226052653,2,left
11.194,0.8391205841463572,-0.48801588967665316,-0.129543176501124,5.289066793703695,0.4672239964595681,-1.0498303490663288,-0.5311548124400778,0.6213904387215037,0.7770245282026377,2,left
11.195,0.8472572734053485,-0.4296285200305875,-0.13104178046827647,5.342122019797076,0.527443035859122,-1.0775116183744693,-0.5317405465513889,0.6237135981040502,0.778463878947027,2,left
11.199000000000002,0.8700416087536901,-0.35164816887088135,-0.12565682771523118,5.313045187952943,0.49524541783381526,-1.0624855278078056,-0.5328388322698889,0.6279342747653929,0.7811578111776161,2,left
11.199000000000002,0.9037527793735216,-0.24887888929704838,-0.11542609381216008,5.319898077537559,0.5024810327439588,-1.0659638603714319,-0.5310640759087947,0.6210892990806121,0.7768041671766188,2,left
11.204,0.9459562247753709,-0.123848128265424,-0.10083019453542509,5.328204133705072,0.5106604482302612,-1.0700721242604465,-0.5326856593371128,0.6273525748292863,0.7807822596892575,2,left
11.205,1.0013113682503176,0.015229964243859789,-0.08556818221003792,5.312526184234401,0.49726998613036655,-1.0626860122846238,-0.5317649161959124,0.6237588563412811,0.7785213243338522,2,left
11.209000000000001,1.0574092104229018,0.1660407040068928,-0.07496234106879135,5.329438346315368,0.5085320753650802,-1.0700804709709177,-0.5317146129363377,0.6236835032048293,0.7784052040122017,2,left
11.21,1.1115109956492848,0.3211431434840039,-0.06801770946691328,5.315406480897403,0.5025711328196623,-1.0645547013077683,-0.5327505800715249,0.6274495583099389,0.7809319227608521,2,left
11.213,1.168733249810932,0.4773987909714266,-0.0647466363182591,5.323683153485956,0.5039203590690068,-1.0674238108523144,-0.5309845217023321,0.6209708062527286,0.7766210337627959,2,left
11.214,1.2139597913638607,0.6329495665133431,-0.06837169803458018,5.323706505670863,0.5038767780941376,-1.067423206582092,-0.5329082458039442,0.6280372502122773,0.7813172887330088,2,left
11.218,1.2483359933148286,0.7886208562665209,-0.07662884837812323,5.313015341662794,0.506821547085621,-1.0645619215592865,-0.5317318622011415,0.6237015388586744,0.7784445508197688,2,left
11.219000000000001,1.2712264360865773,0.9490338626627886,-0.08932997424436101,5.335483588076927,0.4977897704015703,-1.0700631260628577,-0.5310390876196673,0.6212168519137107,0.7767572019323861,2,left
11.224,1.269240041120561,1.1092942482732082,-0.11077927014746179,5.303583104406382,0.513159689014044,-1.0627111516579384,-0.5345968809591032,0.6341409658014714,0.7854332425318025,2,left
11.225999999999999,1.2501888529735319,1.2666594498325354,-0.1385087020175355,5.336644894281427,0.49566562886547966,-1.0700490111281131,-0.5279040380295971,0.6098038044533525,0.7691104426010458,2,left
11.229000000000001,1.2091257249004013,1.4208299036516285,-0.16686717857253366,5.317840682635429,0.50613099291906,-1.0659682169256128,-0.536519219878028,0.6411357975575978,0.7901219120387362,2,left
11.23,1.146701303801646,1.5623472268454823,-0.19669375230447572,5.301768909308326,0.5152891128091381,-1.0625194060973264,-0.5293182901186957,0.6149464552638275,0.7725594299590627,2,left
11.232999999999999,1.0554963349557798,1.682867070522729,-0.2240333610764459,5.371767490454509,0.474760823858206,-1.077425876987187,-0.5295461045908003,0.6157801468252388,0.7731158010589579,2,left
11.234000000000002,0.9417300839841413,1.7809947802285218,-0.24843689650340775,5.242292161449823,0.5503371490988074,-1.0499633490393954,-0.5431687013906774,0.6653047641050363,0.806337893892165,2,left
11.238,0.8282673578016813,1.8463556109973909,-0.26554550556537787,5.408314116384229,0.45300246986703524,-1.0851014137614259,-0.5096473963906231,0.543435527462398,0.7245868153380026,2,left
11.239,0.6821663440394838,1.863279025093772,-0.2575857813049107,5.269801099878444,0.534399361620083,-1.0558191180155019,-0.5652370390182533,0.7455338085509715,0.8601581282502716,2,left
11.243,0.5769875543422442,1.8513201026209436,-0.23619626698205193,5.273599102308794,0.5321804553460234,-1.056625887743579,-0.49191401429830445,0.4789685174512846,0.6813386653401382,2,left
11.243,0.550243063473567,1.8387315391959178,-0.22610860609993133,5.537410860575122,0.3767917870892164,-1.1123283915779814,-0.18418467624283905,-0.6398733569628368,-0.06914189738166007,2,left
11.244000000000002,0.4666210129541873,1.7950106513976873,-0.20520007232218218,4.888982664332373,0.758852748613202,-0.9754360952840936,-0.11086577258105929,-0.9064264383101581,-0.24795101845081804,2,left
11.248,0.3584089995562327,1.6971044005786802,-0.14196311354479058,5.9640949393605265,0.1252529658066484,-1.2023859513969164,-0.16645133784222466,-0.7043264845137105,-0.11239071229337784,2,left
11.249,0.32046665122754525,1.630893252465981,-0.09131255819632722,4.546023281906681,0.961076157436275,-0.9030561378413686,-0.13292698630567124,-0.8262534608778658,-0.19414669265728846,2,left
11.25,0.3071918965187137,1.6119584077970726,-0.07503061535860679,-1.4055075725000938,4.469082402302569,0.3531574016196045,-0.14656715777278057,-0.7765763462088945,-0.1608861520088803,2,left
11.253,0.2847257318287716,1.5374479065547546,-0.010773817177877756,-2.823622422905028,5.305047226707522,0.6524793153377144,-0.1467590184910325,-0.7759981684860203,-0.1604116161923498,2,left
11.254000000000001,0.26819472902867025,1.4353599012430736,0.08368517881911675,-1.7484958523347387,4.671256258643503,0.4255551331396216,-0.13960814969448687,-0.8018792829300869,-0.17785747566007615,2,left
11.257,0.26652418007055906,1.352993414107032,0.1505866968899364,-2.396791384657295,5.053393351167327,0.5623900167212104,-0.14817534169922944,-0.7707816143305828,-0.15696124792962918,2,left
11.258,0.26437567623339037,1.2630636186759903,0.2013338544309426,-2.1333714968707644,4.898235883563473,0.5067842242878171,-0.14149975075907642,-0.7951524955805485,-0.17323597603146143,2,left
11.262,0.2561459122966764,1.1838085521030703,0.22886480861549463,-2.1288885737673864,4.895334395360058,0.5058529192683613,-0.14510671407452463,-0.7817164923056501,-0.1644571675104661,2,left
11.263,0.24519764796294144,1.115465686480026,0.23690275722123383,-2.2682569343163177,4.97785819088086,0.535246877921737,-0.14426924464780372,-0.7853156414282463,-0.16646900796184488,2,left
11.269,0.22963926812852614,1.052585936389943,0.23805988097199693,-2.10154149917234,4.879216195967439,0.5000811853713447,-0.14333440117942348,-0.7880345216987634,-0.168786353347504,2,left
11.27,0.21543863645602704,1.0033616295228054,0.22615967035491508,-2.231022138202994,4.955700456661255,0.5274004444475218,-0.1449699527167677,-0.7826300671889928,-0.1647677532804776,2,left
11.273,0.20342855708495544,0.959966396693915,0.2011885937459662,-2.1622963496093837,4.915502402802061,0.5128753160848634,-0.14342130118940583,-0.7882653142060365,-0.16854428651419828,2,left
11.273,0.19436912569761133,0.9252245020998138,0.17038361799139357,-2.175433182213948,4.922233713286644,0.5157108896036928,-0.14448761340472555,-0.7833831028378582,-0.16599921353358638,2,left
11.277000000000001,0.19356281212798865,0.8947803679306934,0.1418876671255433,-2.198633157409484,4.9376541851766635,0.5204991642538683,-0.14396868131991153,-0.7875674697182947,-0.16713814358435658,2,left
11.277000000000001,0.20198643126460117,0.8652471482555973,0.1152870852142689,-2.160878617628354,4.913257746472225,0.5126636876619526,-0.14406740614899533,-0.7837807497609118,-0.16708626177104208,2,left
11.282,0.22077298184644456,0.8406679000508347,0.0895638041464033,-2.1954722602524583,4.935356782483291,0.5198589646736609,-0.14420933709994255,-0.7869189298918404,-0.16653879128122656,2,left
11.283,0.25125731303320664,0.8180258236441744,0.0687093003824557,-2.1754398786519764,4.923563325321386,0.5156298518180188,-0.14396153480630836,-0.7857082487882316,-0.16725941827183485,2,left
11.287,0.2910425934024935,0.7980944809053427,0.056527401444776415,-2.175602055146828,4.920491596118364,0.515861399779121,-0.14426342402799708,-0.7827911235148711,-0.16662354031721527,2,left
11.287,0.3336868994246791,0.7831583760651497,0.04870088408200978,-2.1952628803248246,4.939319616547133,0.5195601693866756,-0.14389329208667265,-0.7921015052623328,-0.16708721948085048,2,left
11.290999999999999,0.3737235904671252,0.7716306478295949,0.0369446475410741,-2.161135298050067,4.90840365081632,0.5130297846654577,-0.14435492397841163,-0.7756519305821852,-0.16677541303208535,2,left
11.292,0.41382159791755935,0.7618197160539075,0.02197177870083994,-2.1984090614602896,4.941887192705644,0.5201797865151292,-0.14384329303264198,-0.7964796551546286,-0.16697803472250394,2,left
11.297,0.4503974506251609,0.7511090121275685,0.0087304434645352,-2.175461508870012,4.921708815198934,0.5157507480270462,-0.14423596105306058,-0.7792160301412423,-0.16689279450944916,2,left
11.298,0.4830311627155097,0.7396742189510792,-0.006148427760191114,-2.162669248424762,4.908434307812712,0.5134079928824475,-0.1442786533912232,-0.7794915451780988,-0.16676538001152197,2,left
11.302999999999999,0.5156918217065467,0.7292148620773298,-0.02317615918028504,-2.230093909519887,4.973272935670203,0.5260755743267813,-0.143388260231202,-0.8129198278193299,-0.16727263438627296,2,left
11.304,0.5466669135126725,0.7204778754147697,-0.03607947633192296,-2.1029897512267417,4.851812273626576,0.5021476406984322,-0.14549923630226758,-0.7310345848281196,-0.16621421777167794,2,left
11.307,0.5856149169170872,0.718550453181977,-0.05477582590754008,-2.2666609939105564,5.008046587931325,0.5329701559248161,-0.1420289427216582,-0.8666992752621179,-0.16789697351480812,2,left
11.307,0.6113268530323084,0.718221382149476,-0.0702894222063274,-2.1298315641321683,4.8775036714480775,0.5071979519984603,-0.1465946291125807,-0.6877963999556989,-0.16570515114792628,2,left
11.311,0.6173184533028069,0.7188148235552576,-0.07359749899090764,-2.134258482880213,4.881462327755488,0.5080489628917957,-0.16580635579376501,0.06329698320874116,-0.15639287132778146,2,left
11.312000000000001,0.6399818289271901,0.7282370473094326,-0.09057857381073867,-2.3927919013149643,5.128985815380397,0.556688382807991,-0.17036717634844908,0.24219296194444193,-0.15421138722316935,2,left
11.314,0.6675378509812849,0.7398568416161637,-0.11426638459452124,-1.7564976074648775,4.520103386637626,0.43695817939680426,-0.16690973782519736,0.10655813574596289,-0.1558651816068482,2,left
11.315999999999999,0.6913847375915407,0.7595644866293135,-0.13521278285963706,-2.8117146028157283,5.5297834623782185,0.6355205462441859,-0.16899583026989545,0.1883668660416381,-0.1548654740343329,2,left
11.317,0.7102788954652545,0.7785545450009629,-0.1540602802585338,-1.419894513102022,4.198021001857207,0.37362184900061635,-0.1681434020483566,0.15507742139346964,-0.15528002654885698,2,left
11.318,0.7143097610733635,0.7833463817841471,-0.15852398179448407,4.4205635577468545,-1.3911551130833493,-0.7252420757549978,-0.16814143725008032,0.15461246612152496,-0.15526535432824634,2,left
11.321,0.7265539278927666,0.8028676811121886,-0.16841159603903683,5.812119654666912,-2.722790006236182,-0.9870609839605872,-0.16856848836553154,0.17206021347414996,-0.15508789186365746,2,left
11.322000000000001,0.7409499941491338,0.8378233783847108,-0.1855846141312129,4.757376457519968,-1.713328173895828,-0.788651005485787,-0.1680596502217358,0.15115843267104132,-0.15529562584626003,2,left
11.325999999999999,0.7470684338691469,0.8706497634110701,-0.1934497340689089,5.393112859836755,-2.321978940318024,-0.9081800483625422,-0.16845131087258441,0.16743701182309323,-0.15514265396835059,2,left
11.327,0.7519529543028287,0.9084484446735599,-0.1978149442368447,5.135006109601939,-2.0745834450119647,-0.8597366766161704,-0.16823723573818555,0.15865786649569644,-0.15523086514965925,2,left
11.331,0.7489471217993715,0.9477552859382973,-0.1969105795608612,5.130579131479875,-2.0707407512013876,-0.8587861114132054,-0.16830902171680823,0.16066825694220496,-0.1551660858292339,2,left
11.331,0.7438384806266122,0.9851971968713972,-0.19410514553893607,5.266673730902195,-2.2008040880809387,-0.8844430524756486,-0.16830294218788766,0.16298453402368254,-0.15526510176930897,2,left
11.335,0.7369709914261304,1.0226577723433827,-0.19482767298878545,5.104652158039456,-2.045438672474973,-0.8540575694032173,-0.16831256734151995,0.15897460425631754,-0.15509561588350596,2,left
11.335999999999999,0.7229201597144266,1.0569228030132254,-0.1925251034721763,5.229340036853163,-2.165797759316919,-0.8771985483331981,-0.16827123544008585,0.16273153053641937,-0.15531741912563823,2,left
11.341,0.705769929306814,1.0853017373049094,-0.1871715836449487,5.164426138952372,-2.101887327439342,-0.8655344411554967,-0.16831633769986948,0.16021566300799214,-0.15513491529596857,2,left
11.342,0.6859117963535819,1.1064483217272292,-0.1831606219319151,5.175887529830952,-2.1150525341645374,-0.86701687626496,-0.16834564580916422,0.16132431911847125,-0.15511931535637555,2,left
11.347000000000001,0.6622523417251055,1.121022710942606,-0.17639118144806826,5.197291498846656,-2.1337835483387413,-0.8715813388689059,-0.1681418344587361,0.1612873105752505,-0.15551574842972807,2,left
11.347999999999999,0.6338429133683431,1.1273123543300365,-0.16148786514646762,5.165988207179308,-2.103814030956226,-0.8656961191458794,-0.16859196268422189,0.1607620422756166,-0.15461746815107943,2,left
11.35,0.6031825463824745,1.126008898988063,-0.14364604231495826,5.18926313224075,-2.1293309720463616,-0.8690792175523153,-0.1679168736500397,0.16140411541188798,-0.1559591746690836,2,left
11.350999999999999,0.572889703080419,1.1200432045254807,-0.12418727121501215,5.183538253950834,-2.116437313877994,-0.870278786211418,-0.16864131821751616,0.16090754243392769,-0.15452662889011853,2,left
11.355,0.5410379129541116,1.1082205744929432,-0.10014190352166605,5.171309489734178,-2.115797870350354,-0.8645812611040742,-0.1682227744330641,0.16119640732460078,-0.155354319907886,2,left
11.356,0.5090212447203435,1.0908947687884354,-0.07380471152690268,5.193494440151761,-2.1252338757457028,-0.8723765968682317,-0.16785139581161518,0.16102895310677387,-0.1560729062472307,2,left
11.36,0.47934990913027653,1.0725246895441738,-0.04907319418129448,5.176004345336201,-2.1153124903516374,-0.866992935991335,-0.16946305962824038,0.16122287845565203,-0.15293463465395163,2,left
11.360999999999999,0.451437514290809,1.0537927424016809,-0.027879013898538668,5.170767328305046,-2.1161719977517857,-0.8642052288828538,-0.16647485190106048,0.16088983567580994,-0.15875427136887602,2,left
11.365,0.42742373212684626,1.031109774718015,-0.005934745266460424,5.214457209141369,-2.132277763297055,-0.8803171516764877,-0.17031279429427038,0.1613523067464866,-0.15128112045976866,2,left
11.365,0.4079490355218174,1.0088832596557014,0.011543423763372343,5.12737770160223,-2.0966173818189455,-0.8492964502352496,-0.16710819238191915,0.16095005228324683,-0.15752033961419526,2,left
11.37,0.3864837998778121,0.9884119398337918,0.020139624658661672,5.241881536243747,-2.1449774562928017,-0.8896360769181507,-0.16719404498451376,0.16091809637762253,-0.1573518229494088,2,left
11.370999999999999,0.3675317037766087,0.9673623811834737,0.027035466384882988,5.145134169435542,-2.1035047769366146,-0.8557392231007379,-0.1733087713800282,0.16186968869712662,-0.14545304637971557,2,left
11.374,0.3544052883031231,0.9502666257966186,0.03385992828683627,5.148760107819843,-2.1055797638958835,-0.8568514061391069,-0.15827991871320304,0.15956203883676773,-0.17469871966925274,2,left
11.375,0.33640056897745096,0.9355978852315432,0.04297965209211224,5.331364043895492,-2.182894304677661,-0.9211208803750686,-0.18319882601864035,0.16339279524730882,-0.1262077919533965,2,left
11.380999999999998,0.32396471483524736,0.9266052044005992,0.04937670940767544,4.88073689970723,-1.9911566883922274,-0.7628035242319031,-0.15033041448282003,0.15832824347535052,-0.19016737612305631,2,left
11.382,0.3198947481788683,0.9242563099426164,0.049353028442740504,5.628769777553206,-2.309883770612479,-1.0254730453224319,-0.012369686969181018,0.1369764103981963,-0.45863258253251793,2,left
11.382,0.31302252078611725,0.920941651496586,0.050588391827864315,4.64168045965361,-1.8890831861058572,-0.6789228977475688,0.020498898694679975,0.13189544626781757,-0.5225921470748016,2,left
11.385,0.31002224546554047,0.9181992040427378,0.05121375788110852,0.4984837131821195,-0.12266879252132773,0.7756065842925788,-0.004419520050517921,0.1357504806785139,-0.47410192050814914,2,left
11.386,0.30037567546984073,0.9155878525287177,0.04997911261803012,-0.48887123049335884,0.2983556830443457,1.1222203282880379,0.010606863168497713,0.1334264872438679,-0.5033451936013932,2,left
11.386,0.2847263570905397,0.9132941932376836,0.05050882725889196,0.25971429787099076,-0.020867470802508184,0.8594320898286164,0.0044977049900892015,0.13436679444240224,-0.49145131148220894,2,left
11.390999999999998,0.27846165155337804,0.9119618671082962,0.05405089311430861,-0.19174310532810518,0.1716771115521251,1.0179000599966366,0.004403174066153048,0.13439093138831648,-0.49127558062661275,2,left
11.392000000000001,0.2729077944009253,0.9101617927549579,0.05559419552827706,-0.008155462589481383,0.09331250924237315,0.9534943679268129,0.007617575022106216,0.13388278146082183,-0.4975224879858706,2,left
11.394,0.26839476020172515,0.9096718976433558,0.050850040238427346,-0.005352077143455397,0.09225857864246549,0.9524317989315376,0.003773177252090012,0.13448251852092458,-0.49004499813997254,2,left
11.395,0.2667621123190609,0.9094518605807531,0.049655677485505534,-0.10195604207706385,0.13325862375328262,0.986452439789182,0.006758037994192748,0.13403116232012627,-0.4958603477096526,2,left
11.4,0.2646924175016785,0.9112071349944271,0.05099077901104178,0.013698955424261916,0.08413096334741506,0.9457460815605173,0.005166047677830662,0.13424337131447966,-0.49273999442636596,2,left
11.4,0.2642256401603582,0.9145367847841872,0.05002993597301514,-0.07627997087299221,0.12242177369352078,0.9773771037990173,0.005498362424030522,0.13425123698009883,-0.493425277582113,2,left
11.404000000000002,0.26166239987957873,0.9197329699739378,0.054289180128345924,-0.02804242031814875,0.10167739698543078,0.9605384355280869,0.005970412796289455,0.13410508017999767,-0.49429648910269464,2,left
11.405,0.2600123127791073,0.9279335066093884,0.05541850997078779,-0.03840375516250699,0.10664539011467772,0.9638750161255694,0.005194962605962902,0.13428351474837022,-0.49282525620247275,2,left
11.41,0.2606992173944228,0.9333693272800906,0.04636010911233729,-0.0524728734671579,0.11170124807449908,0.9693305701775572,0.005888808000473167,0.134176698825478,-0.49417580557796736,2,left
11.41,0.25977609305959215,0.9392033547969614,0.036726607620726645,-0.02874043920793986,0.10273805575428105,0.9603658869005888,0.005489293679831229,0.1341297264383156,-0.49332826084971454,2,left
11.415,0.26144703325150564,0.9479174879406137,0.03011563281433986,-0.05079151179676518,0.11121922634344925,0.9686116571620987,0.005542539815981314,0.13437020182371479,-0.49359205002689405,2,left
11.415999999999999,0.26517624612052365,0.9521214974823792,0.025290322713932212,-0.036822798614073296,0.10525359870741563,0.9637128786802389,0.00576588415037008,0.13396451045444951,-0.49378775326023,2,left
11.419,0.26860923162212347,0.9516986709984917,0.020393111621699073,-0.04071976712944861,0.10862867118504319,0.9641430569881786,0.005417013415087615,0.13441418998474244,-0.4933635061827326,2,left
11.42,0.273815148348,0.9505119100283451,0.013491237950526449,-0.045764589783225465,0.10686514400226424,0.9680568377908009,0.005692856822484913,0.13414284366087498,-0.49375323891126216,2,left
11.425,0.2790674218670093,0.9464589240877685,0.0023943401257309686,-0.034897209333046686,0.10807126524559352,0.9610452851744817,0.005699742983730605,0.1339446926412286,-0.4936396153252483,2,left
11.425999999999998,0.2842977158522165,0.9396850059594756,-0.00996554252356974,-0.0471047430389314,0.10705059115405995,0.9687383427739032,0.005243651656949725,0.1348779053113212,-0.4933074373260114,2,left
11.429,0.28994865810025305,0.935134703272767,-0.01530691251433255,-0.039067646336471334,0.10722173385695863,0.9639479676194722,0.006190079810196009,0.13313163000947778,-0.49411946628484893,2,left
11.43,0.29553467173668624,0.930128414532335,-0.017700847975935626,-0.03701001732244069,0.10944369744345595,0.9615284436759555,0.004938614536587149,0.13537958817982393,-0.4930060947965079,2,left
11.434000000000001,0.3019006825118852,0.9214778429097125,-0.020900276325634078,-0.05398889252780355,0.10311414502040794,0.9749168494297803,0.005998612510251085,0.13350046093817813,-0.4939655367369847,2,left
11.434000000000001,0.3109142294920228,0.9126721984020463,-0.022629703159951435,-0.021060795907496915,0.11424042667769727,0.9495820342843643,0.005946570006081028,0.1335550748818154,-0.493893335151159,2,left
11.437999999999999,0.32132284992881655,0.9044217834216652,-0.025818010378832464,-0.06366733792515215,0.10008996962792,0.9822275625393095,0.003987555814067233,0.13712824711210836,-0.49218678388168224,2,left
11.439,0.3308333884828898,0.8946211053783539,-0.0337021478630226,-0.027962728387360865,0.11184978512437496,0.9549258829407206,0.008836185551744296,0.12834033867062414,-0.49644828744138303,2,left
11.443,0.34451284251971265,0.8832356077463519,-0.04811049011562023,-0.029439416291537894,0.11174052303838469,0.9558447702895384,0.0007844642174434252,0.14291324183257115,-0.4893570357425606,2,left
11.444,0.3544791274633519,0.8770555000106537,-0.056983916762606904,-0.09585479426504875,0.08862695766381778,1.0073167972596457,0.011408898542237826,0.12369077607902138,-0.4987198620873999,2,left
11.448,0.3568798952602108,0.8760513427867368,-0.05829036271858885,0.06799494015480831,0.1451949995131412,0.8805895050009587,0.055991256641007695,0.04300932150386543,-0.5379798075656393,2,left
11.449000000000002,0.3651202960141443,0.8718420609669524,-0.06709947148649542,-0.20384142279356998,0.05146020192377079,1.0907686544272062,0.06661580549888514,0.0237864470237971,-0.5473448881584814,2,left
11.45,0.3717209816542162,0.868511256965238,-0.07482486262443594,0.15473528407161039,0.1750981873653081,0.8135330667491394,0.058561225988755614,0.03836021721182273,-0.540245876502264,2,left
11.453,0.3713463865936436,0.8682660670808184,-0.07500595296452922,1.65897672215188,0.6942896475864279,-0.3498365687347328,0.06341949341276501,0.02957097226784717,-0.5445252996063485,2,left
11.454,0.3724015480345546,0.8673668595205437,-0.07451533227220884,2.017514859551386,0.8179667128079905,-0.6270609067259003,0.06144092407792448,0.03314577969514135,-0.5427879833204676,2,left
11.454,0.374572266974569,0.8690081722108698,-0.06906128105345793,1.7457202269927632,0.7241896322607168,-0.4168939276594094,0.06141761831896117,0.033198947671135445,-0.5427560189276786,2,left
11.459000000000001,0.3766346668223026,0.8739279627227077,-0.06037218531419913,1.9095858298369492,0.780741597258121,-0.5436258528653349,0.06244709266242917,0.03132023449661599,-0.5436785508392039,2,left
11.459000000000001,0.3751242935708356,0.882184982362755,-0.05678355544018655,1.843032036293264,0.757768275685843,-0.49211344437578947,0.061212683470305965,0.03356985278134933,-0.5425759754969082,2,left
11.463,0.37037504690459094,0.8941957973529897,-0.05567834933328905,1.8418531704755656,0.757357255689715,-0.49128143772215016,0.06217652237637588,0.03181901273567878,-0.543431550070619,2,left
11.463,0.3647431034262143,0.9089981549310885,-0.05194631962818682,1.877130760766807,0.7695497353279618,-0.5184585522311058,0.06164870856865729,0.03275966754788496,-0.5429790280429119,2,left
11.468,0.3569701094186989,0.9272446953130864,-0.04811189844694223,1.834949444295511,0.7549684294418146,-0.4859370595629349,0.06178843977173738,0.03255279915231425,-0.5430619774839687,2,left
11.469000000000001,0.3478004248836418,0.9461834441582828,-0.046698201388118234,1.8676940575030048,0.7662806248554082,-0.5112183653971367,0.061891131973042655,0.03228781216125598,-0.5432214918832311,2,left
11.472000000000001,0.3364668642728491,0.9641021253713914,-0.049365135361992704,1.8503500509854471,0.760321023315309,-0.49772342636012973,0.06169555472484988,0.0327388858348128,-0.542964561686603,2,left
11.472999999999999,0.3246779531830016,0.9822065694551042,-0.056049754850365965,1.8535838937642302,0.761351232131316,-0.5004860845950734,0.06188514882889143,0.0323183389549046,-0.5431990247231241,2,left
11.478,0.3125260038299555,0.9982950093294827,-0.06482651598419506,1.8595943110397917,0.7635758410417183,-0.5046852471493364,0.06173441700971189,0.03259032626265515,-0.5430667933809452,2,left
11.478,0.3003742960844802,1.0111835562210765,-0.07510507016454612,1.8498740360106574,0.7600350246609855,-0.4977177321388613,0.06186485648276118,0.032498316321418516,-0.5430567530674066,2,left
11.482000000000001,0.2903289909358281,1.0201590416255115,-0.08348997049906667,1.8587584312514445,0.7632503617010404,-0.5041508822575427,0.061716859312809555,0.03243705314158569,-0.5432119599250022,2,left
11.482999999999999,0.27840968358217844,1.0218944964786,-0.08942998771884994,1.8536959897628469,0.7615046545164134,-0.5002318663633396,0.06190170621201933,0.03259345598982473,-0.5429487406538998,2,left
11.487,0.2681216547859037,1.0187229553279282,-0.09029526869801241,1.853478794614403,0.7611513512510714,-0.5008752347201741,0.061711342824219494,0.03241465327441618,-0.5432352614403413,2,left
11.487,0.26147003788955026,1.0123168467248882,-0.08320219867296996,1.8590379106705037,0.763706452662468,-0.5033207491143037,0.061810763730417544,0.032537032135992364,-0.5430603234864759,2,left
11.492,0.25466014894354727,0.9990847098546042,-0.07426026193163833,1.8495326552513727,0.75947596736083,-0.49873473078361924,0.06194884375084983,0.03254796337293914,-0.5429559137093392,2,left
11.493,0.24928016452435034,0.98254465638544,-0.06517872530127423,1.8598908874964164,0.764063824591241,-0.5037981809657225,0.06143026842851092,0.03234543077714758,-0.5434888945298503,2,left
11.497,0.24187868451076444,0.9667318121278548,-0.060605213157905694,1.8535493609944904,0.7612898063094564,-0.5005964697463189,0.06237650139736409,0.032748852723647734,-0.5424866422677662,2,left
11.497,0.2343567573994217,0.9507615149883121,-0.06313351360165516,1.8498496456908824,0.7595083299534997,-0.49920371163731564,0.06116496066097885,0.03222472527662476,-0.5437768410755457,2,left
11.504000000000001,0.23011501958870334,0.934378844279854,-0.06152584091136113,1.8689331294765439,0.7683031645890868,-0.5075372606485982,0.06217501289123031,0.03266459690318218,-0.5426981878642145,2,left
11.505,0.22634689701608002,0.9168651987155617,-0.05753876150186056,1.8330208424087608,0.7518128131855544,-0.4916783000200013,0.06215306037180656,0.032643479480126886,-0.5427328077497816,2,left
11.507,0.22595986816683983,0.9015726356990401,-0.06006027005121474,1.8792509637417114,0.7730277550911466,-0.5121332196175974,0.060209416162660324,0.03183545353106909,-0.5447723979365415,2,left
11.508,0.22740731936727426,0.8875358601015522,-0.0657115039531703,1.8406083684266608,0.7552999516834821,-0.49501871918612717,0.06498031718588632,0.03383184262397765,-0.5397523375787814,2,left
11.511,0.22679003559787744,0.8710194538798925,-0.06719043030063546,1.8418362785278948,0.7558428910121138,-0.49562510964249906,0.05707156932706663,0.030519696247155906,-0.5480784034513233,2,left
11.512,0.2263097767290197,0.8618975527735134,-0.06531382796503196,1.914922828012171,0.7894395027863579,-0.5277914882060842,0.06750305463228279,0.03488759682129855,-0.5370949669295038,2,left
11.515999999999998,0.22773235519154475,0.8598988756666129,-0.06454861027918246,1.7350706146430708,0.7067885059949278,-0.4485597325310409,0.11129672209499498,0.05321351855967088,-0.4910057786932229,2,left
11.517000000000001,0.2259427176904394,0.855844871122854,-0.06111062607354774,2.0333290560064383,0.8438471946253833,-0.5799760658836917,0.12172892799136614,0.05757755361612849,-0.4800195836986642,2,left
11.517999999999999,0.22002913911923286,0.8547426943017362,-0.057976449610258,1.6399232851966543,0.6630654664571736,-0.40663144475638807,0.11381938560127788,0.05427084909715344,-0.48835025397311504,2,left
11.520999999999999,0.21833601521302626,0.8555263680677064,-0.05591998944210485,-0.011130148630662806,-0.09566756352533604,0.32073485505693966,0.11859004287769223,0.05626436722447012,-0.4833255909385197,2,left
11.523,0.21672692149090364,0.8577477602438318,-0.04702115424964967,-0.40451386781145293,-0.2764425561574938,0.49406851966349563,0.11664887598759016,0.05545166639952265,-0.4853671102348214,2,left
11.523,0.20830780556692124,0.8662978401511441,-0.03140669662643519,-0.10627929934070354,-0.1393911497006767,0.3626640455797352,0.11662152052433283,0.05544675246028605,-0.485405481954007,2,left
11.527000000000001,0.19680759543873994,0.8750358586495074,-0.012157916286978838,-0.28614053554967983,-0.2220449366665872,0.4419002919748928,0.11763937766932417,0.055858471740927285,-0.4843151222887271,2,left
11.527999999999999,0.18521201453128736,0.8844054745732669,0.0003290748924271597,-0.2129749511702251,-0.1884241136516345,0.40969462854095934,0.1164199921786318,0.055368523827760883,-0.48562488183435193,2,left
11.530999999999999,0.1753216714440089,0.898430900430117,0.0017628484720876294,-0.21191716514166034,-0.18793324229604058,0.40917278893962217,0.1173697450000565,0.05574578500962798,-0.48459951204457596,2,left
11.530999999999999,0.16451993375445742,0.9138254929496457,0.00028413085527964144,-0.2503157805981602,-0.20558641126628954,0.4261660409885273,0.11685759500534679,0.05554020139726952,-0.4851495177290623,2,left
11.536,0.15133769979673517,0.9305265751856118,0.000374688879872048,-0.20432868281197042,-0.18444576411337085,0.40583188397523845,0.11697444219104824,0.0556062021326893,-0.485048448160847,2,left
11.536,0.14090763979532128,0.9469270284760318,0.000667362532895742,-0.24013597875220097,-0.2009041061943772,0.42163869228939455,0.11711075187261621,0.05560801436647325,-0.4848347299951102,2,left
11.540999999999999,0.1319635194759814,0.960703715472589,-0.003560875252799675,-0.22084410958816023,-0.19204536435597414,0.41320154786690666,0.11687479425921476,0.055604440886171363,-0.4852039060294057,2,left
11.540999999999999,0.12163017456729762,0.9741728316330381,-0.006794029391983614,-0.22521561051047975,-0.1940325150966733,0.41492819555516924,0.11709647263683698,0.0555804257259053,-0.48482242667242575,2,left
11.546,0.11341035530273871,0.9864687181872059,-0.007891105014332274,-0.23039932806740157,-0.19645225480505785,0.4175544989246412,0.11694769537788374,0.05561126405514952,-0.4850970933266544,2,left
11.546,0.10763349408725248,0.9964431502321233,-0.01185300923084726,-0.22146232996236592,-0.1922990725754768,0.41319732683168064,0.1170123274716929,0.05563912618661825,-0.4850300967201416,2,left
11.55,0.1035175486874231,1.0041075004471076,-0.013479206986383116,-0.22983404271017044,-0.19618318375529653,0.41722010438213597,0.11701399848736935,0.05546712188490193,-0.4848093463499107,2,left
11.550999999999998,0.1011437128245469,1.0082871273065384,-0.017241805582608842,-0.2242658978210374,-0.19362460479501756,0.4147699429112568,0.11697461928873376,0.05584533410850314,-0.48535127569005254,2,left
11.555,0.09649655484360116,1.0116389107584403,-0.024771139560055007,-0.2265841878823338,-0.19462158332257706,0.41517094667975485,0.1170251108674785,0.05527765204917628,-0.4845514764317767,2,left
11.556,0.09053579779965427,1.012962271240675,-0.028533427283208367,-0.22684298206198733,-0.19489698751075124,0.4167025494083224,0.11698224352528412,0.05588739476846208,-0.4853925937590097,2,left
11.561,0.08767562002214781,1.0090712890621443,-0.03433288304573412,-0.225126409521875,-0.19387453514788686,0.41383157368225176,0.11700712529161018,0.05553514236041714,-0.48490637985402263,2,left
11.562000000000001,0.08567362940498245,1.0026719854541666,-0.04447687961442304,-0.22720370048382876,-0.1950783809865079,0.41700106162199774,0.11700428838880603,0.05522129935354804,-0.48451312989924444,2,left
11.565999999999999,0.08109814955372814,0.9948212584974766,-0.052593508155793334,-0.22561261912236003,-0.1942028660812868,0.4149975083097729,0.11698527745971918,0.056581608459920295,-0.4862679175416512,2,left
11.565999999999999,0.07653630062717565,0.9853215632779462,-0.056178905903425704,-0.22617829418634888,-0.19433942349042257,0.4141240636532295,0.1170220835866484,0.05405958026274155,-0.4830117365755141,2,left
11.57,0.07557733831927967,0.9749322973224223,-0.05190111105924023,-0.22687263568476945,-0.19520071571606784,0.419343630104219,0.1169768541644345,0.05729880734593932,-0.48719098267919414,2,left
11.57,0.07493113959594558,0.9638834585001171,-0.04276962427414835,-0.22501379119173848,-0.19334005639312773,0.40941211091417545,0.11701367115193095,0.05459418909149359,-0.48370248591298337,2,left
11.575999999999999,0.07846322395556551,0.9500610581175578,-0.038282424080064166,-0.2275275374911202,-0.19578843194924536,0.4222207219880201,0.11701017684765933,0.05466624538461516,-0.48380060757340665,2,left
11.575999999999999,0.08957427834299815,0.9348218189189537,-0.034393608573548354,-0.22537920585991322,-0.19372028513102224,0.4115053094500717,0.11695073634843359,0.05982816194427492,-0.4904385153816783,2,left
11.58,0.10110423779223147,0.9255451075070076,-0.02946823762022399,-0.22563176634150067,-0.19386849133305295,0.41188155251785885,0.11709865472915305,0.0471417658778748,-0.47411936540261196,2,left
11.581,0.11456300240464926,0.9204928663878692,-0.031297508628206364,-0.22908555538257352,-0.197509879980724,0.4320292153898382,0.11685366658708257,0.06817636409435238,-0.5011783655312645,2,left
11.584000000000001,0.12311766982709207,0.9173087061920079,-0.034228829521903946,-0.2203722647897604,-0.18845070419284723,0.3824087387952393,0.11717611561276176,0.04043165478588508,-0.4654873638981191,2,left
11.585,0.12667729898569086,0.9179713538321056,-0.03938204204472569,-0.23487104425471378,-0.20349988465281693,0.4647055044707501,0.11852415575801503,-0.07603153413966651,-0.3157122677419893,2,left
11.585999999999999,0.1351247026040355,0.9174962489989151,-0.047625439667346475,-0.21575243603546485,-0.18364697775153555,0.3561576876033915,0.11884564800217463,-0.10377674117204325,-0.28002344654062084,2,left
11.589,0.13795463315231127,0.9186231920219421,-0.05307509293132752,-0.1357327674900864,-0.10045017955020694,-0.099363367170449,0.1186020742250066,-0.08274111315043273,-0.3070756404446235,2,left
11.591,0.1404867194767931,0.9257326964809416,-0.06367313740598143,-0.11666435240192694,-0.08060608978323108,-0.20789209268936615,0.11874904321765167,-0.0954290446044382,-0.2907713451164994,2,left
11.591,0.14627431774179805,0.9350111358381181,-0.07647157496285827,-0.13109696096284162,-0.0956471350228407,-0.12561975613818763,0.11868893786084984,-0.09026532673315626,-0.297384604200179,2,left
11.594000000000001,0.1452153449250821,0.9461236407653049,-0.08620812760544116,-0.12240504306535964,-0.08657935683373034,-0.17523472276584673,0.11868872391699366,-0.09019474945516626,-0.2975140660701242,2,left
11.595,0.1464664818611371,0.9557190823470157,-0.09245210515833516,-0.12595232696071013,-0.09026264386407695,-0.1550460984672423,0.11871935647237189,-0.092899165978797,-0.2939980028167878,2,left
11.6,0.14995904061366036,0.9627962861356072,-0.09254418142478091,-0.1259458385540178,-0.09032755136081569,-0.15477639775589755,0.1186821355642005,-0.08965774287080688,-0.2981830037692328,2,left
11.6,0.15229236491553164,0.9687705882248439,-0.09412629134733977,-0.12421527370905687,-0.08837335284984385,-0.16532431149115426,0.11871205033609619,-0.09218516967464657,-0.2949646278376226,2,left
11.604000000000001,0.1579740557465446,0.9703879926442971,-0.09697680842799186,-0.1262551212751878,-0.09071511149119202,-0.15270090526390376,0.11869407984171522,-0.09081648982372123,-0.29662163985002354,2,left
11.605,0.1629932092746525,0.9737731500364943,-0.09728563722493033,-0.12470826131689283,-0.08888773110154194,-0.16251832153232904,0.11870151108976608,-0.09113965278537423,-0.2963836439532973,2,left
11.609000000000002,0.1667160908262404,0.9805141151372584,-0.10143592955542663,-0.1255618140532493,-0.08986989770799458,-0.15721850419624653,0.11870097005959042,-0.09148586294422724,-0.2957205888927088,2,left
11.609000000000002,0.1723044966586541,0.984014664783354,-0.10791462983203831,-0.12518846764581795,-0.08966752521823457,-0.15848599140901268,0.11869750936595017,-0.09087289898096781,-0.2966824427834299,2,left
11.614,0.1790338745115409,0.9878234379214467,-0.10852919432583336,-0.12545725238772132,-0.08934737023090225,-0.15973366307208542,0.1187043295595388,-0.09145903873989962,-0.2959302525061719,2,left
11.615,0.18488473632940025,0.9922239567354778,-0.10993899893650026,-0.12499520617691476,-0.08990004696236271,-0.15757350704960693,0.11869276200313322,-0.09104441262988262,-0.2961413828692044,2,left
11.619000000000002,0.1901200175271985,0.9946890891066374,-0.1159597623630243,-0.125686653938257,-0.08935134219386454,-0.1595178170013803,0.11871079831934989,-0.0912660792014716,-0.29659222122397255,2,left
11.619000000000002,0.19476698319072033,0.9969673467987237,-0.11786129876420405,-0.12508419831277418,-0.08973544642266183,-0.15825868650441977,0.11868684652392694,-0.09119106353925761,-0.2955910041665917,2,left
11.625,0.1967526919328501,0.9967085831497396,-0.11643154836394702,-0.12495846181971146,-0.08961363853595383,-0.15893343340611843,0.11871129858352776,-0.09117742233828777,-0.2967785172973447,2,left
11.625,0.19840981050500334,0.9933586635759365,-0.10767841480356083,-0.126577486129004,-0.08942227343776271,-0.15841573627690736,0.1186978977091,-0.09124815138659925,-0.2960118609737842,2,left
11.628,0.20265638838201155,0.98826200493867,-0.09209841750836034,-0.1229423095652109,-0.08992695619536853,-0.15922913000471023,0.11868408001000334,-0.09111372318020992,-0.295601308963018,2,left
11.629000000000001,0.2102523510696242,0.9801021747933252,-0.0834847090224207,-0.12838046788587104,-0.08918984451325757,-0.1579297597065225,0.118740372841886,-0.09134145186855287,-0.29785977063063,2,left
11.634,0.2206357743235845,0.9700731382982493,-0.07980177160155116,-0.12256336028600497,-0.08995478085690142,-0.15942885162813286,0.11863696667315028,-0.0910044754987164,-0.2935625276629299,2,left
11.634,0.22843694217074018,0.9631851018807486,-0.07667371621241141,-0.1259239829479869,-0.08951252883822397,-0.1585640260017203,0.11876938501936028,-0.09140618582964906,-0.2991193913937491,2,left
11.638,0.23515517167269562,0.9594462669343906,-0.07435097463655524,-0.12886627859937094,-0.08917767830351234,-0.15756531066733498,0.11865899433743522,-0.09108427576030051,-0.29446418313107375,2,left
11.639000000000001,0.2411427720026135,0.9567335432069051,-0.06719284863352779,-0.11604888825169461,-0.09070333218350062,-0.16160801688060789,0.11866172984948217,-0.09107184874319155,-0.29461448920099237,2,left
11.644,0.23997264459450934,0.9592371295813369,-0.05709889871782598,-0.13981514047877502,-0.08787084205770032,-0.1541274422702294,0.11887288898090173,-0.09174158366961761,-0.30342602369644134,2,left
11.645,0.23492401520277356,0.9653069656393192,-0.047470393866138626,-0.10929532645702854,-0.09150426661209751,-0.16375342703923113,0.11835426273919954,-0.0901267203853586,-0.28173397846725545,2,left
11.648,0.22529028784438843,0.9711713210424106,-0.03652773713434326,-0.13477509940070814,-0.08847232213795359,-0.15570824899011979,0.11921401010830072,-0.09279151756158446,-0.31771231136926226,2,left
11.649000000000001,0.21476157545833652,0.9769618599079644,-0.030450726329268138,-0.13409336799017618,-0.08856003944152527,-0.15589791616894208,0.11808008617788661,-0.089282460303658,-0.2702540701001557,2,left
11.652999999999999,0.21208536680480095,0.9791993107777077,-0.028146775835238717,-0.08548070649462243,-0.09431866725937299,-0.17135555410927267,0.11331989655454286,-0.07451652675816255,-0.07104493304575801,2,left
11.654000000000002,0.20558878640800177,0.9813102273006092,-0.02358222446031489,-0.20495485345820297,-0.08015945538541352,-0.13338558835752107,0.11218603403845245,-0.0710112409571372,-0.023589228509338932,2,left
11.654000000000002,0.19194804810942953,0.9872431508202865,-0.026574893070691948,-0.006865161982096538,-0.1036367399081806,-0.1963415604007202,0.11304568845383363,-0.07366964978331461,-0.05956778548225531,2,left
11.66,0.18475943796391847,0.9906334417351341,-0.032223608798847614,-0.2681423687619179,-0.07267074666262398,-0.1132978714340592,0.1125271308305877,-0.07206140914239761,-0.0378641813682442,2,left
11.661,0.1828593174592671,0.9917480870982323,-0.03280670144559927,-1.3649568904767195,0.057271333178382705,0.23539489104055208,0.11273831680698371,-0.07272782668623612,-0.04670649765117848,2,left
11.661,0.17432797945872847,0.9970152087609568,-0.04295867376906757,-1.6262393185518174,0.08823450884582137,0.31845076062394184,0.11274086524690047,-0.07271127885028689,-0.046805054880328524,2,left
11.664000000000001,0.16073861708808396,1.0051949506278812,-0.06203783529437386,-1.4281313040004924,0.06476443593845367,0.2554699857388834,0.11263084631676534,-0.07240429093915363,-0.04221244946732176,2,left
11.664000000000001,0.15085766610118906,1.0131927773231153,-0.07762153169921243,-1.5476481939845885,0.07891006113924853,0.2934761124770729,0.11276276515952019,-0.0727798829313937,-0.04772145639711738,2,left
11.669,0.14160572997145715,1.0197472927217426,-0.08663348470953397,-1.4989617228107865,0.07317172184926812,0.2779773067859711,0.11265981465219865,-0.07247508361431576,-0.04341796920524841,2,left
11.67,0.13193198072904727,1.022968239192621,-0.09154615778457867,-1.4983769743871838,0.07306066061955281,0.2778195102651771,0.11271598308635991,-0.07267706468762208,-0.04577949513301055,2,left
11.673,0.12785199574023492,1.0242695533716693,-0.09516220323143484,-1.5237671935411323,0.07610981550840362,0.2858643930926651,0.1127016141734106,-0.07254269607736825,-0.04514355515256098,2,left
11.674000000000001,0.12904734587723304,1.0254285767946127,-0.0953560116820136,-1.4932747259829875,0.07247956349180246,0.276181991164544,0.11268970349799337,-0.07266037561578835,-0.04470472647769411,2,left
11.677,0.13294638045828802,1.022956285357389,-0.09635789490201145,-1.5171439957533155,0.07527296844263215,0.2837922216117633,0.11271175273020786,-0.07253914070685946,-0.04555419486981936,2,left
11.677999999999999,0.13819914451257512,1.0177604417481234,-0.1049358133344619,-1.5040385563191503,0.07383149837621336,0.27955529082430974,0.11269057419286668,-0.07262457160193164,-0.044726437095155606,2,left
11.683,0.1458822869952202,1.0156106816784825,-0.11584034927239292,-1.5074535850887858,0.0740446821321521,0.28076218502595235,0.11270666065589438,-0.07267575272006421,-0.04539995889972447,2,left
11.683,0.15493056442913009,1.0132725021844575,-0.12123147266175884,-1.5102580659348837,0.07461169294902761,0.2815052988930967,0.11269447717472951,-0.07235782715613648,-0.044781810641064006,2,left
11.687000000000001,0.16047105591303687,1.0099404011118636,-0.12412769444026435,-1.5048490550488762,0.07378378573473318,0.27990391711619345,0.11270628494166234,-0.07303466599272179,-0.04552386290348155,2,left
11.687000000000001,0.16517197580615017,1.0106741020685006,-0.1296880933873279,-1.5103718807257769,0.07443643352247471,0.28166077958432095,0.11269251797915661,-0.07203689436083802,-0.0445774851957058,2,left
11.692,0.17079216807583258,1.0109980014479256,-0.135347206035775,-1.505793447733649,0.07424103022549866,0.2799860380616125,0.1127064660498894,-0.07309826457887192,-0.04555639297080324,2,left
11.693,0.17309886662284354,1.0103142777548353,-0.1407147320233451,-1.5094212647629033,0.07387784438526968,0.28164011809109435,0.1126995577006318,-0.07248858475923853,-0.045038090278356424,2,left
