time,gFx,gFy,gFz,ax,ay,az,wx,wy,wz,subject_number,foot
5.16,0.013524680313098593,1.6673429222436398,0.5683789040789259,1.960472063098989,-2.3515569008515893,-0.3456500553889869,-0.15519354383107148,0.47470353226782325,0.6899707657536587,1,left
5.1610000000000005,0.0623519393540974,1.4611804838792926,0.5401635908714494,1.971288711538114,-2.0856091503922327,-0.24012277354420072,-0.142453343291284,0.5696131673154131,0.8073017324148477,1,left
5.165,0.11659476059541424,1.2067274648937445,0.5139401110977452,1.9534093060986244,-2.5264854080286647,-0.41514977264305297,-0.14763898564593203,0.5310824990351355,0.7595733513988003,1,left
5.165,0.14613109924321827,1.0432789294873355,0.500300842239634,1.977019765039815,-1.9450024979714247,-0.18429143425185754,-0.14770857776222895,0.5303570985719313,0.7588810972961353,1,left
5.171,0.15116884658225438,1.0083269369134986,0.49922292364855547,2.0761507499814553,0.49630969126210794,0.7845029179356243,-0.1449951511544349,0.5508549643205256,0.7839340954943507,1,left
5.172000000000001,0.18374759020362313,0.8629301051613274,0.4956890590239633,2.0998559298906985,1.077769489330297,1.015324365788376,-0.14824677226831756,0.5263566415381951,0.7539303939952992,1,left
5.172000000000001,0.22142812294860706,0.6892074653896626,0.4971921141426935,2.0818740328269962,0.6369182550138764,0.8403372792577989,-0.14571279646373325,0.5453515371250257,0.7772909107376293,1,left
5.176,0.2510006095701888,0.578565765929252,0.5021547752951536,2.092651738677901,0.9028754533553651,0.9458797433776882,-0.1470837087429526,0.5353653348384115,0.7647104237727906,1,left
5.1770000000000005,0.2803240734672776,0.4709639463741067,0.49775403624862136,2.0884679208865085,0.7944961021612321,0.9029112260212366,-0.14676006566715818,0.537046502363425,0.7675480370493855,1,left
5.18,0.30377133361047404,0.3940589266616327,0.48376822078291615,2.087957767674898,0.7933299076892899,0.9023704830544358,-0.14641674812697747,0.5408590432276781,0.7709540285362405,1,left
5.181,0.32038449604076646,0.3368222684130865,0.46100395788148774,2.090899712661747,0.8495599257410493,0.9247864940046628,-0.14702067632845112,0.5348219712226784,0.7650939068658223,1,left
5.184,0.332993678732483,0.29434360673300863,0.4274178968894718,2.087507078715783,0.7820937722022803,0.8979176651016584,-0.14645081665877888,0.5402925214891343,0.7705792911110427,1,left
5.185,0.34655000785865125,0.27351851732042176,0.3893553127941898,2.0899293395733523,0.8348115649172007,0.9188786893511767,-0.14684540441613736,0.5373634683318933,0.7669469898238397,1,left
5.193,0.3599821758568146,0.2566065095864358,0.3510926785702012,2.0893101540427157,0.8058457544184403,0.9074593602000126,-0.14663845668463216,0.5366341799837943,0.7684147796548707,1,left
5.195,0.37618507213013425,0.25186197197108406,0.31184235018352213,2.087835429798785,0.8137281807072761,0.9103445607014746,-0.14671777751444487,0.541232996830274,0.7686857540691034,1,left
5.195,0.40045969226902206,0.2503030948130398,0.277406280182132,2.091139449071587,0.8189527856778108,0.9128345104197533,-0.1466937039055768,0.5336704775644748,0.7674132357672094,1,left
5.196000000000001,0.4334190492694546,0.24673559818056556,0.24970643170334333,2.086930283771094,0.8087298145574437,0.9082677302163276,-0.1467018493461849,0.5418626146075416,0.768931546322823,1,left
5.2,0.48058215042498054,0.2468317865100763,0.22569128377461684,2.0903610766658782,0.8187244191118728,0.9126400577741618,-0.14672478221992657,0.5369232281775527,0.7677986611814638,1,left
5.2010000000000005,0.5434866215454286,0.2459930558816627,0.2055945857415455,2.090051689044613,0.8104719298338001,0.909368033324347,-0.14660749750419333,0.5336869076479032,0.7680878555018775,1,left
5.204,0.6212913796600912,0.2445709219722757,0.18887912173032512,2.084760236798036,0.8183163603747475,0.911730417231478,-0.14689658361812158,0.5495217681475675,0.7688944283870669,1,left
5.205,0.7127808981157397,0.2454075820339115,0.1750099839345003,2.0971884233590425,0.808603812636606,0.9095921028778065,-0.14640079234874886,0.5198551968064504,0.7670242273865533,1,left
5.209,0.8109965657269562,0.24903332190156321,0.1583405010990307,2.0785663082764154,0.8211272801209248,0.9120015112963749,-0.14702857088379956,0.5580147028161444,0.769510232835478,1,left
5.209,0.9068788685020266,0.25525326134005133,0.13816973129586427,2.0984345690919834,0.8081407831301382,0.909578086779801,-0.14650775312435524,0.5261322157975847,0.7673997065800531,1,left
5.2139999999999995,1.0022988142496427,0.2610707007471575,0.11681469011896682,2.086928171169003,0.8150705089874273,0.9107491327404128,-0.14650867431580328,0.527094802122132,0.7675898043873017,1,left
5.215,1.091206885909157,0.2672883301777399,0.09273096629183973,2.0771352364442732,0.8238953869002599,0.9128950043955151,-0.1475457977359527,0.5875565679192167,0.7711801495313164,1,left
5.218999999999999,1.16580328841157,0.2743153370854856,0.06686825591169038,2.1202041621699026,0.7899335188569984,0.9053630421056763,-0.14501146753615735,0.43883593266273224,0.762196823942423,1,left
5.22,1.2357727486150372,0.2754596171194269,0.03511684137973862,2.0402897902821393,0.8520827623166931,0.9189962870161552,-0.14921046904174956,0.685445984172033,0.7771345992672811,1,left
5.223,1.2721357715984003,0.27666335152437693,0.015116980500543395,2.1429196713371663,0.7724565407725033,0.9015646792691472,-0.14367138551995084,0.3601718603211055,0.7574260922205469,1,left
5.224,1.280405480859944,0.27506802953363924,0.008682250281226659,2.0572238969836003,0.8388756077752405,0.9160887671613589,-0.12042910543939177,-1.005175645370767,0.6749685027583405,1,left
5.225,1.3024021660505198,0.2737610433711096,-0.010379478598884705,2.0595835412721666,0.8373263616175963,0.9158085261961154,-0.1148892379977616,-1.330442138399448,0.6552797646753465,1,left
5.229,1.3157511197915874,0.2833561645669821,-0.030798250087447816,2.2228812493194727,0.7098221336192846,0.8877398954055422,-0.11908554964962882,-1.0838201457393601,0.6701854218776788,1,left
5.23,1.30918167995886,0.2962312852000501,-0.03960645516119157,1.8214443381907885,1.0229586629041088,0.9565998047839881,-0.1165640737303533,-1.232615460050304,0.6612319652962386,1,left
5.236000000000001,1.27353102321362,0.33527645794876465,-0.02901643395692916,2.4870919599333714,0.5037818443681025,0.8424558907533045,-0.11757254843788659,-1.1719788235396416,0.6648149102756646,1,left
5.237,1.2348146167391745,0.37531167744383176,-0.01146748302446685,1.6090622340921144,1.1886387071109235,0.9930150046931228,-0.11761785140074402,-1.171293965001875,0.6649685890144128,1,left
5.2379999999999995,1.2224517768337924,0.38722500570224394,-0.0055168094761614325,-2.0759396509348833,4.062911919939134,1.6250769280822333,-0.11704721736097565,-1.2028571297656259,0.6629521854233648,1,left
5.239,1.1730397010058788,0.4360417957118009,0.020256993486832176,-2.9540419251178625,4.747927386802242,1.7756619586489117,-0.1177073423548464,-1.1649170699747484,0.6652921210374182,1,left
5.239,1.097896629254456,0.5160404357452064,0.061075921327281193,-2.28831580520636,4.2285789851319695,1.6614899994606394,-0.11722964560238094,-1.194671924444925,0.663582145850721,1,left
5.244,1.0358494050067408,0.585700278633192,0.09176305902748008,-2.6897228830310613,4.541650192653194,1.7303392622476927,-0.1174171014283136,-1.1782270167110207,0.6642901803546721,1,left
5.244,0.9703227295933761,0.6596012832517488,0.12006057630308195,-2.5266855010764324,4.4147152932014695,1.7023636060657572,-0.11750013886280397,-1.182703144221501,0.6645114800824363,1,left
5.249,0.9129651288719891,0.7377995207963578,0.14357226528821826,-2.5237657052508653,4.411941144190456,1.701883293894432,-0.11725004152782631,-1.1859180744052438,0.6637143315380907,1,left
5.25,0.8592901646872688,0.8197952755541216,0.16189755420668106,-2.6102646449288995,4.480116409769841,1.7166942629925392,-0.11751665304570344,-1.17940493562987,0.6645882802634986,1,left
5.252999999999999,0.8078416823896353,0.9100112902201329,0.17394332161261922,-2.5068349517456134,4.398741460365102,1.6989769568360629,-0.11740098453457426,-1.1862823266164102,0.664176609965982,1,left
5.252999999999999,0.7640428325100368,1.0085340124734294,0.17767139743113075,-2.587094478041287,4.4616451000244854,1.712733520999183,-0.11721594016534657,-1.1801728960027997,0.6636560179493141,1,left
5.257999999999999,0.7197231406899224,1.1131335420418278,0.1745657644708393,-2.544712244504158,4.4291852249911745,1.7054467860261748,-0.11778366194706663,-1.18562558469824,0.6653600937360835,1,left
5.2589999999999995,0.6813763875697076,1.21973339083825,0.16079488281736698,-2.5522929560159855,4.4331723561178595,1.706802532159184,-0.11688570123526501,-1.1804878539972203,0.662636863791149,1,left
5.263999999999999,0.6475467016727617,1.3246778626639817,0.13983412425080236,-2.5676112186987265,4.448437386878128,1.7093350996850827,-0.11786162700693689,-1.1848681539782469,0.6656061319802009,1,left
5.265,0.6133603575948203,1.4189784785794246,0.11330264295778648,-2.543064725920849,4.425221737488411,1.705240638413493,-0.11728519886493381,-1.1830727020170182,0.6638459533692027,1,left
5.269,0.5820720438923349,1.4952898545286581,0.08673402106946411,-2.565416729318798,4.445899845393245,1.7089824397454998,-0.11682728218385928,-1.1792382417839082,0.6624672544942358,1,left
5.27,0.5517716210628105,1.5503850178647745,0.07107949632318239,-2.553021377501143,4.436261197717641,1.7068556270403086,-0.11890327305841775,-1.1918007551696324,0.6687568307441463,1,left
5.272,0.5167176831245417,1.5799616522632354,0.06659218990361306,-2.5513920705028132,4.428969951278283,1.7067462952717758,-0.11503630597968505,-1.1695004572966112,0.6570322370485178,1,left
5.273,0.4806308186050494,1.5782856743257043,0.07126361168370055,-2.5675184284634534,4.4553052865178415,1.7091236382713118,-0.12000785516235392,-1.1977754777508614,0.672109172196685,1,left
5.277,0.4477016922231218,1.5562859717371214,0.08107562630439766,-2.5404906970926335,4.41370226641137,1.7050674860102841,-0.11585468373127897,-1.174322560340073,0.6595125929970724,1,left
5.278,0.4217165197308119,1.5065106089638185,0.10496636814758534,-2.5698554818905333,4.45848139520842,1.7094863296810825,-0.11597128777608941,-1.1747218260792507,0.659868698834573,1,left
5.2829999999999995,0.40779518325666253,1.4340862022067453,0.14486020708163866,-2.5520154917885574,4.431929938047022,1.7067833150521103,-0.1238794614164078,-1.220067807362674,0.6838477858658852,1,left
5.284,0.40149239157059813,1.3607324659456523,0.18735761811617435,-2.540962956334268,4.412407108701803,1.705195344367881,-0.10443593942776386,-1.1089546164710853,0.6248875616521911,1,left
5.287000000000001,0.40769458889716775,1.2602540888155493,0.24317174986352302,-2.596413987598897,4.503351495607861,1.7133596864509193,-0.13667672093896777,-1.2930549101409397,0.7226557409256149,1,left
5.287000000000001,0.41760484322560476,1.1897340714425622,0.28326664722119427,-2.492302743224892,4.333706254504333,1.6979996985307122,-0.09415008856877549,-1.0502770438319908,0.5936952403785262,1,left
5.292999999999999,0.4214177117943141,1.170397705479048,0.2928332216193975,-2.6262718159920877,4.551753749921968,1.7177717191209667,0.08434975651376811,-0.031020165537189226,0.052406280055888044,1,left
5.294,0.43707473173367956,1.103647492524783,0.3288783337714744,-2.514313935912054,4.3696390642098155,1.7012453537277743,0.12687768428915036,0.21174179896959328,-0.07656004924463601,1,left
5.294,0.4639323484360579,1.016563377035309,0.37447730402605417,-2.5177846839461555,4.374886786555029,1.7017685802452913,0.09463448122301074,0.027689649916531597,0.02121864866762172,1,left
5.297000000000001,0.4910624088841868,0.955070589425038,0.3975495683772471,-2.729816047756856,4.721071188175163,1.7330315080819236,0.11408108306396045,0.13869979435369814,-0.03775409714422851,1,left
5.297000000000001,0.5172701479866277,0.8974758246627081,0.41481248943591437,-2.2081546782036243,3.8698432843878763,1.656102074524508,0.10617011013738817,0.09352267366332999,-0.01376516963971626,1,left
5.3020000000000005,0.5460344117426671,0.8435925889973995,0.41332690556741714,-3.073219635896943,5.281274601964453,1.7836769361612572,0.10605455313382661,0.0929110182502581,-0.013409687673394023,1,left
5.303,0.5662250677068257,0.8092506593432698,0.403752051892595,-1.9322022465035686,3.4196504484693966,1.6154054402703069,0.1102102072133957,0.11654761854975562,-0.026021824575779798,1,left
5.307,0.5715710992034719,0.7991786718320846,0.40206445823566006,2.8566255728542216,-4.3943021814005006,0.9091910534472378,0.10523120943141234,0.08824063052760667,-0.010908846185533713,1,left
5.308,0.5916637057270285,0.7717824793447474,0.3892063352186354,3.997565858808302,-6.255745424389177,0.7409310009732505,0.10911063170921255,0.11027442613975653,-0.02268715563705672,1,left
5.308,0.6238338119793314,0.7333497797761938,0.36583789514381243,3.1325939954168955,-4.844575499076514,0.868492680159417,0.10701974241519178,0.09838523481999058,-0.0163405892315352,1,left
5.312,0.6508679278771179,0.7098554216086415,0.3415566238670153,3.6542528290738443,-5.6956452811313785,0.7915613763628935,0.1074890177337801,0.10116187236275208,-0.017751584527143524,1,left
5.313,0.6820873234809567,0.6866567813480013,0.31534871792518915,3.44201538772368,-5.349291068081765,0.8228595210748879,0.10806666982926957,0.10414919625832825,-0.01954199265718446,1,left
5.317,0.7149801692618019,0.6710170401715879,0.28550126768106276,3.4390352319155193,-5.344729025253297,0.8233030644386676,0.10706716017021911,0.0989760943279805,-0.016444437268568264,1,left
5.318,0.7498524472366821,0.6616079071488268,0.25325088082178543,3.5502519198850124,-5.52560413433266,0.8068940786931456,0.10801690792732863,0.103744983913054,-0.01940615256390753,1,left
5.321000000000001,0.7869301631726784,0.6563940081574465,0.22351484436115077,3.417068116105103,-5.309111347707346,0.8265453035580101,0.10737371970971735,0.1005933744383295,-0.017390670919896073,1,left
5.322,0.8208746517745276,0.6607427760846404,0.19850558662401407,3.5207528846893563,-5.477490850744626,0.8112446980623034,0.10763683965837303,0.10210030368191048,-0.018187921557374913,1,left
5.3260000000000005,0.8548793303243305,0.6657883645603847,0.17706498216045863,3.464829502303769,-5.386582296378622,0.8194960362819644,0.1077118049110443,0.10156277106169236,-0.018536079040142463,1,left
5.327000000000001,0.8854113890349188,0.6729246575261826,0.15601225346308317,3.4777510457851113,-5.408347948000249,0.817599043055068,0.10739554663193634,0.10196340265474946,-0.017301044078452996,1,left
5.331,0.9075255818227159,0.6845567565393547,0.13551553084004703,3.49217344890851,-5.429696355150421,0.8154448252508679,0.10783371060998742,0.10117383382467568,-0.019041389153699365,1,left
5.332000000000001,0.9205362857281176,0.698613134379342,0.11849259775197832,3.4672122737092765,-5.392723823425781,0.819172811715907,0.10741124402103137,0.1022702991115684,-0.01732159198704567,1,left
5.336,0.9224895701679027,0.713012275226444,0.1058383745443866,3.490416548372174,-5.4259806437154126,0.8156933491741254,0.1076558946954688,0.1016397490963761,-0.01831675328693674,1,left
5.337000000000001,0.9133954953078047,0.7270477498263772,0.09899953329968689,3.474975761967503,-5.40445562185538,0.8180162113685174,0.10776750697658337,0.10052995832082533,-0.018874170981707284,1,left
5.341,0.8941212634353739,0.7428791518145342,0.09859911359482437,3.482049783802192,-5.416031453841878,0.816973443112371,0.10715033037404795,0.10465328007219257,-0.0160456850923174,1,left
5.341,0.8647387785358656,0.7578903785757527,0.1034508818662257,3.480696290853081,-5.407014682760279,0.8170880292378475,0.10830146765033703,0.09704359827771136,-0.02131051936193786,1,left
5.346,0.8275571350234129,0.7747165538227259,0.11137272024038467,3.4799027876255293,-5.421277194649207,0.8173992493110537,0.10683136239023279,0.10686107719285093,-0.014575084533948608,1,left
5.346,0.7867400883977982,0.792737120724061,0.12290575326103431,3.4801829279211445,-5.39852673881153,0.8170682843132928,0.10805525194943347,0.09864451806268766,-0.02018689494583084,1,left
5.351,0.7394353922314725,0.8113492069390018,0.13712545607724688,3.481082711525862,-5.424733850484522,0.8172443054324731,0.1080109486557228,0.09880522403467121,-0.020003185985528707,1,left
5.352,0.6924689476732327,0.8325377041627968,0.14875064413497308,3.48057568794406,-5.409613165309683,0.8171407952040235,0.10572354449227989,0.1147316985933683,-0.009437936255736122,1,left
5.355,0.651410192481165,0.8552138400443787,0.16212387256533725,3.477480854447629,-5.392240115199515,0.8174432294407439,0.11135505000051109,0.0756356414585514,-0.03543035194386017,1,left
5.356,0.6032063033302597,0.8890436794357268,0.17738175541055845,3.4875845133078887,-5.462654027747332,0.816626453862848,0.10201755528176179,0.140460272050369,0.007664172339285522,1,left
5.36,0.5718877716540423,0.9135344434985084,0.18265651218143214,3.469018540877705,-5.33235227369825,0.8181161544186548,0.11433182936282386,0.05494439395501761,-0.049169682292882794,1,left
5.361000000000001,0.5651599219169915,0.9211623112295705,0.18378312458102303,3.493078252365655,-5.500023392795592,0.8161705924466428,0.16596935253619388,-0.3042378134459289,-0.28763374630258637,1,left
5.362,0.5419204847427421,0.9482384307166902,0.19108054235514985,3.47289218633931,-5.3598828518680275,0.8178099498082252,0.17827864895631118,-0.38977973477767824,-0.3444547254551825,1,left
5.365,0.5137558264220681,0.9868299818689701,0.20101339886761432,3.473157489577688,-5.3632115492765955,0.8178061137171194,0.16895180656245093,-0.32490505604378084,-0.30138243322108277,1,left
5.3660000000000005,0.49862081300970956,1.0174469562116017,0.2109258071602942,3.512844562680957,-5.63239743519167,0.8145060005151805,0.1745667051381939,-0.3640678643692322,-0.32735074255834706,1,left
5.37,0.48400743392499496,1.0450187825684796,0.21724618048746844,3.4155130324236205,-4.971132696502056,0.8225874185110587,0.17229989623367975,-0.3480751486489196,-0.31679990445251655,1,left
5.371,0.4745714781774363,1.072625309567003,0.21881046002133825,3.576912068351107,-6.067562985982853,0.8091840810978521,0.17223697301637825,-0.3479502741415631,-0.3166256853834116,1,left
5.375,0.47114239552580667,1.0915038078469643,0.21895958531099635,3.3639600410340673,-4.621272782321112,0.8268738723007457,0.17346698912662395,-0.35620088062534394,-0.32219146505823804,1,left
5.375,0.46948037330212655,1.0959284597533654,0.21920401226171576,2.469270230822283,1.4510229934854708,0.9012217304194546,0.17201647823776695,-0.34624279425026433,-0.31554236957854187,1,left
5.376,0.46456656110851613,1.1057815253666154,0.21921944697494866,2.256205135762423,2.897503314617011,0.9189272280716232,0.17311144506200396,-0.35411129525066065,-0.3206947357296255,1,left
5.38,0.4536080217311482,1.1187857336112859,0.21677155402551765,2.4177970672821587,1.8007327531305344,0.905499848404612,0.17258739303377701,-0.349652120083852,-0.317965426584506,1,left
5.381,0.4398747301156115,1.1241380144647204,0.21220137217467977,2.3202621255526266,2.4623959356497003,0.9135997706490879,0.17258817665597226,-0.35105830162262863,-0.3185015240015595,1,left
5.385,0.4237535788860063,1.128494882630421,0.20609333940941132,2.360058682786682,2.192909646412792,0.9103045535414261,0.17291641179122313,-0.35162405298563437,-0.3193641743733699,1,left
5.386,0.4083912547084515,1.126883563696644,0.19871502162543087,2.360432652424467,2.1895707881863387,0.9102557956562778,0.17250539397160652,-0.35013362578353324,-0.31798670774803595,1,left
5.39,0.3948417706259789,1.1221686069354824,0.19179107775427975,2.339815175517513,2.3302515228906526,0.9119870935518134,0.17276408605850307,-0.3519445679057215,-0.31918571241098254,1,left
5.391,0.3847822400223172,1.1163379469964572,0.1846854875032642,2.364648752622777,2.161385906449969,0.9099155861706743,0.17283837322648976,-0.3499249006334193,-0.31856368716468036,1,left
5.394,0.3786894794669251,1.1038372904111853,0.17714832227142846,2.345109548012365,2.293422345513129,0.9115234980904208,0.17234675547122508,-0.35230203717468406,-0.3184991945636758,1,left
5.395,0.37452969001186864,1.0893028570943395,0.16901588082717828,2.356021883694118,2.2212245645845106,0.9106676980867934,0.173193505104686,-0.34954416411880707,-0.31911865200449896,1,left
5.399,0.3777204648077268,1.070698484700856,0.15851885753183564,2.352856405661848,2.2395106075103834,0.9108426648385595,0.17224936034063731,-0.35219560845007614,-0.3182669078361039,1,left
5.4,0.38673813533631846,1.047785825696285,0.14444292931442346,2.3510325136724246,2.2558018336817254,0.9111024901839364,0.17282275357880406,-0.35085699108354734,-0.31888731051754376,1,left
5.404,0.399117007475718,1.0241874492770968,0.1274120754894368,2.3550759086863233,2.2252448653340595,0.9106800431166224,0.1732303672076001,-0.34910193761006447,-0.3190232765749937,1,left
5.405,0.41805287297977334,0.9972993817450733,0.1116934368526187,2.350568319387076,2.255814850463861,0.9110540427752933,0.17128653493028956,-0.35567383950719755,-0.31769256845881144,1,left
5.41,0.44056865624546826,0.9711707777877362,0.09545960820194044,2.3549835348265566,2.2316053428510703,0.9108471982318689,0.1749292402948879,-0.343748175390433,-0.32033400302927373,1,left
5.4110000000000005,0.4668552256831015,0.945726634280272,0.07474243291302853,2.3504688920190695,2.2490887658933847,0.9108561886449127,0.1702380835221275,-0.35896697812143563,-0.3168799561385449,1,left
5.414,0.4953601836765989,0.9221847699406658,0.05573479955905006,2.3552402226355875,2.236334270029265,0.9110062843884998,0.17416047990130362,-0.34630124326134665,-0.31978948309687016,1,left
5.415,0.5233105067686614,0.9030687039960308,0.0370102128923413,2.3508722666866237,2.2450539515322996,0.9107862039485131,0.17404488983824754,-0.34658313236005245,-0.31967123194080055,1,left
5.419,0.5497685825231455,0.8835279063531281,0.018132303725626096,2.352915020487009,2.243285223059451,0.9109539598767977,0.16659059167672088,-0.370896332985224,-0.3142287829715742,1,left
5.419,0.5719260772301364,0.8693144063012449,0.0006604660395180275,2.3561710322050966,2.231596273374696,0.9109724071523253,0.18492630633456192,-0.3112252526239614,-0.3276620022463652,1,left
5.4239999999999995,0.5937163928718776,0.8575750004706297,-0.023102232384685464,2.3446790775851545,2.264000868504253,0.9106584421289186,0.15451913918007704,-0.4101299403888015,-0.30536888612361923,1,left
5.425,0.607232905846159,0.8462436147935999,-0.03869388899695979,2.3653402999862836,2.2083360007664288,0.9112964578062919,0.194628687364298,-0.27968644357867184,-0.3347794074117324,1,left
5.428999999999999,0.6098251464187794,0.8433094427694694,-0.043670313906833944,2.3390433840278573,2.278217070605284,0.9104561640390779,0.36297080651139524,0.2678860869268883,-0.45822155423934013,1,left
5.43,0.6196126541179081,0.8389932304062727,-0.05900936427419302,2.3609012966127825,2.2205488314299187,0.9111681299599212,0.4030822099485848,0.39832913288166144,-0.48763004568006146,1,left
5.431,0.6314477508834746,0.8313501946695407,-0.07799937915948986,2.3604549723009187,2.2210766198201335,0.9111310726749656,0.37267201257493054,0.29943205379463045,-0.46533440069723825,1,left
5.434,0.6353762721358166,0.8257621655933919,-0.09128533239244252,2.318387870920877,2.333787954441152,0.9098194695986315,0.391010587148326,0.35907809732842433,-0.4787851913944389,1,left
5.436,0.6364836274258786,0.8167102974996449,-0.09777311742894956,2.4215780631446067,2.0582474846265644,0.9130718791469981,0.3835554773936435,0.3348152769642432,-0.4733009543488779,1,left
5.439,0.6324758074122998,0.8084488841312787,-0.0970156999905907,2.2505555141158444,2.5145490323899136,0.9076645186261729,0.3834366432625498,0.3344597263792759,-0.4732495652922277,1,left
5.44,0.6285918940600415,0.8066530212748133,-0.09670297596933686,2.47611526050433,1.9128850402503712,0.9148071409751748,0.3873676862730972,0.34720326525802,-0.47608167981280114,1,left
5.444,0.6276664940374262,0.8055104173110592,-0.09597021698432001,3.4228786867728447,-0.6132820522389674,0.9446887497247292,0.3826629287710794,0.33194172519435117,-0.4726816685189243,1,left
5.444,0.6181442718308433,0.8040212119710081,-0.09133855432949987,3.648453899542094,-1.214928656691284,0.9518449037723662,0.3863207697328356,0.34382132033648716,-0.47534259256443695,1,left
5.445,0.6024313927783567,0.8053789224504229,-0.08399794270779232,3.4774323575307404,-0.7587662834529494,0.9464214273961277,0.38436726290329853,0.3374347621986826,-0.4738668510347806,1,left
5.4479999999999995,0.586855628221589,0.8090924767262304,-0.07520374581729941,3.5805533476603126,-1.0338875821484454,0.949673494795389,0.38476930453024305,0.3388484978305055,-0.47430032435486463,1,left
5.45,0.5683815017849247,0.8176308804282946,-0.06805800000386752,3.5386712993924823,-0.9219927577645441,0.9483996812930215,0.38537315464733735,0.34063003881771237,-0.4745044439248177,1,left
5.455,0.5479250737601331,0.8318021567317493,-0.06292687762408594,3.5379133546428374,-0.920295310838589,0.9482741173254543,0.38436948106635604,0.3375892086283995,-0.4740612698044009,1,left
5.455,0.5241885276895452,0.8487558798819703,-0.058329572354322595,3.5601487791269517,-0.9791705116030284,0.9491187463775604,0.3852967860251534,0.3404271337724133,-0.474507866511373,1,left
5.46,0.500310720150674,0.8669410477670607,-0.052778122543943,3.5335624878556118,-0.9086747469564573,0.948139149920261,0.3847296855135941,0.3385811507439487,-0.4740898621377173,1,left
5.461,0.4823089405970174,0.8873710459506718,-0.04435704976904155,3.554187854684292,-0.9635144616658596,0.9488506383313269,0.3848293200478408,0.3392352069063965,-0.474596192998173,1,left
5.462999999999999,0.46437879132275894,0.9103249299117939,-0.033343083128820575,3.5433147167593644,-0.9341502100085664,0.9486254952844301,0.38516824090636026,0.33958342250810436,-0.4738546722094219,1,left
5.4639999999999995,0.446356725375629,0.9322820314261,-0.02045531118631399,3.5452144524938864,-0.9403678281278993,0.9483048368720358,0.3845269455318824,0.33862256194982787,-0.47486134113786366,1,left
5.468,0.4321595398812035,0.952871575628259,-0.007407449499831817,3.5492324280753955,-0.949109933023331,0.9490869670615605,0.3852358274589034,0.33972903652536907,-0.47380677772323765,1,left
5.468999999999999,0.4185176750458759,0.9729631965824941,0.005393439219289926,3.5428245283728828,-0.934438440443706,0.948080947384492,0.3847863543459738,0.33895996146924645,-0.474386766223865,1,left
5.472,0.40164121136326913,0.9919643521900613,0.01872114311394104,3.548648228791939,-0.948043875068056,0.9489053664527247,0.38459651699501585,0.33893982042769055,-0.47503194524331355,1,left
5.473,0.3821622111590247,1.0086875292240474,0.031462297347317446,3.5454644806803968,-0.9395339105090578,0.9488104618009903,0.3857507584047062,0.3400800819547894,-0.47244612738788194,1,left
5.478,0.3627341797067562,1.0225552547506955,0.044935669998598125,3.5448946543525675,-0.9415927620436254,0.947604418685781,0.38355188383455285,0.3377756631852412,-0.4771985311881121,1,left
5.48,0.34095293157596546,1.0343084710214363,0.05911755353904118,3.549383559556551,-0.9453887588421105,0.9504611823419288,0.38638836684598366,0.3407770967758719,-0.4711060021335522,1,left
5.483,0.3200626585447046,1.0421483568101086,0.07404944718338036,3.541923556027766,-0.9376893814077145,0.9461753506955554,0.3840151410053962,0.33825434750204453,-0.47618820293758046,1,left
5.484,0.3002254999210465,1.0473265684319975,0.0939750672593029,3.5500184281183644,-0.9462765062012962,0.9507485877813019,0.3840994679542975,0.3383882509951826,-0.4760661520017565,1,left
5.4879999999999995,0.27853160157264406,1.0523187409464938,0.11390616516705843,3.545116372329477,-0.9407160953648727,0.9480990958522546,0.38855856985455056,0.3429828034317082,-0.4663250728398914,1,left
5.489,0.2598261859130193,1.054870912364119,0.126432256503956,3.5420037121772134,-0.9388884543863072,0.9458502959468102,0.37757521179416575,0.3316131721736304,-0.490248664591466,1,left
5.492999999999999,0.24063556139433098,1.0525429615121427,0.13854171942066387,3.5574486106223473,-0.9517413239539311,0.9557495718787473,0.3957918532254086,0.3504836486954075,-0.4505877572032515,1,left
5.494,0.22879243627626428,1.0488084195181175,0.14725382092822598,3.5284763890725106,-0.927029500350796,0.9373809181292109,0.37176420767877094,0.3255931096306408,-0.5028988496022904,1,left
5.497000000000001,0.22685595969611982,1.0469836104128514,0.14935395316379854,3.565752865966325,-0.9589570825321525,0.9609694787157496,0.2709346673337649,0.22120357260660045,-0.722501330806294,1,left
5.497999999999999,0.21826178408618313,1.0422078216326986,0.16064987598205313,3.534601254670117,-0.9322231033357085,0.9412756282254282,0.2469107578864692,0.1963239563448156,-0.7748115425920964,1,left
5.497999999999999,0.20768282487897394,1.0339660577630518,0.1708137380328433,3.535562365704535,-0.933251179637856,0.9418123222896387,0.26512281233796986,0.2151814346033005,-0.7351529307270426,1,left
5.502999999999999,0.19965835903499352,1.0274460079727756,0.17118633462647037,3.594578438912399,-0.9832278078524548,0.9793525736914857,0.2541398464641671,0.2038114900547951,-0.7590721287725286,1,left
5.504,0.18975696463546576,1.0222140969426954,0.17109093917214133,3.4493820550378445,-0.8600334253865716,0.8870789001027618,0.2586083787884809,0.20843662281092817,-0.7493376942685059,1,left
5.507999999999999,0.1787985063214254,1.0157942726714528,0.15699165188948488,3.690164913252309,-1.0643865575746494,1.0400740291225796,0.2586697574326017,0.2084989699709403,-0.7492078969947578,1,left
5.5089999999999995,0.17059888610488394,1.0114863322755008,0.14220658253970223,3.3725641041254235,-0.7948401130839643,0.838274031376333,0.2563315625451067,0.20608342876432623,-0.7542959599113546,1,left
5.5120000000000005,0.16855431144497665,1.0092717891649257,0.13944881283989097,2.0396364856730367,0.33615282885197967,-0.00877398334380633,0.25913050414642247,0.2089723458530027,-0.7482041447244202,1,left
5.513,0.16352302465472282,1.0026422365573842,0.12797316649463028,1.7220317812861623,0.6056582096631784,-0.21057421002867113,0.25695276388342736,0.2067271719122375,-0.7529440742816067,1,left
5.513,0.1570332841192673,0.9958224158941368,0.11410028430399766,1.9628277766082318,0.4013504646589533,-0.05757850042551019,0.2581278685524795,0.2079394052848466,-0.7503856786209149,1,left
5.517,0.15460223267880108,0.9932888567857674,0.09997697534769105,1.8176013912594666,0.5245583478755401,-0.14985325889887458,0.2578512588661621,0.2076450236239175,-0.7509907506549041,1,left
5.518,0.15081065378418693,0.9898975025049062,0.08374417025028393,1.8766686400563897,0.4744413497530377,-0.11231139832692036,0.257562404023818,0.2073725430186379,-0.7516124705830007,1,left
5.522,0.1509097664394553,0.9858123824275946,0.07469534410337172,1.877563168649895,0.4737199750905109,-0.11177654264683977,0.2580623760398271,0.20784402069081945,-0.7505357555804726,1,left
5.522,0.15630271214421676,0.9812007769779656,0.06628420061721699,1.8464721726591464,0.5000104609341329,-0.13146905746205953,0.25760524291064824,0.20742756915318933,-0.7515166804369,1,left
5.527,0.16348377066910108,0.9745542343577034,0.060311948912704715,1.8837318231452855,0.4685291842357669,-0.10788020277575709,0.2579052776078625,0.20769281421650937,-0.750874824997044,1,left
5.528,0.17456851683940056,0.9685060173058836,0.05439051279089541,1.8546860166979684,0.4930397466950328,-0.12625199958670003,0.257756111083963,0.2075380238587468,-0.7511998067845086,1,left
5.531000000000001,0.18634016461886543,0.9625598318539218,0.044839679538207805,1.8703316595420678,0.47982365092690166,-0.11634602591490639,0.25783114425780973,0.2076998854324874,-0.7510149771539198,1,left
5.532,0.19676646888410776,0.9576965869666854,0.04200061854648185,1.8668928203765642,0.48285578504888815,-0.11860444487958696,0.25774150176308597,0.20741460539599993,-0.7512591140513536,1,left
5.537000000000001,0.20513827604184215,0.9548648977713288,0.04596447977857222,1.862370879054702,0.4863212550089728,-0.12124414927730341,0.2578942546060023,0.20785993904955025,-0.7508534665504139,1,left
5.537999999999999,0.207731662081016,0.9522472884782889,0.05103047164752143,1.870192382900917,0.4803259023459251,-0.11667571877564012,0.25770619761958646,0.20735907016081218,-0.7513408895564757,1,left
5.541,0.2052229975815596,0.9524349063140732,0.05148894287345315,1.862661897030047,0.4859279990391849,-0.12096847887666769,0.2578145550341342,0.2076481648556448,-0.7510597461961146,1,left
5.542000000000001,0.2005037282372799,0.9530499899847613,0.04748189536873871,1.8678139809232812,0.4821846456361303,-0.11808701179772518,0.2579640227612004,0.20795541816714672,-0.7506958562427948,1,left
5.547000000000001,0.1930822908518241,0.9533366651089593,0.0402419661582053,1.8658524128544025,0.4838541803633693,-0.11933700004827197,0.2573825400263117,0.2066859610142046,-0.7521313313734281,1,left
5.547999999999999,0.1844322034289133,0.9566318847974529,0.028998304512479863,1.864644719963471,0.4837140987666465,-0.11937641414215348,0.25845720724548504,0.20903634937558163,-0.7494767898785231,1,left
5.551,0.18032108719272266,0.9559668415943856,0.01857390076713187,1.8684866505211677,0.48311696191931575,-0.11859873164423107,0.257072741224641,0.2060136448618628,-0.7528957541560187,1,left
5.5520000000000005,0.18000358032420108,0.9486148607363174,0.00562501383514351,1.863006552814164,0.48379395970956207,-0.11959913214176993,0.25823052122028034,0.20853915480681529,-0.7500363731914244,1,left
5.556,0.1828589385159999,0.9381710217666579,-0.007802348955701641,1.8685150885015025,0.48335560963742324,-0.11874463819529749,0.25820544330533474,0.20847733637374388,-0.7501020357370431,1,left
5.558,0.1903849312776228,0.9269544868459092,-0.015664979275433512,1.8653282631587844,0.4836115827658622,-0.11924062582081404,0.255971765836317,0.20363460927301308,-0.7556063199492304,1,left
5.56,0.19572824332118205,0.9160889745645875,-0.021730079941177895,1.8633222606311295,0.48320550673743334,-0.11919815385414569,0.2614566964128897,0.21553196954196613,-0.7420850603703313,1,left
5.561,0.20069770747911794,0.9025690224374604,-0.022278168641909214,1.8730619878228962,0.4841721415098155,-0.11877558374831891,0.2523624768522055,0.1958057271157669,-0.7645062932373616,1,left
5.566,0.20643383492187045,0.8939609277471301,-0.019104604572557,1.8549507435149835,0.48241911426785017,-0.11958947931847243,0.264358791259012,0.22182560401325466,-0.7349285731162722,1,left
5.566,0.2072390503938755,0.8908233281716218,-0.017717055526970817,1.8781463044704263,0.4847228965997779,-0.11858342092660862,0.3147405458074414,0.3310737054391881,-0.6107727267210222,1,left
5.567,0.20954142216165672,0.8803463052495792,-0.015109536706523638,1.8588076963435465,0.4827748307940683,-0.11940551078964327,0.3267396042022559,0.3570964806058212,-0.5811910785393206,1,left
5.571000000000001,0.21322472673009346,0.8687756576989843,-0.013407308426221728,1.859412938032647,0.4827638836786932,-0.1193339578791985,0.31763967576151786,0.3373640699173517,-0.603615457027936,1,left
5.572,0.21455269661120815,0.8620068988852867,-0.01207860807124199,1.8959464198440452,0.4867545127594927,-0.11797694746581386,0.32313318257857726,0.34927097884230923,-0.5900997252359523,1,left
5.5760000000000005,0.21550554839453864,0.8532214110415334,-0.009677577178337702,1.8060842423324983,0.47699122002556366,-0.12134951790969012,0.3208893444029906,0.34441650912117017,-0.5955818482980206,1,left
5.577000000000001,0.21517114029829787,0.8445995184025803,-0.00986429176171286,1.9550811740832217,0.49318777176033174,-0.11576133350816752,0.3208727615444543,0.3443651627134636,-0.5956898064142839,1,left
5.582000000000001,0.21569464638370545,0.8420760008371531,-0.010975172326552384,1.7585655825458417,0.47180461497170045,-0.1231202269725424,0.32202906324674985,0.3468875020435319,-0.592774094705596,1,left
5.582999999999999,0.2164599702136087,0.8399072750369936,-0.010217745813368314,0.9339330963569153,0.3819044849007479,-0.15388437308132652,0.3206327013563526,0.34385316007299566,-0.5962437665681002,1,left
5.584,0.21688367881182496,0.8325198537114111,-0.00913898904900889,0.7374222622945334,0.3604885589666613,-0.1612267018520876,0.3217373257215852,0.34623604358527926,-0.5935773461669264,1,left
5.585,0.21654922518407346,0.8263235527802553,-0.007474312206287126,0.8864117563975575,0.3767363371059369,-0.15566441081242371,0.3211088559772392,0.34491327239703673,-0.5949462370516947,1,left
5.586,0.21419662975413814,0.8228230704277799,-0.005032918309233981,0.7965557337552189,0.366930662747901,-0.15901556249727905,0.3213112754417492,0.34528335551535183,-0.5947571872534936,1,left
5.5920000000000005,0.21267671400760885,0.8209692013031681,-0.003626564217960896,0.8330895648308986,0.3709188599968697,-0.1576573124715568,0.32138425808025894,0.3455260177612966,-0.5941973043223976,1,left
5.593,0.20857808093467084,0.8232546295782415,-0.00048409451472400345,0.8336828817426749,0.37099008864651023,-0.1576273144601667,0.3211802925908327,0.34501647846629413,-0.5950028774073894,1,left
5.596,0.20167110651503975,0.828577535445608,0.003810670488068174,0.8143703170867249,0.36886259569215407,-0.15835868805217052,0.32143434766297785,0.34556680473923607,-0.5943793808703641,1,left
5.596,0.19643006905837973,0.8380393100113812,0.006217713955239422,0.8375287694803176,0.3714220030897774,-0.15748185675234985,0.32114160281341875,0.34505667346006486,-0.5945390901066816,1,left
5.599,0.19079664264998508,0.8508969370387978,0.010095195715308775,0.819454289002419,0.3694157713162268,-0.158167767007988,0.3214966572484549,0.34554168227498755,-0.5949479271448204,1,left
5.6,0.18564320704371048,0.8622223052650932,0.013979807376892164,0.8291780615393616,0.3704922053070683,-0.15780066236350537,0.32107754625353524,0.3450578863563289,-0.594065464178873,1,left
5.605,0.1833651478424772,0.8734811042837761,0.014827029483176612,0.8271411908320934,0.3702989255310698,-0.15786582874622745,0.3214838800098116,0.34548591578250026,-0.5951059552387006,1,left
5.606,0.17996474010330454,0.8855098504561145,0.01619697974853769,0.8240542459737238,0.3698666945205422,-0.15801383874646624,0.32127619473738983,0.34529736701960195,-0.5944378198729057,1,left
5.61,0.1740889895382086,0.8942139784166314,0.018850944879317308,0.8293906294281016,0.37061432710167197,-0.15775893826996662,0.32101294139125813,0.3449521404356777,-0.594069982303242,1,left
5.61,0.1727300466934183,0.9020093005773592,0.020523843012846453,0.8241218153818051,0.3698359659541154,-0.15802363904019262,0.32200970339706786,0.34612601418529365,-0.5960638199851582,1,left
5.615,0.17312897124689547,0.9106682978226999,0.022581793065763515,0.8277952366537344,0.3703992427971826,-0.15783243649859707,0.3201978627313812,0.344028600441746,-0.5922754125687021,1,left
5.617000000000001,0.16801794745838647,0.9166173321979975,0.02722489311375658,0.8265862764667282,0.37026859635259834,-0.15787689933405114,0.32251120550247486,0.3466932266795483,-0.5971727702578535,1,left
5.619,0.16478476311071127,0.9210530820511292,0.031670250650210785,0.8249367967506027,0.3697873579486734,-0.15803923152884253,0.3205853598811925,0.3444805429311971,-0.593070124611408,1,left
5.62,0.16274411216849569,0.9275075697356658,0.033121636201390255,0.829375286012806,0.37096049201001086,-0.15764354650353624,0.3206292056168837,0.34452232442407027,-0.593203093936855,1,left
5.625,0.15673206655244706,0.9335105121098592,0.0334973773482403,0.8229096388635069,0.36922714983081373,-0.15822790749563814,0.3243235303116684,0.3487898081665954,-0.6009678902125593,1,left
5.626,0.15429356444492637,0.93549825671537,0.03448680162469586,0.829595666766113,0.3710525748300582,-0.15761273751637034,0.31525508729465473,0.3383266627513002,-0.5818508405441951,1,left
5.631,0.15472238181714001,0.9361357008636879,0.03670571773158249,0.8257303768030151,0.3699974146502575,-0.15796819918763041,0.3302868574951707,0.3556658384637157,-0.6135605079234306,1,left
5.631,0.15326230926537043,0.936434441467346,0.03714317162661717,0.822855778273091,0.3691383091870465,-0.15825772197147914,0.3104610722206404,0.3327981112313396,-0.571730130642282,1,left
5.6339999999999995,0.15199656371717613,0.935845905774466,0.03606957664520716,0.8360282421500957,0.3729639536307206,-0.15696891194225898,0.22723939222617717,0.23680267339058841,-0.39617086414122227,1,left
5.635,0.15127546409381698,0.9346521365345728,0.04221064585080512,0.8115705405721495,0.3658655599335518,-0.15935997408582442,0.20741215044474687,0.21393258909801022,-0.35433637234157606,1,left
5.635,0.15023408984126496,0.9308677408992335,0.05389682060078729,0.84293728294901,0.3749765852381743,-0.1562912814887109,0.2224453381489585,0.23127358580318264,-0.3860545894398822,1,left
5.638999999999999,0.14726968350516528,0.926875760843324,0.06683049378787236,0.8167682658603508,0.36737141086657493,-0.15885235173701068,0.2133780553304009,0.22081399313040617,-0.3669247173751635,1,left
5.64,0.1395153953282418,0.92594374677152,0.08134281347788251,0.8175242748667473,0.36758422842707855,-0.15878165772316505,0.21706599652178876,0.2250676928871675,-0.37470467220789294,1,left
5.644,0.12991587054426465,0.9264516721860262,0.09350998893181234,0.8672189888963606,0.38205915265638246,-0.15390484840477034,0.21712280476933762,0.22513557519536753,-0.3748250178382946,1,left
5.644,0.1220050102733833,0.928257992615352,0.10162029048701524,0.7450398999386709,0.3464742636819902,-0.1658919921879104,0.2151789918161273,0.22288831588825547,-0.3707244661045703,1,left
5.649,0.11119461235444822,0.9337007186667992,0.09840642775737618,0.9476142109337162,0.4054774655676301,-0.1460174428398603,0.217509454243213,0.22558381550686554,-0.37563973197804384,1,left
5.65,0.10298832240927018,0.93950314526001,0.08966636260839561,0.6804320957412564,0.32765216863734953,-0.17223101278818984,0.21569165999771717,0.22347968428583445,-0.37180646993204247,1,left
5.651,0.1018159909111335,0.9421129786006184,0.08733232347407423,-0.4409372682888886,0.0010471317156283688,-0.28226915042996503,0.2166704194951541,0.22461183141301022,-0.37387048198683354,1,left
5.654,0.09709793911582913,0.9473419673345178,0.07604378330570723,-0.7081004865207234,-0.07677417954586643,-0.3084824373791064,0.216459474717223,0.22437483765448785,-0.3734237714040899,1,left
5.654,0.09269198332379872,0.957553785510445,0.05318348975042013,-0.505556791801457,-0.01778304194169211,-0.2886071178654145,0.21616488897166242,0.22401466792183633,-0.37280798763195167,1,left
5.6579999999999995,0.09531339907487936,0.9665878240348403,0.032598815726597785,-0.6277076308422751,-0.053342113038417543,-0.30059819057124404,0.21667443509821882,0.224637516639638,-0.37387295326395387,1,left
5.659,0.10131473297511275,0.9736349575082717,0.013949190847273384,-0.5780193685923418,-0.03890949194786591,-0.2957125058171579,0.21617818523629778,0.22402203449439106,-0.37283843801571026,1,left
5.662999999999999,0.11185099528185533,0.9818687194197018,-0.0017098235638341517,-0.5772990956742028,-0.03864347092762656,-0.29565565764024604,0.21652067683661122,0.22445141420494702,-0.3735510324322753,1,left
5.664,0.12519478964207348,0.9883249772321201,-0.009017519839211088,-0.6033771486568299,-0.04629465138815664,-0.2982010795538483,0.2163983773003445,0.22431068533454346,-0.3732929475604086,1,left
5.67,0.1372304722886098,0.9913588368989141,-0.00937474702632259,-0.5721506111549446,-0.03717563246500327,-0.2951427186132284,0.21628434298938967,0.22411537126216793,-0.3730708767416305,1,left
5.671,0.14949091879208065,0.9945887059171982,-0.008590704935619083,-0.5964556631913899,-0.04420724669672569,-0.29753907321732986,0.21661253653464826,0.22463962679707683,-0.37372091016247855,1,left
5.672999999999999,0.16231737864478554,0.9982424823974058,-0.007021941329084944,-0.5833751566802693,-0.04055029058331103,-0.29621892444776043,0.21613859850850153,0.2238756517064843,-0.372784275861763,1,left
5.6739999999999995,0.1697820252987982,1.0019292905166832,-0.002455284801194221,-0.5863188379595359,-0.04114440080377123,-0.29657074551009194,0.216623034803788,0.22466602136558067,-0.3737388502593671,1,left
5.6770000000000005,0.17227275794631652,1.0048087039900149,0.003106483197300743,-0.5898577397375159,-0.04249811059834571,-0.29684080985788114,0.21634285210034865,0.2242091356889394,-0.3731867498380197,1,left
5.678,0.17612885776400766,1.0048491111944573,0.006767670109937325,-0.5837924291354707,-0.04047414103871584,-0.2963071338766995,0.21614767267985746,0.2238684072753681,-0.37280851160479744,1,left
5.683,0.1785409744499974,1.0055694597857623,0.005147093245311081,-0.5894343998659971,-0.042114994699666106,-0.2968613573265676,0.21706199908769586,0.2254282383462367,-0.3745905200313125,1,left
5.684,0.17787046807038542,1.0077718746642899,-0.0007704209065657023,-0.5857453617270119,-0.04151840038843342,-0.2963851930585705,0.2153632534356578,0.22253222053951,-0.37127927330116994,1,left
5.688,0.17737676329349922,1.0088047068547246,-0.007288528694432582,-0.5871874828023006,-0.04084660985815801,-0.29678750962803346,0.2175408441290546,0.22624629478808744,-0.37552322531134996,1,left
5.689,0.17599623461704988,1.0098957567844322,-0.015559994767655213,-0.5874972022690553,-0.042565407802527766,-0.29642891619075185,0.21572439942163726,0.2231478165980482,-0.37198348406935766,1,left
5.693,0.17211655162972556,1.0097559400274152,-0.02480570998325598,-0.5862664345916737,-0.04047109405632727,-0.29672270520146504,0.2157789701901613,0.22323680471130647,-0.3720904107367763,1,left
5.694,0.16739022570345394,1.0075008452244831,-0.03219700120396,-0.5875815692604105,-0.04185664706896912,-0.2966123943617177,0.21922049770973165,0.22912224794628816,-0.3787941291583571,1,left
5.697,0.16246093068741377,1.0060699675628542,-0.03773496493275108,-0.5868372935380748,-0.042505499256013705,-0.2963324952274953,0.21075691035139826,0.21465323977222361,-0.3623077779790773,1,left
5.6979999999999995,0.15547871225539495,1.0075026661653266,-0.04241157292539918,-0.5866299325731232,-0.03865974759155707,-0.29721636419573083,0.2247902703383008,0.23864246939802233,-0.3896432574657454,1,left
5.702000000000001,0.1507186951709969,1.0094006332408019,-0.04613163593586994,-0.5878331987714567,-0.04602890113099844,-0.2956580355257955,0.20628100616488437,0.20700265964208825,-0.35358958602617263,1,left
5.702999999999999,0.14771667616957085,1.0093221145892233,-0.046489024304166994,-0.5859928579197831,-0.03648185602288398,-0.2976295436479684,0.12861842736139414,0.07419677084680604,-0.20230924067579448,1,left
5.704,0.1390836163852492,1.0098948113826962,-0.04896110094663099,-0.5876544208986828,-0.04448666760962634,-0.2959966473657365,0.11011170160646658,0.04255869761885418,-0.16626061457560248,1,left
5.706,0.12946263990763668,1.009809491162746,-0.054758634138409173,-0.5874160977257832,-0.04421842597462129,-0.2960201206204943,0.12413910992928333,0.06654646319553174,-0.1935849434288856,1,left
5.707000000000001,0.12478781447253023,1.0086994664739803,-0.054979671071549566,-0.5847618794708909,-0.029092997073375128,-0.2991884491831956,0.11568583114260224,0.05207527135172558,-0.1771166769948596,1,left
5.7139999999999995,0.12392296153952169,1.006319714146743,-0.051615285366132406,-0.5915658684141331,-0.06634191259073219,-0.2914319717412305,0.11911306320968824,0.05796997549046447,-0.1837969389779039,1,left
5.7139999999999995,0.12563726396907438,1.0003427756402963,-0.042615954071387185,-0.5801780669012142,-0.004556655491047362,-0.30427984143005893,0.11918275608887148,0.058041060888660304,-0.1839265680560997,1,left
5.7170000000000005,0.12710776045275396,0.9980412941981477,-0.03227622296524605,-0.5952377878325407,-0.08605786956914709,-0.2873391421348216,0.11735714809523337,0.05496663183312445,-0.1803765070277173,1,left
5.718,0.1271641541967357,0.9971362799104766,-0.028374086579279745,-0.6582618653408718,-0.42824167338554064,-0.21616095583132072,0.1195282261991418,0.0586587810630509,-0.18460296649289742,1,left
5.718999999999999,0.12871847965464245,0.9939375064984983,-0.017601569374668967,-0.6733265385761855,-0.5097493846353636,-0.19921886817943818,0.11786132893245829,0.05576846760021315,-0.18135083418876208,1,left
5.722,0.13177597396683446,0.9968518087001782,-0.005319820414196233,-0.6619162605333945,-0.44793466850219155,-0.21207302853604432,0.11871433573347907,0.057355779357678646,-0.18302903989245212,1,left
5.722,0.1346305559158691,1.0009593608490976,0.0004441583951825032,-0.6687788456766821,-0.4852603564235769,-0.20430016119941066,0.11860157201541918,0.05694141816697553,-0.1827807620595574,1,left
5.727,0.13806485765251486,1.0046313039165287,0.007050746024643202,-0.6660173976703896,-0.469994459538816,-0.20749847426960133,0.11824473161945778,0.05660294731204238,-0.1821207791000543,1,left
5.728,0.14035233259772076,1.013348959059353,0.008618909733306382,-0.6659262833726982,-0.46991903394813384,-0.20748079222274013,0.11875384899597975,0.05725698277887421,-0.18308451967256034,1,left
5.731,0.1389953056910379,1.021384971214098,0.0053794515946078425,-0.6674436372393988,-0.4777349880758543,-0.20588820191387475,0.11836390943274788,0.056588251147790425,-0.18232467590747656,1,left
5.732,0.13511648390221198,1.0290327658414578,-0.0006450158550770296,-0.6656633861493253,-0.4682665831669732,-0.20784293467403542,0.11845417524241805,0.05714435065903068,-0.18255247203734534,1,left
5.7379999999999995,0.1305841349117762,1.0391477797082889,-0.012409075434639004,-0.6669958038888946,-0.4758049978889295,-0.2062484638812847,0.11873183495525427,0.056701113485160534,-0.182974621730764,1,left
5.739,0.12303465328875046,1.0490353641574512,-0.026069802096799665,-0.6663795042561733,-0.4714235125317094,-0.20724669665696294,0.1181472204935552,0.0570708938404359,-0.18201289178342991,1,left
5.7410000000000005,0.11040312776179081,1.0575340561148734,-0.040225443047714374,-0.6663377738003582,-0.47299262077208637,-0.20677036702937643,0.11883273870161037,0.05678333345742217,-0.18315953674191163,1,left
5.742000000000001,0.097709965229106,1.0647506864239733,-0.05392597119676651,-0.6667914064586493,-0.47324982935079335,-0.20690088457958267,0.11839492246949827,0.056878000798182414,-0.1824156415872712,1,left
5.749,0.0882256117523011,1.0726805361099285,-0.06664201448262089,-0.6662472421478522,-0.47205459823498747,-0.207002806068259,0.11814724665835613,0.05718186290953316,-0.18202737365741528,1,left
5.75,0.07929869043199113,1.0796181518593095,-0.07920412605863839,-0.6665634095161974,-0.4737822763657647,-0.2066422523573967,0.1194704465364217,0.05626202683996166,-0.18419325264854527,1,left
5.751,0.07250225322554855,1.0831085616081286,-0.09041097246991495,-0.6667304203167268,-0.4714397724124094,-0.2074012548451156,0.11696015279372597,0.0578710405917752,-0.18006648776896228,1,left
5.751,0.06937403966432323,1.0855687751121748,-0.1007282998494887,-0.6659551949807009,-0.47466020918119806,-0.20611029868978406,0.12020364942876548,0.055839828989605905,-0.18540496355045605,1,left
5.756,0.064497931023352,1.0896375852676936,-0.1095640464310535,-0.6672500844870206,-0.4706071173956068,-0.2078798694824199,0.11748757904311888,0.05752095967586374,-0.18093173337802732,1,left
5.757999999999999,0.0585362377921095,1.0938658492092292,-0.1129322828245796,-0.6658192714124088,-0.4746527803401864,-0.2060507736808917,0.1175734883828174,0.05749789367758592,-0.1810777819394247,1,left
5.761,0.054361375369276044,1.0953559289948105,-0.1144639565540032,-0.666679600008679,-0.47249979481846854,-0.20706906061292382,0.12271927652570448,0.05423255459020114,-0.18954064974581436,1,left
5.7620000000000005,0.045697942870102246,1.0958278664978538,-0.11393017064474495,-0.6673166407567992,-0.47006993652280593,-0.2080667298036008,0.11005415887740903,0.06222608903095367,-0.16870438261750714,1,left
5.767,0.032583056184162025,1.0931748161936903,-0.09927663480344362,-0.6643361042831262,-0.47964505275397135,-0.2039218367942324,0.13105936815415098,0.048984383438982315,-0.2032645656896664,1,left
5.768,0.025886947269417517,1.0882504236546038,-0.08446558008406346,-0.669908513160612,-0.4621385005516836,-0.21155598190823388,0.10335236945362822,0.06644609891711013,-0.15767617313958715,1,left
5.771,0.023904764807065368,1.0856391896991786,-0.08095840962667158,-0.6627377845369287,-0.484526926833833,-0.20177274562075062,-0.012953053301895497,0.13975370546699414,0.033676840385010905,1,left
5.772,0.014862938372106727,1.0782737555548685,-0.06485945762837195,-0.6687296413323207,-0.46587518670909045,-0.20993140822002684,-0.04065820024002556,0.15721545933066677,0.07926376157646925,1,left
5.773,0.005647932129934998,1.0633526075999256,-0.03727068457818755,-0.6685604301179979,-0.46631864488397623,-0.20972498781912338,-0.01965345544845358,0.14397634374590734,0.04470217266477525,1,left
5.775,0.0025160438160029457,1.0473482716753346,-0.016562041770098825,-0.6571548920497541,-0.5020462894461875,-0.1941303321880991,-0.032324786265751346,0.15196054141461002,0.06554966336904879,1,left
5.776,-0.00044109826405864096,1.031357810538017,0.0024068190683009553,-0.6851962759048816,-0.4143224831804586,-0.2324379662947999,-0.02716111423777065,0.14871455618613247,0.057059624750217766,1,left
5.7829999999999995,0.004932112977951375,1.0149067281183601,0.019429367715969655,-0.6387023099513562,-0.5597363166855016,-0.16893222322787066,-0.027106176575594554,0.14866268542572098,0.056957413588212685,1,left
5.784,0.013538537323894992,1.0068645708360686,0.0264688005015028,-0.7000238889511502,-0.3679520864999286,-0.2526901336416204,-0.029783850649514297,0.15037483845432303,0.06137949797725921,1,left
5.785,0.015560040257245345,1.0045044819748497,0.028251645645271502,-0.9574791173270423,0.4371543932011694,-0.6043116529919459,-0.026571080703869078,0.1483255730347618,0.05607732817248261,1,left
5.785,0.030421643620168498,0.9939857954582455,0.027169415660517227,-1.0187913177816352,0.6289296923157343,-0.6880635075624513,-0.029082058543999867,0.14991853710311595,0.060215584888645306,1,left
5.7860000000000005,0.06145432718997353,0.9840696286401189,0.02182948363811464,-0.9723062546618882,0.48353230511415196,-0.6245657276332868,-0.02770034742929731,0.14906913604097521,0.057955952964955294,1,left
5.794,0.09757426097166472,0.9791675297700333,0.016146320041737515,-1.0003559044992802,0.5712357592316099,-0.6628708554858238,-0.028081235310046165,0.1492406115103732,0.05853856939077633,1,left
5.795,0.14037261310577903,0.9724967588123152,0.010353383062937146,-0.9889076230012444,0.5355255966149539,-0.6472647704428977,-0.028320898956704105,0.14950973448858051,0.05900871253614703,1,left
5.795,0.1879895789289735,0.9684699325365844,0.006992943101791084,-0.9888243103180187,0.5350776157886994,-0.6470898257081507,-0.027845238708470468,0.14906505549827975,0.058133117793254446,1,left
5.796,0.2367041462280382,0.964867420269293,0.007493725358754338,-0.994697865237919,0.5537093467118449,-0.6551978473129978,-0.02831233642683588,0.14947495899215166,0.058975741269162094,1,left
5.8,0.2813162342639788,0.9604247053741974,0.007032702950787357,-0.9876388710229383,0.5313739385492166,-0.6454719229735014,-0.027918987651656554,0.14922810491407953,0.058329224665954325,1,left
5.8,0.321066248543684,0.9571093749612362,0.0049491900357175826,-0.993174339519369,0.5487961618169599,-0.6530685555762006,-0.028309839038468856,0.14925998030798607,0.05883481667135604,1,left
5.805,0.3572126308547575,0.9524159477888166,0.0015630454702052889,-0.9900718844796121,0.539317119557054,-0.648903904241142,-0.02780811775044513,0.14943386998007818,0.058323489861276334,1,left
5.806,0.38422601015534497,0.9503639309001143,-0.003985902783633529,-0.9910569785516551,0.5416811050618381,-0.6500158961048997,-0.02846283476549584,0.14911534159043285,0.05893204783062275,1,left
5.81,0.4038984987762927,0.9487166834143202,-0.012055383564339718,-0.9913429626950773,0.5438092903921543,-0.6508084306202526,-0.027782353177412455,0.149465934376685,0.05831202532397898,1,left
5.811,0.41734494398400523,0.9449878101046054,-0.021568742997483802,-0.9905900738276999,0.5399409493899077,-0.6492869449690098,-0.02814796013451907,0.14924593950099013,0.058624922756825404,1,left
5.815,0.41843114206722276,0.9448268978928436,-0.030513941841988464,-0.991384742248428,0.543633203597433,-0.6507656201971854,-0.028599715996027213,0.14914251060806705,0.05911933561295534,1,left
5.816,0.4120660831718266,0.9444932776394934,-0.038719132594130075,-0.9905123808081885,0.5409148554954006,-0.6495771855049138,-0.02684620163139611,0.1497363469305369,0.057323302497474485,1,left
5.82,0.40525927021469965,0.9434663401798427,-0.044010305009673074,-0.9918203132144494,0.5427675954155431,-0.6506348374136133,-0.030057758886024483,0.14860952351299261,0.060587718811480465,1,left
5.82,0.39353366229994563,0.9440683714828788,-0.04252788879591446,-0.9896971265888047,0.5412430456394784,-0.6494011932697308,-0.02594301280693643,0.15006223902527632,0.05641089511940882,1,left
5.8260000000000005,0.3820929103336167,0.9428724368597725,-0.036427159348289086,-0.9926575778694657,0.542868588046454,-0.6509581747425821,-0.029374550058101405,0.14884697099273403,0.05989195662001631,1,left
5.827000000000001,0.37939668855871533,0.9420881484070425,-0.02755672959240274,-0.9895396033634221,0.5412563373226471,-0.6493511111998969,-0.029295712606285915,0.14888907894778328,0.0598207115105793,1,left
5.829,0.3801237861769554,0.93961035378617,-0.01761877063415509,-0.9912813877931583,0.5419974976365385,-0.6501964590170892,-0.022706371866961474,0.15117645804769847,0.05310749384694009,1,left
5.83,0.384665092709498,0.9346683797904995,-0.011697914593776094,-0.9930812229560901,0.543580334954252,-0.6513376102839574,-0.03888564355033067,0.1455431561811164,0.06958085579874378,1,left
5.832999999999999,0.39083128665397066,0.9338087167010799,-0.006092862465454941,-0.9856908514125913,0.5381974926013078,-0.6470182834031187,-0.012063896162515308,0.1548867881827801,0.042273979025803404,1,left
5.835,0.3915257323187835,0.9354645121166398,-0.0015868380797321234,-0.999310508640483,0.5479020275173514,-0.6549069434736663,-0.04744137099040119,0.14256152025766614,0.07829145701468852,1,left
5.8389999999999995,0.39226797543498126,0.9363836673330703,0.00044154499415222917,-0.9818387924979501,0.5355022786763323,-0.6448044684456111,-0.19595801714182848,0.09083890782468586,0.22950728745139348,1,left
5.84,0.39502498846434597,0.9372790969884094,0.010458684900995364,-0.9964220241633069,0.5458307909073394,-0.6532280653851281,-0.23133748792666822,0.0785118072577345,0.26552899447843675,1,left
5.84,0.3939461558937624,0.9388174141698309,0.02761878566893907,-0.9960466154404279,0.5456440142911384,-0.6530411086201391,-0.20451344560390455,0.08785946233055349,0.23821666928879728,1,left
5.843999999999999,0.3880699016509593,0.9398499902914286,0.041563138825787625,-0.9681655434973995,0.5256412026931002,-0.6368430617581121,-0.22069237569507638,0.08221968790390397,0.2546913827536985,1,left
5.843999999999999,0.3797663863108269,0.9401113631521513,0.053479062364755234,-1.036681055594329,0.5747002218313835,-0.6766087747697991,-0.2141092091918338,0.08451538830553074,0.24798696870733178,1,left
5.849,0.36951731757723477,0.9406780771361287,0.07183032123153496,-0.9230704993363966,0.4933806473138573,-0.610686039759526,-0.21401642636750262,0.0845495452011565,0.24789252328580738,1,left
5.85,0.3624058011298935,0.9387351241620644,0.08426589086035571,-1.0729397967755023,0.6006455259130294,-0.697639077337378,-0.21746848746123054,0.08333770829668322,0.25141025866455424,1,left
5.853,0.3584081949897152,0.9389769720536855,0.08801893169052466,-1.7018494097701609,1.0509469646839842,-1.0626580442979057,-0.21333264308659067,0.0847969620157899,0.24719265653161504,1,left
5.854,0.3485630164828574,0.9452386965967369,0.10809369860391321,-1.8517533808108966,1.1582359665852349,-1.1496203285578415,-0.21655453110273631,0.08364883013341592,0.25048257726188616,1,left
5.854,0.33718561786882995,0.950519538534639,0.13454848671746927,-1.7381053088471,1.0768902932137543,-1.08368758878659,-0.21481630605481167,0.08427965413519616,0.24870333499865985,1,left
5.859,0.32697617454546724,0.9553895880613639,0.1490806936631977,-1.8066065570099403,1.125939382295814,-1.1234494984632915,-0.215213946068612,0.08413036155738862,0.24911230758521075,1,left
5.86,0.3159372018028389,0.9606217302932717,0.1580124548180295,-1.7788499160433329,1.1060231534160612,-1.1072846334741966,-0.21567555795192944,0.08394779805031655,0.24959021675002008,1,left
5.864,0.30733694605723755,0.9654642584200315,0.15768063368091903,-1.778206772951965,1.105650088028483,-1.1070262795322932,-0.21487432329210282,0.08429660638074254,0.24874879389592416,1,left
5.865,0.2996026277596088,0.9703997831088209,0.14856442659743535,-1.7931738857088435,1.1162456966516265,-1.1155522472879682,-0.21562968685373557,0.0839135729527893,0.2495620680003366,1,left
5.869,0.29588981704692285,0.9714931734865958,0.1351430239098753,-1.77531989870067,1.103579980425036,-1.1053478301031008,-0.21511879195458178,0.08423859513071492,0.24898766233153796,1,left
5.87,0.2985643149298821,0.9725970352488027,0.11913552606388378,-1.789104508776972,1.113399266280139,-1.1132804803897123,-0.21534596500279252,0.0840422600129426,0.24926219969133379,1,left
5.872999999999999,0.30566305196243904,0.9751142699067611,0.1073051626742394,-1.7820423745562246,1.1082448341251268,-1.109048683071884,-0.2153449558331143,0.08404156111960032,0.24926153314247285,1,left
5.874,0.3176744714695214,0.9758008153235941,0.09838843577058023,-1.7827848274440417,1.1090919354754256,-1.109907861503748,-0.2152120714642672,0.08430531567406149,0.24904607357706562,1,left
5.877000000000001,0.33400899341379076,0.9764938274680847,0.09009248583159302,-1.786348547643089,1.111100778732979,-1.1112390692557268,-0.2153940262758276,0.08374497166892884,0.24941455726292844,1,left
5.877999999999999,0.3561695580472989,0.9754033606862905,0.07965225593260199,-1.7809945780870136,1.1079327855177743,-1.1090357243085338,-0.21522285413284645,0.08454598199007235,0.2489669215893007,1,left
5.882999999999999,0.3805246005048608,0.9723831326365503,0.06710003269592475,-1.785737706725062,1.1107986074057705,-1.1110681041316486,-0.21534671651242476,0.08371248410115363,0.249384451412637,1,left
5.8839999999999995,0.4003804015742291,0.9695739150695873,0.05757207650331525,-1.783630328226625,1.109285187881484,-1.1098386643382199,-0.2152938647587427,0.08418760445451981,0.24916223235145873,1,left
5.888,0.41522107402114544,0.9661087451362347,0.047279645431128454,-1.7816302622330904,1.108836119251242,-1.1100141763624667,-0.2152561674014591,0.08459428507625372,0.24897876251097656,1,left
5.888,0.4227835218562405,0.9650763839445958,0.037345925288617604,-1.788317919540239,1.1113780289145296,-1.110841783190596,-0.21539874188056157,0.08282195721390828,0.2497590730557414,1,left
5.892,0.42359404108232146,0.968557201895394,0.0303613900919392,-1.7778341539249105,1.1072229453427362,-1.10931280491531,-0.21515582757110585,0.08610140083658013,0.24833379018972065,1,left
5.893,0.4232355902874112,0.9716240262824041,0.023612357272727168,-1.7891044848306288,1.1117199163167557,-1.1109976075704053,-0.2154528769526206,0.0818954748780705,0.2501488605447524,1,left
5.898,0.4204656353841332,0.9735325614116538,0.016275759716473555,-1.7824432970350588,1.1090149169256596,-1.1099374716078412,-0.21521134361656513,0.085404757720871,0.24864001484237658,1,left
5.899,0.41655681053315596,0.9753120518471637,0.006081058608449747,-1.7774401495041507,1.1072115922211276,-1.1094526331235763,-0.21521890192666354,0.08530889723636814,0.2486821575549083,1,left
5.903,0.41662054546082494,0.9733289263697138,-0.003733828692366089,-1.800545941219846,1.115968626753717,-1.112276933909108,-0.21566540953074953,0.07862357233982559,0.2515442719817551,1,left
5.904,0.4185156304101285,0.9685328994312972,-0.010843466445892035,-1.7574775897519623,1.0995727146972358,-1.106912293258147,-0.21457133012269353,0.09505510975550055,0.24451247846832969,1,left
5.907,0.4210924631932246,0.9653256793476905,-0.015919770444352648,-1.8128286508179712,1.1206606008030686,-1.1138294644668063,-0.21638155559722144,0.06781152495988746,0.2561679766798396,1,left
5.9079999999999995,0.42300719873022635,0.9643665983226842,-0.01722678810104181,-1.7665986148990545,1.1030416438730133,-1.1080427344821224,-0.21399680108662683,0.10374516055089997,0.24079715456716255,1,left
5.9079999999999995,0.4229442281673421,0.9637282884659415,-0.017442453958823836,-1.7679268952000677,1.1035719470583134,-1.1082444686288306,-0.20400242147963382,0.2545551509199209,0.17630203347198078,1,left
5.9110000000000005,0.4251691189439023,0.964443773140493,-0.021563643557476534,-1.8558265066511828,1.1369915534639408,-1.1191315008408425,-0.20162070655121903,0.29048714787392726,0.16093459668750865,1,left
5.912000000000001,0.42915787642037173,0.9703628584416625,-0.024241946619044642,-1.6396884567001435,1.0547882406032287,-1.0923184862189959,-0.20342522549166167,0.2632481817569262,0.1725829669293267,1,left
5.917000000000001,0.430065758071372,0.9826081781176286,-0.016703721437897716,-1.9980799120993233,1.191099890146599,-1.1367907268661321,-0.2023384595799126,0.2796703136376665,0.16556205442005345,1,left
5.917999999999999,0.42876711027879955,0.9920807004387097,-0.01097865898127462,-1.5253596677889556,1.0113061268703547,-1.0781291448964818,-0.2027782198812299,0.27299988838328226,0.1684110143136539,1,left
5.922999999999999,0.4287285941449309,0.993668568296605,-0.008331472203841696,0.45876095953431884,0.2566905081513111,-0.831970534026778,-0.20278850038495722,0.2728858521402624,0.16846455581151631,1,left
5.925,0.42787363768996334,0.9995796862890013,0.009369672216429904,0.9314777295758606,0.0769080190321274,-0.7733094250449892,-0.20255250793846816,0.27641008056552296,0.16695290115081216,1,left
5.925,0.42209801715658113,1.0093848158595151,0.03353395040419657,0.573087020821047,0.21320539959526857,-0.8177836446944238,-0.20283224260212984,0.2722031555544901,0.1687538619174444,1,left
5.928,0.40797541665025727,1.0165449409475424,0.050504568512746595,0.789237169992061,0.1310047832978105,-0.790961613175853,-0.20261870758966788,0.2754572483967994,0.16736606369691104,1,left
5.928999999999999,0.38150249682481446,1.0283592771680294,0.059813644097964073,0.7013030935213498,0.16444972784184003,-0.8018685307735272,-0.20272566563677252,0.2737451868879293,0.16808614219347945,1,left
5.931,0.3435580860024436,1.042735695083661,0.060555494346842174,0.7000342739533382,0.16491540934418142,-0.8020396298115016,-0.20271585349925578,0.2740599353713707,0.16797223814432727,1,left
5.932,0.29975842695782884,1.0565160589583489,0.05559617248993638,0.7461908207064455,0.14739719602255158,-0.7962870959586783,-0.20266424724468032,0.27463543983897687,0.16770080084897923,1,left
5.937,0.25582994692199573,1.0739201204757467,0.0444624449556473,0.6908982425511803,0.16837465776736818,-0.8031823672978221,-0.20273425043415633,0.27374035783219364,0.1681037245053385,1,left
5.938,0.21539706633517153,1.0906522351031576,0.02671917446676462,0.7339686529779046,0.15204515698248566,-0.7978046083159778,-0.20268416401230183,0.27449842338450975,0.16777976442304826,1,left
5.942,0.1819430817153116,1.1037578719849561,0.004705225953159265,0.7107497481693579,0.1608537726645799,-0.8006997186377525,-0.2026873564182557,0.2741495869969693,0.16789149492086644,1,left
5.943,0.15765549303997617,1.1152451634657319,-0.0210657003523747,0.7160090723812264,0.15880990485540752,-0.8000762426183523,-0.20274223797938248,0.27400692608502897,0.1680379892605395,1,left
5.947,0.1386173381884668,1.122366684835223,-0.04812702288927895,0.7222902682814702,0.15656159371269546,-0.7992042064277359,-0.2026385066743196,0.2745507402658136,0.1676779724427365,1,left
5.9479999999999995,0.1201197468237389,1.1280684211520913,-0.07141902782970341,0.7114210829552711,0.1604532665939798,-0.8007120745631265,-0.20275703278545923,0.2738499046892126,0.16811347331650606,1,left
5.9510000000000005,0.09995063334339935,1.1380685880695804,-0.08272245056543692,0.721682407977522,0.1568477025013228,-0.7992436440011316,-0.20268329005958435,0.27433607166423946,0.16782723292893975,1,left
5.952000000000001,0.07695972337104709,1.1496417784686936,-0.08231883320823663,0.7147686675925936,0.15924043226649218,-0.8002570903696522,-0.20263607483836119,0.2745026190568052,0.16768809236457602,1,left
5.956,0.05085255647039383,1.1636503141810755,-0.0799627897722045,0.7176955324218139,0.15812499896037688,-0.7998952292418713,-0.20287277902063683,0.2733078181442474,0.16849545400852273,1,left
5.957999999999999,0.024122935472041973,1.1815103598563905,-0.07645567096828744,0.7180915188115107,0.15841403083832392,-0.7995576221150447,-0.20242684649940987,0.27563367616472656,0.16695145817010798,1,left
5.961,0.00027989326330790393,1.1980366764817816,-0.07009879023124002,0.715575325335879,0.15836662642475796,-0.8005292405316597,-0.20300175219302444,0.27260746792189133,0.16895066434504358,1,left
5.962000000000001,-0.023200125221380565,1.211832277676403,-0.06438162245881277,0.7189553229925038,0.1585792089785507,-0.7991259542657996,-0.20252114189088358,0.27515069793034513,0.1672749213529639,1,left
5.9670000000000005,-0.04343192197133741,1.226864647443421,-0.0582171597047156,0.7158479519552174,0.15816437693032642,-0.8005606273385555,-0.20253481518491298,0.2750559360447318,0.16733027588729724,1,left
5.968999999999999,-0.05894504115309153,1.2408798716694742,-0.050382979394362246,0.717649959287977,0.1584009778369685,-0.7997303908040689,-0.2034491635639648,0.27027544230114,0.1704986749350259,1,left
5.972,-0.07203172107972762,1.2542669474542791,-0.046336403367733425,0.7180983005983079,0.15902706215708695,-0.7991533025995541,-0.20120151111532808,0.28206286667775027,0.16269734455469836,1,left
5.973,-0.07317494764741803,1.2761894920903343,-0.05100444243789712,0.7147024325920954,0.15683620714748692,-0.801859926377868,-0.20492738997419702,0.26250451610220615,0.17563656869738428,1,left
5.975,-0.06872487646235403,1.292816751286058,-0.05731677735528749,0.7210744568304488,0.16086926117148925,-0.7968299383801551,-0.20001462890559613,0.28830719174369784,0.15856960100453232,1,left
5.976,-0.0642727009018974,1.2976730175946765,-0.0578024988729064,0.7129803454333549,0.15565881949134633,-0.8032790893963245,-0.17938394855725048,0.3965925840865384,0.08692900987036753,1,left
5.977,-0.047112636629300944,1.3142636060841106,-0.06018811928132351,0.7197011889977177,0.16002027340919237,-0.7978976212023953,-0.17447626718377002,0.422396713546454,0.0698667680086381,1,left
5.982,-0.013228946572307285,1.3392706726870283,-0.06688773076422835,0.7193916647309745,0.1599562582373093,-0.7980635938217191,-0.1781943760521582,0.4028335177301111,0.08279970456287891,1,left
5.984,0.02909931413651761,1.357791121502897,-0.07941645700838028,0.7070986841523967,0.1514280145593243,-0.8082494175117585,-0.17595268822182508,0.414631934456548,0.07500058979861796,1,left
5.987,0.07272580771596493,1.3740540095934852,-0.10338100024991609,0.7374249544155473,0.17233580693024292,-0.7831909900773166,-0.1768686611486796,0.40983276317621653,0.07817737254610374,1,left
5.9879999999999995,0.12788832723075305,1.3888239848699135,-0.12052019687281637,0.6871328131502337,0.13768190602527855,-0.824747104943786,-0.17686774513420472,0.40976222498033005,0.07820895854238344,1,left
5.9910000000000005,0.16629444181029174,1.3957310425262808,-0.1214589386734758,0.753458362761456,0.18338535263070135,-0.7699290506777794,-0.17641693515402868,0.4122835036244812,0.07657188259720293,1,left
5.992000000000001,0.1761193979632834,1.3962412495203491,-0.12024061012606653,1.031343284394591,0.3755184220956944,-0.5399743744541405,-0.17695107057122583,0.40926319028220337,0.07852685322527864,1,left
5.992999999999999,0.2104386611751956,1.3967585961369884,-0.11410241384113859,1.0976587307261405,0.42121157117302616,-0.48514591421469044,-0.17654333463420396,0.41161614955308645,0.07701258817642312,1,left
5.995,0.2540955156173351,1.3932191602617656,-0.0945525455553052,1.0473989819559946,0.38656065598453826,-0.5267106247075546,-0.17676756753711578,0.4103479777580987,0.07783340670542163,1,left
5.996,0.2789082454741171,1.3846516332307623,-0.07176572630810182,1.0776533929233418,0.4075015727885875,-0.5016659115069229,-0.17667884697309438,0.41063335653933497,0.07760872600846358,1,left
6.0,0.2979975866945095,1.3793932489188236,-0.06634780522161646,1.0654808682214019,0.3988768192745097,-0.5117949440266613,-0.1767229808886773,0.4109814877558141,0.07749381845434164,1,left
6.002000000000001,0.3023511694617855,1.3819024898151975,-0.07911168238338276,1.0650168648797544,0.39898067132478265,-0.5120701190554118,-0.1766476230991377,0.4103792022060998,0.07769364014590936,1,left
6.005,0.2967971462788085,1.3905863930380304,-0.09549578771280334,1.0718753757496164,0.4031332917871737,-0.506542477822127,-0.17677196913464693,0.410950309744218,0.07755944839869074,1,left
6.006,0.28480219247856176,1.4026395104308265,-0.11131545361134634,1.0637488865955635,0.39809101375099043,-0.5131241940781264,-0.17665972097168414,0.4105641626337373,0.07762069698789686,1,left
6.011,0.2625083439324838,1.4205915626881238,-0.12453284816096175,1.0699404274190636,0.4021254026629023,-0.5080611347745045,-0.1766276490357473,0.41072387976372016,0.07751342110805746,1,left
6.0120000000000005,0.24204726608063315,1.4426625793629884,-0.134736631051253,1.0670204516826929,0.39961986522558635,-0.5105983236123495,-0.17696513629677668,0.4107616587651536,0.07784844752689378,1,left
6.015,0.2232248460015096,1.4616668506695079,-0.13571557768769846,1.0667066367145182,0.4009667074581476,-0.5104713868431254,-0.17621066107034658,0.4105873154848135,0.0771408618583495,1,left
6.016,0.20575583401581504,1.4773312315921563,-0.12690409812713577,1.069384340607257,0.40012767856058973,-0.5089198102922876,-0.17734006552316056,0.4108270593198173,0.0782100522117247,1,left
6.02,0.1978071806694549,1.4921419856574176,-0.1198220029608708,1.0656667924907377,0.4008563906737844,-0.5111821094628253,-0.17613096148996837,0.4105984730862412,0.07705223719414356,1,left
6.021,0.19622792272558934,1.5056131644404267,-0.10468608342921856,1.0688395159864108,0.40042091182356643,-0.5092050802269334,-0.176829493146953,0.4107310469386224,0.07772122316498757,1,left
6.025,0.19777992075167358,1.5173070961253026,-0.07255053203894886,1.067918104121162,0.39976099680787114,-0.5099734721290803,-0.17744318523243927,0.410784573154354,0.07833705165200992,1,left
6.026,0.20221457426226566,1.5297880075509531,-0.03567183881241665,1.0650366342718893,0.40264429532061036,-0.5111549828072026,-0.17477240194937566,0.41047113539443425,0.07569207999726879,1,left
6.031000000000001,0.20547611069545388,1.5461117697199496,-0.005268975227535113,1.0725563489799579,0.39670107747744865,-0.5076809273532518,-0.1797245697822672,0.4110568600348544,0.08059518416694639,1,left
6.031000000000001,0.20302045068107985,1.5697896448606923,0.015211197063108629,1.0611147471174203,0.4054129589526935,-0.513048903710517,-0.1733648818965689,0.41030914900529636,0.07429550897125836,1,left
6.0360000000000005,0.18716359663243598,1.605999487685189,0.029291838187003694,1.0733530964557143,0.3961539845005698,-0.5072920490029669,-0.17867457415509364,0.41093201662742634,0.07955713953974486,1,left
6.0360000000000005,0.1633856895562354,1.652134606021823,0.04872980806483679,1.0662161980850415,0.40145973659319956,-0.5106728850303711,-0.17853235194228662,0.4109066560281319,0.07941688446487617,1,left
6.039,0.1441874592778485,1.6970056459377951,0.07070750615918664,1.060389678658717,0.4062543116461272,-0.5133170895191981,-0.16840199971563558,0.4097512800697254,0.06937112909400103,1,left
6.04,0.13162664970815702,1.7329691920933865,0.08262128473932598,1.0864218567286654,0.3856303986895707,-0.5013026012883409,-0.19329969270960412,0.4126000497045783,0.09406311014578897,1,left
6.044,0.12899594724504768,1.754249837986587,0.09602206056309673,1.0380492484427932,0.42381513180995045,-0.5236634074644895,-0.15201847318423495,0.4078743034279995,0.05311974656575284,1,left
6.045,0.13056219681433998,1.7592492019608317,0.10630152194794902,1.1001829767707174,0.3747947627788598,-0.4949330887764271,-0.20646819373469236,0.41410811539136616,0.10712684069272514,1,left
6.046,0.1327902735775558,1.7593892524385129,0.11332269777385207,1.0483028278094229,0.4157199054999029,-0.5189259544580428,-0.4350316574558726,0.4401927305244919,0.33377286442193693,1,left
6.0489999999999995,0.14059041480690354,1.7586888957605078,0.13770053824693956,1.0497385236990966,0.4146197302368144,-0.5182484215353776,-0.4894821352601331,0.44642167754442263,0.3877794162246308,1,left
6.05,0.1435375718566975,1.7563024500045437,0.1680785467435949,1.1485583943658373,0.33654599316663825,-0.47259090549336114,-0.448198851125241,0.4417107728023569,0.3468432832706362,1,left
6.055,0.13432728844242164,1.757670699571083,0.18488019892931584,0.9056358168594838,0.528444648092446,-0.5848448508308233,-0.4731006434352057,0.44452761886532055,0.37151195472893844,1,left
6.056,0.11893139695253452,1.7519376066346979,0.1667377984593612,1.30841988557601,0.2102546320220674,-0.398713875087838,-0.462963915363213,0.4434247238314414,0.361512768104543,1,left
6.059,0.10917010395010257,1.7418084199744919,0.14170620534126876,0.7771511864849524,0.6299604278987109,-0.6442205830443082,-0.4628293365426864,0.4433331685038202,0.36130472541803316,1,left
6.06,0.10665616064848188,1.7385710206207428,0.13046058444953068,-1.4528523939214877,2.3912398491501414,-1.67468056009819,-0.46813293350046103,0.44401353757554823,0.36663760124978123,1,left
6.061,0.10317770818799367,1.7206884898073325,0.07779887982087366,-1.9841187174064434,2.810931523624744,-1.92018319819558,-0.4617732399049225,0.4432552938766558,0.36029939236598457,1,left
6.065,0.10915003330620564,1.6833516356402023,0.003805600094145963,-1.5813305144735046,2.4928157991982163,-1.7340583990160954,-0.4667366920108784,0.44375879283226227,0.36515893626335694,1,left
6.065,0.1282804453316026,1.6409644049776433,-0.03965762363750484,-1.8242778169249771,2.6845112386377465,-1.8463077382033615,-0.4640399174600869,0.44365434006518056,0.3626857378091839,1,left
6.069,0.15063989301292555,1.5942742021657164,-0.05134540696826864,-1.7254004629339983,2.6068177497054865,-1.800648564563622,-0.464692611903616,0.4433786384224002,0.36298682869881804,1,left
6.07,0.1716110533403846,1.5488545336851045,-0.032474503012650105,-1.7240557430668493,2.6051873083956423,-1.799983248615755,-0.4653493300865804,0.4438832102946578,0.3640626638946373,1,left
6.074,0.17681343479288641,1.5099673784155287,0.0022731218297922587,-1.7758316361181468,2.6466422606686537,-1.8239516719997106,-0.4641645783028645,0.4434054759874807,0.36254941328310775,1,left
6.074,0.15990983351880445,1.4764281289538377,0.04285307587216145,-1.7137690171593656,2.597382207878718,-1.795254343488775,-0.46531485162659997,0.4435340055734555,0.36368699977736796,1,left
6.077999999999999,0.12326713484698437,1.4512985794783608,0.08167215007333464,-1.7621716800458311,2.6351357489746503,-1.8175848509240815,-0.46446781964138123,0.4440720304958019,0.3634750047767631,1,left
6.079,0.0610747471119067,1.4390955305375148,0.11385902672565895,-1.7359384872402095,2.615949525141933,-1.8055790490872152,-0.464979358178566,0.4426795114581892,0.3625473632765432,1,left
6.082999999999999,-0.015510459196277903,1.433362125087974,0.1399004520804703,-1.7421717592696009,2.618232192346018,-1.8082589529140147,-0.4647176944920137,0.44481444118612423,0.3644283637129178,1,left
6.084,-0.08908251274077869,1.4273691798250927,0.15329088486079961,-1.748744497387551,2.626662899468519,-1.8115421245870027,-0.46481329269192384,0.4425172597674122,0.3622415456080338,1,left
6.0889999999999995,-0.15503223525254123,1.4234259534258635,0.16183314321386708,-1.7370533383438556,2.6148466677905122,-1.8059435253612497,-0.46488076219224816,0.44385924256404585,0.3636264797580422,1,left
6.0889999999999995,-0.2069539804009654,1.4209865658118477,0.1678090523893384,-1.7482756067132557,2.6236880372481433,-1.8111279626143215,-0.46455743713777775,0.4449703987525372,0.3644429249139786,1,left
6.093,-0.2430257423878192,1.4201221486756002,0.16311535784736014,-1.7402545153081037,2.6221419141340983,-1.8077843609791493,-0.46526897148161206,0.44002271771762547,0.3601740613862231,1,left
6.093999999999999,-0.26435598287505846,1.418836329418935,0.15441951429144404,-1.744688897499299,2.614698755345329,-1.8090034023239294,-0.4641151827891655,0.4492189927374136,0.36825428778917857,1,left
6.097,-0.27070620659516487,1.4168595952200476,0.15108478090404084,-1.7429668679342532,2.6296681434807283,-1.8094465384892517,-0.46553762806330024,0.4374019602564204,0.35782108875299246,1,left
6.098,-0.2699386893089064,1.4171284020247836,0.155668941590964,-1.7430129229217899,2.612296081613168,-1.8081464388629507,-0.46437396881151094,0.44727282193187545,0.3665537653385007,1,left
6.105,-0.26098169295271534,1.4178203803436986,0.16652076089787166,-1.744185056566356,2.6232820038790132,-1.809452811495402,-0.46436987512639183,0.44699533383615164,0.3662847580465716,1,left
6.106,-0.24398919197276198,1.4220161247619334,0.17634703752848932,-1.7414685364039952,2.629803545074349,-1.8088528172740161,-0.46668433995798486,0.4281995055177461,0.34972176187863613,1,left
6.108,-0.2282082317587627,1.4274720494918758,0.1872427440738751,-1.746483339527718,2.5958225972574036,-1.8082940092645674,-0.46104508625579865,0.47441564888084586,0.39047522097227355,1,left
6.108,-0.21007027205337783,1.4354206827311424,0.2048358558853779,-1.7388048379132184,2.6601255568913578,-1.8100830298375452,-0.47037932028616936,0.3977757552753044,0.32289242090308257,1,left
6.115,-0.19846283094618225,1.446822187654245,0.21517280042532339,-1.7480838057523194,2.5770945815591615,-1.8075141445111504,-0.45806977217777217,0.4988733169549767,0.4120319435614441,1,left
6.1160000000000005,-0.19518483755661817,1.4497126115035548,0.21753722307476983,-1.7405763520588353,2.6466081511576416,-1.809774265393957,-0.4064329913951148,0.9231219201230898,0.7862728880950098,1,left
6.117000000000001,-0.18411299825416128,1.4634469368946073,0.2140725624441298,-1.7404178924463145,2.6444262204589464,-1.8095343496462446,-0.39411558129489543,1.024234898443536,0.8753978969293493,1,left
6.117000000000001,-0.1714602836564687,1.4886157989499758,0.19169986446104914,-1.75570042420763,2.512677363312839,-1.8056996145219593,-0.40345379081233695,0.9475778075369595,0.8078263059169739,1,left
6.117999999999999,-0.16239936712483297,1.5097821139446714,0.14376477761283418,-1.7186491639471388,2.836933711456852,-1.8153847256423319,-0.39783382003495166,0.9937894400661582,0.8486016550492751,1,left
6.122000000000001,-0.1635501898915241,1.5583593801342772,0.06800324879176653,-1.7799045175755572,2.2991391232941476,-1.799226584166409,-0.40008698512009366,0.975045161234685,0.8319537546853103,1,left
6.122999999999999,-0.17171967380747197,1.6000877296290459,0.017088849748163583,-1.6991533439146242,3.008545375526759,-1.8205775394214179,-0.4001926834288517,0.9746542334132146,0.8318455064590108,1,left
6.127000000000001,-0.1742883890284202,1.6124329015988854,0.005983557040707231,-1.36026199631536,5.9860545117501704,-1.9100201665160266,-0.3988892999450408,0.9846897657748291,0.8403652389695817,1,left
6.127999999999999,-0.18915209702273827,1.664728831863545,-0.0252772496904492,-1.2794714513149827,6.695468953679978,-1.9313830710612798,-0.400428778464328,0.9727062310713809,0.8301221639855775,1,left
6.129,-0.21665521467363336,1.7413773695728665,-0.053374162152013245,-1.340725210436978,6.1576305930962985,-1.915191575156589,-0.39926553633648554,0.9819790367673144,0.8381610669981883,1,left
6.132000000000001,-0.24408571014335192,1.8034714802110066,-0.05997446737608983,-1.303846679467553,6.482007229412497,-1.9249441189311216,-0.3997819972631934,0.9771635307731287,0.8336351325654586,1,left
6.132000000000001,-0.27184701720633697,1.8603663614306103,-0.07393126127027647,-1.3186652141890056,6.350032830742583,-1.9210031123887406,-0.3999243513136522,0.9778303307302986,0.8351182863184141,1,left
6.1370000000000005,-0.287635307065562,1.8940914613049245,-0.08469208089583856,-1.3192895208657678,6.348165870343342,-1.9208922079201847,-0.39928180840458305,0.9799485082539048,0.8354460773829211,1,left
6.138,-0.2891966680995025,1.900397010941951,-0.08845307291445594,-1.3108323362549885,6.417364188996754,-1.9230471296960185,-0.4001506642353637,0.9766875361727259,0.8344593281637214,1,left
6.141,-0.27854742549094047,1.8860019970607889,-0.08918278667794746,-1.3208414483549187,6.3344768210411075,-1.9204833521151345,-0.3994191058159867,0.9796075882412463,0.8355289717068466,1,left
6.142,-0.2489760569120929,1.8487818807489487,-0.0962717124373425,-1.3132482439938018,6.399034088067541,-1.9224552122049585,-0.39958896181077186,0.9781835193558008,0.8342593390614355,1,left
6.147,-0.20524055503432848,1.7939393126504828,-0.11111019078235876,-1.3167135838293231,6.364201059358603,-1.9214656345322179,-0.4003882877105338,0.9773530068458407,0.836321091636232,1,left
6.148,-0.1529221322652352,1.7257969934650093,-0.11813285047333853,-1.3174012948654488,6.372213637248899,-1.92151972616133,-0.3983879831219686,0.9806789866623569,0.8328693486457335,1,left
6.152,-0.09001367419627197,1.6536037405833965,-0.11931459644400166,-1.3136087828690712,6.381342224259839,-1.9221155301827417,-0.4014135774310925,0.97537523362684,0.8377167958787237,1,left
6.153,-0.016974524286272104,1.5855853649453908,-0.11252430786233791,-1.3187907924741782,6.36549361574505,-1.9212451794254843,-0.3981806208520515,0.9810928312233017,0.8326057804384914,1,left
6.156000000000001,0.05881358447073613,1.5258121752175131,-0.0955424717526473,-1.3144038903918043,6.380377947371346,-1.9220065525362027,-0.40006063280917536,0.9776885691033651,0.8354697440361768,1,left
6.157,0.1296742543443057,1.4787079957913218,-0.07677088281908775,-1.3155226387419066,6.370333430156307,-1.9217068766527297,-0.4016213306300611,0.9752524767826086,0.8383794545304516,1,left
6.1610000000000005,0.19011477170474406,1.4426719051089798,-0.06339870274640666,-1.3199998354380866,6.3749120352372195,-1.9212638028020614,-0.39469324224733915,0.9867299326150208,0.8263675492361464,1,left
6.162000000000001,0.24014890056547458,1.416219948911273,-0.05731917911108003,-1.3086277307471144,6.374471397753029,-1.9225782307004422,-0.4075587312867499,0.9652975403982383,0.8485126679182682,1,left
6.166,0.2892577377934435,1.3987369133492997,-0.04828595975112031,-1.3258662165949162,6.372728178931409,-1.9205448362562716,-0.3910354158703191,0.9928509521644304,0.8201075977817025,1,left
6.166,0.33657585787120503,1.3852558034902382,-0.03751594488987077,-1.3074384599606566,6.3750338022619095,-1.922726372729621,-0.40483063456631263,0.9698343727790159,0.8438080182827872,1,left
6.171,0.3794534777846857,1.3727873646308604,-0.021736498206792354,-1.3181668411381626,6.372994956252492,-1.92144376017159,-0.40445306441905915,0.9705092590023627,0.843215814947613,1,left
6.171,0.41958725537377783,1.3618561924777652,0.004406538891526994,-1.3270155523028198,6.37473674858351,-1.920446191826803,-0.37816390669765454,1.014227460058897,0.7978657675517077,1,left
6.1770000000000005,0.4521629120156867,1.3524844737195618,0.030812510122605705,-1.287634876999098,6.372842679668182,-1.9249902052970023,-0.4427826193859981,0.9067118175311806,0.909269157804413,1,left
6.178,0.484145243190617,1.3401244361862013,0.06939565519072786,-1.3607856477185112,6.375320223524408,-1.9165297403467743,-0.3356431156671174,1.084994146558699,0.724577170199052,1,left
6.183,0.5063703416098939,1.3291008273790617,0.10052963438998658,-1.266828689127447,6.3723726206962965,-1.9274028301791437,-0.47695654861415326,0.8498385039673753,0.9681776843706936,1,left
6.184,0.5107886347801325,1.3261927706175327,0.10647636630181935,-1.3452814800983495,6.374736771046294,-1.9183189572519292,-1.07014529537303,-0.13713991736970207,1.9908237001965725,1,left
6.185,0.5292128173506754,1.3114237980437031,0.133127109830739,-1.3431119818075952,6.375039367563662,-1.9185841630148401,-1.2114528044810544,-0.3722910192403871,2.234419766323734,1,left
6.186,0.5561069208670155,1.2860103176440516,0.1699688415952394,-1.193664920907381,6.369334449462396,-1.9358493346072754,-1.104319710579622,-0.19401360407968762,2.0497325921140757,1,left
6.187,0.5760271646782298,1.2632150273310438,0.19001024015678047,-1.5610460657244363,6.382919071534776,-1.8933836902214818,-1.1689408587245163,-0.3015311111736096,2.1611378095113345,1,left
6.192,0.612905739375082,1.2214136881899607,0.21537498452450876,-0.9518911019509398,6.3605143664427874,-1.9638100053665293,-1.1426304455382352,-0.25779662209326626,2.115771805222964,1,left
6.193,0.641062564559703,1.1884261415228514,0.23324909439619362,-1.755372314529604,6.3900475182301975,-1.8709046519085593,-1.1422986121657455,-0.25715678697828953,2.1152139395423086,1,left
6.196000000000001,0.6485050699496158,1.1803757852433274,0.2370515604193994,-5.1278248361642245,6.514643702208797,-1.4811018107981946,-1.1560282512385243,-0.28012310588824274,2.1388651233028773,1,left
6.197,0.6816326310156524,1.1434717270627637,0.24973974774529287,-5.9313152054574205,6.544205061155134,-1.3881756980153064,-1.139570242399627,-0.2526197484356408,2.110509087070808,1,left
6.197,0.731534481035707,1.089632312181088,0.2672572025356817,-5.322150319180885,6.521769822919741,-1.458624465604288,-1.1524075473653759,-0.2740305331726689,2.1326330403853877,1,left
6.2,0.7774871528653159,1.0443042522011416,0.2796241571321507,-5.689527751101479,6.535342890502461,-1.4161673911297594,-1.1454233921205825,-0.2625101180885801,2.120579047872993,1,left
6.2010000000000005,0.8250437072767047,0.9931466111512212,0.2900567875570783,-5.540113439066786,6.529739096031844,-1.4333580031985762,-1.147164718462568,-0.26508463346449285,2.1236243651295177,1,left
6.205,0.8658663105718027,0.946992722118934,0.3017601563291712,-5.537873401697791,6.529824039991886,-1.4337835951184532,-1.148733487685962,-0.2682503645307997,2.1262546543710465,1,left
6.206,0.8992579983737244,0.9063504149815638,0.31266536885055496,-5.61642739204917,6.532500317829716,-1.4244697914679045,-1.1458825169349032,-0.26282552804004894,2.121430435285089,1,left
6.211,0.9232005140216111,0.8659922450054828,0.3201361015784674,-5.522369584227302,6.529241828856412,-1.4355718062386829,-1.1486035544053244,-0.2678958424297838,2.126049205791516,1,left
6.211,0.9387033844399558,0.8328945774631902,0.3244443242450805,-5.595564010225971,6.531853648603251,-1.4270126351289607,-1.1466005800809143,-0.2645678636578246,2.1225954912272478,1,left
6.215,0.9487616165619341,0.8061210305230655,0.3262108249684891,-5.556269611112553,6.530226231851673,-1.4313599051230406,-1.1479649813087085,-0.26583138999765776,2.1250814553436386,1,left
6.216,0.9476463323016521,0.7862858922081528,0.32995708772373256,-5.564839845247574,6.531108532152897,-1.4309958211683411,-1.1468433717010362,-0.2662657306755548,2.12284223787508,1,left
6.22,0.9425461240818862,0.7735853005326225,0.33660171244769055,-5.576048370403772,6.530550928399462,-1.4286218480539534,-1.1480385349088116,-0.2648223106468509,2.1253584411354756,1,left
6.221,0.9367388244732823,0.7658566895180856,0.3429783301024847,-5.5570310208233735,6.531038376093828,-1.4321425880646057,-1.1468533798831946,-0.26650901276501493,2.1228295059904205,1,left
6.227,0.9285220197159754,0.7648970610557868,0.35110963639191145,-5.574740060241933,6.530745172358343,-1.429041769215813,-1.1473977667940727,-0.2653006851674221,2.1240485648678558,1,left
6.228,0.9213081016551639,0.7716390257418876,0.3593460518191517,-5.563370994474903,6.530316357587749,-1.43034610151361,-1.1485629146402503,-0.26541746722836246,2.126299418999171,1,left
6.231,0.9120876798711337,0.7797584020439946,0.3627443755928563,-5.5669776161325935,6.53220663908902,-1.4318852228891017,-1.1446023645937067,-0.2668021039377797,2.1184124107688778,1,left
6.231,0.9012316663995348,0.7859946078283959,0.3647211940830073,-5.570088012584335,6.528307829923751,-1.427056629770449,-1.1517421053941708,-0.26389252275990477,2.1326849763063764,1,left
6.234,0.8906096558575385,0.7944874132608197,0.36884655785121556,-5.562728215458176,6.534022163693619,-1.4345735631469747,-1.1426198347275953,-0.26770472370251075,2.11443706620362,1,left
6.235,0.8790178380387532,0.8003394756617263,0.37279083763937226,-5.5710814607451224,6.527950953151716,-1.4265026642601653,-1.1502178573858703,-0.26449197641257427,2.1296403653371856,1,left
6.24,0.8638363081712631,0.7991831429343252,0.37709859009554647,-5.565453111628486,6.531426873375411,-1.4312571157974112,-1.150081617772358,-0.26469602746339205,2.1293495487892753,1,left
6.2410000000000005,0.8468171469355763,0.7974530172698763,0.37796569825654336,-5.564569250616582,6.534576964278243,-1.4349018720071296,-1.1353639479554918,-0.2704359280468398,2.0999613685803844,1,left
6.244,0.8311629706320438,0.7931732967044813,0.37696023562337344,-5.574935603207042,6.521046067817404,-1.4182100319441258,-1.1714583630502096,-0.25619192176851985,2.1720542510289027,1,left
6.245,0.8079691210920692,0.7808192070803328,0.38360981089162505,-5.554534810736632,6.546089350077825,-1.4492968364813097,-1.111630377488741,-0.27984187072360056,2.052553910931419,1,left
6.25,0.7900922740394015,0.7711711918986084,0.3886186408069656,-5.580999021618478,6.513948768648907,-1.4093530536547063,-1.1905450824574653,-0.24864838345803605,2.21017594308967,1,left
6.25,0.7856862435879628,0.7698365810867188,0.390431198794953,-5.558790317747139,6.540768111143299,-1.4427073520508027,-1.5218502289559905,-0.11784516948081558,2.871916787229276,1,left
6.251,0.7675273024061555,0.7573296299671187,0.4019172726828314,-5.559819241344041,6.540078344085899,-1.4417688947015728,-1.6007799960795732,-0.08667239280329536,3.0295621732564806,1,left
6.254,0.7435843961016637,0.7346458276396726,0.41663372541756916,-5.600781523290966,6.488840066994533,-1.378296517700149,-1.5409357127254155,-0.11029993524860451,2.9100365638390677,1,left
6.255,0.7274796112071598,0.7190339442193985,0.4334845840816955,-5.499579149747296,6.614715829072021,-1.5343355180712344,-1.5770239352479565,-0.09604740318531657,2.9821198432697145,1,left
6.261,0.7074922102139767,0.6978719478778885,0.45922545291962064,-5.667534842583198,6.4060482180671405,-1.2756207505769441,-1.56236031050088,-0.10186163875637172,2.952815462893426,1,left
6.2620000000000005,0.6971413684697381,0.6793213453966387,0.4761981764185945,-5.445954181435084,6.681239237393383,-1.6168435733457607,-1.5621077787081346,-0.10190575361448878,2.9523443309474353,1,left
6.265,0.6953540234132392,0.6756328020773535,0.4799790153316679,-4.516657723708889,7.836588834092883,-3.0491736716315154,-1.5698725466696417,-0.09892231843394458,2.9678061733624252,1,left
6.266,0.6846279891198535,0.6609002240973829,0.49292745982644515,-4.2950278828243285,8.111678535943067,-3.390335125511581,-1.5605842250910231,-0.10250617729196862,2.9493007986286512,1,left
6.266,0.6737014976974829,0.6412833439842052,0.5112852692584209,-4.463085556588998,7.903170226692849,-3.1317133836069626,-1.5677956275059717,-0.09969511235581625,2.9636844729896126,1,left
6.27,0.6644481472062449,0.629742362450924,0.5214676491438113,-4.361730669963794,8.028911702533318,-3.287683318321802,-1.5639776357081612,-0.10127585015481455,2.956018512094772,1,left
6.271,0.6533187471152611,0.614091270429062,0.5270787473554571,-4.402872591970438,7.977672603358141,-3.2241851421023306,-1.5646835099465746,-0.10076097304923129,2.9575572423554872,1,left
6.274,0.6437629291247622,0.5997163983026702,0.5286676186647773,-4.4037529240571125,7.977226976868533,-3.2234320986800915,-1.5660192750475614,-0.10064099962397965,2.9600033595580255,1,left
6.275,0.6321026122848986,0.5883257273531188,0.5293677381407578,-4.381566777091702,8.003502219331278,-3.256416545347323,-1.5638628682061948,-0.10099204067537632,2.9559684748014528,1,left
6.279,0.6200376010592688,0.5780636681872964,0.5345434796910149,-4.408246482753182,7.972145850280838,-3.216970977680815,-1.565832408447184,-0.10061344056484883,2.9596853554022102,1,left
6.281000000000001,0.6085831907338898,0.5704055168721993,0.5408858872487149,-4.3873108065212225,7.996400601993596,-3.247601541348545,-1.564717588970125,-0.10105734783604967,2.957456696302096,1,left
6.2829999999999995,0.594482939705423,0.5577386439064387,0.5471487686885617,-4.398510406291072,7.983233612166251,-3.231037848512751,-1.5646452051434583,-0.10034467243074471,2.957714845166411,1,left
6.284,0.5823855226236614,0.5447762591098,0.5577405474164968,-4.396694145022799,7.986995903287618,-3.235226212958567,-1.5659259636483718,-0.10153283137037215,2.959352686481833,1,left
6.29,0.5739091394590593,0.5364872644143153,0.5715638387020596,-4.391678060584633,7.988404102346558,-3.238501135928953,-1.5637480436788136,-0.09986591493339708,2.956375476096342,1,left
6.291,0.5642363109447737,0.5242670893882149,0.5848329051611607,-4.400335542470412,7.985945863271693,-3.232822348118327,-1.5661196767147438,-0.10162298800177832,2.9596490079330673,1,left
6.294,0.5570753605344588,0.5094308034029361,0.6008518972366008,-4.391156658348381,7.9871737760480475,-3.2375714174696606,-1.564670522303582,-0.10063930134376052,2.9576000373042026,1,left
6.295,0.5620360222747831,0.49454443956857946,0.6194075673713927,-4.397879223909603,7.9869311464691295,-3.2346991835712915,-1.5638112359036036,-0.09963594520474031,2.9566128471190813,1,left
6.2989999999999995,0.5739728540875173,0.47412361451356333,0.6348786569649598,-4.396539368535532,7.988669352687023,-3.2368309569340172,-1.5682105267798194,-0.10377197882972986,2.9622094151497205,1,left
6.3,0.58126435501067,0.4509996672197532,0.6435703007010132,-4.389890622777987,7.98188106210272,-3.2331861324996956,-1.559936316266546,-0.09614854444362109,2.9515992390744894,1,left
6.303,0.5856568078970568,0.4285787697007193,0.6406950831564919,-4.405838891184913,7.9964549965997636,-3.2403520721950914,-1.5705873168878575,-0.10592575876298643,2.9652763924731325,1,left
6.303999999999999,0.5884683543872058,0.4085479891808984,0.6322615933632333,-4.382222354315825,7.974496535283602,-3.2293923199475567,-1.5616838535850235,-0.09776949352776387,2.953834789085909,1,left
6.309,0.5813717371111996,0.388885874817066,0.6277984721323744,-4.407165916326757,7.998192600201356,-3.2414332521990836,-1.561967258108465,-0.09796959867856223,2.9542299007757347,1,left
6.31,0.5677055537359075,0.3678153766124669,0.6232380049422097,-4.3927497821679165,7.984505875242533,-3.234481076704493,-1.5788073680706942,-0.11358530533731154,2.975771433366551,1,left
6.314,0.5537771204661092,0.34995926273141453,0.6161744070431177,-4.380842854831659,7.972061182786338,-3.227689525534832,-1.5373643283229286,-0.07523250909677368,2.9227194400735117,1,left
6.315,0.5329802562422024,0.32907659848511617,0.6084344115865061,-4.433629847140035,8.025683800564085,-3.2563755994730608,-1.6060949271101854,-0.13881024633836264,3.010715496319995,1,left
6.319,0.5185648372316216,0.3128385754453432,0.6027686827950058,-4.335698957522714,7.926286163630789,-3.2032315344712043,-1.5154341362944916,-0.05496110523709801,2.894636879716768,1,left
6.32,0.5144096906909716,0.30749323044419385,0.6012631120212175,-4.461408019451049,8.053966110136649,-3.2715337279300685,-1.1349676196789735,0.29706705311187326,2.407567540751975,1,left
6.32,0.49691539051895,0.2944534368121002,0.600656606735128,-4.356473530878381,7.947354983142602,-3.2144864062831955,-1.0442998857559591,0.3808945315492731,2.2914717680337557,1,left
6.3229999999999995,0.4768875544832896,0.2710650023557051,0.6010551654363739,-4.359381634314191,7.950157815332452,-3.215935857054685,-1.1130438042015105,0.3173516294574793,2.3794995683608593,1,left
6.325,0.46310309797442883,0.24799529597335399,0.6035334716736769,-4.559206360552588,8.153768078201054,-3.325096608546117,-1.0715830506140196,0.35567296934426207,2.3264079427782427,1,left
6.327000000000001,0.44717070087977273,0.227255156445002,0.6007381302478781,-4.067992960986024,7.653401112900345,-3.056878500283503,-1.088440651339838,0.3400627452527688,2.347984163764802,1,left
6.327999999999999,0.44278840397631286,0.198561645521867,0.5874929145813612,-4.882464240077742,8.483013678256278,-3.5015854456431823,-1.0887147542976403,0.3399064452810091,2.3483689471832445,1,left
6.332999999999999,0.44543813258795184,0.17635581177659315,0.5758761535937071,-3.808172602114329,7.388766361104879,-2.915016186744353,-1.0798019438642106,0.3479553860212597,2.3368906648687995,1,left
6.334,0.4458071593000691,0.16998578443385717,0.5727529018133438,0.7007663986871495,2.7952282612332224,-0.4524832508502579,-1.0904905878697724,0.33834065312255,2.350668659123155,1,left
6.334,0.45055896817873314,0.14964608789413897,0.5720714171704355,1.7750757098720313,1.7009954158263885,0.13408767403263502,-1.0821475138226941,0.34579071082126506,2.33989553237479,1,left
6.337999999999999,0.4545656728324518,0.12530250029875756,0.5748314867713193,0.9605953666786257,2.530604828356117,-0.3106365622449552,-1.0866357371947601,0.3417531200373125,2.3456807377470166,1,left
6.3389999999999995,0.4587588187418106,0.112582780546778,0.5791086294297522,1.451765871142079,2.030187616292186,-0.04236427919102037,-1.0856985671631842,0.34284872737283795,2.3445593590650393,1,left
6.3420000000000005,0.4700369291156749,0.09806005702661552,0.5802161440408771,1.2520780112782695,2.2339411278472543,-0.15163215116425993,-1.0842652095387515,0.34344110148051693,2.342472855890306,1,left
6.343,0.48549863277716404,0.0857817063436362,0.5746836275931267,1.2489244853549066,2.2364967449683677,-0.1529266772108006,-1.0867431600604016,0.3424109612860005,2.3460777734939184,1,left
6.347,0.5006600525670025,0.07817626364614363,0.5591237639874356,1.3541715784423578,2.1301912332570185,-0.0960409911754295,-1.0842927469770178,0.34312990832225476,2.3424102518571237,1,left
6.347,0.5147829245979587,0.07062896807823842,0.5363989316247246,1.2282002966407077,2.2576278609767346,-0.1642577973388039,-1.0860031397403414,0.34278122449515114,2.345022639821064,1,left
6.351,0.5311505415804185,0.06446973641624215,0.5117401517932441,1.3261532048556823,2.1582219114297096,-0.11101024041732914,-1.0854454323104563,0.34330824460239456,2.344312448443909,1,left
6.353,0.547780692575154,0.06303315082083114,0.4895407214327421,1.2738013661413043,2.21231455281899,-0.14009301789380466,-1.0846557215836503,0.3417499884875378,2.3425172022401566,1,left
6.357,0.5619860084849994,0.06217491455490233,0.468198096025505,1.284667765501529,2.1988049120938644,-0.13257986958919865,-1.0867691288514552,0.34502518389606995,2.3470149280880355,1,left
6.358,0.5794652431407795,0.059306502521283035,0.44600037650294877,1.3006717380361934,2.1866982062067484,-0.1265552755224067,-1.0836881759530348,0.34007286785355917,2.340397215923131,1,left
6.361000000000001,0.601663267872038,0.056871591558579716,0.427392688319762,1.2739971838987194,2.20872584992565,-0.137793072926428,-1.0868772551228556,0.3454401771638852,2.3473298082835248,1,left
6.362,0.6246385538122416,0.0500113683032256,0.4159099488349025,1.2986686532679776,2.1876933218605514,-0.12697295691857627,-1.085033653108379,0.342339897043357,2.3433229649153056,1,left
6.3660000000000005,0.6504046497527964,0.04006590734888289,0.409589449296776,1.28347799600351,2.2032057998048846,-0.13529240908132706,-1.083655406750684,0.3394720659555887,2.340139029025297,1,left
6.367000000000001,0.6784296987380978,0.027698046535339117,0.39802729445542295,1.2864529366074513,2.1925654606619327,-0.12874556083821087,-1.089960222431975,0.35177021300691613,2.354422768084439,1,left
6.371,0.7029613542217583,0.011614527586642427,0.3778264782418084,1.2948309631523442,2.201418780166391,-0.1354185286819426,-1.0782544866944739,0.328975707315609,2.327916340806833,1,left
6.372000000000001,0.7259886405744158,-0.0031713597076930577,0.3580251988434341,1.2786976253055284,2.1919156148362617,-0.1274487195302592,-1.0932674450779816,0.358261322044117,2.3619290895780507,1,left
6.377000000000001,0.7491647753342277,-0.01830407506615147,0.34048215595001835,1.2965731514202075,2.2013550257924024,-0.13557526915280538,-1.080742375784605,0.33380442248013076,2.3335444616159737,1,left
6.377999999999999,0.7680454460784609,-0.03434885749943206,0.3285767728068162,1.2851751485931258,2.1969924696746017,-0.131462939531224,-1.081102125375657,0.3344471880090114,2.3343392391765687,1,left
6.381,0.7826989909163499,-0.049097745849142074,0.32383845379123527,1.2806469626044996,2.1878296168962947,-0.12502821811964857,-1.1048942259011616,0.3811653768434149,2.3883470047921866,1,left
6.382000000000001,0.7981895076920432,-0.06302238697107171,0.3177046878307702,1.3091358043684584,2.2190843262177076,-0.14846036624377223,-1.0464013376515378,0.26635168401850196,2.2555836733592836,1,left
6.386,0.8115884893158677,-0.07663806593964978,0.3155876159940831,1.2547371440417228,2.1627225710474454,-0.10585772990894018,-1.1433839038124791,0.45671880688603295,2.4757095385566843,1,left
6.3870000000000005,0.8138050833332819,-0.0858498358057071,0.31991691258996025,1.3249401194373451,2.2347296631957994,-0.16037180859264566,-1.0154659399556702,0.2056250840160369,2.1853667926721974,1,left
6.3870000000000005,0.8136558595265198,-0.08803147789449481,0.32278222382585936,1.2661868446074651,2.1747688992651417,-0.11493547323326866,-0.478440212018343,-0.8482321720239634,0.9665409316793552,1,left
6.393,0.8186859099757977,-0.09513941744451893,0.3241529314764489,1.2683275503660605,2.1758143205959275,-0.11587429405158088,-0.3504945005001935,-1.099294279764055,0.6761633073299609,1,left
6.394,0.8188850103189742,-0.1063439190585996,0.32550103875559483,1.3785568353813968,2.2920225668195062,-0.20347284278877695,-0.4475427007935836,-0.9090008133490414,0.8963717970800515,1,left
6.396,0.819745463417004,-0.11405664303237463,0.3286774276645174,1.1069738588406586,2.0070959502808297,0.011496590034880946,-0.38893508816342526,-1.0236877790150491,0.7634638219183836,1,left
6.397,0.8263193252212941,-0.12812513440609988,0.3267292916171247,1.5574442364985184,2.479314912709391,-0.34485262777304915,-0.4128876614793958,-0.9771442089713627,0.8176741999564836,1,left
6.401,0.8288748827069744,-0.14012071151408978,0.3197673079083442,0.9632551385128109,1.856507639262012,0.1251736853298843,-0.4130758632469237,-0.9763181814423191,0.8182520086239987,1,left
6.402,0.828552148744013,-0.1418028338012865,0.3187786471616093,-1.5299718975157146,-0.7589035347701085,2.0984090700422877,-0.4006576741050696,-1.0008837676650015,0.7900031610162539,1,left
6.403,0.8286590096031368,-0.1489233423676733,0.315271882362678,-2.1241071577161623,-1.3817239921706517,2.56849078024829,-0.41573792104516105,-0.9716823647771747,0.8240996645714218,1,left
6.405,0.8274200973249548,-0.15906479476913285,0.3075044404513558,-1.6736950310693208,-0.9094907722094293,2.2120816275791118,-0.4036805827946154,-0.9940832009628786,0.7971505174880327,1,left
6.406000000000001,0.8242825938654332,-0.16274897930990695,0.3035321097381548,-1.9453001542504793,-1.1944119401101416,2.427028260673812,-0.4106708526629053,-0.9825360796598145,0.8122991451597172,1,left
6.41,0.8186630377697015,-0.16528808534633466,0.2967578817321571,-1.8348776670275968,-1.0782510579713955,2.3396285339266374,-0.40836332387291957,-0.9844012207730624,0.8079409684327375,1,left
6.412000000000001,0.7999977668959947,-0.16179794006584797,0.29142359459561806,-1.8331526699993135,-1.0771037592863562,2.3382619284682704,-0.4073947869081801,-0.9884247980034826,0.8050421444784269,1,left
6.415,0.7666422342573956,-0.14433448225162712,0.2806155880352079,-1.8913098950252638,-1.1372105686874456,2.3843116154155304,-0.41028143267790734,-0.982778992543378,0.811587345263262,1,left
6.416,0.7482048754355365,-0.13314387183786197,0.24824295500438823,-1.8217004706305517,-1.0650580781860244,2.3291867725313136,-0.4062883027552882,-0.9866757986902595,0.8038248110661022,1,left
6.421,0.7474259992474497,-0.1378983991547073,0.23224327747140003,-1.875843006516496,-1.1214825097806638,2.37205293120126,-0.41105005598962363,-0.9863338237564784,0.8116606999380382,1,left
6.422000000000001,0.7358621754509782,-0.13153011350697327,0.25990044792700606,-1.8468445174261967,-1.0903527946153635,2.349145279063138,-0.40585580695362666,-0.9830968179364175,0.804304566840202,1,left
6.426,0.7116293197330473,-0.11708238716925458,0.29476943804046696,-1.8530144892781886,-1.0991132458626713,2.3538904990771803,-0.41055195267702616,-0.9881980848688391,0.8102375858402476,1,left
6.4270000000000005,0.6824592792376047,-0.11242643395329124,0.31019861962504297,-1.8615835866351984,-1.1041690207354393,2.360913884136665,-0.40826777922399005,-0.9844080452541023,0.8077836759002155,1,left
6.431,0.6505015974843036,-0.10869869602622469,0.3067692817817394,-1.847179878731597,-1.0938790009617319,2.3492147676162185,-0.4053949561344847,-0.982915014147891,0.8036172496360496,1,left
6.432,0.619848066501734,-0.10716989029779037,0.2929636473104815,-1.860545253341015,-1.1040600968734395,2.360032757376553,-0.41605993103898,-0.9931941440685391,0.8175218213829991,1,left
6.435,0.5916486050574832,-0.10830038991279335,0.2810368513798527,-1.852142702442082,-1.0952133157792505,2.353385268738032,-0.3968377497714107,-0.973039672552914,0.792997669068674,1,left
6.435,0.5655355629919314,-0.10866369789105773,0.2719292799575067,-1.854304043257132,-1.10459445474392,2.35464642321507,-0.4212733770204333,-0.9994033316496505,0.8239283500362851,1,left
6.44,0.5424889542318596,-0.11180912862983916,0.2636258101953315,-1.8577563302329212,-1.0919587667452313,2.358406362093824,-0.4009783674014531,-0.9771867942615872,0.7983441633255242,1,left
6.441,0.5232656471338125,-0.11298423846286301,0.2615022301583212,-1.850596810774171,-1.1087003133615383,2.351206131786447,-0.40143744304464035,-0.9779667429226636,0.7988322202102958,1,left
6.444,0.5062407799040611,-0.11409537586446597,0.2673848830279806,-1.8586029522535408,-1.0912460751502575,2.3591782765298115,-0.4403025577392572,-1.0199985957050428,0.8479933476714043,1,left
6.445,0.4938284822539535,-0.1174289053657848,0.2748244025593284,-1.8533858981299332,-1.1007118057434366,2.354103806318705,-0.3449382944071077,-0.9163694319724959,0.7275268940202188,1,left
6.45,0.4864935673670617,-0.11929155871342789,0.27785191647521124,-1.8518172628581704,-1.1119399951872584,2.3520477412182137,-0.5029802690251188,-1.0883437552712791,0.9270931776372104,1,left
6.4510000000000005,0.48254857599141543,-0.12164868098896492,0.2778049373459482,-1.863475888574018,-1.0678218369242118,2.364841203068025,-0.2945596642058097,-0.8614368240988528,0.6639471894088951,1,left
6.454,0.48104449311557673,-0.12168525097312952,0.27977893385036745,-1.8409896909803973,-1.148734281982012,2.340430135834028,0.5802625820061409,0.09102853787922766,-0.4405534314629761,1,left
6.455,0.47558481346532694,-0.12005902546176463,0.2806264947586436,-1.8700572971269982,-1.045039929845534,2.3719296077909124,0.788669245594076,0.3179720472799754,-0.7036691475874961,1,left
6.455,0.4681605768710859,-0.12064125774070965,0.2736678951373902,-1.8457112708770458,-1.1315305833325184,2.3455687787904065,0.6306627280505186,0.14591372962590263,-0.5041811980028631,1,left
6.46,0.459027757810751,-0.11783896721749558,0.26231705970665137,-1.8466727204543503,-1.1294963357337438,2.3465239814553387,0.725960564205409,0.2496851755945384,-0.6244986568291397,1,left
6.461,0.44648776344573005,-0.11474068128947469,0.25225853274273413,-1.8921039963368562,-0.9635619182472599,2.395998371548413,0.6871941896951017,0.207460237210237,-0.5755617361626868,1,left
6.465,0.4386719028410517,-0.1142689181608062,0.24295825948139413,-1.7800824653433018,-1.371054121059598,2.2741093058746094,0.6866220496692994,0.20687904814358377,-0.5748136288510016,1,left
6.465,0.43189561157254786,-0.10913725087032133,0.23138930137203587,-1.9659118669578217,-0.6954971359892295,2.4762832670700634,0.706999603288416,0.22898408164288164,-0.6005926600447605,1,left
6.47,0.4260714833233109,-0.10487692850278281,0.22353903978613976,-1.7207960347226678,-1.5865551983324568,2.2096083705839034,0.682581159510425,0.20251478072778872,-0.5696902959577661,1,left
6.47,0.42403636632445707,-0.10356978642862077,0.2222850001217328,-0.6923918452944564,-5.326932937887909,1.0906818658671025,0.7016113948380782,0.22311717055641994,-0.5937893814741613,1,left
6.471,0.41915063982855005,-0.09707668225379151,0.21607717564024953,-0.44731615533488045,-6.21802114099937,0.8240412590209076,0.6913568432669208,0.2120017251002015,-0.5808117360660989,1,left
6.474,0.41680754670353604,-0.0889753683364652,0.20908232563356827,-0.6330967399297618,-5.542467096672408,1.0261650761816052,0.6936391187355457,0.21459378850925598,-0.5836289353744002,1,left
6.475,0.4174046271840869,-0.08251548990588765,0.20921919598927352,-0.5210777669543991,-5.949820973879275,0.9043081058797139,0.6965254214921653,0.2173958246835711,-0.5874782276062036,1,left
6.479,0.4202008090051907,-0.07650660670965237,0.20749765237931908,-0.566613780861903,-5.784254330119588,0.9538103004774898,0.6915316966729724,0.21254485443657622,-0.5808202431664162,1,left
6.48,0.43253183045062693,-0.07218768515609991,0.20352728451878918,-0.5673236002742897,-5.7816022009278125,0.9546420411145731,0.6963033236271667,0.217020691137092,-0.5872779989897963,1,left
6.484,0.44731361794211305,-0.06909163605659575,0.19746515875695653,-0.5433593951222249,-5.868839921386688,0.9285091801479906,0.6930578221649475,0.21406065653319395,-0.5828349652531353,1,left
6.485,0.4584038744529842,-0.06644804791680109,0.18689346368720525,-0.5720205131289344,-5.7645750825922555,0.959718004150572,0.6943462136570757,0.2154690323201349,-0.5844583094838969,1,left
6.4879999999999995,0.4663771500436863,-0.06191291485522339,0.17977277465365102,-0.5497584974103984,-5.845411618224054,0.935550521838969,0.6948877607407529,0.21499240222395316,-0.5857837773694679,1,left
6.489,0.471004041217636,-0.056505967806058384,0.17580667404118588,-0.5616537561393449,-5.802525454482517,0.9483212618460111,0.6929401520270402,0.21530827167551436,-0.5818585091855659,1,left
6.494,0.47635981285426976,-0.054296073691166395,0.17429148570811642,-0.5591294506704776,-5.8110617637633135,0.9458699228007008,0.6956806187508995,0.2146573546722435,-0.5875058739572412,1,left
6.495,0.48184927686068624,-0.05240613261304261,0.17646882129244318,-0.5556688590625191,-5.824440895987263,0.9417424854386462,0.6929781374073384,0.2155896579512509,-0.581762148964385,1,left
6.499,0.4860472861577313,-0.050752317338761926,0.17584959144803908,-0.5614027628224181,-5.802953741945623,0.9482699165469037,0.6945419117658378,0.21505346155278646,-0.5850835579008146,1,left
6.499,0.4903532612552289,-0.051645650083293124,0.1767433840635293,-0.5562290238707759,-5.821760320962117,0.9426435265613722,0.6954047082405945,0.21406278467160067,-0.5873347458668352,1,left
6.502999999999999,0.49077304245576464,-0.0502180635061901,0.17719240929898789,-0.5592978298808373,-5.811791270044,0.9454457721505435,0.6910007283679032,0.2177145019755725,-0.5766909777323388,1,left
6.504,0.4883369607865778,-0.048013379350470425,0.17113767668710494,-0.5586945582496851,-5.811264076715634,0.9460158319373412,0.699199029638695,0.2109762081035787,-0.5964686627332985,1,left
6.507999999999999,0.4868376864645032,-0.048196510825736456,0.1655894891311907,-0.5573374244304051,-5.82025973237036,0.9427095044389449,0.6887124466215738,0.2196725534844935,-0.5711246909189307,1,left
6.5089999999999995,0.4842192371470371,-0.04504746183761145,0.15948751911268944,-0.5596099521908688,-5.807666178144325,0.9471327769027078,0.6974485766477159,0.21239213600820064,-0.5922589483408545,1,left
6.513,0.48293990000797976,-0.03953349465549684,0.15311893617041433,-0.5577431065799465,-5.81695698976343,0.9439742293744255,0.6971616400727203,0.21253428658744283,-0.5916247003914898,1,left
6.513,0.4825514600543891,-0.037081221720600195,0.14881055586553743,-0.557855877223441,-5.818703637819123,0.9431258362855387,0.6807200004916831,0.22665209310695794,-0.5515956122579704,1,left
6.518,0.48015716317434065,-0.03460236616588311,0.14543415371813423,-0.5605390604626059,-5.799506235388661,0.9502967660711139,0.7211690698381645,0.1919929587615776,-0.650026338452007,1,left
6.519,0.48024651668213714,-0.02911862732629303,0.14528517759398285,-0.5548126960129108,-5.837837683342634,0.9361810580748215,0.6541071751378695,0.24946446950912862,-0.48683222680224925,1,left
6.522,0.4817558438701717,-0.02544349779735114,0.14534849361495558,-0.5624358845874191,-5.787634410582353,0.9546011243116012,0.7425484513036724,0.17364538778510674,-0.7020644413702228,1,left
6.523,0.48101207444322835,-0.02432253038639485,0.14410711494655,-0.5559577274431511,-5.829962336299099,0.9390980007395733,1.1136567361810352,-0.14473938952283594,-1.605345190687329,1,left
6.523,0.4803601414490171,-0.018693040658544317,0.13932115197352968,-0.5563084296905345,-5.828175910283765,0.9397111909744275,1.202079385962052,-0.22058008111168526,-1.8205421801602037,1,left
6.527,0.47902806746876364,-0.009882477011164018,0.13000829341042766,-0.5681942862817657,-5.749169425144745,0.9687579727487732,1.1350463939855717,-0.16307474976724964,-1.6574052808064876,1,left
6.529,0.4794322313299258,-0.002166860094949372,0.12152168212156708,-0.538727122119735,-5.9442844356753906,0.8970836928153925,1.1754721346064483,-0.19776197096426257,-1.7557828456299145,1,left
6.532,0.4868122255585746,0.007021818571827312,0.11281864760212654,-0.5876800797750843,-5.620425076103409,1.0160299504136394,1.1590275428285857,-0.18364548371133826,-1.7157668183586199,1,left
6.532,0.49203160680016605,0.012967673546472292,0.10601477403740132,-0.523077340190919,-6.04772079586631,0.8591006883735222,1.158789644997552,-0.1834495636462879,-1.7151976505861892,1,left
6.537000000000001,0.4944355479759024,0.014351002481516559,0.10482649678627876,-0.2520231249864533,-7.840777739227027,0.20059960541718447,1.1674212868506488,-0.19084785288162864,-1.7361639905944322,1,left
6.537999999999999,0.5026301036920497,0.020529315054846477,0.1070432871897918,-0.18741372820562543,-8.268094248289277,0.04366613949537099,1.1570814442201791,-0.18198319446855327,-1.7110804247900286,1,left
6.539,0.5071160654008141,0.03152985083524273,0.1156511907135821,-0.2363969152420532,-7.944140662792808,0.16263148573601524,1.1651371480089372,-0.188888706439161,-1.7305726778964077,1,left
6.542000000000001,0.5027200010747274,0.04441299495750838,0.13013511069204053,-0.2068509291878138,-8.139501199773388,0.09090743348417397,1.1607898527675853,-0.1851635437125307,-1.7201041159052854,1,left
6.542999999999999,0.49187932413050384,0.059895375116278,0.14335754940094092,-0.21888104042609874,-8.060045511997426,0.12004530480497608,1.1617843289367564,-0.1860158332750282,-1.7224769766900412,1,left
6.547000000000001,0.47579200167764213,0.07820972916223896,0.1538993600895346,-0.21903369253629712,-8.058875663760766,0.12053343682301734,1.1629428249326739,-0.18700331766920672,-1.725199332598258,1,left
6.547000000000001,0.4583159575785795,0.10078329029252978,0.16486838108506607,-0.21274956498650616,-8.100599706349735,0.10515283211303858,1.1609271175686775,-0.18529120019069295,-1.72060420162172,1,left
6.5520000000000005,0.44090068236514757,0.12673738030588952,0.1729597616931141,-0.22029187648931942,-8.050647824402297,0.12352183007902126,1.162837199062393,-0.18690129585662021,-1.7247184987484272,1,left
6.553,0.4285035001333139,0.15499993780321225,0.17252107163636554,-0.21439180578390055,-8.089520646184402,0.10929643378548622,1.1615331888533653,-0.18581728457754937,-1.7222003140472315,1,left
6.557,0.4216573459686628,0.18484082377587138,0.17005099156873765,-0.21762511001702106,-8.068609977272706,0.11681473800807338,1.1621225340672288,-0.186295381170052,-1.7231122316203655,1,left
6.558,0.41993248396625493,0.21660551313675974,0.17217210362353919,-0.2167927262196514,-8.073299440862456,0.11536952863246051,1.162120427956133,-0.18629303362036606,-1.7231022702358925,1,left
6.561,0.42567724970079257,0.24938202439180707,0.1750767333052592,-0.21608495000838862,-8.078982163042301,0.11294287111035431,1.161747589762486,-0.1860249992506683,-1.72316470588948,1,left
6.562,0.4332126530918059,0.2786019643791837,0.17481971869289506,-0.21743361963796848,-8.069263358874277,0.11678278060698816,1.1622951748951065,-0.18637669811560037,-1.722281262926039,1,left
6.567,0.44166159415642564,0.30661348506360814,0.172231220291219,-0.21606803604918828,-8.078287943145513,0.11347110895245263,1.161728953396619,-0.18606695770737397,-1.7242092183541975,1,left
6.567,0.45184205772458275,0.33359843009983386,0.17086546191191188,-0.21717996830294023,-8.07241754099285,0.1151242404224859,1.16218604200622,-0.18627149996802111,-1.7217974285729096,1,left
6.572,0.4575530863186519,0.35417027182920524,0.17100529640434176,-0.21632887327001277,-8.074654996010189,0.11545126620119456,1.1619687590343208,-0.18619344820887318,-1.7233048766331591,1,left
6.5729999999999995,0.4587587213170553,0.37432904463214633,0.17294452010993167,-0.21700351498941128,-8.075253653046186,0.11351782051238396,1.161800940080449,-0.18614299205309565,-1.7246518754112385,1,left
6.577000000000001,0.4606164858657035,0.3936660764854233,0.1767767345503921,-0.21650195742787012,-8.07317482392343,0.11610790322183231,1.1624790682959651,-0.18631571035484024,-1.718619944369272,1,left
