time,gFx,gFy,gFz,ax,ay,az,wx,wy,wz,subject_number,foot
9.498,0.5910884671579875,0.7840671375970032,0.06051823509868965,5.470178312546079,-0.06535690190252784,-1.323554868359217,-0.19229433270621943,0.7281536311427943,1.0719394710862151,2,left
9.499,0.6231199012840137,0.7490287945443661,0.032558970953432756,5.476271972884365,-0.0610009468510045,-1.3260327347482577,-0.19258993862716295,0.7314320350638307,1.0726925835075316,2,left
9.503,0.6611270013864248,0.7161710444408111,-0.0018711061293862196,5.4609950595863825,-0.06809737689581621,-1.3201289768159592,-0.19224105011009504,0.7262248998333235,1.0713520827696736,2,left
9.504,0.7085934587519005,0.6834380363060861,-0.04299334406978016,5.479150690498434,-0.061797954920453,-1.3269733733087463,-0.19249077037298,0.7321955033006311,1.0730688657232639,2,left
9.507,0.763434178723607,0.6487528684872284,-0.08766939711719102,5.459510951427921,-0.06532261663891223,-1.319834170574227,-0.1923452209241552,0.7287505054309433,1.072079631490161,2,left
9.508,0.823148553909565,0.6176934679414114,-0.1347128697349233,5.4819504821857095,-0.06507392005752938,-1.3276872034437432,-0.19249056609022439,0.7248486536534189,1.070590283800473,2,left
9.512,0.8871105559603409,0.5889537279327293,-0.1808093614632167,5.456379094204154,-0.06269603432265225,-1.3189521538036015,-0.19220492327887664,0.7407174359319146,1.0762851462484733,2,left
9.513,0.9521330762234562,0.5679257271083071,-0.22440439158203487,5.4807455310459385,-0.06623647215971817,-1.3271731083772955,-0.1927173417069677,0.7113494476223952,1.0657640779637845,2,left
9.517000000000001,1.0127772736385272,0.5574512055990045,-0.2679017184401371,5.468607800782208,-0.06351696100159594,-1.3231548595396831,-0.19203675549916716,0.7491357883949258,1.079327466677663,2,left
9.517999999999999,1.0616021855821205,0.5506775110516265,-0.30892093990590797,5.452109446425115,-0.06326774500559113,-1.3174157000965359,-0.19261539052225773,0.7175558337791893,1.0679786344586681,2,left
9.521,1.095089093211352,0.5503638357875524,-0.33567856683112773,5.513177969792696,-0.0682229602744999,-1.3383347734793154,-0.19262774445868452,0.7183100775177718,1.068221814378556,2,left
9.522,1.1178771641296799,0.5552897554847547,-0.3462733468918234,5.402559140663239,-0.058121290135490486,-1.3005327553506372,-0.19140398920625512,0.7789505228188738,1.0901405570263836,2,left
9.527000000000001,1.1251630936707828,0.5601934547114715,-0.34847819313117945,5.543646841594493,-0.07141982593499752,-1.3487136294159117,-0.1943912258651771,0.6299833568735811,1.0363114218780258,2,left
9.527999999999999,1.1125849499701528,0.5639302698674815,-0.3369038743374946,5.426267239108835,-0.060181172423465774,-1.3086430472492274,-0.18943543881211616,0.8769802521004726,1.125572480487171,2,left
9.532,1.098488397247194,0.5651329352824512,-0.32209216288120235,5.4288111508133845,-0.06069345332963688,-1.3094898187195667,-0.1959797282151881,0.5511743804751544,1.0078159211022175,2,left
9.533,1.0916751370859226,0.5661821665748306,-0.31437928013283006,5.6543096855561625,-0.08156787942206131,-1.3865273352332999,-0.22351705798491409,-0.8166689224172796,0.5133943601692434,2,left
9.533,1.0724413743514405,0.5674919882058387,-0.287649180977835,5.100987976338381,-0.029964249095871948,-1.197525793031576,-0.23007292014838282,-1.142494448563344,0.39560077791276743,2,left
9.536,1.0264889909031347,0.5704625335189368,-0.2413875016295511,6.018056400670897,-0.11563164822114044,-1.5107632164699334,-0.22509904320286145,-0.8954668293725796,0.4849197103512157,2,left
9.537,0.9922597399135574,0.5746257080410848,-0.21451104604483545,4.808601020059104,-0.0026065261180341567,-1.0976606471511734,-0.22810124298061757,-1.0444594117813344,0.4310426999216296,2,left
9.541,0.9807868146842509,0.577310569553739,-0.20708313778825124,-0.2687243680635816,0.47171465645383137,0.636568205075347,-0.2268783555990847,-0.983820432279738,0.45295867887257085,2,left
9.542,0.9365916569684768,0.5849081826659341,-0.1886818538718364,-1.4780802362270051,0.5847158712295888,1.0496377378822253,-0.22686167490185594,-0.9830168898449951,0.45329472572243285,2,left
9.542,0.873300380976705,0.5990766139926924,-0.1660237229815697,-0.561228787151556,0.4990644774126606,0.7364751152946258,-0.22750369086666367,-1.014704474095871,0.4417431493378682,2,left
9.546,0.8209936190284595,0.6127649288100363,-0.14520321395961072,-1.1142042689266136,0.5507128729604931,0.9253519091686344,-0.2267328197440468,-0.9767648060090367,0.45559536037154846,2,left
9.547,0.7659408201431435,0.6201385962880076,-0.11120727646794118,-0.889146796527335,0.5296806395704268,0.8484810351418676,-0.22733465230996974,-1.0062846571051527,0.44478823304743614,2,left
9.551,0.7221427869873991,0.6220450971863315,-0.06656557475930697,-0.8861871319632765,0.529459797211072,0.8474662472408906,-0.22701026576516165,-0.990350044968329,0.45060708856165677,2,left
9.552,0.6918855266900799,0.6180271919004393,-0.016139642548068284,-1.0037359103795094,0.5403190973518733,0.8876251842237988,-0.22708039797353044,-0.9941242149274488,0.44935827057505073,2,left
9.557,0.6679794540087107,0.6048543360055985,0.034022857146106394,-0.863013029598126,0.5273502194926263,0.8395468752211832,-0.22717797607754947,-0.9979820537812609,0.44759135181427945,2,left
9.557,0.6549325176127876,0.5926397231141203,0.07601900878597384,-0.9724841387458092,0.5373989580355967,0.876950792093152,-0.22700878154180276,-0.9913000546922057,0.45064819895900066,2,left
9.561,0.647271783387645,0.5858885543686077,0.10927803311417612,-0.9133842785296393,0.5319548862205704,0.8567590024282803,-0.22717388604400557,-0.9973801103664622,0.4476633883298232,2,left
9.562000000000001,0.6403502374092453,0.582590280929489,0.1320640808412068,-0.9274667222903045,0.5334247897717633,0.8615580716937353,-0.22705977217440654,-0.9934057783841768,0.44972738155541037,2,left
9.565,0.6305111925823635,0.5921343971250257,0.14884408338007513,-0.9415386083325564,0.5342420688398745,0.8663998427977511,-0.2271002949200953,-0.9954306280945642,0.44900090263213566,2,left
9.566,0.6182971830502938,0.6147740155566094,0.1667181228483532,-0.917165067481317,0.5328224879564258,0.8580138433839666,-0.2271393612329204,-0.9942345104751384,0.4482696137160098,2,left
9.57,0.6058861616942435,0.6456422316095889,0.1843321429745226,-0.9392066762123161,0.5338289866057448,0.865617178692963,-0.22702763804811044,-0.995857081639482,0.4503425257568757,2,left
9.571,0.5922820109138979,0.6883344272186396,0.19542242856149775,-0.9248745925248147,0.5333294862648874,0.8606623216638938,-0.227189138950675,-0.9931787637897258,0.4473432086667681,2,left
9.575,0.5778417377540994,0.7417019330878527,0.19590122495164602,-0.9323927569440831,0.5340392664829372,0.8632296008704898,-0.22702388178451927,-0.9963760570063649,0.45041692655805055,2,left
9.575,0.5647162288154568,0.801137516129586,0.1825030081656307,-0.9271783374250138,0.531994236328426,0.8615593429720709,-0.22711938564480222,-0.9945323567073426,0.44863948590646097,2,left
9.58,0.5533449830376005,0.8629490316872213,0.15188056969884034,-0.934972929357502,0.536282963209932,0.8639686859630138,-0.22718661637949267,-0.9921839876643551,0.44738203534212667,2,left
9.581,0.5406095492914917,0.9236546169906888,0.10971132994939273,-0.9223874657160542,0.5297952402737665,0.8600472324825912,-0.22687299294219443,-1.0014788966791457,0.4532411947321051,2,left
9.585,0.5301534048258508,0.9813111013502945,0.06395957957939635,-0.9370744280650344,0.5368302210966672,0.8646617737811553,-0.22745542074351452,-0.9842902645843613,0.44235736051358293,2,left
9.585,0.5232378985398092,1.0316185888609,0.022291164623515294,-0.9286009521348775,0.5327663331958477,0.8619994571614487,-0.22670900949032136,-1.0064243183548065,0.45631026935082464,2,left
9.591000000000001,0.5194783200217856,1.0752803454189261,-0.006490367899105214,-0.9184826784779396,0.5290009817373228,0.858744467103985,-0.2273312821123784,-0.9879169033719424,0.4446716073021094,2,left
9.592,0.5262743693187226,1.1102483217716772,-0.02649144856203447,-0.959124799041234,0.5451414013453426,0.8717488392784423,-0.22731352971843544,-0.9883383102885193,0.44501656594907535,2,left
9.595,0.5378819395063995,1.1300970681024862,-0.040928558138176516,-0.8839321152201873,0.5152248546829772,0.8476920999702537,-0.2261321299546938,-1.0239680475316173,0.46708337487557006,2,left
9.595,0.5492688958326675,1.1398062827160587,-0.04769686528564254,-0.9807198615622219,0.5536619290727797,0.8786639413324404,-0.22903573194496948,-0.9364543142549835,0.4128219471856752,2,left
9.6,0.5645081217849863,1.1384731180318566,-0.05123168514873885,-0.8998055982140372,0.5215614091306433,0.8527677471842182,-0.2242224556493442,-1.081562447971594,0.502789093564346,2,left
9.6,0.5750202060710494,1.1291320978955186,-0.052837639357527715,-0.9017101318403127,0.5224058146157887,0.8533744660897358,-0.2305700577498611,-0.8901455535358733,0.3841289862960916,2,left
9.601,0.577972642748443,1.1242536053269112,-0.05390931866549813,-1.0572354182974246,0.5837253691906227,0.903168200036981,-0.2572300627195946,-0.08646302874509279,-0.11383218597502767,2,left
9.604,0.585988947499273,1.113665351933149,-0.054925044307904236,-0.675175985024111,0.4330238211942649,0.7808437933954786,-0.26357777458211734,0.10498525757894256,-0.2324795604728192,2,left
9.605,0.6037164144969525,1.091299534378659,-0.05617417976046495,-1.3086858323575188,0.6829008418358194,0.9836812852914602,-0.2587621639230575,-0.040173885687570396,-0.14253713511163157,2,left
9.61,0.6151063330270199,1.0783196889367515,-0.05834114835717416,-0.47300172880640023,0.35330263743557605,0.7161045230866876,-0.26167356849147827,0.04738730582847954,-0.19676503483573762,2,left
9.612,0.6191748809218273,1.0733262220874467,-0.05993851839452328,3.0353640726471647,-1.0301972140159248,-0.40718898994241076,-0.2604763837553935,0.011745760023919083,-0.17473245222054534,2,left
9.613,0.6383048435717802,1.0544837320284528,-0.06491082073539961,3.871181453634434,-1.3598139922056556,-0.6748198556043717,-0.2604817862725954,0.011266606074119098,-0.1743672448674071,2,left
9.615,0.6664978603379961,1.0289273972352753,-0.06733510192594724,3.2374725087636786,-1.1099117407427919,-0.47190507653709324,-0.26107951276690067,0.029923395037125836,-0.18599219132872363,2,left
9.616,0.6926484122198897,1.0043056819692553,-0.06310110752936116,3.6196715563714417,-1.260623834711661,-0.594273635555173,-0.26034673563446764,0.007557431830348455,-0.17210633812760096,2,left
9.619,0.7237670639776643,0.9769889200844315,-0.05854798421941893,3.464223695386639,-1.1993334409924723,-0.5445371505360718,-0.26094335172425703,0.025000568756291825,-0.18286207876805533,2,left
9.619,0.7549232602148264,0.9539399125839627,-0.05122607378363028,3.4618847479649393,-1.198401240857407,-0.5437157800842112,-0.2605717721332338,0.01554892153122919,-0.17717383203055492,2,left
9.625,0.781764485735224,0.9350269646965148,-0.04571291911043596,3.5436363018724544,-1.2306476976014182,-0.569992977940603,-0.2607461299726611,0.01778997740548712,-0.17827380764707068,2,left
9.626,0.8058963135055106,0.9183548610077694,-0.04770809021098539,3.4457469319964424,-1.1920402460697723,-0.5385502516187292,-0.2607022217740088,0.020166090460563856,-0.18009944360084607,2,left
9.63,0.8230751114187957,0.9066740902576963,-0.04996508090319414,3.5219123742725955,-1.2220768352902702,-0.5629800624794934,-0.2606600796631223,0.015946430364846345,-0.1772035274180124,2,left
9.631,0.832540089007752,0.8999390600454772,-0.05008715309206342,3.4810699832498404,-1.205975503923788,-0.5499885513338809,-0.26079511837012115,0.019990887036455778,-0.17970713761593216,2,left
9.634,0.8359203464405092,0.8978359306639923,-0.052422139757212494,3.4898615559455317,-1.2094305025453191,-0.5525286477445848,-0.26051808860316616,0.017112167428734885,-0.17844459758591533,2,left
9.635,0.8308132104967914,0.8975865357936543,-0.05771890485830505,3.50174022881385,-1.214133831257606,-0.5568050235306437,-0.26098502163473314,0.01868230812262618,-0.17822662288035818,2,left
9.638,0.8196627255039539,0.8968991959760173,-0.06228491844358761,3.4816859545065193,-1.206202948010911,-0.5498037773379687,-0.260346975289757,0.018103920202274054,-0.17964461578377516,2,left
9.639,0.8025513146222432,0.8968027332890015,-0.06386615929792916,3.5003251266932507,-1.2135709209204495,-0.5562341395304085,-0.2610057034330101,0.018075007821697818,-0.17773317465214816,2,left
9.644,0.7809791066009417,0.8982101561267939,-0.06462766298298302,3.4885001932727286,-1.2089080064467914,-0.5524521933960211,-0.26063950121411783,0.01852444574767622,-0.17910567761098325,2,left
9.645,0.7611402139546635,0.9005639127779312,-0.06492886772761951,3.491848446602231,-1.2101957718840146,-0.55266612838126,-0.26027902317807294,0.01756660999629197,-0.17945529556280512,2,left
9.649,0.7406859022833097,0.9024687693706144,-0.06208518453148583,3.4960064072178385,-1.211909824848538,-0.5559583159119987,-0.26177394277846455,0.01927670391090002,-0.17638757153333195,2,left
9.65,0.7219711243993039,0.9022027150644999,-0.05669070924905717,3.486974843406353,-1.2082373055137667,-0.5501414054994755,-0.25902120593599776,0.01669161349440524,-0.18243986765536174,2,left
9.654,0.702396276548501,0.9013096020811087,-0.05029362794233837,3.497129395045627,-1.2123601569761844,-0.5565108670303449,-0.262548693495093,0.019799844588530117,-0.17453768886306692,2,left
9.655,0.6812276555676484,0.9021968583384348,-0.04531138534173987,3.4904306390426303,-1.2096496757125643,-0.5525645784310971,-0.2596069500369259,0.017293879530513173,-0.18118982127403335,2,left
9.658999999999999,0.6603513674507432,0.9025916475253244,-0.041129956444965775,3.4887751351493224,-1.2089388759608295,-0.5504809887022916,-0.25968150888428476,0.017224962163722757,-0.18092525539286847,2,left
9.66,0.6358181010152759,0.9014013623648813,-0.03558263864796816,3.5027620223719236,-1.214711109539232,-0.5617569914358833,-0.265304158541366,0.022367280644456367,-0.16846600217532348,2,left
9.663,0.6132390389055358,0.9019477648260326,-0.029296629891819786,3.475607134682432,-1.2035256620677914,-0.5404567298993703,-0.2514919860106263,0.009925349892841918,-0.1992110995001751,2,left
9.664,0.5826555990195693,0.9060360381135726,-0.018244375857109633,3.5107471647809896,-1.2179968043466844,-0.5678937792977214,-0.2743899411193756,0.03048087974484826,-0.14818896483705735,2,left
9.669,0.5601646296986647,0.9086753532592933,-0.01054877574307311,3.481301935480996,-1.2058707647544253,-0.5449540323724815,-0.24418932746053254,0.003394131849988137,-0.21550260645563304,2,left
9.67,0.5542014297087511,0.9087035472140864,-0.009338458110806129,3.482518351027271,-1.2063691498215374,-0.545707257448621,-0.11741027154422452,-0.11039376934333525,-0.49799776105440985,2,left
9.671,0.5277596577934927,0.9111015830305216,-0.0010813074530954185,3.53728438316478,-1.228935136885434,-0.5890116653476045,-0.08721106441901888,-0.13747810973498972,-0.5653124346346214,2,left
9.674,0.49419888302286497,0.913182731195453,0.010714904796320809,3.4021857297698466,-1.1732680721309703,-0.4824215155584014,-0.11010696985583832,-0.11694111623583898,-0.5142793152144919,2,left
9.674,0.46266420468467406,0.916344709965208,0.023054173655966993,3.6263077708515086,-1.2656210313464484,-0.6591894351171024,-0.09629608836207419,-0.12932760753996395,-0.5450589414678875,2,left
9.68,0.43653594695714504,0.9213984207890551,0.03146845028279912,3.3306869948094944,-1.143801315658399,-0.42603382779054527,-0.10191993108687838,-0.12429298499443263,-0.5325313316484175,2,left
9.681000000000001,0.4298967132384278,0.9232630743250109,0.03418497162933175,2.0902964297768922,-0.6327917861919976,0.5525389915030006,-0.10198934766036188,-0.12420790050460323,-0.5323657030947281,2,left
9.681000000000001,0.4100668072607044,0.9275227533697391,0.04248996486156594,1.794725415782944,-0.5109968361971448,0.7856807069438483,-0.09905703894156459,-0.12687244990725163,-0.5389145212593515,2,left
9.683,0.3801782723446775,0.9339414503334004,0.03983559206356482,2.0188091632573917,-0.6033113785104567,0.6089157920213093,-0.10257255614052255,-0.12368402418982818,-0.5310670796655201,2,left
9.684,0.35744794848994843,0.9400448201170641,0.01726063754643,1.8836349699166153,-0.5476752884147873,0.7155542527829042,-0.09982976656709112,-0.1261593899741203,-0.5371851558604871,2,left
9.687999999999999,0.3342512557304306,0.950079234659265,-0.002649939277304594,1.9386931100091436,-0.5702452896577678,0.6721121758177656,-0.10132394575716468,-0.1248507237968632,-0.5338644339547218,2,left
9.687999999999999,0.318182397358799,0.9612784147468574,-0.008928503750593248,1.9393568555218497,-0.5706783416569282,0.6715964988333478,-0.10094689506939886,-0.1250875862810122,-0.5346746389957308,2,left
9.693,0.30893182261827334,0.9730502092903373,-0.0026009342920850233,1.9106433269311485,-0.5586913678726089,0.694242617228631,-0.10062001094196686,-0.1255556005076666,-0.5354547258949347,2,left
9.693999999999999,0.3053278139689311,0.986883152946322,0.015333453482358851,1.945130575622144,-0.5729673315756567,0.6670392942091115,-0.10121905518713076,-0.12480354478821086,-0.5340566451597937,2,left
9.697000000000001,0.30576524935493943,1.0019757241169898,0.034307607238522546,1.9181165195925813,-0.5619713860199333,0.6883476481850308,-0.10064567085031846,-0.12548911620022504,-0.5353846341776227,2,left
9.698,0.30646084118764105,1.0173053034504107,0.03945528327758634,1.932988466649276,-0.5676686180683158,0.6766199160551386,-0.10107385703823679,-0.12510668756211366,-0.53443076387528,2,left
9.703,0.308086812705216,1.0312635325667154,0.03854559209507172,1.9290402203444816,-0.5667820485449511,0.6797267905297457,-0.10076705560717569,-0.12506357698315318,-0.5350218651942698,2,left
9.704,0.30765361918454226,1.04450158283839,0.03911876382327381,1.9259750066804582,-0.5646113764908312,0.6821550939317488,-0.10104142737931421,-0.12554481720906344,-0.534622053888789,2,left
9.708,0.3085031339223848,1.0541362912928331,0.03439429713994842,1.9320069122592505,-0.5678200890873497,0.6773881857830097,-0.10073435375329812,-0.1247352056154643,-0.5349907352057015,2,left
9.708,0.3142898858334961,1.0580827244349011,0.031682584576582115,1.9257591612675524,-0.5652523769592506,0.6823165299688055,-0.10104262052190988,-0.1256153251831827,-0.5346401521863824,2,left
9.714,0.32541168754798905,1.0568641256124125,0.033736195955550594,1.9310999474645254,-0.5661105441277128,0.6781206342825726,-0.10089463743949599,-0.12507992334204868,-0.5347756504416828,2,left
9.714,0.34154008107281275,1.0491309101175728,0.034664956463279564,1.9266251953992037,-0.5673344362389569,0.6816109662607013,-0.10061795195603945,-0.12475159059321632,-0.5352245669395732,2,left
9.717,0.36132762508751237,1.0381937273894053,0.03726819925819955,1.930578878817183,-0.5643871126726839,0.6785515477112103,-0.10158465734269273,-0.12640643150525338,-0.5338036274015163,2,left
9.718,0.387585008404989,1.0235135738824483,0.04393812488213421,1.927359546145992,-0.5679392733340578,0.6810273351314473,-0.09983608566539451,-0.12329833056205079,-0.536340511228977,2,left
9.722000000000001,0.42034193280193943,1.0046145388159649,0.055525758018776475,1.9285528343095228,-0.5656117836493603,0.6801233845723911,-0.10207126313146253,-0.12729786751334277,-0.5331052531842186,2,left
9.722000000000001,0.45416455673503564,0.986805609880601,0.07103646235187189,1.9316550643020092,-0.5644607670254211,0.6777069601879904,-0.10020952015360507,-0.12395567279855683,-0.5357969593756677,2,left
9.727,0.4827254830447613,0.9657964487478338,0.08427985067168081,1.9219025959424891,-0.5710759158580305,0.6852623519151849,-0.1002438920550807,-0.12405894079667691,-0.5357590699645178,2,left
9.728,0.5038597088135168,0.9451881834781881,0.09172596119615459,1.939086579772511,-0.5584355311816374,0.6719637845132945,-0.10384580539987287,-0.13038899418385763,-0.5305125140112844,2,left
9.731,0.5202966113034414,0.9304910971822067,0.09672963343186887,1.917344493490931,-0.574800360503136,0.6887836195344377,-0.09501219869788949,-0.11481620309656476,-0.5433660405043371,2,left
9.732000000000001,0.5327010331547362,0.9140059843034245,0.09887865528541305,1.9353628272941465,-0.5610820410739643,0.6748485408047138,-0.10965301274782835,-0.14063933047778,-0.5220658952640913,2,left
9.737,0.5394468583141996,0.9043916185602228,0.09593687084645355,1.9350764729459224,-0.5615394174660462,0.6750622741815012,-0.09034327889297623,-0.10657988195787566,-0.5501586432089667,2,left
9.738,0.5413638914765115,0.9015672029865198,0.09501214733220731,1.9001805960349973,-0.5874681252622782,0.7020695182518212,-0.009256770310969397,0.03638115974705126,-0.6681406584054121,2,left
9.738,0.5445579406435515,0.8915342489371405,0.09428618916006204,1.9856656770030168,-0.5236149275758326,0.6359229739245107,0.010053121580151156,0.07043650372635812,-0.6962356502220037,2,left
9.742,0.5532902468420855,0.8834793100433014,0.08320136494981381,1.844026335174225,-0.6295319464049913,0.7455118959966347,-0.0045878633273298206,0.04461781592694436,-0.6749330757055702,2,left
9.742,0.5606032429827768,0.8816883590886619,0.07263668587557345,2.0308230827108176,-0.48981287319267147,0.6009914051373291,0.004245677892635255,0.0601923004782669,-0.6877856843635137,2,left
9.747,0.5620546624123177,0.8800580648022848,0.06968835457823108,2.814868418987987,0.09661377315126018,-0.005688429743259338,0.000644332650550119,0.05384750718112545,-0.6825471700430624,2,left
9.749,0.5650139053395256,0.8797586953757541,0.06039904622815458,3.001686956935113,0.23633222554697786,-0.15021413150052593,0.0006087390262994779,0.05377594778489042,-0.6824919704726007,2,left
9.749,0.5707345004870645,0.882919112491616,0.04585973200001288,2.860048613903748,0.13040575289251405,-0.04063896129155175,0.0024722332088030004,0.057072683742614774,-0.6852085019814591,2,left
9.751,0.5743642090615902,0.8927156381132857,0.034592713248999256,2.9454376843903614,0.19429507085877334,-0.10671468248929694,0.00023531253029823913,0.05311840805092889,-0.6819485155304945,2,left
9.752,0.5748010760827014,0.9073579586227243,0.02340645212629321,2.910799459958434,0.16829019622597424,-0.0798677278628351,0.001984635216616788,0.0562069910662261,-0.6844960832657776,2,left
9.756,0.5704840498583019,0.9231289016517805,0.012463699644132673,2.9100786168333936,0.167947306831311,-0.07940370094317054,0.0010194294079598494,0.05451325735629374,-0.6830963459070472,2,left
9.757,0.5626485604470707,0.9413521459491527,0.0027674548289247417,2.9286239397650737,0.18154102173769715,-0.09362192055141738,0.0012912889175387323,0.05496682901463981,-0.6834769086395391,2,left
9.761000000000001,0.5530357974143041,0.9627716727701761,-0.01154351057492824,2.906476969583797,0.16525087520550358,-0.0766147290749774,0.0014475847521235536,0.05528646487348077,-0.6837302148869733,2,left
9.762,0.5418401958384522,0.9837295366298482,-0.02811073073694015,2.923613027494163,0.1779507644380306,-0.08981848239482396,0.0011291189178812124,0.054671116733646954,-0.6832350183733962,2,left
9.765,0.5311256763227299,1.0024197113166808,-0.042544004273951316,2.9147212199909642,0.17106011987926184,-0.08282872613910058,0.0014443195971626326,0.05526968093913804,-0.6837190426714412,2,left
9.766,0.5208846171549165,1.0207865446013953,-0.05580668309627372,2.9159335493193055,0.17273495632851682,-0.08411940745356924,0.0011700297716389135,0.05478646509196804,-0.6833201438490295,2,left
9.77,0.5110979230407332,1.0373668047031903,-0.06357978751784799,2.91988218500779,0.1743663225354798,-0.08656774060604337,0.0014617276889668878,0.05522144152914897,-0.6836974639048787,2,left
9.771,0.50146064858608,1.0511945617609175,-0.0683130684403391,2.913813478811245,0.1714492264889968,-0.08261646531396832,0.0010680407969734934,0.054708498252265106,-0.6832323640469623,2,left
9.775,0.49151327981557447,1.0640531596230878,-0.07530436206281221,2.91924374537226,0.17421784120315506,-0.08622488912676679,0.0015899715873807284,0.05535853884025977,-0.6838310196899143,2,left
9.776,0.480388167561246,1.0763730715085347,-0.08069753865445836,2.9166127379672444,0.1722380989420308,-0.08418380667233591,0.0010457612120124459,0.054686968013603406,-0.683210629864617,2,left
9.78,0.4653551878955233,1.085534721772793,-0.08023146989314797,2.9150132316767614,0.17344215646705138,-0.08404692298162302,0.0013409913513459317,0.05504123003878188,-0.6835410251610268,2,left
9.781,0.4494095183305056,1.087630675588146,-0.07717847103548987,2.9213074024894015,0.17266451053847093,-0.08640172086636863,0.001690664159117079,0.055514126175284687,-0.683964649381836,2,left
9.785,0.4340733101414159,1.0834070376609808,-0.07476446323907801,2.9112855152402326,0.1733518796048097,-0.08239954911282421,0.00031611103093012695,0.05371852209101492,-0.6823380361610851,2,left
9.786,0.41465365564414114,1.0726800516946575,-0.06630174502232297,2.922086903339098,0.17270715092284467,-0.0867572710053427,0.002837134006805361,0.05699922702765034,-0.6853134225537094,2,left
9.79,0.39263810910512037,1.055095661487543,-0.053424586049298894,2.9156597405004114,0.1729406275464552,-0.08409517107402972,-0.00039370679224908607,0.05279742131706825,-0.6815023178208808,2,left
9.79,0.372519916827371,1.0353482134244136,-0.04204740678365017,2.9110408503406506,0.1738306902317467,-0.08251395413475968,0.0023010655342471037,0.05630132471257869,-0.684679925253792,2,left
9.795,0.3498134332955784,1.0137331659352178,-0.029832633073438065,2.932763991572351,0.17106281242477048,-0.09060270729151858,0.002237778804859716,0.05622250002317079,-0.6846090644711214,2,left
9.796,0.32523504014455185,0.9933104416124043,-0.01924005410886341,2.8922055305845507,0.1759923778718942,-0.07539051901837757,-0.0029323970423508045,0.049487663277342525,-0.6785010567287546,2,left
9.802,0.29879940947239386,0.9780427030926072,-0.014259119595295956,2.944346303277717,0.1697082367975315,-0.09497198682460127,0.009764005873539417,0.06602316402442537,-0.6934952805893861,2,left
9.802999999999999,0.26122504629855225,0.963137442996967,-0.015028960792812917,2.900790811020398,0.17493605200378537,-0.07860372669836935,-0.011284432227309557,0.03861013926994625,-0.6686396461797979,2,left
9.805,0.23505716883743555,0.9532763465530043,-0.018346764957173967,2.902067019888098,0.1748655025204352,-0.07912372191715142,0.01647826926098123,0.07476862562990687,-0.7014229018307216,2,left
9.805,0.22826399399418953,0.9509872482142181,-0.021061985289803464,2.9848015196157096,0.16466436523724015,-0.11008539289646449,0.13302135217788233,0.22653078174145572,-0.8390764635614743,2,left
9.806000000000001,0.20636456684318288,0.9447457724078305,-0.027792732190481576,2.7813334766430144,0.18965390377958408,-0.03389166650934541,0.16078513999638963,0.2626901130983049,-0.8718624910549331,2,left
9.809,0.17673411722416466,0.9361073321722735,-0.042129915256060094,3.1187254038178,0.14824166575293787,-0.16025214758062667,0.13973610536754122,0.23528089640199445,-0.8470005875483316,2,left
9.81,0.16441202822083845,0.9335727535107153,-0.05244911615660603,2.673701004355988,0.20286248498544213,0.006424016438286606,0.15243001110447352,0.25179932296405594,-0.8620052537527698,2,left
9.814,0.16066470761007545,0.9316163436973384,-0.05650823875033862,0.8058975224335627,0.4322347577733431,0.7058758559055877,0.14726796056855068,0.2451020020578013,-0.8558833144585767,2,left
9.815,0.15213417422501674,0.9262205260889498,-0.06688331322466974,0.36087785356474805,0.48686443438467164,0.8725524302563588,0.14719001483731542,0.2449654941904617,-0.8558264763360462,2,left
9.816,0.1429122984659952,0.922595556934227,-0.07688060247573031,0.6982646715130805,0.44544261369430477,0.74619150414481,0.14990354456966218,0.24853365998908836,-0.8589967501216383,2,left
9.82,0.14122811123711027,0.9211852747461571,-0.07965555281386608,0.4947946501753393,0.4704285059216733,0.8223850655369136,0.14665684903999027,0.24429090003636947,-0.8551769947762207,2,left
9.821,0.14088028716890424,0.9234787721520131,-0.07893330581035074,0.5775461928873398,0.4602591598970686,0.7914248592428357,0.14917946948467417,0.24754649589866434,-0.8581857385520966,2,left
9.824,0.14028200937243485,0.9324520814577186,-0.07317533112225136,0.5787857753786192,0.4601202096916728,0.7909017072627345,0.14783061338229292,0.24588463505602,-0.8564982911936477,2,left
9.825,0.13966147784898517,0.9437166447190033,-0.06394869321448451,0.5352827628809727,0.4654460959047402,0.8072744977920103,0.14811829529919146,0.24609629450452955,-0.85700044144316,2,left
9.829,0.1330594932165987,0.9560933354386992,-0.05790401690606506,0.5873713204452558,0.4590642987602529,0.7876885133444298,0.1485085374497957,0.2468043996828662,-0.857262205072822,2,left
9.829,0.1249243551202981,0.9710467919531838,-0.06121650285243749,0.5468353080568165,0.46403599693274544,0.8029026603154912,0.1478602568688826,0.24580082906042558,-0.8566552333153429,2,left
9.834,0.11415363478913772,0.9858398033441585,-0.07067756937340183,0.5686034742824744,0.4613519868975058,0.7948177629551159,0.1484464308610325,0.24656277340303026,-0.8573489917692412,2,left
9.835,0.09875274824786073,0.997964929810777,-0.08371328275429088,0.5638398683993345,0.4619719045823298,0.796386520264424,0.14809643270005235,0.24640259482843754,-0.8566411440188496,2,left
9.84,0.08615527358263869,1.0070225458286348,-0.10068988625238051,0.5576618738381659,0.4626708430252324,0.7990701108294749,0.14816998523851338,0.24582280296342873,-0.8574008901431984,2,left
9.84,0.0740860134587793,1.012711600268751,-0.11617672271583983,0.5681576643077348,0.46145488591256356,0.7946859909814775,0.1483160580002199,0.2470208961502842,-0.8565696725332321,2,left
9.845,0.0629267732077265,1.0137235401516045,-0.12808016856972798,0.5583791239168828,0.46259765099031813,0.7987092436880645,0.14806672035783933,0.2456217380028143,-0.8573451182255326,2,left
9.846,0.05519113112986661,1.0089770336647281,-0.13407431479914475,0.5646761317116368,0.4618240976101635,0.7963545525011542,0.14827358532397047,0.2465120388801375,-0.8569713522169022,2,left
9.849,0.04822414587168462,0.9994858657620471,-0.13221649285661552,0.5626235046224468,0.46218298200302776,0.7964525018615467,0.1482566719587456,0.24702496858796302,-0.8564182107244799,2,left
9.85,0.046501163797294305,0.985678937218328,-0.12458306233650439,0.5610268167381719,0.46213467913953793,0.7985827091405409,0.1479704707099998,0.2443104490162002,-0.8584128095291463,2,left
9.854,0.04970675519488624,0.9651529764114597,-0.1143074226226769,0.5649150177103519,0.4620219502966392,0.7948412084016203,0.14858638786614387,0.24945569241314225,-0.8548146997685845,2,left
9.854,0.058065774914157035,0.9405843758460642,-0.10651179766506663,0.5604890017333786,0.46217637295928404,0.7989344891940234,0.14776476433052635,0.24280864612663733,-0.8593982082843146,2,left
9.857999999999999,0.07394060509648254,0.9158327312956066,-0.10127380526195814,0.5634905307522008,0.46203314483503943,0.7964038654768364,0.14846379866785125,0.24837536783789624,-0.8555875979657559,2,left
9.859,0.08886404098860773,0.8898996361283881,-0.09412140245825643,0.563880014066702,0.4621778038562238,0.7950429951130111,0.14842457005098278,0.2481973757242648,-0.8556657010277002,2,left
9.863999999999999,0.10089440213953578,0.8658872114325118,-0.08611362616188444,0.5585758687326112,0.46198304484205865,0.802341514071711,0.1471455783184657,0.23765508075592331,-0.8629979749830998,2,left
9.865,0.11140835661245721,0.8477507678586349,-0.08360439819521366,0.5690642098663652,0.46226570820179247,0.7885644799045972,0.15031875608233525,0.2636070307905236,-0.8450132000278401,2,left
9.869,0.11533480960270456,0.8359429935581715,-0.08484038967015778,0.5554475815759112,0.46191955191556167,0.8063085036003962,0.1450460520943278,0.22056128534216138,-0.8748176622437206,2,left
9.87,0.11663743951609057,0.8295686473191919,-0.08446456885830587,0.5668797400185719,0.4622028760932284,0.7914740202341248,0.15200521686834462,0.27734561365143495,-0.835512659245361,2,left
9.874,0.11621274553661905,0.8289896659768295,-0.08562110977880588,0.566331786883208,0.46221929727460676,0.7919574662458986,0.18119444570671828,0.5156532228958386,-0.6704861150851773,2,left
9.875,0.10821986041275146,0.8323808824243052,-0.08279344513768737,0.5453043444727383,0.46159681074703257,0.8199726831135301,0.1881552123257001,0.5724419631792659,-0.631185661096157,2,left
9.875,0.09769922835587855,0.8378666143275733,-0.07702354709549766,0.5972789274517728,0.46310150485458135,0.7510204450866926,0.18287846542473252,0.5293884361581331,-0.6609824737145522,2,left
9.878,0.08643563992518438,0.8500605003255689,-0.08391107995640464,0.5110147454400281,0.4606094744519892,0.8653679777697618,0.18605916548858223,0.5553492254826832,-0.6430054890483701,2,left
9.879,0.07777219617669037,0.8591880062563002,-0.09190847606847052,0.6248216593002807,0.46390142624619324,0.71454626776557,0.18476905572946867,0.5448007986646538,-0.6503341693219609,2,left
9.884,0.0752285476675148,0.8629625986196627,-0.09080168340580258,1.1019768857361658,0.4776945598880601,0.08154836465470693,0.18474248088647613,0.54462132548794,-0.6504066972279526,2,left
9.884,0.06659554996356568,0.8777074780177719,-0.09469971101675954,1.2157884728885535,0.4809994057315641,-0.06925610169859464,0.18543239360779507,0.5502019193084728,-0.6466147346060438,2,left
9.885,0.053157833098348664,0.8967058593916497,-0.10143120618114167,1.1295192377756313,0.47849342597895944,0.04507277175251672,0.1846085848366907,0.5435263842668742,-0.6511663660226155,2,left
9.888,0.04291042077606273,0.9131269754522315,-0.10412766835383072,1.181491886762039,0.47999281013245054,-0.023886552255935497,0.1852463699553481,0.5487111709656589,-0.647606722839878,2,left
9.889,0.03254873753428672,0.9292570643263726,-0.10408599472694291,1.1604812388224712,0.4794166072854313,0.0041905300151605165,0.18491382889910146,0.5459583224623782,-0.6495717521599946,2,left
9.892000000000001,0.025259996111523957,0.9418319054928942,-0.10060354511095376,1.1598971653802774,0.4793334490318158,0.004540851550968002,0.18496323845810939,0.546486693164514,-0.6490158990144785,2,left
9.892999999999999,0.022901062099803866,0.950244652272664,-0.09488395581736397,1.1713811009099708,0.4797595453119601,-0.010102747721256659,0.18510291908518306,0.5474117179785484,-0.6487024211780685,2,left
9.897,0.024127076951812446,0.9516495319975973,-0.08501071014122147,1.1577129285658976,0.47927122355568413,0.00745118200281509,0.18488601765715262,0.5459048088269618,-0.6493448103014112,2,left
9.898,0.02987892275181008,0.949086558555276,-0.0732328498435324,1.16822348192642,0.47961521800744356,-0.006243805530007342,0.1850809613272747,0.5472861286350069,-0.6487079274565324,2,left
9.902999999999999,0.0373827620163055,0.9435778192122122,-0.06095184736655062,1.162963662776651,0.4795425627511001,0.0012178926537407854,0.1849828891070185,0.5464838940884649,-0.6492662050404665,2,left
9.904,0.04416518699758102,0.9352363899994545,-0.04721949399203349,1.16321047059676,0.4792939343983513,-0.0006687202871168011,0.18493697908334056,0.546497820096032,-0.6486639516413624,2,left
9.908,0.0478114607521026,0.9280447193904046,-0.0404959994941892,1.1664577721826381,0.47982833257689095,-0.0022934125494839144,0.18514016539993894,0.5472681389597507,-0.6494848053869786,2,left
9.908,0.048954626789432555,0.9215738604674648,-0.03751497702615763,1.161730198854017,0.4791511637263719,0.0006880048937375396,0.18481353043661022,0.545926875773541,-0.6483933251406435,2,left
9.912,0.04994946679504782,0.9199423602974781,-0.03413238058068967,1.1658587154853706,0.47970138106060173,-0.0021669777457871075,0.1851660937270897,0.54739243778857,-0.6495320256317088,2,left
9.913,0.04599239386001776,0.9212212109599341,-0.03442266486821488,1.1642644003623732,0.4796590753229733,-2.907021170483505e-05,0.18495547980847193,0.5464891570112933,-0.6489132994724814,2,left
9.918,0.037390189140625196,0.9242136148596243,-0.0344401470222437,1.1617652806590737,0.4787875021276712,-0.0015758053656074198,0.18480816907980432,0.5459903468441123,-0.6481858844528678,2,left
9.919,0.030917428946877205,0.9301343256019796,-0.03498551648953374,1.1690822531722698,0.48082579169903383,-0.00017148252095094377,0.18550888946374952,0.5486313887427595,-0.6510516125225925,2,left
9.923,0.024894332833990576,0.9338300108280868,-0.03433625204980861,1.157782427374655,0.4777738736236963,-0.00175635913688761,0.18419931686264945,0.5436509255906903,-0.6457945867676484,2,left
9.923,0.01695815342547814,0.938414118399959,-0.03406296425057259,1.1698995322950907,0.48102938981006704,-0.0001617226852994669,0.1858830958977241,0.5500645764520837,-0.6525317875156171,2,left
9.927,0.010629422874094272,0.9404701347743221,-0.039090757097761004,1.162785457925462,0.4791450140155476,-0.000933225337104535,0.1844765388091399,0.5447027048888193,-0.6469127544954788,2,left
9.927999999999999,0.008453745578149208,0.9405792131781638,-0.04282208055563367,1.1572126661012327,0.47753706267743756,-0.0023411076573763333,0.18451799719411688,0.5448764899891037,-0.6470441934688047,2,left
9.931000000000001,0.01026939097508787,0.944509612417703,-0.047791658157822985,1.1825174615127327,0.4846011994333269,0.0026048515320765578,0.18718876424036013,0.5550063225080779,-0.657825629596946,2,left
9.932,0.014937359865629257,0.9466043188263824,-0.051315017091547045,1.1354247102355943,0.4714957176537204,-0.006348385317728777,0.1806204951931955,0.5300748253718535,-0.6313511892127361,2,left
9.937000000000001,0.023276886523838282,0.9529256754148715,-0.048438378014668895,1.1959304795276942,0.4883250584336974,0.00509926135242049,0.19151178787387074,0.5714208423530824,-0.675239652900149,2,left
9.937999999999999,0.030236923286784213,0.9589122677887373,-0.04828836443264306,1.1454032365796416,0.4742743619374669,-0.00443862670140164,0.17714647820295518,0.5168853090059756,-0.6173531150267664,2,left
9.942,0.03220301356088967,0.9612054919911633,-0.04924723961480353,1.1468262695244582,0.47465702124707526,-0.0042552172112100325,0.11685310050413349,0.2880133292916587,-0.37434621952044267,2,left
9.943,0.03796415606027414,0.9716704348353087,-0.05036889320754645,1.2429875967792667,0.5014417422312424,0.014178439943916833,0.10248930861578437,0.23348229576621865,-0.31646267450119653,2,left
9.943,0.04554438034935966,0.9833724662727659,-0.052941733070250886,1.0065714677064803,0.4356048219515466,-0.03104269617206272,0.11337822590236925,0.27482288479937,-0.3603440861882256,2,left
9.947000000000001,0.0482930054089636,0.9988297303069626,-0.05098764085167063,1.3985741937521818,0.5447670020479061,0.04391555485430704,0.10681192949091342,0.24989151754549077,-0.3338819232620224,2,left
9.948,0.05026043749697613,1.012590520616064,-0.04822427459040118,0.8815267237519621,0.4007815289156698,-0.05495498148561373,0.109482789332524,0.2600334142743068,-0.3446462504051785,2,left
9.951,0.050400660513593196,1.0157857114591184,-0.04776780241141375,-1.2887305911823743,-0.20358098049698006,-0.4700405520117571,0.10952047095802733,0.260178512568192,-0.34479589564038304,2,left
9.952,0.04780045272802429,1.0275498364152797,-0.047996904533704865,-1.8057656363474817,-0.3475682158637249,-0.5689254371103691,0.1081221929767306,0.2548599571443316,-0.33916565531500853,2,left
9.953,0.04715339473707485,1.0426551201674503,-0.050095882919074214,-1.4137763573485835,-0.23840412704312205,-0.49395165998077206,0.10979415006727232,0.26122774459043085,-0.34589540728746915,2,left
9.956,0.04743088347807575,1.0531859677242816,-0.051166408203229506,-1.6501975843263068,-0.3042403296193231,-0.5391668976439643,0.10849632256985613,0.25627213978741115,-0.34067615436886856,2,left
9.957,0.046958489163982854,1.0650961155070857,-0.04968942386652271,-1.5539916964522948,-0.2774619177298645,-0.5207847241101494,0.10919188385747866,0.2589408838625043,-0.34346864167771773,2,left
9.962,0.049848322186514984,1.0712278221496883,-0.047961458170157484,-1.552664561688028,-0.2770656733599354,-0.5204905329444747,0.10903485459662839,0.258332743358648,-0.3428401641924813,2,left
9.963,0.05468988593989903,1.0743192673821784,-0.047966531351169024,-1.603054289785417,-0.29113585627991173,-0.5301872659784692,0.10885593441710606,0.25762924801220743,-0.34212871655001753,2,left
9.966000000000001,0.05769900740870588,1.0770358779413909,-0.05312905692761877,-1.5426854769697727,-0.2742871008405886,-0.518581434693657,0.10915373337384973,0.2588375167334086,-0.34329867291644434,2,left
9.967,0.06308368161004613,1.0757310077407276,-0.06265411237609475,-1.5897190962111447,-0.2874009787176153,-0.5276029404361122,0.1088944528491541,0.2577194570338449,-0.34230551413399957,2,left
9.971,0.07268404154967034,1.072131535567079,-0.07129040159255955,-1.564296781889202,-0.28035346970192254,-0.5227927812968975,0.10904371749109146,0.2584501680543661,-0.342843654045117,2,left
9.972000000000001,0.08217138486839665,1.0671550271937513,-0.07711806572788732,-1.5702482844056174,-0.28190778308762443,-0.5237631543115504,0.10899785210537472,0.25814528285866045,-0.34270930713319003,2,left
9.976,0.08867813687507697,1.0624040865033746,-0.07894460616459872,-1.5767097394958562,-0.2838846220996456,-0.5252885376106087,0.10899864692769311,0.2581471453529616,-0.34271304023633586,2,left
9.976,0.09263360228841822,1.0572144788289484,-0.07810597012582163,-1.5653936521643002,-0.28051558495483897,-0.5227686647558214,0.10896664540170994,0.2582682662646341,-0.3424901876770298,2,left
9.98,0.09272883066670927,1.049360631249831,-0.07752078499672055,-1.5760547335760218,-0.28365807520941894,-0.5250912379089081,0.10908923356147887,0.258179191838714,-0.3431986635543356,2,left
9.981,0.09171428692017264,1.039596183555008,-0.0747190168510365,-1.5687323783314617,-0.2816204367906985,-0.523693366276395,0.10886562394289659,0.2581574879400045,-0.34197765863474533,2,left
9.985,0.09651868668496169,1.0307945029800116,-0.07170664350160291,-1.5724161288634697,-0.28232428970355444,-0.5238714133629065,0.10912781259827392,0.2582709816169788,-0.3433752077787714,2,left
9.986,0.10093220625770259,1.022976035296428,-0.0706672663789416,-1.5713026071311833,-0.2827501751938397,-0.524861636098447,0.10896868671565849,0.2581765297526809,-0.3425370112087729,2,left
9.99,0.10196814173196403,1.0135082306318108,-0.07302816916893962,-1.5712141931890646,-0.281627491941277,-0.5230497779020407,0.10882843543035697,0.25808308790966583,-0.3418018324141869,2,left
9.991,0.10690246287142419,1.0059091312164523,-0.08618219480242434,-1.571634369601866,-0.2829152020382257,-0.5250435428955178,0.10945156985587633,0.2585267596032501,-0.3450564635404887,2,left
9.995,0.1119907927333665,1.0009249122334574,-0.10207131782846143,-1.570876793014225,-0.2820275597812874,-0.523793235846429,0.10828714037943676,0.25767077259395055,-0.33898535561465526,2,left
9.996,0.11538620821728887,0.9966558618997546,-0.10624377151493541,-1.5727733629902252,-0.2819731672335868,-0.5232025526263899,0.10978845619635967,0.25879287553683983,-0.34680548298704117,2,left
10.001,0.11942504165777929,0.9949417117507184,-0.10050692589500448,-1.5686467832212263,-0.28337510566475177,-0.5265848480566879,0.10853231308177569,0.25784603979894305,-0.340265959594132,2,left
10.002,0.1251536425437734,0.9915320893680629,-0.09497029406140318,-1.575545888185742,-0.28056465109677253,-0.5201686329477055,0.10856625242899043,0.2578703200811198,-0.3404420760594271,2,left
10.005,0.13554376925065864,0.9867519640327832,-0.0976048890512157,-1.5668567180686575,-0.28422129924378753,-0.5284393838999395,0.11096629910564693,0.25969684091008083,-0.3529326888103457,2,left
10.006,0.14627694337191322,0.984662570079907,-0.10361083675415447,-1.5740414936216154,-0.2811482845186527,-0.5215218938026268,0.10506522122629731,0.2552018296983125,-0.32222524639401606,2,left
10.01,0.1587514320223823,0.9835073170436035,-0.10464129153475062,-1.5741116630621865,-0.2813073098037834,-0.521758335732722,0.11485148162300882,0.26266092204155067,-0.37314682754659784,2,left
10.011000000000001,0.16779100818818388,0.9833109767775783,-0.1028578657666246,-1.5595455486792382,-0.28692061950154923,-0.5347862589813572,0.10194192264503926,0.2528176947784438,-0.3059759830831881,2,left
10.012,0.16936371266922173,0.9830469987170218,-0.10308890544816857,-1.595033506468342,-0.2730319279982313,-0.5027081243708074,0.04775836564126752,0.2114834856454274,-0.024025226470565,2,left
10.015,0.18206975387711793,0.9854335669424196,-0.10571142194308496,-1.5362762154723615,-0.29608686633663245,-0.5559087222721688,0.03484796103270831,0.20163582263044266,0.04314970670311978,2,left
10.016,0.19454153583011047,0.989422460311205,-0.10776097030153121,-1.6137663144132417,-0.2656704841606772,-0.48573805095980493,0.04463477743035717,0.20910258515790686,-0.00777720395424252,2,left
10.02,0.19617762204154726,0.990259544995345,-0.10816301726972373,-1.9394266029945733,-0.13813052626369302,-0.19125873643857424,0.03873531882024093,0.20459923013267828,0.022931764277702264,2,left
10.021,0.20626108050981584,0.9953749544318428,-0.10684964016655207,-2.0169381460374183,-0.10770937499988628,-0.12109885700115541,0.04112970969917517,0.2064307960600629,0.01044921131719991,2,left
10.022,0.2175182015495385,1.0019663442683222,-0.10607745645366379,-1.9581634891183355,-0.13077626658941194,-0.17428567552155586,0.041174067358079214,0.2064582270365946,0.01025133422704168,2,left
10.024,0.22501728630042078,1.002634421353043,-0.10945562725871605,-1.993621954431817,-0.11686547514202496,-0.1422105499776867,0.03990438809376805,0.20549566002044706,0.016825596433515506,2,left
10.025,0.2342939056007206,1.0035524639042799,-0.11358038379982538,-1.9791754099770191,-0.1225112759508666,-0.15526184539466248,0.04141743268626652,0.2066474363177112,0.008966455280447577,2,left
10.03,0.240155264031488,1.0042928469386436,-0.11667048738880076,-1.9790167760146498,-0.12263353335404578,-0.15543773859630203,0.04025119228434165,0.2057526306908271,0.015062609309265467,2,left
10.03,0.24614482132414592,1.0025924420618975,-0.11962715448497263,-1.9865068179482395,-0.11958670249556463,-0.14861527808019495,0.04085676787652917,0.20623077088968172,0.011822551833111193,2,left
10.033999999999999,0.25075528892596366,1.0011163765437616,-0.12081591124878481,-1.9775421362060683,-0.12325042199897408,-0.15678113755108092,0.04076019439083112,0.2061294200081138,0.012478234574854237,2,left
10.035,0.25158127170699796,0.9983796991028728,-0.12118265044262916,-1.984507248653108,-0.12037536372543205,-0.15042923812298914,0.04053312890429542,0.20599006723098373,0.013471867591607118,2,left
10.039,0.25478317864174793,0.9948032151167268,-0.12011620969374452,-1.9807390863573875,-0.12191306833772862,-0.1538576912717416,0.04087091428598343,0.2062207933021732,0.01186398730172697,2,left
10.04,0.2592484914072922,0.9916531419914935,-0.1179419373271767,-1.9816906769925098,-0.12166533260851992,-0.15304277882062323,0.040598680360599354,0.2060128644528169,0.013281851232246882,2,left
10.046,0.26421001314762826,0.9882437478735423,-0.11497609196960855,-1.9824423772099145,-0.12097233253891554,-0.15222170697445306,0.04069398956744345,0.2061355764170234,0.012508098824668908,2,left
10.046,0.27134685466446423,0.9852971376406008,-0.10932634034878713,-1.9811365936761656,-0.12216820799099902,-0.15364316871993522,0.04081388380299017,0.20611279835024926,0.012519162206193634,2,left
10.049,0.27729696537087756,0.9833494895978361,-0.10491890594510178,-1.982235574786398,-0.12089914391146472,-0.15235556571193953,0.040516087845006925,0.20605603086022273,0.013121496636243898,2,left
10.05,0.2823264214276754,0.9843787112181689,-0.10193995848356874,-1.9815667501330867,-0.12182912267752805,-0.15319398808321436,0.040877071480448515,0.20614975491943244,0.012252953457009622,2,left
10.052999999999999,0.28731182161696756,0.9870568491554421,-0.0973524953167488,-1.9820513015880619,-0.12164541581727756,-0.1527580482517643,0.04063930005833515,0.20607333965111846,0.012906624342087763,2,left
10.054,0.28978094308417157,0.9895246020606371,-0.09372371631060242,-1.9812524383255663,-0.12071905657379076,-0.15304727416947916,0.040525105184234696,0.206076668776737,0.012998072017203221,2,left
10.059,0.28957428764308296,0.9966617985426744,-0.09263523850023583,-1.9828133929195169,-0.12293931524482361,-0.15262522319452726,0.04119234681008063,0.20618976909062167,0.011727020624893935,2,left
10.059,0.28556820962833296,1.0066240542733313,-0.09194830079898214,-1.9804234158518237,-0.11965132654505618,-0.15331046908659185,0.03991535720160613,0.20594986231852178,0.014289924793549721,2,left
10.062999999999999,0.2808346748750681,1.0142820496461975,-0.08806708604850075,-1.983052805388327,-0.12312434475754229,-0.15250623755353665,0.04156936388642603,0.20626877755828804,0.010924916582873824,2,left
10.064,0.27695879830870007,1.021630280908604,-0.08206206866898572,-1.9815339202886504,-0.12111741956495164,-0.15297020574433634,0.040182440431104235,0.20599795437453794,0.01376545834685507,2,left
10.068,0.2689518003007795,1.0273505166089516,-0.07401805489459562,-1.9800456252673382,-0.11945785878930933,-0.15353336256392655,0.040229385071084256,0.20601232260539454,0.013640442535520648,2,left
10.068999999999999,0.2607881806806157,1.029961472929872,-0.06556889337468237,-1.9863287425192184,-0.12681179135620807,-0.1512798235546936,0.04284898756548959,0.20650999670950992,0.008352176439866982,2,left
10.074,0.2545832599917188,1.0317318244358842,-0.060140412260850346,-1.9746867683698566,-0.11316960381564584,-0.15544869734474026,0.036396642893383985,0.20527662187603424,0.02141959894608666,2,left
10.075,0.2472923408118945,1.0322939425900963,-0.04936490922107663,-1.98965221174235,-0.13068067464237004,-0.15008192146426108,0.047100202678131683,0.20732540818557854,-0.0002728791070663464,2,left
10.079,0.24348789099516535,1.0325201106828517,-0.03996378961166082,-1.9771489991353643,-0.11606464312351145,-0.15456882202026567,0.03298017988957462,0.20462174496670937,0.028348668835774377,2,left
10.08,0.2427001010722323,1.0313699632445599,-0.03858210322396484,-1.977474395664208,-0.11646675839091983,-0.15446391844577395,-0.026279972320272668,0.1932782197041402,0.14845138858770968,2,left
10.08,0.2396195626669425,1.0288101327711803,-0.03140861727935621,-2.001381911311995,-0.14430709244476114,-0.1458365556451713,-0.040400974855644436,0.19057450648848928,0.1770739384938061,2,left
10.084,0.2365648670172653,1.0275245596554659,-0.025428471944991475,-1.9426229856880766,-0.07587514718828825,-0.16702980426063468,-0.029694959298312475,0.19262407606965531,0.1553750847857641,2,left
10.084,0.2374378836879537,1.022690202253319,-0.023493257565811825,-2.040057140089832,-0.1893366436760991,-0.13188830804094603,-0.036151844594416824,0.191388139039863,0.16846083796612782,2,left
10.087,0.23948465433192026,1.0167530981371307,-0.018083829855107918,-1.9115314441827174,-0.03968429687068345,-0.17824463605806418,-0.03352556620961562,0.1918909583443616,0.16313752732233142,2,left
10.088,0.24026243359219776,1.015022731946455,-0.0158792991668052,-1.3721701463965776,0.5884850355847516,-0.3728535593283384,-0.03348617664547063,0.19189781319424604,0.16306210015128322,2,left
10.089,0.24420695697345915,1.0109517995662753,-0.01138077382480932,-1.2436433935528326,0.7381353326030615,-0.4192160263479252,-0.034867719010010914,0.19163491478154737,0.1658522088855242,2,left
10.093,0.25213156390238867,1.0035135044971746,-0.004722954714973567,-1.3410606160524003,0.6246746119510009,-0.38406636373872316,-0.033212261440644486,0.19194949585625048,0.16251160653827224,2,left
10.094,0.2592055833455247,0.9980055940336989,-0.0037006419296961436,-1.282366149055168,0.6931125079379667,-0.4052624856045689,-0.0345025218937295,0.19170485356935474,0.1651119171077381,2,left
10.097000000000001,0.2647855352619925,0.9934623486658203,-0.0014219475764621918,-1.3061378803162125,0.6652542883099516,-0.39664602360270945,-0.03380738920384425,0.19183689650956354,0.16370945010176674,2,left
10.097999999999999,0.2714954994830883,0.9859240833712363,0.00041796042995220436,-1.306667256340436,0.6648836221188523,-0.3965102289541401,-0.03396130313451376,0.191805392084349,0.1640341930329091,2,left
10.103,0.279448956387519,0.9784802626461059,-0.003524250418858422,-1.2939421740746377,0.6794601933465316,-0.4010473753124275,-0.0341590932420173,0.1917741298036092,0.16439377240442665,2,left
10.104,0.2874912345851892,0.9748741204305309,-0.00884687337523558,-1.3090403740138874,0.6619813831038943,-0.39562312679638323,-0.033816956665297424,0.19182822994788307,0.16377156866941964,2,left
10.107999999999999,0.2957617170345892,0.9712852276518051,-0.016792059279988895,-1.2975048613983113,0.6756227112360589,-0.39983061327171737,-0.03414487493633521,0.19177945854760847,0.16434871928067601,2,left
10.109,0.30302460840142365,0.965651276055228,-0.032075953435330117,-1.3032966789488631,0.6682109832086462,-0.3975945920448253,-0.033921309398497634,0.19181107739115816,0.16396535472916307,2,left
10.113,0.31131763521825395,0.9606132284759191,-0.050936470751187096,-1.3027418860467805,0.6700049439305319,-0.3980465605178103,-0.0340085645352753,0.1917942993236863,0.16414282487667747,2,left
10.113999999999999,0.3223232254463665,0.9560171812267059,-0.0647884104051571,-1.2999830661552294,0.6718096917924177,-0.3987331861461987,-0.034052063529274715,0.19180666638568722,0.16410150805175183,2,left
10.117,0.33248034977118013,0.9499796407386628,-0.07452956046964562,-1.303742737035162,0.6685535610214021,-0.3976227186193706,-0.03390456526313236,0.1917875609890915,0.16409847675980926,2,left
10.118,0.3437045182119396,0.94575206432374,-0.0871076623072608,-1.3010365487823075,0.6717153267030818,-0.3986013384116095,-0.03411341501172394,0.19181824457088098,0.1640803032863754,2,left
10.124,0.3544060570110974,0.9434402464089457,-0.09863173694672679,-1.3012478953408868,0.6693864026132545,-0.3980686538636994,-0.03390561679202623,0.19178264862204253,0.16412975787086076,2,left
10.125,0.3637256403270037,0.9399060045066402,-0.10301253976464014,-1.3041261508509399,0.6707938224929246,-0.39807310974069504,-0.034025829570365415,0.19180326284090563,0.1641014892139489,2,left
10.127,0.37520203606960334,0.9373182409323695,-0.10078533537070733,-1.2986486672208915,0.6700729650326912,-0.3984936529539931,-0.034096600262384896,0.19182708963713008,0.16401049212676688,2,left
10.128,0.3829884065375138,0.9359009730931107,-0.09617060441762912,-1.304920748669146,0.6703368110516471,-0.3978889837792963,-0.03374436983380888,0.1917304567663102,0.1643225183257398,2,left
10.131,0.3906662557914209,0.9356152467773357,-0.09569579596873404,-1.3010066240845317,0.6705228493220412,-0.39834325367151124,-0.03439967174493262,0.19190947172418926,0.16374812191544869,2,left
10.132,0.3977721891121001,0.9387465594051274,-0.09826320492783688,-1.2985345561344603,0.6696308212141139,-0.398408748527266,-0.033560989638477666,0.19167886769177017,0.16449123391710296,2,left
10.137,0.39642634406500044,0.9440126148055435,-0.10090319299325612,-1.3110172806795366,0.6715930431285577,-0.3975204201878985,-0.03425987810304844,0.19187195576929164,0.16386828877494664,2,left
10.138,0.39360019748490704,0.9503022708217232,-0.10263099903751219,-1.2874752807423677,0.6684130870500227,-0.3993100986619864,-0.03423760031943658,0.19186660461582833,0.16387822575551478,2,left
10.142000000000001,0.38988237202597964,0.9562082343440141,-0.10004639493112072,-1.3178452647977585,0.6723305230182384,-0.39696064081845295,-0.03291948044062525,0.19149752542184229,0.1650957582815501,2,left
10.142999999999999,0.38403749632370365,0.9596735245332558,-0.09351177821159946,-1.2924323385936445,0.6691306817531277,-0.3989440564684614,-0.03616168449727837,0.19240569805623225,0.1621083463396482,2,left
10.147,0.3722346683905653,0.964213833603539,-0.082677971299872,-1.293209356234479,0.6691078058950776,-0.39885624794651725,-0.030786349625616376,0.19089883486123377,0.1670622508177988,2,left
10.148,0.3613654673137353,0.9678728152168175,-0.07449494263982567,-1.3414286257405479,0.6754999834073298,-0.39516483077523157,-0.03787543628369491,0.19288731564474132,0.16052625804568538,2,left
10.148,0.3605484670406873,0.9678538051381957,-0.07341915047101086,-1.2227844451280168,0.6599482305005625,-0.40428769479938664,-0.0676249299419088,0.20121267232194123,0.13307449194452062,2,left
10.151,0.34384306848986435,0.9724623263746266,-0.06881218485399895,-1.4195474151305845,0.6856721107658802,-0.3891421564706753,-0.0747127376098933,0.20320057034176742,0.12653579841623702,2,left
10.152000000000001,0.3238082897515369,0.9776641387703948,-0.06480411443802694,-1.160004685873551,0.6517666910384019,-0.4091268790786863,-0.06933924373154246,0.2016971092474783,0.1314939248539425,2,left
10.157,0.32028408801224617,0.9780959541502513,-0.06435188803616537,-0.07059308890073257,0.5093315065888626,-0.49297238332414095,-0.07258035463974544,0.20259570464471138,0.12850301992020585,2,left
10.158,0.30272415667612373,0.9827633794128613,-0.057253028018472714,0.1889448883005901,0.47543466839323745,-0.5129603404838106,-0.07126098324850597,0.20224477276890368,0.1297203520156358,2,left
10.158999999999999,0.277095756121699,0.9887176489212802,-0.04467156732533277,-0.007823628235191275,0.5011368136032038,-0.49780744432202145,-0.07124362870154302,0.20221389608223023,0.1297370617371409,2,left
10.162,0.2571140280010173,0.9914777246587319,-0.02563869550334345,0.11086036480680822,0.48562562909501955,-0.5069426434072616,-0.07193367243662768,0.20243275778927972,0.12909932862252227,2,left
10.162,0.2353420715087312,0.9935125761840349,-0.003542084870058166,0.06254599490135519,0.49195768897270936,-0.5032346607380515,-0.07110602864707731,0.20219000973631707,0.12986350864695628,2,left
10.166,0.2188227934047807,0.9925914509080004,0.007475257668095618,0.061921458433234135,0.4920034266791381,-0.5031636731264685,-0.07175242486298614,0.20234915648052548,0.12926824371742812,2,left
10.167,0.20481576012676084,0.9908916189550281,0.005932287028536652,0.08715750087121615,0.48875383424631064,-0.5051380399712682,-0.07140026248980681,0.20232080674770117,0.12958931929171708,2,left
10.171,0.19295585116540065,0.9896748752765907,-0.0035533025740179616,0.056911514950042694,0.49266007273562834,-0.5027787703349991,-0.07148723626172451,0.2022242075731412,0.12951586040848806,2,left
10.172,0.18785037543789418,0.9867781174711139,-0.017935933272902778,0.08049683604072569,0.48959773849342764,-0.504607635059161,-0.07157020965561955,0.20239581319670297,0.1294308715307732,2,left
10.175,0.1841157563247941,0.985964797925755,-0.03215501564199452,0.06768452743939507,0.4913096803434172,-0.5036471931038169,-0.07141800788280642,0.20223492880665528,0.1295780720756829,2,left
10.176,0.18285456838665293,0.9885855625657907,-0.043668177154530974,0.07083445015810003,0.4907767542401583,-0.5038064278860566,-0.07156775955965197,0.2022758244158763,0.12943995129782765,2,left
10.181000000000001,0.18634798103533173,0.9897933716511491,-0.05171027217709248,0.0737985098286987,0.49059788451526437,-0.5041778424636223,-0.07145373117480885,0.20246327958202867,0.12953255857747584,2,left
10.182,0.19187093054182375,0.9904662231405571,-0.05879150397581377,0.06846096379382657,0.4910399689219032,-0.5035913125867733,-0.07152893519952547,0.2019829595294821,0.12949201941914557,2,left
10.186,0.19968556803290707,0.9936570796436626,-0.0653311363822105,0.07353918322633057,0.4905798241507293,-0.5041222220876871,-0.0714820229724715,0.20271780856296068,0.12949222784738945,2,left
10.187000000000001,0.20978633811607886,0.9974421605433976,-0.06614867972689542,0.06986121451661789,0.49106212833004337,-0.5038402571878633,-0.07150815386397048,0.20192773108521156,0.129514068577194,2,left
10.19,0.21931774933788378,1.0027052059585204,-0.06701624061755143,0.07221751611901947,0.4903773308749638,-0.5037621899150904,-0.07150905871206976,0.20238876956194435,0.12948664999091558,2,left
10.191,0.22738936296332665,1.0098425870894014,-0.07411538032709501,0.07049924783092543,0.4914632192506339,-0.50422293822759,-0.07146007886729794,0.20277209894249798,0.12950901509530477,2,left
10.195,0.23400681153437214,1.0164774593830597,-0.08206248807952997,0.072184693644206,0.48995797422053494,-0.5034679426170683,-0.07158265295206694,0.20106842619992232,0.12949601764737795,2,left
10.196,0.23788297141182765,1.0223596643217356,-0.09309770543943258,0.07055112042601536,0.4915413428833341,-0.5042854299790139,-0.07137700286868437,0.20423411117763435,0.12950004796134074,2,left
10.203,0.23874819637835973,1.0289339756322453,-0.10696753163214529,0.07123736384630053,0.49065994883427694,-0.5037930805976296,-0.0716332890114589,0.20016689680523433,0.12950213206621658,2,left
10.204,0.23549183605209215,1.0373379432319305,-0.1170099370177331,0.07310633484878143,0.4897339103049853,-0.5034675635564122,-0.07142256757643174,0.20356352982572168,0.12949728652581888,2,left
10.205,0.22891593667808416,1.0451453244140683,-0.1279530005932219,0.06701679029393252,0.4935149497034743,-0.505054237134578,-0.07142333071585422,0.2034697131015773,0.12950224400727373,2,left
10.206,0.2246883428658933,1.0514869416797343,-0.13658272725779352,0.0779337379451902,0.48655158523429715,-0.5020822973227301,-0.07183831672957675,0.19699790557671237,0.12949868045145935,2,left
10.21,0.21944676008102088,1.0582899719331387,-0.1366767450368396,0.06399883556489197,0.49548258813931834,-0.5059052815558522,-0.07082538690900156,0.21290779983165414,0.12950038609862685,2,left
10.21,0.20915205260177386,1.0654097017520276,-0.13900438677521823,0.0756007205289313,0.4880298565329831,-0.5027105141560912,-0.07250232809272147,0.18652699177243787,0.12950031690330466,2,left
10.215,0.2020866287483548,1.0706175899527168,-0.1420878578436139,0.07541222558312068,0.4882171051491083,-0.502808309526453,-0.07029122071219349,0.22132413207285823,0.1294992828013252,2,left
10.216000000000001,0.1999140562273361,1.0714376553046725,-0.1441517664128706,0.05287244714063957,0.5024778495957946,-0.508863975261952,-0.061008891465319924,0.3673754831916648,0.12950083055061867,2,left
10.216000000000001,0.19344508894137707,1.0729066006589159,-0.1472740822938191,0.1081298369663887,0.4674414193069976,-0.4939655514579536,-0.05879755589799815,0.4021738965370716,0.12949931039446527,2,left
10.22,0.1762573635485488,1.0803538411707334,-0.13378019323353973,0.016540983442576956,0.5255324047846262,-0.5186727083380547,-0.060474154443908794,0.37579154563684003,0.12950031084136288,2,left
10.221,0.16274506575543762,1.086005538129093,-0.11753948045363724,0.1373527253985548,0.4489068550241288,-0.48608202669084943,-0.05946340661965315,0.39170150221063843,0.12950029047233325,2,left
10.225,0.15812817698731485,1.0871842471920241,-0.11497607261384045,0.6445370960280792,0.12729605318017334,-0.3493185436949554,-0.05987326888051897,0.3852330550437837,0.12949895321410848,2,left
10.226,0.14127545813437126,1.091977344666734,-0.10802832839016194,0.7653815365046471,0.05066116161955264,-0.31672602989528553,-0.059882180542592034,0.3851312007771628,0.12950177319034034,2,left
10.226,0.1193627649528976,1.0992463923626279,-0.10661726230602343,0.673757303342941,0.10876225146964394,-0.3414351682466613,-0.059662078237477253,0.3885400043417577,0.1294978686557155,2,left
10.229,0.10256865189682376,1.1052951809422398,-0.1145890199392453,0.7290012449447373,0.07372967534499059,-0.32653750118746216,-0.059924829789175564,0.38445986331081283,0.1295016684638211,2,left
10.23,0.08409330256836448,1.109734412452867,-0.11350321156917764,0.7065788030187777,0.08795687245453815,-0.3325865857277466,-0.05972173057923596,0.38763262509348245,0.12950003243759245,2,left
10.234,0.07617499824294335,1.112956900927461,-0.10825209815539964,0.7061378342227297,0.08821628849084356,-0.33269853747124944,-0.059826446793653155,0.38593659813467446,0.12949691246438488,2,left
10.235,0.08288063765071478,1.1186004570447454,-0.10407313353215669,0.7181017230804374,0.08066009458541248,-0.32948347582678394,-0.05981382115182812,0.38628935531795333,0.1295069871399911,2,left
10.24,0.09667129825810354,1.1231569570328022,-0.1002679518205974,0.7038063308500203,0.08969411043514983,-0.333326664992589,-0.059764105414782824,0.386806444941631,0.12948965918689703,2,left
10.24,0.11911688157661968,1.1256032779873697,-0.0976699451183829,0.7148788408728528,0.08268632362618902,-0.33034601436857114,-0.05983959521044638,0.3859439952719554,0.1295108905792773,2,left
10.244000000000002,0.1504263488129755,1.1297531009503807,-0.09229235862370555,0.7090988124509188,0.08637884505987072,-0.33191532104570765,-0.05977240475023117,0.38674189696930095,0.12949399219931274,2,left
10.245,0.1872195592052855,1.1319932124587408,-0.08754668277554112,0.7099706770260825,0.08573784474868956,-0.3316457188476031,-0.05980351410265972,0.38624981161516864,0.12949380591561627,2,left
10.25,0.2269292845797788,1.1341942747042093,-0.08920514038798835,0.7123750156200019,0.08436537626158486,-0.33105704218714255,-0.05982787410959361,0.3863485415331511,0.12952522242166675,2,left
10.251,0.267536786457349,1.1380609369856747,-0.08967915071906145,0.7086328675042535,0.08655135440355706,-0.3319927299195825,-0.05974098073878672,0.3866145537832743,0.12945350452384724,2,left
10.254000000000001,0.30347650082888966,1.1424864044025873,-0.08307755021407745,0.711999432535728,0.08456577264566759,-0.3311435251995273,-0.05987808293870484,0.3860999414518902,0.12956042778418436,2,left
10.255,0.3284432660815378,1.1502729748376508,-0.07711658723979226,0.7102960043108052,0.0856471671744323,-0.3316033742584291,-0.05973054661642768,0.3866704959502585,0.12944652663268727,2,left
10.259,0.34338028522546804,1.1579009023588733,-0.07486915848588652,0.709532917211047,0.08585423696808187,-0.33170027114161094,-0.059817973730659675,0.3863061261495224,0.12951220342765246,2,left
10.259,0.3499751650301248,1.165122287358619,-0.07163824657421705,0.7129840455538796,0.08429871486633989,-0.3310185632675715,-0.059882502158510716,0.3861638012546106,0.12956923937466652,2,left
10.263,0.34908769710276266,1.1739247727801856,-0.06487344802495176,0.707426604839587,0.08687836549430933,-0.3321457375108175,-0.05958238697756119,0.387067954779429,0.12932051162596728,2,left
10.264000000000001,0.3467047116807026,1.1825191645762045,-0.056400137396210734,0.713427177592753,0.08408033603653764,-0.33092368160881613,-0.0601421190591237,0.38534031048019035,0.12978140842368036,2,left
10.269,0.34549565381324326,1.1919447317540603,-0.05662039294389999,0.709839722692084,0.08577293063364147,-0.33166211680201885,-0.05942272691385025,0.387570267806662,0.12918996359823876,2,left
10.27,0.34485899791898433,1.2014227462027298,-0.07348346283735008,0.7073430832119099,0.08685539619174973,-0.33213832302757973,-0.060023525468169574,0.3857036763741778,0.12968319002596884,2,left
10.274000000000001,0.3464767209161512,1.211011628346457,-0.09888719967439814,0.7192449614665437,0.08150211381674502,-0.32979190387507695,-0.06000632325075964,0.3857725776247493,0.12967109416215622,2,left
10.275,0.35015818038965796,1.2186293812499525,-0.11776269558518532,0.6969966667744266,0.09154044387577401,-0.3341905617666894,-0.05886396790476952,0.38927212653000254,0.128727605517963,2,left
10.279000000000002,0.3530733593346745,1.2230907040184724,-0.12397442770040669,0.7256042156724112,0.07862663261803887,-0.328532063728438,-0.061672692331600366,0.38064840473298767,0.13104404637705833,2,left
10.28,0.35489607057620637,1.22725387122809,-0.12468099078258364,0.7017049789904104,0.0894165661312917,-0.3332600405060599,-0.057015637078674984,0.3949533888474098,0.12720520809286934,2,left
10.283,0.3537482995969603,1.2297595295913764,-0.12669337999242047,0.702413722044392,0.08908851321665136,-0.3331162618344171,-0.06315801592196874,0.37608366018912565,0.13226667746967466,2,left
10.284,0.35102037177448236,1.2306037170027464,-0.12879622608935729,0.747782296630347,0.0686351764228604,-0.324153528618433,-0.0889421712062631,0.29691623901117736,0.1535343308337782,2,left
10.284,0.3458935537202419,1.230051016936911,-0.1353473769153634,0.6361984381077157,0.1189465778773533,-0.3462007422022758,-0.0950839489285968,0.2780468338461911,0.15859256084641643,2,left
10.288,0.3226191908844115,1.2328721428470857,-0.1510584799621708,0.8212292764716249,0.03552159334656749,-0.30964180348351034,-0.09042754397054076,0.29235146938875867,0.1547572284473226,2,left
10.292,0.29997299655047965,1.2391048158581512,-0.16183647065454426,0.5771716078623303,0.14555285084875608,-0.35786154499274103,-0.09323651603345035,0.28372760942282627,0.15707499836987693,2,left
10.293,0.2924077360306928,1.2413094618754874,-0.1637283781881555,-0.44717247975551416,0.6073545907636372,-0.5602405671234656,-0.09209200276388466,0.2872283297239836,0.1561198921159976,2,left
10.294,0.26289119811496153,1.2474111549474265,-0.17581279200020924,-0.6912282671510839,0.7173584908704547,-0.6084526722004064,-0.09207944320530695,0.287294717529661,0.1561327983840276,2,left
10.295,0.2163727565118081,1.258750158802688,-0.1908372222710692,-0.5061953622353889,0.6339784998699378,-0.5719057928301778,-0.09267358543809288,0.2854317242939586,0.1565901725224516,2,left
10.298,0.17629950876206077,1.2692111763428657,-0.1871440227708704,-0.6177945238720923,0.6842466307148567,-0.5939426989086826,-0.09196082121372806,0.28765810552860344,0.15603443447268533,2,left
10.299000000000001,0.13838766364130564,1.2844381289503928,-0.17545973548172497,-0.572389245036079,0.6638075257972258,-0.584980287504629,-0.09251769418733097,0.2859319913203553,0.15647991447221374,2,left
10.302999999999999,0.10653552592442264,1.302225811609826,-0.17285248085693766,-0.5717394650580199,0.6635239523030932,-0.5848543408077909,-0.09221188588041326,0.286839245462,0.15620054790509735,2,left
10.304,0.078476302339371,1.3200528320761813,-0.1782469958035327,-0.5955701822427748,0.6741899817268655,-0.5895419186130461,-0.09229475058539825,0.2866869838729411,0.15635631947485784,2,left
10.307,0.05396216760704418,1.3425534295622397,-0.19439429746021866,-0.5670108504524263,0.6614746664290312,-0.5839421769343589,-0.09235058515403688,0.28633970631049777,0.15625184825455762,2,left
10.308,0.03247485320446084,1.3674562207604941,-0.21293884770596067,-0.589275508606729,0.6712878552896916,-0.5882810750686819,-0.0922418190750256,0.2868893152615142,0.156346785163758,2,left
10.314,0.0061282830095273355,1.3933030944261002,-0.2051295282012621,-0.5772465755131566,0.6660855707680411,-0.5859634894805135,-0.09234801435743281,0.2863913555282751,0.1562871771194452,2,left
10.315,-0.019948867626442254,1.4202759412066888,-0.17785146968624982,-0.5800051586825883,0.6672345839089806,-0.5864832059733813,-0.092260839583137,0.28665762258088745,0.1562140569371295,2,left
10.318,-0.040993685676554426,1.4442212697863033,-0.1608414125996915,-0.583224896610663,0.6684986749243145,-0.5870692597500553,-0.09234256837111504,0.28672520550748903,0.15655432388834806,2,left
10.318,-0.06043610320411626,1.4654720653360789,-0.15955300009027445,-0.5775868358641962,0.6665596786240279,-0.5861163890697104,-0.0922425818043403,0.28630410855359534,0.15584816341177055,2,left
10.324000000000002,-0.08161732043059228,1.4860789280373972,-0.16863242866717687,-0.58298781056775,0.6679570187680146,-0.5869062557049224,-0.09237095650520087,0.28699626129513894,0.156884582378008,2,left
10.325,-0.10299645719696082,1.5070061092869564,-0.1775849235866525,-0.5792302836415937,0.6675356456857557,-0.5865038892395956,-0.09223797973189593,0.28624635435761814,0.15578280768843739,2,left
10.327,-0.12398167992579737,1.5305664930665668,-0.18409349559485425,-0.580983205565808,0.6673116322138242,-0.5865792247144401,-0.09230869656840268,0.28669873764565146,0.15641459088671916,2,left
10.328,-0.1436557631959756,1.5549369828000845,-0.19230396284112464,-0.5809781802020392,0.6673003423377966,-0.5865758268915461,-0.09239994927191969,0.28699471031708756,0.1569834781687136,2,left
10.332,-0.15483547606980572,1.5794335997731288,-0.19340864545320655,-0.5797158865428964,0.6686129567210697,-0.5868291607744447,-0.09205017572409374,0.2855450776660098,0.15453317058695906,2,left
10.333,-0.1609570722709977,1.6022676778638307,-0.18113842264324903,-0.5817605975771685,0.6652346858455193,-0.586084285744426,-0.09268987719572853,0.2882617931993028,0.15907052650826364,2,left
10.337,-0.16465559174624445,1.6196388734566942,-0.162009949942249,-0.5794020519382683,0.6705862398257267,-0.5873321625238556,-0.09187048742893297,0.28476632472109686,0.1532453650546748,2,left
10.338,-0.16148390717535185,1.6335300253946108,-0.1523701765847057,-0.5815119531401809,0.6646991532771864,-0.5859220270073171,-0.09255372607087256,0.28768840220037456,0.15810879463303867,2,left
10.342,-0.1580015104297977,1.6441727645078241,-0.15529057372796135,-0.5804220371985711,0.668158893363846,-0.586762315277068,-0.09253838839860358,0.28759641339351205,0.15797742103650192,2,left
10.343,-0.15685695347100476,1.6519929681927903,-0.1562948957400307,-0.5795364423098512,0.6711656945645383,-0.5874973395901102,-0.09122526975001026,0.2820641522423031,0.14870105959693544,2,left
10.347000000000001,-0.15456062572203255,1.6571245852912262,-0.14721315288715375,-0.5832571290175936,0.65793688330261,-0.5842499328510702,-0.09444900916468063,0.29567947553488116,0.17150265193880893,2,left
10.347999999999999,-0.1509162231097359,1.6601528222388442,-0.12410488897019957,-0.576505398963377,0.6825365036600488,-0.5903015606875999,-0.08910489647004191,0.2730974354646267,0.13369436004755594,2,left
10.352,-0.14856087595974615,1.6643461817954441,-0.10500917228302287,-0.5850726056257349,0.6509035687660687,-0.5825107691462243,-0.09615364420520967,0.30288650621632374,0.18356549999965965,2,left
10.353,-0.14722539863910394,1.6653629960473078,-0.10051600513327533,-0.5779640679420464,0.6773313762687718,-0.5890235598316171,-0.12574622892276055,0.4278141276532085,0.39283457424583557,2,left
10.353,-0.1392588772020607,1.6683056783299448,-0.07690261536403645,-0.5781661485331134,0.6766224666533991,-0.5888491713585795,-0.13279541521561744,0.45759837349787935,0.44270353453057865,2,left
10.356,-0.12660943048264822,1.677332248730865,-0.03364822374187184,-0.5916158598948323,0.6261769247265623,-0.5764099652116326,-0.12745068981814733,0.4350339912334863,0.40490625863357743,2,left
10.357000000000001,-0.11655617960964464,1.687429709856969,0.00903462772218436,-0.5585790141645872,0.7501728175372164,-0.6069881293274102,-0.1306747383200899,0.4486072457349552,0.4276780819620345,2,left
10.362,-0.11187491287936008,1.7063851224294941,0.05760901004871734,-0.6133257596602821,0.5445673541721368,-0.556282346221413,-0.1293621843442446,0.4431484906145198,0.41845711876067193,2,left
10.363,-0.11213589200447724,1.7216244372340468,0.08701116207007585,-0.5411493248586196,0.8157824158444358,-0.6231694901963714,-0.12934495746479813,0.4429590188578004,0.4182487841442659,2,left
10.363,-0.11361561257433193,1.725870757330053,0.09228962360208495,-0.23871911273345525,1.954688967841776,-0.9040247395352025,-0.1300314446519675,0.44597229043210906,0.4231887462054376,2,left
10.366,-0.11962378798177326,1.7435625245327244,0.10864999205673567,-0.1666746071070958,2.2260247537140936,-0.9709359651700872,-0.12920814574578882,0.4424466883634939,0.4173296111445264,2,left
10.367,-0.13111183983132801,1.7691837530353536,0.12180868834602587,-0.22114241704443224,2.0201602420302986,-0.9201793960387326,-0.12985078602375477,0.44506373182738923,0.4218031940792786,2,left
10.370999999999999,-0.14382355083965107,1.7884349407395255,0.12081703911101627,-0.18853369662187036,2.1445613700295487,-0.9508352495296302,-0.12950148420097685,0.4438996030185637,0.4195627857487896,2,left
10.372,-0.15579305978593902,1.8060983406743039,0.12731953320919526,-0.20146234143562577,2.09361124376342,-0.9383018756244956,-0.12958625388541717,0.44372254769651553,0.4197664467140855,2,left
10.376,-0.1613493173866712,1.8188591660161921,0.13845304618050247,-0.20212115470384642,2.0933614800813833,-0.9382094547258428,-0.12967095910179927,0.4447363996048369,0.4208510153299262,2,left
10.377,-0.15941806769238498,1.823310278438197,0.14862085135233755,-0.19488967529728163,2.119632559756667,-0.9447013091562807,-0.12951782231426173,0.44356674752339204,0.41938103023252693,2,left
10.380999999999998,-0.15213114262777888,1.8213918536079245,0.15961711851567634,-0.2029149128014629,2.087529182442273,-0.9368107218884164,-0.12966674115659282,0.4441911431467851,0.42043089665064426,2,left
10.382,-0.1374997547156189,1.811225688119984,0.16989513281443794,-0.19763073896016722,2.113495144094414,-0.9431294325692433,-0.12955664222473567,0.44469592658979273,0.4203697777249271,2,left
10.386,-0.11857070310538334,1.7899641607027688,0.1832483097941486,-0.19897415709048422,2.0979897627389743,-0.9394515354330215,-0.1296238686500336,0.4427634991554702,0.4192053644278796,2,left
10.386,-0.09928097693341598,1.7596887167761706,0.1968659288910536,-0.2008556989475579,2.103718200447423,-0.9406852097175936,-0.129588502828416,0.44592068736141754,0.4214016600346723,2,left
10.390999999999998,-0.08073413083712451,1.7210784950792153,0.2051607497906805,-0.19777478691575762,2.1051070596230614,-0.9411705441864888,-0.12960246582680746,0.44245454314353894,0.4188924224804591,2,left
10.392000000000001,-0.06417313424292767,1.6756784607586557,0.2121398699556475,-0.19937822896922772,2.098979579194676,-0.9396603722115563,-0.1296102838788658,0.44452489441058896,0.4204547508147519,2,left
10.395,-0.04482873927317205,1.6274682580418443,0.2214921729576072,-0.20183232426721154,2.1086807587233363,-0.9417885708619754,-0.12956763783193037,0.44609932288517773,0.42145176163939824,2,left
10.395999999999999,-0.022028440043775136,1.5764928941672847,0.23567057610917502,-0.1937663951322155,2.095765071322135,-0.9392078646017448,-0.12966320561291478,0.43882071948479306,0.41644329522540324,2,left
10.401,0.0007447672917016541,1.5222871857150349,0.2476327813173643,-0.20687457952474245,2.1109833246879512,-0.9420586018727324,-0.12950743265438222,0.4524110522530199,0.4258837018225896,2,left
10.402000000000001,0.027929838339653255,1.4652793358277982,0.24498733133901018,-0.1924274080785283,2.0965442254079765,-0.9394602506784948,-0.12969980599303654,0.4349266315135082,0.4137072810732144,2,left
10.405,0.055388661656275956,1.4124902403766066,0.23141052831135744,-0.20101673814195314,2.1039764615565444,-0.9407358317824994,-0.12954229067741058,0.44953873176407727,0.42389519960958705,2,left
10.405999999999999,0.07902683748979661,1.3625190111296615,0.2089736885617022,-0.2079117576087213,2.1123008495798823,-0.9423119897038956,-0.1295419532009871,0.44911868106838093,0.42358549758411923,2,left
10.411,0.10303971263284717,1.314240103078763,0.17846714411362932,-0.17666117085197441,2.0799174203767947,-0.9364199709549128,-0.12985466341880542,0.42132083857539243,0.4042499992244496,2,left
10.412,0.12487078797898948,1.2741617860142271,0.15372047557139445,-0.2349289167613136,2.1387925431237553,-0.9470525283916045,-0.12909244438451833,0.4896818570321698,0.4518222919640593,2,left
10.415,0.14581929137472588,1.2324938898187257,0.14354341969464718,-0.15997135728223727,2.063717839202276,-0.9335321101817731,-0.13035418916687005,0.3763196508573055,0.37292860349321766,2,left
10.415999999999999,0.15943767476252735,1.2054798357423429,0.1427443176638592,-0.22260899224668046,2.126169895987614,-0.9447598766678145,-0.12869023648326056,0.525852945140702,0.4769931602794378,2,left
10.42,0.16265018043221882,1.198778165625635,0.1444385171225735,-0.22086233000440691,2.124673647788108,-0.9445141174208925,-0.12171012672488543,1.1534443986140004,0.9138082257199466,2,left
10.421,0.17152651304540095,1.1779776478165456,0.15335322409619506,-0.10151993531317365,2.0052303587086007,-0.9229920156764073,-0.12004513870700977,1.3029867811266258,1.0178692595763676,2,left
10.422,0.18361803036051919,1.1533802034204514,0.1714426706082065,-0.3949408001140656,2.29845927572552,-0.9757834954126319,-0.12130741737083192,1.1896122658628387,0.9389752369751191,2,left
10.425,0.19009745836850012,1.1415230508729763,0.18733402129094373,0.09160818564393293,1.8124388435805727,-0.8883111992156997,-0.12054770099790095,1.2579783154069413,0.9865636635918221,2,left
10.425999999999998,0.19282228060039047,1.1349700285956628,0.19393738867098753,-0.5501687540535106,2.4534158748383126,-1.003647044595288,-0.12085241435850472,1.2301950075210961,0.9671852489385739,2,left
10.429,0.1924733455783569,1.1347902127007923,0.19482493948273005,-3.2440284551253264,5.1438939352132556,-1.4878694470463616,-0.12086642304692895,1.2297316040041772,0.9669476625843638,2,left
10.43,0.19381698483469106,1.1396491207184622,0.18878550607700104,-3.885817379135312,5.784828357744061,-1.603144109931517,-0.12069062805385597,1.24441553459901,0.9770483735459292,2,left
10.431,0.1950369799750359,1.1561719120399228,0.160252441662192,-3.3992419622824563,5.2989035079976325,-1.5157745999673307,-0.12089834395253175,1.2268475056224148,0.9649385684763584,2,left
10.436,0.19203706192388728,1.187733140454879,0.10173399734029095,-3.6927055885605675,5.591974689443501,-1.5684616504924627,-0.12074126220830599,1.2404963462446639,0.974387788390851,2,left
10.437000000000001,0.18966004511701462,1.228449771891733,0.030560136225683827,-3.5733078801403653,5.472739817730766,-1.5469871661120207,-0.12081141679515664,1.2332378485787672,0.9692355787235951,2,left
10.439,0.1899000026528556,1.2775418715617273,-0.028629538972609118,-3.5716145470871785,5.471036522690645,-1.5468174544252118,-0.12082957900088108,1.2346585851937735,0.9705467450879169,2,left
10.44,0.19524591945765135,1.332751123437268,-0.06263080801307418,-3.634228305511769,5.5335921900161225,-1.5577932716005434,-0.12074457512074604,1.2370442390547314,0.9716522936117593,2,left
10.446,0.20632203664141782,1.3875965634850704,-0.07386778495501217,-3.5592288398149217,5.458655688963601,-1.5447022566689035,-0.12085975874344695,1.2331375209151654,0.9696138697989759,2,left
10.447000000000001,0.21531394815949656,1.4363080373310828,-0.07508768343976138,-3.617636630422229,5.517022976408942,-1.5548180338543254,-0.12076266331389868,1.2367260695244302,0.9715689384120597,2,left
10.45,0.21959376757457577,1.4775195505585628,-0.08329179615295526,-3.586141009903436,5.4855535895680365,-1.5493211501661799,-0.12078566673408712,1.234613032177717,0.9700935570584919,2,left
10.45,0.2216224391025468,1.5075507627972824,-0.10098413159407482,-3.593341857317604,5.492710394084133,-1.5509385773648923,-0.12089032590531328,1.2347405408330678,0.9711886527794645,2,left
10.454,0.22516948638009696,1.525057731657789,-0.10644405628414035,-3.6016787703706363,5.501145513960386,-1.5513970513085917,-0.12062763241042587,1.2365615602629374,0.9701560887219512,2,left
10.455,0.23188419551474793,1.5331471079173755,-0.09073999498241725,-3.5872497077429246,5.486547516338387,-1.5505936972547434,-0.12102517232447,1.2333390429980327,0.9713445667240734,2,left
10.459000000000001,0.2384922458903267,1.528282534560293,-0.06791415711270538,-3.6007794327685723,5.500290192279353,-1.5508299113501731,-0.12060031039680523,1.2368684857168515,0.9701429345833888,2,left
10.460999999999999,0.24108907473325297,1.5143864048090312,-0.04839029813013558,-3.591713105698725,5.491051783703705,-1.550950339912203,-0.12084750020508231,1.234680411253379,0.9707341233553102,2,left
10.464,0.23762512749800624,1.496186870606489,-0.03861939838133653,-3.5956895895859224,5.4950211300601595,-1.5516801379211422,-0.12105222893200313,1.2335312389664974,0.9717553381878381,2,left
10.465,0.23036587641263306,1.4699251354297675,-0.04029709756652954,-3.595633081050299,5.495307155679622,-1.5484247502229826,-0.12014249103941138,1.2397668554172485,0.968122763269991,2,left
10.469000000000001,0.21477200752819942,1.4427734176823455,-0.04511884275149836,-3.5935750084469977,5.492469365408416,-1.5554716764153005,-0.12183216687211529,1.2279851856634831,0.9747090862879794,2,left
10.47,0.18982870542551597,1.415463373611919,-0.04558198478583635,-3.5961374597594036,5.496195661669461,-1.5448672660112668,-0.11966186261595385,1.2431621923027225,0.9662847145578075,2,left
10.472999999999999,0.16452198584200803,1.3879388541258197,-0.03992968388633293,-3.594079597052356,5.492896250944398,-1.5562934448100183,-0.12147415627514224,1.2304719998545535,0.9733057863038761,2,left
10.474,0.1469489328539686,1.3661646177086344,-0.02163392551836582,-3.5952763657889655,5.4948102757855555,-1.5496916892047696,-0.12142381203013618,1.2308911354836747,0.9731645623779129,2,left
10.479000000000001,0.14061045932877816,1.3435932421586005,0.006343977145701058,-3.5948114556623274,5.494966022799195,-1.5437354373881278,-0.11797196126998608,1.2548403419207028,0.9596129796532965,2,left
10.48,0.14684225405897783,1.3213234804239038,0.03389816249760462,-3.5949074521576727,5.49234904620447,-1.5694618452853129,-0.12645811478760474,1.195887203716108,0.9928672288288813,2,left
10.482999999999999,0.17875043821831427,1.2985967573193675,0.060903279531558926,-3.5948270793087533,5.497299501704877,-1.5217664566638591,-0.11238667172074625,1.2936568408847084,0.9377394260060935,2,left
10.484000000000002,0.21048367201203305,1.2806570736303806,0.07505108359075147,-3.5950529007212992,5.491065593281462,-1.5830347787674586,-0.13094771230386199,1.1646977866623607,1.010459114874274,2,left
10.489,0.2203342467223957,1.2762992637441297,0.07741079065644625,-3.5948099029077776,5.496215186948016,-1.5318705529156678,-0.20885169452673535,0.6234990756098016,1.3157333284791133,2,left
10.49,0.26612316314140494,1.2675040449212436,0.0783661798328345,-3.5946545650346273,5.495915005726706,-1.5332370153493449,-0.22741488410823263,0.4945501462730909,1.3884794114751375,2,left
10.49,0.34119517252070175,1.2552494519978548,0.07000954161439543,-3.5957998527560227,5.4867746324546065,-1.6308937044115828,-0.21334003004258367,0.5923086277533137,1.333313601739461,2,left
10.493,0.40440134639384356,1.2516340369546652,0.05201307167439878,-3.593113466440907,5.509367157439744,-1.3908669356170127,-0.2218291456225046,0.5333520359650478,1.3665904626740302,2,left
10.494000000000002,0.4854235527492703,1.249918962347814,0.021240542278395474,-3.5975717417746713,5.4719132090835005,-1.7888594754959448,-0.21837707773421022,0.5573361099884843,1.3530645981013805,2,left
10.498,0.5420065137671392,1.2489372741796259,-0.00159509510474227,-3.591660804694664,5.521282948868619,-1.2638872478944152,-0.2183219031259882,0.5576792419923693,1.3528219367539291,2,left
10.499,0.555260015906025,1.2497131675878481,-0.0057211173421691285,-3.566350616653443,5.728029151689476,0.9395763444616855,-0.22014536395834466,0.5450988092355651,1.3600253598416838,2,left
10.499,0.6043324757045732,1.2536731967936399,-0.027280969088839292,-3.5603964546140214,5.777353494566597,1.464584772643719,-0.21795864131882736,0.5601655363941341,1.3513732968502041,2,left
10.503,0.6682971078234732,1.2587772651437819,-0.0561384593448276,-3.564930641112153,5.7399777627954744,1.066547830260161,-0.21966524051229525,0.5484332733403707,1.358143488948813,2,left
10.504000000000001,0.7108222748244217,1.2614750363626628,-0.07451738687653225,-3.5621588108873317,5.76248589518231,1.3065782482162747,-0.21874692850131017,0.554759386913436,1.3545091265719265,2,left
10.508,0.7564875153527454,1.26529455149654,-0.09535227838283172,-3.5633617888998077,5.7533950925036095,1.2090132454341291,-0.21894027407352037,0.5533114715455353,1.3551966800512012,2,left
10.508,0.7953427824925321,1.2673215957096327,-0.1081111288603078,-3.563224501400991,5.753130215185706,1.2074239660717878,-0.21922921602885698,0.5516422458636236,1.3565554401795308,2,left
10.512,0.8225325180874815,1.2650640870638785,-0.11212045322954278,-3.5628417896699487,5.758115530633175,1.258928116336302,-0.21872960951959636,0.5545305760799573,1.3542072614899405,2,left
10.513,0.8448246599088061,1.2627374976889207,-0.11525149312065068,-3.563348933225869,5.752187188220521,1.1972957549177004,-0.21922184161063796,0.5518256884505981,1.3566152962029885,2,left
10.517999999999999,0.8599331191015109,1.2566113997135102,-0.11020835404965601,-3.5628831070665896,5.756742132705374,1.2451956595539226,-0.21887920461744823,0.55363635242609,1.354890553872497,2,left
10.519,0.8669285014147332,1.2451502889080617,-0.09812609262092327,-3.563346033325003,5.754470338562158,1.2196725387367555,-0.2189934378012097,0.5528376093753989,1.3553350148335581,2,left
10.524000000000001,0.8649933104453493,1.2316830940553016,-0.08563119500926734,-3.562745918696387,5.754559337317824,1.2247858937528875,-0.2191411573691417,0.5528685266827248,1.3566222918051793,2,left
10.525,0.8592507677696681,1.2118325917242245,-0.0714357992164276,-3.563581485123376,5.755995113887147,1.2329467369364253,-0.21874041821519072,0.5532368564543289,1.353432625183549,2,left
10.527000000000001,0.8507297777548295,1.188224290812114,-0.050661566466394546,-3.562597727882103,5.753912490350933,1.2194938408843585,-0.21932348845150107,0.5527896851334232,1.3581334621273986,2,left
10.527999999999999,0.8393580421678906,1.164719174818681,-0.02358190499871097,-3.563361758233301,5.755728051209793,1.2318832934610247,-0.218721495254472,0.5531307376565243,1.353198673379381,2,left
10.532,0.8281873909236456,1.1367045721312425,0.003973557047324893,-3.5634558751870777,5.755038139136759,1.2244627585432801,-0.2190694074687073,0.5529325452745556,1.3560507894566278,2,left
10.533,0.8156454971666931,1.1055898808146367,0.029880186312732298,-3.5617636382979105,5.75390445568396,1.2252989923362752,-0.21932648184228465,0.5530610672852136,1.3583400296172252,2,left
10.537,0.8036293670090724,1.0751442641029691,0.05541185562210097,-3.5655438805467288,5.757189890969839,1.2308045783391117,-0.218146276462149,0.5528853492897499,1.3481020593037094,2,left
10.538,0.793779547711581,1.0448252609480475,0.07707946085596315,-3.5599261949114993,5.75212283077723,1.2208150207268214,-0.22033741161727016,0.5531927299679682,1.3670993117403616,2,left
10.543,0.7835831692363548,1.0131907996618787,0.09330877609334001,-3.5659095906802554,5.757554658633257,1.231794772845427,-0.21752782042144864,0.5527722945399955,1.342720031292111,2,left
10.543,0.7780739360455076,0.9852007626573728,0.1049488267119219,-3.5624604266122204,5.7543681992344595,1.224928402109958,-0.21987126638693527,0.5531358540801625,1.3630665850679913,2,left
10.547,0.7707808276390712,0.9581953010847684,0.11264998864139678,-3.559451259330674,5.751861069927905,1.2215968175796206,-0.2198044632533504,0.5531548040028262,1.3624982256502598,2,left
10.548,0.7580669832292408,0.93119382157326,0.11915469325751923,-3.5725590240525347,5.763224190707442,1.2404123320914477,-0.21535257040989492,0.5523335238327645,1.3237770563516658,2,left
10.552,0.7485469821797319,0.9118316967925882,0.12191383093672276,-3.5482648090934643,5.74208224962304,1.2047546954300854,-0.22629584842544706,0.5543338636074364,1.4189621031261161,2,left
10.552,0.7326623210671241,0.8865717615579398,0.12475474210558807,-3.579452399936148,5.769242886141496,1.250711951032145,-0.20815352242665208,0.5510106402051984,1.2611424947690082,2,left
10.557,0.7207230385707413,0.8661812182860587,0.1282936413021347,-3.5534240826492853,5.746565261797215,1.212275667777152,-0.2320802558253042,0.5554058574057048,1.4693012320929477,2,left
10.558,0.7172487037598758,0.8621411685008936,0.1268789291731649,-3.5541074168644866,5.747194994586154,1.213581161571895,-0.3325211180756401,0.5738888393167523,2.343000540763498,2,left
10.558,0.7018359975003958,0.8482483772142719,0.13417505167285124,-3.603791561767947,5.790376339067542,1.2860003209064514,-0.35644324879706313,0.5783024049073977,2.5511528421759753,2,left
10.562000000000001,0.6819936770332209,0.8287327520754039,0.14355740970596215,-3.481714273986653,5.684230804644323,1.1076916174960276,-0.33830674599567034,0.5749534784840904,2.393343500694104,2,left
10.562999999999999,0.6581540733455882,0.8096601171859621,0.13986471108325343,-3.6840952542911944,5.860218588550582,1.4034144218822822,-0.34924893063738716,0.5769669933054811,2.48851949424591,2,left
10.568,0.6401799387805979,0.7954334053414676,0.13778036064033986,-3.417183804781347,5.628105016756692,1.0133532425785696,-0.3447866780337333,0.5761688362017978,2.449799351066238,2,left
10.568,0.636648470437333,0.791696414880779,0.14131314393038563,-2.2965018513231525,4.653686801317239,-0.6235644895690501,-0.3447462796519812,0.5761094892888706,2.44924490022445,2,left
10.569,0.6182283003571163,0.7759573907064099,0.1486845491675685,-2.0296364803830285,4.421599516533398,-1.0135895396749117,-0.34704857240098486,0.576608164522376,2.469558608524672,2,left
10.571,0.5908243668355487,0.7562983264598777,0.1584996674280017,-2.231967608310566,4.597558846026198,-0.7179058197781615,-0.3442840761585644,0.576024633824584,2.4452281537467435,2,left
10.572000000000001,0.57002655275657,0.7393195472120955,0.1666088395419766,-2.109871353754974,4.491402542798813,-0.896229407613301,-0.3464481119585424,0.5764554030955023,2.464174405796426,2,left
10.575999999999999,0.5483399174832225,0.7142722812437243,0.1772337186655802,-2.1597208808007498,4.534678128893383,-0.823680548976841,-0.3452467921836211,0.5762975696403673,2.45396348436366,2,left
10.577,0.5294584887070999,0.6926991346535472,0.18781336161651568,-2.1600483825430903,4.535105022767169,-0.8226540953703735,-0.34560217391002146,0.57615832293713,2.4562842484103298,2,left
10.581,0.5120760968042468,0.6723252408870256,0.1998524051042977,-2.1345302503472157,4.512718281258723,-0.8606903110186392,-0.3457635042928032,0.5765407955131256,2.4590146968668467,2,left
10.582,0.4922167376359366,0.6506338147099127,0.21728093027548143,-2.165209811394413,4.539589192988173,-0.8151314150243517,-0.34540874863342397,0.5760425793948951,2.454300730333393,2,left
10.585999999999999,0.4727143148457783,0.6342310223728771,0.2369934221314824,-2.1411347868798822,4.518572385698958,-0.8506172119003387,-0.345767446645584,0.5764536535469498,2.458718727813517,2,left
10.585999999999999,0.45687911497542877,0.6190272332849363,0.25668618986240416,-2.1546788373096124,4.530184013326441,-0.8314595176084563,-0.3454274523957577,0.5763943278708591,2.4557723152950333,2,left
10.591,0.44374539340481284,0.6050900654337612,0.27595502791372645,-2.150264333598515,4.526875888061713,-0.8358931786374466,-0.34584763398984153,0.5758310013559352,2.4570207472891497,2,left
10.592,0.4296959876360462,0.5926506835602106,0.2964657045975004,-2.149236588182979,4.525069854246357,-0.8408607275241912,-0.3452253454055357,0.5771802014417232,2.4571080016636095,2,left
10.597000000000001,0.41847950362058883,0.5813105525870621,0.31350709791489295,-2.152248333448373,4.528807260805922,-0.8322111973194836,-0.34607280494363823,0.5751528894683154,2.456273883048937,2,left
10.597000000000001,0.41096209851994414,0.5727507956024407,0.3234556967663118,-2.1489997347647107,4.525091512552562,-0.8403431520505557,-0.34518437484272196,0.5773163402830839,2.4572938152272927,2,left
10.603,0.40465670093845374,0.5637664783769687,0.3307086533748473,-2.1528012196786195,4.5283879832847225,-0.8348206373814712,-0.34567406727661043,0.5760627679029448,2.4564980340924225,2,left
10.604000000000001,0.40155672589804897,0.5541176992222514,0.3360468928784809,-2.1467122835775965,4.524748931823287,-0.8374324829232898,-0.34621360989553707,0.5750011797464067,2.4568360221401964,2,left
10.605,0.39863288671951097,0.5467192463522346,0.3355315768838958,-2.1568540857570557,4.529786445145727,-0.8369736886441111,-0.34404426126169707,0.5796770707742609,2.4570319150855076,2,left
10.606,0.39343105429724984,0.5398040887111664,0.330903870080862,-2.142628786763664,4.523056154456629,-0.8363383720571171,-0.34803295966430753,0.5710015332169807,2.45636735558276,2,left
10.612,0.3882816128295002,0.5312345800489895,0.3246761763984681,-2.1576237922402197,4.530085403634384,-0.8372617424036586,-0.34291862874563145,0.5821404332366042,2.457286849412704,2,left
10.613,0.3823192383916785,0.5243328954374691,0.31524236487044166,-2.149227304379022,4.5262533465804236,-0.8363392412010613,-0.3471858492984371,0.572843996298495,2.4564943741411605,2,left
10.615,0.37316029801590445,0.5167207909319189,0.3064791506473185,-2.1406673351703356,4.521810667780052,-0.8374694364207106,-0.3470808940775156,0.5730898455169688,2.4566152076547145,2,left
10.616,0.36240201574012343,0.5057151946832392,0.30095239803005247,-2.175963003915033,4.539391300485829,-0.8356760422974789,-0.33890815946477076,0.5908281400692377,2.4577946996239435,2,left
10.620999999999999,0.35464764476001864,0.49567888031318524,0.2970582413536371,-2.1109009932084435,4.507121507969181,-0.8384314458970312,-0.3589846732244425,0.5472431601276375,2.454783871048832,2,left
10.622,0.34725771548329826,0.48134971327336024,0.2917917887843524,-2.1943511444017236,4.548486168292319,-0.8350233809583042,-0.3256981225768495,0.6194974249260237,2.4597983889427635,2,left
10.625,0.3409217063336139,0.4702167507698838,0.286813941865095,-2.124726252613347,4.5139766851752965,-0.8378130367212184,-0.36960510551727455,0.5242067387741566,2.4531914595520092,2,left
10.626,0.3401279855155752,0.4667457379078236,0.28475996848928053,-2.1264559784941155,4.51480945520218,-0.8379449908385119,-0.5538931147522617,0.12408676226938095,2.425499389001624,2,left
10.626,0.33464277218254423,0.45438226684185856,0.28132315491315973,-2.2597083029789133,4.580958137722405,-0.8319529275649677,-0.5978058147881462,0.028816954133139585,2.4189218575660867,2,left
10.63,0.32428678822460727,0.43752170061594997,0.2791296691189631,-1.9323873366240665,4.418479605753931,-0.8464291272435622,-0.5645130794447651,0.10104862807866846,2.423904571186153,2,left
10.630999999999998,0.3212319934007196,0.4185161738226624,0.2775288500700603,-2.4750342559582306,4.687862147885056,-0.822499260347594,-0.5845872377257493,0.05745506478197392,2.4208816370760076,2,left
10.635,0.321206451356855,0.40342965157611593,0.2751588296222049,-1.7593079032808896,4.332534490697888,-0.8540487644593227,-0.5764350271061403,0.07526827185080728,2.422166652137266,2,left
10.636,0.32116910413311417,0.39961066210732066,0.2731005046349334,1.2457010674611326,2.8413689438223684,-0.9870426178555457,-0.576285915981812,0.07535292665263102,2.4220604511717303,2,left
10.637,0.3266501346181109,0.3866716373045379,0.2641772898010431,1.9614652468346365,2.48604406890115,-1.0186278985525132,-0.5806164438905288,0.06628761834970964,2.421593487846831,2,left
10.638,0.33265909849284103,0.3673561371750811,0.2508518278497517,1.418706633168665,2.7553619826119338,-0.9946232292555203,-0.575439076116895,0.0771963518046278,2.422188851488624,2,left
10.642000000000001,0.33807518568522427,0.3516332882267066,0.238205059370211,1.7462626973470723,2.5931005590185188,-1.0092125546901207,-0.5794549662158552,0.0686201466879309,2.421664126285508,2,left
10.642999999999999,0.3490395115674024,0.3354651838454376,0.22605602160225158,1.612629361567012,2.658809276473571,-1.0030853189584858,-0.577339765441922,0.07349363875193628,2.422138404032423,2,left
10.647,0.36055443680606647,0.3208672345858645,0.21274394111117115,1.611374198552816,2.6602880930614443,-1.003332033077053,-0.5777049128393006,0.0717954448535609,2.4215797249940807,2,left
10.648,0.3723609368102845,0.30533448042614686,0.1940474586964734,1.6805950590120338,2.6250929687786955,-1.0060981182343114,-0.5784950784493432,0.07163881498029065,2.4223288889136967,2,left
10.652000000000001,0.38537220586872967,0.2898950560812066,0.17188305859323422,1.5972019954860017,2.66683978018634,-1.002537437877931,-0.5772379105952989,0.07245599549160986,2.4214528392245267,2,left
10.652000000000001,0.3943566771812502,0.27632138336352763,0.14927228049628932,1.6628804765198733,2.634963306735677,-1.0056856782651025,-0.5783793184857933,0.07150206496929702,2.4221302093802937,2,left
10.657,0.40866230092009725,0.2621207270247983,0.12577150283865757,1.62605853464812,2.6509295341833097,-1.0032698839416856,-0.5777597120661464,0.07286067012254224,2.422231116744625,2,left
10.658,0.4265972034874066,0.2456799161659874,0.10220500186726181,1.6369936160278138,2.6494744639750794,-1.005108776413421,-0.5776342595499495,0.070305799389497,2.420674204664235,2,left
10.662,0.43687742508310656,0.2308813498744961,0.08107217400179635,1.6427405171245004,2.641750910662142,-1.0037010569809404,-0.578541107121801,0.07479810565187658,2.4241386040197606,2,left
10.663,0.44711887127578853,0.21815709245085993,0.06252664305809005,1.629464833750374,2.6522217476658767,-1.0044383391061698,-0.5770398107160889,0.06841865113861734,2.4189929778992374,2,left
10.665999999999999,0.45927211261099365,0.2007106929511821,0.04607494020211437,1.644609003973856,2.644741219097229,-1.0051191596741742,-0.5786677419728018,0.07515958599365355,2.424473736149786,2,left
10.667,0.47097771854614806,0.1845359713145861,0.0333321510488445,1.6292038056400555,2.645182056101259,-1.00198339350135,-0.5776836801925661,0.071358840622429,2.421314300870896,2,left
10.672,0.48758021768187637,0.17151801648070633,0.022055742703601427,1.6456828220005477,2.6534666428290583,-1.008321861525544,-0.5770510476881554,0.06761486850185355,2.418555784019224,2,left
10.672,0.5064332361179544,0.15633030373502632,0.009958288831062666,1.6276942254648752,2.6378355432068545,-0.999157540311989,-0.5801723688982627,0.08323580742210315,2.4305699116212036,2,left
10.677,0.5242977783434526,0.14326766324189202,-0.0015851538603010877,1.644457076422632,2.655695235670292,-1.0088203844570245,-0.5743205963438403,0.054403517107785467,2.408301370079609,2,left
10.677,0.5449934069780282,0.13338337266133565,-0.011846246279107554,1.63638963670642,2.644574502891553,-1.003308154899273,-0.5818482216295336,0.09139636797455328,2.436890960382523,2,left
10.681,0.5663421057395257,0.12589876675630185,-0.018507276416010646,1.6244047080699677,2.637479764605541,-0.9983361497366592,-0.5755589722687091,0.060522634228185955,2.4130269620303513,2,left
10.682,0.5863557710980482,0.12190761867872528,-0.023309787592864332,1.6675754669697462,2.6731250612829713,-1.0196898635404992,-0.5757491812894366,0.0613166024315784,2.4136622534321934,2,left
10.686,0.6086183906254826,0.11907995510318342,-0.028124098916960074,1.5897075998803087,2.605936735736262,-0.9801844778786036,-0.5876739213441151,0.12032922986377165,2.459194516694584,2,left
10.687000000000001,0.6330727900693505,0.11845800947451587,-0.03151732233579341,1.688903661763728,2.6925976076119444,-1.0308780564430822,-0.5583427805059422,-0.024673149089519335,2.347300456661577,2,left
10.690999999999999,0.6573946296792363,0.12244047397465707,-0.03978407047355592,1.6064232650006856,2.620089521867766,-0.9885687496754649,-0.6069783727416915,0.21574302765496256,2.5328137307848246,2,left
10.692,0.6717822030334415,0.1264902732205785,-0.04908304615086134,1.6081424394617585,2.6222925808851745,-0.9896971706263163,-0.5428313052238166,-0.10137392999433333,2.2881339685226507,2,left
10.696,0.6756046637619091,0.12986964513139926,-0.051094409840596336,1.766781533352951,2.759907195432911,-1.0704185547790428,-0.27356599899252143,-1.4324186594749824,1.2609604050416718,2,left
10.697000000000001,0.6892828027161064,0.1371502051551443,-0.053810029563200704,1.3776076386842324,2.421328075336855,-0.8720360501710901,-0.20942759161856866,-1.7495594229751337,1.0162987173734446,2,left
10.697000000000001,0.7147540908076879,0.1490008896734974,-0.060924949081212876,2.0225968814859483,2.9828242632691486,-1.2009600760711092,-0.2580538137209378,-1.5091174900785167,1.2017924359892347,2,left
10.700999999999999,0.7287050820350504,0.15829999509877146,-0.06546097437913886,1.17195917861503,2.2421859802171373,-0.767106174504801,-0.22871911079222756,-1.6541100722953601,1.0898909383044983,2,left
10.702,0.73271124855082,0.16117335413341652,-0.0663878919753359,-2.398959119404049,-0.8666969688274664,1.0539012296358887,-0.24067492793800496,-1.5951828827410943,1.1354880692074796,2,left
10.702,0.7465553753461529,0.1694826402402952,-0.07344521806324378,-3.249583660489283,-1.6073065781577285,1.4877704253026431,-0.24079826863793097,-1.5942050853279257,1.1359837898623821,2,left
10.706,0.7591346324769744,0.18377319716008134,-0.08412924859747625,-2.604668208970976,-1.0458118583063654,1.158832488118538,-0.23460489651063215,-1.6253423919219459,1.1123199075035377,2,left
10.707,0.7632517300775052,0.1950325618887422,-0.0867447277862273,-2.9936365880863787,-1.3845074620800408,1.3571993627623153,-0.24203704604496534,-1.5880870786776566,1.1407102242116969,2,left
10.710999999999999,0.768683754084323,0.20527484609497504,-0.08850884649980331,-2.8353851140143345,-1.2465741235628842,1.2765521154356292,-0.23622647328948893,-1.617032614468334,1.1185276652172396,2,left
10.712,0.7684706259982531,0.21668182988834167,-0.09486702724640945,-2.833122436371293,-1.2449126602170728,1.275277038748046,-0.23942977193641818,-1.6016370600940264,1.1307129121268373,2,left
10.716,0.7654932847737509,0.22777621305233403,-0.09858415649970123,-2.9161495212769584,-1.3167596390084255,1.3177863250325248,-0.23853305263954913,-1.6046550154148491,1.1274031743185002,2,left
10.717,0.7666285466400964,0.23531483046373838,-0.09895653814350772,-2.816699592140221,-1.2306129074125671,1.2669064680620181,-0.23800403177103996,-1.6097067126973847,1.1251935146997654,2,left
10.720999999999998,0.7637000676960375,0.24114580468536967,-0.0984009461196524,-2.8941375143500374,-1.2978471352817382,1.3064683499159715,-0.23907350494972318,-1.6014305520553076,1.129508661358869,2,left
10.720999999999998,0.7563413710350897,0.24415181832320806,-0.097157686457754,-2.8524278521150417,-1.2611433943548382,1.2853296195309378,-0.23801745133634267,-1.6090339537561213,1.1252923149973348,2,left
10.725,0.7488424309897479,0.24310923369130522,-0.09574468955207502,-2.8618447872285717,-1.270586290950541,1.2897037662207023,-0.23892823676284738,-1.604552575512294,1.1287650006624212,2,left
10.725999999999999,0.7366527894804014,0.24149195246360272,-0.09122031990854007,-2.8731228535081055,-1.2782636206029976,1.2961923886865114,-0.237976599984029,-1.6048360762054825,1.125483579450427,2,left
10.73,0.7192848619366423,0.23419987841613185,-0.08202652722329606,-2.853709251993277,-1.2639898743107099,1.2853883436789346,-0.23924515380164052,-1.6086682694214702,1.12952555493527,2,left
10.731,0.705892228881114,0.2241049208297986,-0.06911035610352188,-2.8718844714410574,-1.2777182937993992,1.2953772025822958,-0.23756968959170746,-1.6018784021748764,1.124323498318639,2,left
10.737,0.694902620129042,0.2129078016985897,-0.051209281435535534,-2.8598431265945194,-1.2672151684340434,1.2892424381677758,-0.23931542840700296,-1.6093162576952973,1.1297150503842854,2,left
10.738,0.6827500483148583,0.19730154585063783,-0.03304298965163942,-2.864723907974036,-1.27535657227669,1.2903975565839967,-0.2383704431763106,-1.604703249208904,1.1268428491560396,2,left
10.74,0.673985355574346,0.18383816567301048,-0.016010615755080997,-2.865588799942846,-1.2672154184296986,1.293887171243525,-0.2372400484562435,-1.6022894481048058,1.1231622427487729,2,left
10.741,0.6676113690438352,0.16778437564364931,0.0002161719540522012,-2.8614195107195224,-1.2768544528630326,1.287213246370245,-0.24167047940590333,-1.6154110791877603,1.1372991043224205,2,left
10.745999999999999,0.6614942184192127,0.1497884065018527,0.011244169178751255,-2.8664007042738042,-1.267045605075268,1.2946012709176946,-0.2335472521158437,-1.590615522137992,1.1114371749669427,2,left
10.747,0.6548961575843399,0.1364467495562003,0.02394200580407433,-2.862675222476863,-1.2719763029146782,1.2899004988158023,-0.24395727952013682,-1.6225574068817106,1.1445665414409039,2,left
10.75,0.6484961976682095,0.12159364731739532,0.035344814533341325,-2.863659406276012,-1.2798771427513898,1.2879877100979242,-0.2352744215171065,-1.5958493807104757,1.116938902584816,2,left
10.751,0.6369545909646094,0.10932167206665466,0.03691157887885989,-2.8662209987583847,-1.2512742084909827,1.2998611669918732,-0.23547810692420812,-1.5967318702476545,1.1175670144204881,2,left
10.755,0.6218634792505526,0.10111752495825857,0.040294551693133805,-2.860229544140985,-1.3032406648160384,1.2772092721870396,-0.2521384779476751,-1.6471338499009016,1.1706441099211604,2,left
10.755999999999998,0.6109410764609382,0.09239181856290599,0.04908787702607098,-2.868202968142959,-1.2367544515732978,1.3064378374385641,-0.21122512248103778,-1.5230651481737556,1.0403240017257085,2,left
10.759,0.5933673305295808,0.08840197869873799,0.05428235727560836,-2.8614305735692787,-1.2921636672988353,1.2819779203231207,-0.27905353370010183,-1.7288233005627802,1.2563706556422152,2,left
10.76,0.5772912326081172,0.08878970529977254,0.05464141503242646,-2.862053323253951,-1.2910369403446722,1.2828627270264512,-0.18958661608908095,-1.4574280029113935,0.9714004854798358,2,left
10.765,0.5727809889987827,0.0886285894457716,0.054799833915172055,-2.8735316011098835,-1.1841565229096387,1.3287741272705258,0.18598362489259135,-0.31846417241558506,-0.22488933659606983,2,left
10.765999999999998,0.5602302394168822,0.09035201214105262,0.05762883442602153,-2.844795921253172,-1.4464182997249297,1.2156651978849573,0.27546081006952106,-0.047094561018698904,-0.5098977321783291,2,left
10.765999999999998,0.5401549507026794,0.09524281351745309,0.06185018749129644,-2.8925818328978754,-1.0116864955365004,1.4032749958860875,0.20761835296039285,-0.25282246975735145,-0.29379897082611417,2,left
10.77,0.5295204592002984,0.09674402040453646,0.06437199005025424,-2.8295350209498045,-1.5850896828199255,1.1558111196281557,0.24853788649874384,-0.12875188618117148,-0.4241414263354666,2,left
10.770999999999999,0.5253801712317807,0.09781267069768325,0.06511313098857102,-2.565747169472824,-3.9923955585512725,0.11747989127892505,0.2318929175627139,-0.17922813979515217,-0.3711230183632759,2,left
10.770999999999999,0.5140358768050568,0.10634016675718741,0.06735942079903964,-2.502764404926488,-4.5658438212930665,-0.12995266263792724,0.2316417645750454,-0.17993885391120407,-0.3703161902628695,2,left
10.774000000000001,0.49910855213101224,0.11809097901172153,0.0689702906324183,-2.550450536024679,-4.131073666199988,0.05761233993435931,0.24040415303186058,-0.1534866989645894,-0.39824205953945774,2,left
10.774000000000001,0.487390601373797,0.12996469199908978,0.0693330440598556,-2.521796481339192,-4.393279994660208,-0.05547084655448586,0.2299006000425735,-0.18516182224269234,-0.36476326855873564,2,left
10.780999999999999,0.4746302194382957,0.14263433061898373,0.07027275531757032,-2.53328200563428,-4.286637420616507,-0.009526677571363204,0.23809079339020472,-0.16050359158281932,-0.3908733699094018,2,left
10.783,0.4665904883451317,0.15537231750396693,0.06921078573009723,-2.5337404458810875,-4.285049765176954,-0.008765583325232244,0.23367935182359537,-0.17380308261363728,-0.37681211571577666,2,left
10.784,0.46322463659210994,0.16764690593691595,0.06797747925836992,-2.5273227027115968,-4.341079170526012,-0.033005524305327515,0.2346430874107937,-0.1707282499123765,-0.379863065151521,2,left
10.785,0.4584626257523585,0.1783880262844756,0.0674246976932026,-2.534794244873388,-4.274026201242986,-0.004049217631293255,0.23593511028602243,-0.1673042305401613,-0.3840393497699286,2,left
10.789000000000001,0.458160849819503,0.18723013916186754,0.06611882699330536,-2.5292955156338555,-4.326142825325809,-0.026484832340475686,0.233699898472333,-0.17322980962752293,-0.37681468247570304,2,left
10.789000000000001,0.4606295058862018,0.1944036235167529,0.06374116461175486,-2.5316517131349423,-4.2982440379005045,-0.014605255079787747,0.23586053340102942,-0.16772488681416775,-0.383825677740903,2,left
10.794,0.461543695659324,0.2015949610430806,0.060872740648699936,-2.5322027383769843,-4.304250752936897,-0.01692944006024493,0.23437780156843652,-0.17138605822120107,-0.3790000764195006,2,left
10.794,0.465608494397018,0.20849387531116592,0.06062559306186666,-2.529845145124006,-4.312232706248284,-0.020698993280241215,0.23493025530973802,-0.16970356948191595,-0.380758921098507,2,left
10.799000000000001,0.4711584953007424,0.2136177440369055,0.0597115407222619,-2.5324874805750506,-4.298904787398621,-0.014689975472323456,0.2353282269480982,-0.1700462442642745,-0.38221704148596164,2,left
10.799000000000001,0.47780450507956945,0.21896747963236793,0.05385379478287508,-2.5311691469938644,-4.3110123400921605,-0.019911622250556142,0.2341137941911941,-0.170187349746506,-0.37791337965103583,2,left
10.802999999999999,0.48802520724426063,0.22346195552461334,0.04413643840265176,-2.529788570870141,-4.303669222787303,-0.017221509324543652,0.2358547119070779,-0.17019186633364283,-0.38410821295507414,2,left
10.804,0.4965778454838278,0.2240887517798139,0.03437155966803071,-2.5345890860535114,-4.305449146826776,-0.016897342901474523,0.23409281085771477,-0.16990194590495683,-0.3778036087730343,2,left
10.808,0.5047218220060392,0.2244729189315373,0.026446383557699397,-2.5268483990912696,-4.308077118027685,-0.01966009948869129,0.23511186599202447,-0.17006648349294093,-0.38144975953171695,2,left
10.808,0.5143465522830963,0.22836181633724034,0.018621248624591726,-2.5353120299270637,-4.303342333351743,-0.015880822906650625,0.23578183602524272,-0.1708402073100984,-0.38392853896308476,2,left
10.814,0.522273016476611,0.23150644089848754,0.01357614694994822,-2.5302793305978373,-4.307374253753093,-0.01862417819528033,0.23257979091675277,-0.16827188173931096,-0.37221992173651675,2,left
10.815,0.5317239478627693,0.23182675575351205,0.007929095940751505,-2.526384288432915,-4.306820341137075,-0.019248650136530703,0.23853148580130357,-0.17299431802544715,-0.3939767746066295,2,left
10.818,0.5421849829766403,0.23481266899255093,-0.002684992526121762,-2.5442485769483443,-4.301810492092107,-0.013304626762437774,0.23090645345409655,-0.16687792870061935,-0.3660946073041199,2,left
10.819,0.549775859802271,0.23871654255956204,-0.011609864186744864,-2.510925647349053,-4.312857564591406,-0.025087056910417595,0.2372644211663244,-0.17200823481161953,-0.3893475269812707,2,left
10.824000000000002,0.5570057985531476,0.23975871304659546,-0.0164960869371214,-2.553784105257348,-4.298039915050239,-0.009683396379192622,0.23707019344176866,-0.17193551911434501,-0.38864689469221236,2,left
10.824000000000002,0.5653635850673715,0.2421500735566129,-0.017470043734642865,-2.5179731883348913,-4.310677208288517,-0.02266051255095946,0.225040890517734,-0.16187024815907342,-0.3446096714197272,2,left
10.828,0.5758321915489559,0.24590486777804166,-0.021824658457968896,-2.5189906069742056,-4.309924648791,-0.022126785725544322,0.25462444536902,-0.1865598126217087,-0.4529033491058593,2,left
10.828,0.5876633133641831,0.249512004586159,-0.033432856108612095,-2.587147426302943,-4.286920222446943,0.002133737323436259,0.20557492901983182,-0.14561797479345043,-0.27335089374434085,2,left
10.833,0.5927332257988522,0.2523605754080431,-0.03824201869124899,-2.4195550494510636,-4.34405500340903,-0.057762216671937164,0.27026577325311646,-0.19963679969517256,-0.5101637635002129,2,left
10.834000000000001,0.5961736037042413,0.254235751802179,-0.042186514229119024,-2.6974599696829973,-4.24910056570479,0.04165215940206547,0.5417366113437927,-0.42655605291345244,-1.5039438876574878,2,left
10.835,0.6037844546864152,0.2567068217169717,-0.051339320102299746,-2.3308913482735067,-4.374424005907764,-0.08951726817514054,0.6064184405208675,-0.4806010160189779,-1.7407272392702422,2,left
10.838,0.6066149330353334,0.25804432134110833,-0.05591969332374575,-0.7923112495004547,-4.900176235197362,-0.639878489744913,0.557384719845332,-0.4396167259015886,-1.5612287500478508,2,left
10.839,0.6105139635051599,0.26064590244588715,-0.06577024117778522,-0.4257331127844776,-5.025509599398573,-0.7710661579520188,0.5869505835341908,-0.4643457338178746,-1.6694565454881538,2,left
10.839,0.6177800423275013,0.2657966936272558,-0.07943594046418909,-0.7036535467416389,-4.930496708165503,-0.6716114714562418,0.5749330464034708,-0.4542707795473246,-1.6254742487820388,2,left
10.843,0.6218853486341478,0.27036974559714794,-0.08482312680873724,-0.5360466002983852,-4.987796418258812,-0.7315727976423851,0.5747429780092375,-0.4541497602111144,-1.6247629025067116,2,left
10.844000000000001,0.6284345455091065,0.2745845826581499,-0.08593015178880954,-0.6042073791482553,-4.964479171648042,-0.7072274927065817,0.5810713836151956,-0.4594046786018717,-1.6479451425754186,2,left
10.847000000000001,0.6372824420411366,0.2786380674349377,-0.08488969651985237,-0.6052417372987783,-4.964166908109229,-0.7067758120200947,0.5735052667148437,-0.453095055042365,-1.6202408343872094,2,left
10.847999999999999,0.6468069129748357,0.2812400444540278,-0.0836899160932598,-0.5693861498804702,-4.976359269419873,-0.7197156501704591,0.5793767995329987,-0.4580292768974257,-1.6417213571466007,2,left
10.853,0.6587572114195894,0.2811283261374834,-0.08377674058408782,-0.612314550097854,-4.961751894672904,-0.704248734433164,0.5762503036303013,-0.4553309877646079,-1.6303199191952276,2,left
10.853,0.6705791436148847,0.2825888333455656,-0.08396792002345288,-0.5789141638440957,-4.973140508925827,-0.7162448528000385,0.5768939072505819,-0.4560143408444835,-1.6326003716288284,2,left
10.857999999999999,0.6800138973058484,0.2866761397477987,-0.08540184152829222,-0.5968273313538998,-4.966954039326859,-0.7099256499950151,0.5778352137843127,-0.45662352447781346,-1.6361391265977396,2,left
10.859000000000002,0.6866487545324222,0.2896389623761511,-0.08680687690781572,-0.5929622533986907,-4.96847675183735,-0.7110197794168981,0.5762995230157375,-0.45548113972877907,-1.6304432220502632,2,left
10.863,0.6914316538502181,0.2945597851227616,-0.08609986064335755,-0.5877715236558693,-4.969903407341194,-0.7133733850538551,0.5776647329846325,-0.45662345614164085,-1.635440413801717,2,left
10.864,0.6946616837473116,0.3020669322946844,-0.0838939387146091,-0.5965421023793587,-4.967332705609466,-0.7096269021314682,0.5768966344956766,-0.4557201631306821,-1.632765830954485,2,left
10.867,0.6975436601836296,0.31053011840140243,-0.08188300767240597,-0.5883878565623555,-4.969779156152397,-0.7130291934383304,0.5769602928510815,-0.45637022729715443,-1.6326849180269893,2,left
10.869000000000002,0.6983795495622682,0.31979365791468184,-0.0782099885250771,-0.5935734365269212,-4.968003028643466,-0.7111780618204088,0.577461000477327,-0.4558985952127059,-1.6349865269281056,2,left
10.872,0.6942593637589506,0.3291341438325036,-0.07398829051651384,-0.5920683574582352,-4.969152152299844,-0.7108177269496201,0.576709363640298,-0.45621904636991173,-1.6317350374506654,2,left
10.873,0.6887204593635341,0.34029221327101083,-0.07113493073912167,-0.590329728869158,-4.968296496838764,-0.7134938623925491,0.5772896378002841,-0.4561561074638181,-1.634148730395819,2,left
10.877,0.6809173810349269,0.3532397015999623,-0.06615291289666883,-0.5941632660012515,-4.96914905456808,-0.7090579884510393,0.5773359591725657,-0.4557219781848594,-1.6345659668657624,2,left
10.878,0.6683005553912109,0.36714932494256713,-0.0610711273903668,-0.5898462537595004,-4.968319191434455,-0.7138691985447475,0.5762960534328959,-0.4569210505400343,-1.6296713338386706,2,left
10.880999999999998,0.654621618629141,0.38186062148283384,-0.05358916180933706,-0.5927044437464439,-4.9686737339077665,-0.7109589079275653,0.5784221111046137,-0.4548629769078095,-1.6394732455572294,2,left
10.882,0.6404511368731717,0.39621696325974554,-0.042093666619434436,-0.5933642940058099,-4.969598057478889,-0.7090963532822039,0.5756213121359027,-0.45744594919629766,-1.6266262123331612,2,left
10.887,0.6267302927673859,0.4090225347369846,-0.03328953371756247,-0.5875250595401411,-4.966565819208759,-0.7183052526637594,0.5779889207772455,-0.45531476610473126,-1.6374613213902691,2,left
10.888,0.6121785117167322,0.42002764936052095,-0.02152193260425684,-0.5988851713018183,-4.972005908531996,-0.7010366101766514,0.5778801736892611,-0.45533362873966554,-1.6369993536087395,2,left
10.890999999999998,0.5981155322912339,0.4303111346354049,-0.006079653467344325,-0.5841810389463655,-4.9650622293366835,-0.7232529152870348,0.5734849725634593,-0.4595006196593556,-1.6167881828686266,2,left
10.892000000000001,0.5879196434060926,0.4397968821501443,0.00612588984077345,-0.5965015860573661,-4.9708415199939235,-0.7046887181924628,0.5843512678688614,-0.4493147948718893,-1.666707780282594,2,left
10.897,0.5686751319848202,0.44980420140863764,0.017094890055888226,-0.5959904627177541,-4.970751150367576,-0.7052568091292633,0.566312165927596,-0.4661822039574041,-1.5838484487034392,2,left
10.897,0.5534046306353182,0.4560206849145329,0.021957213793407364,-0.5730881908071515,-4.959516704760503,-0.7404388127955701,0.5901113800321228,-0.44394180895055235,-1.6931703731729542,2,left
10.902000000000001,0.5524346336852022,0.45583667487527046,0.022165595222697617,-0.6295808737699147,-4.987049578996412,-0.653889301080085,0.6899909752972976,-0.3505581445929453,-2.1519311275590542,2,left
10.902999999999999,0.5344415995192271,0.46134462516862007,0.028750231950051885,-0.5358711292806384,-4.9414222308565705,-0.7974109569007981,0.7137828715127552,-0.32831889002969106,-2.2612519078786883,2,left
10.904000000000002,0.5166298584641777,0.46906205667155787,0.03483519884967208,-0.6594622768277456,-5.001598313181448,-0.6081067875881332,0.6957505788431808,-0.3451806443685794,-2.1783774150473567,2,left
10.907,0.512897185626922,0.4710411191681816,0.03522537277577336,-1.1780562491798063,-5.254302549327345,0.18641049848310548,0.7066238107342163,-0.3350100091038959,-2.228355569507296,2,left
