time,gFx,gFy,gFz,ax,ay,az,wx,wy,wz,subject_number,foot
13.712,-0.1320683428382602,0.9696445892196142,-0.022159112732006405,2.035375775897567,0.5802614633622327,-1.1465277424497098,-0.1929084633180182,0.16608791132870432,-0.5123770545245238,3,right
13.713,-0.1210160580739459,0.9680227273688613,-0.02003927154349732,0.008223391946630798,0.4678397355248313,-0.8325727187576054,-0.18118754572762488,0.18216597802570564,-0.5229518725591189,3,right
13.713,-0.10239861227178422,0.9646427708902585,-0.01988783830547789,-0.4747081120631903,0.44105985136081627,-0.7578085925073941,-0.18825384553730878,0.1724651794629844,-0.5165761421427927,3,right
13.717,-0.07381565264459986,0.9615842685446563,-0.0234522030840554,-0.10857241416767256,0.46136661645833904,-0.8144967135318771,-0.1853833648503589,0.17641871613727494,-0.519165975021523,3,right
13.717,-0.058563872907414376,0.9603938270240371,-0.034025960244854575,-0.3293967877589681,0.44911737071284197,-0.7803024526250486,-0.18533498181898228,0.17646302402714176,-0.5192102367331215,3,right
13.72,-0.047887948806715284,0.9657956536746185,-0.045636849501657195,-0.23955008714966605,0.45409855762396967,-0.7942162976540428,-0.18685055522707017,0.17440549954036788,-0.5178418942332506,3,right
13.720999999999998,-0.04037158756365551,0.976595715971184,-0.05335797627876616,-0.23828351014149696,0.454180557362199,-0.7944167551603051,-0.18504074962981848,0.17687887278207814,-0.5194752265364848,3,right
13.725999999999999,-0.04058331910127319,0.9871834475522512,-0.05431990522561082,-0.28538530742424834,0.4515429300701095,-0.7871087623906468,-0.1864419420697102,0.17493910162846898,-0.5182121635234562,3,right
13.727,-0.042398643115890616,0.9958026792800582,-0.04758213180868144,-0.22896815853977429,0.45470842999021455,-0.7958685422705407,-0.18570208645330327,0.1760110673043685,-0.5188759379442933,3,right
13.731,-0.04334498506150238,1.0027239730452013,-0.03679167764698766,-0.2729011027461874,0.45223530118331623,-0.7890404876071841,-0.18584304877684277,0.17571952723272036,-0.5187553490240181,3,right
13.732000000000001,-0.04820604346751034,1.0078428573167872,-0.029198864625598127,-0.24920872996828505,0.45356508491303643,-0.7927205013267085,-0.18608384126317862,0.17550956078318986,-0.5185299024268277,3,right
13.735,-0.05773131389247314,1.0118121705281191,-0.02799787125303619,-0.2546423347933385,0.45329541627940095,-0.7919013036975014,-0.1857041818876387,0.17593448860675498,-0.5188790397263641,3,right
13.735999999999999,-0.06658148210183804,1.0174684116405561,-0.02929230753536985,-0.2608675349825107,0.45284815293212616,-0.7908648241442966,-0.18603040596211534,0.1754861413783545,-0.5185847251123508,3,right
13.741,-0.0728842376146184,1.0207783757783369,-0.028824421311002525,-0.2500926415596344,0.45362155821691375,-0.7926589316446822,-0.18587010949869032,0.17588379276282667,-0.5187171361760232,3,right
13.741,-0.0765736613587304,1.019892088070149,-0.02459142745172164,-0.2601721872509367,0.4528467023265059,-0.7909435409285369,-0.18583207284136985,0.175529784215662,-0.5187794817527642,3,right
13.745,-0.08041703355596949,1.020035031429748,-0.02208912217972875,-0.25343062506584635,0.453392712543036,-0.7921108686538709,-0.1860311928688756,0.17586253067870417,-0.5185579181576987,3,right
13.745999999999999,-0.08388354489321359,1.0175744143388794,-0.02311537908833982,-0.25642365149499236,0.45322821089518056,-0.791648514291265,-0.1857668602735596,0.17557931102594473,-0.518841193810166,3,right
13.75,-0.08399444428010402,1.0131221708446836,-0.02653838621140945,-0.2562313191787722,0.4529195162227297,-0.791449023309408,-0.1859544678957109,0.17569501141746935,-0.5186458848965552,3,right
13.751,-0.08355634920822841,1.013016469181872,-0.03385193843918313,-0.25502485466655855,0.45371637583290614,-0.7921598754688826,-0.18600774600125683,0.1759438047979959,-0.5185758698548151,3,right
13.755,-0.0830734289289804,1.0151054886995916,-0.036573810931551876,-0.25644267500984097,0.45254868867993886,-0.7911585235480281,-0.18557457146308579,0.17512996804211117,-0.5190638099499864,3,right
13.755999999999998,-0.07960443843462536,1.0185864266171984,-0.0338890751832701,-0.2554381213760849,0.453765465117582,-0.7921474662641352,-0.18642506832774236,0.17657425355841738,-0.5181159122204899,3,right
13.76,-0.07432022179398264,1.0227425826869219,-0.029538003905672596,-0.25602455765697085,0.4530619156711926,-0.7915752674633926,-0.18531610727761316,0.17474315235535492,-0.5193487362463779,3,right
13.761,-0.0707370939866406,1.0252833862862074,-0.02062535133221916,-0.25540339030479997,0.4525184184300829,-0.7912559710925096,-0.18624886380164174,0.17626192864556545,-0.5183125996038094,3,right
13.764000000000001,-0.06644371096919802,1.0278375100575707,-0.01657461976398544,-0.2566619108424516,0.45497903996639244,-0.7928783971584172,-0.1862131281664448,0.17623612341928652,-0.5183516159900661,3,right
13.765,-0.05882986490815762,1.0290120603089514,-0.0197358802683004,-0.2544019502517121,0.4504112501279963,-0.789858564400669,-0.1844626170511014,0.1732994345949676,-0.5202983841214464,3,right
13.769,-0.052521887956042755,1.025944465991284,-0.024501852861198953,-0.25739563046591873,0.4562718644158156,-0.7937215311613501,-0.18877996640570982,0.1804952911218112,-0.5154970527899051,3,right
13.77,-0.04724126475407207,1.0201143938977215,-0.0356835771912502,-0.2548560778703777,0.45138071995892587,-0.790503422980559,-0.1816164991350327,0.16857264213540474,-0.5234648027550897,3,right
13.774000000000001,-0.041547033764496574,1.0161916949751384,-0.04469408397275933,-0.25480133884302825,0.45152145232474944,-0.7906081209765486,-0.19106631133594498,0.18429544704960077,-0.5129519336184963,3,right
13.774000000000001,-0.0396173096121747,1.0153487369779932,-0.04638133807929877,-0.2601608236719669,0.46081561389895676,-0.7966680036373903,-0.23073415899531352,0.2503046335741869,-0.46884885809180327,3,right
13.775,-0.03618841964745772,1.0127723553524182,-0.0500045825069433,-0.24708794454536626,0.4379631184073234,-0.7817611391016611,-0.24018274849910765,0.26602678394459434,-0.45833318533503814,3,right
13.779000000000002,-0.026618562063515268,1.009222677583945,-0.04982257536595213,-0.2687639619521526,0.4758558692904239,-0.8064749723093673,-0.23301931864318487,0.2541066072954617,-0.4663051295802278,3,right
13.78,-0.020245033173482342,1.008681242277508,-0.04651428625756983,-0.2401529897934611,0.42587433387718493,-0.773883064808925,-0.23734172427555433,0.2612964844483324,-0.4615008398174083,3,right
13.780999999999999,-0.01845834881316103,1.0077199151843348,-0.045889126789889725,-0.11965429384683712,0.2161264909295474,-0.6371145952968158,-0.23557743829904076,0.2583703288784006,-0.4634460236006688,3,right
13.783,-0.014351368848608218,1.0040614582460716,-0.04142956400746423,-0.09101500834596646,0.1661425782595097,-0.6045309649139778,-0.23556507009736324,0.258330466194734,-0.46349411238000704,3,right
13.784,-0.007407328685508475,1.0006793955624897,-0.03599860964417166,-0.11274358055087687,0.20403668631042943,-0.6292324516303461,-0.23646934302593509,0.25986250783860415,-0.4624404335357752,3,right
13.789000000000001,0.0030817982069236477,0.998062467805161,-0.034894302404944004,-0.09960470539016994,0.1811894721328654,-0.6143341927820166,-0.23538247455189554,0.25802680358459995,-0.4636963896013354,3,right
13.79,0.013797804253276962,0.9959073297666976,-0.03841799390406575,-0.10502265294344196,0.19046623082334496,-0.6203990178680518,-0.23623508413191852,0.2594570933623521,-0.4627279936247597,3,right
13.795,0.021708470568318636,0.995709542998677,-0.045525841833144454,-0.10494906592922673,0.19063848108604306,-0.620476538108975,-0.2357561050361798,0.2586840352898659,-0.4632203040708531,3,right
13.795,0.028422691321066097,0.9958950638996011,-0.05474011253243785,-0.1023509157525028,0.18570689142445534,-0.6173106426694557,-0.23591076855863813,0.2588648240084547,-0.46317790277694326,3,right
13.800999999999998,0.032735179326024,0.9956752923785304,-0.06437525498945396,-0.10550990235551505,0.19160185334348243,-0.6211050708468429,-0.2359498930841441,0.25906173133880755,-0.46291134482416463,3,right
13.802,0.04044894882095828,0.9975657058426723,-0.06448587214913651,-0.10297999166804055,0.1870302506315693,-0.6181455374964739,-0.23583995154419124,0.25871705082632734,-0.4633071994208453,3,right
13.804,0.05200299245585073,0.9993130472072612,-0.060200729428337915,-0.1045542590671157,0.18943601236707358,-0.6197560144331886,-0.2359575728696858,0.25904172008842463,-0.46295832202441023,3,right
13.804,0.058064600740156784,0.9997561306214479,-0.06819610226758709,-0.1037033363218816,0.18902559941705793,-0.6193534092083888,-0.23582305443659385,0.25881905347441725,-0.4631060123981756,3,right
13.809000000000001,0.05994543338546811,1.001039788069664,-0.08196294060658124,-0.10423873868368085,0.18811750762826795,-0.6189938905217389,-0.23603370195555456,0.25893017447695404,-0.4632762637099229,3,right
13.81,0.0596948599012877,1.0009142961445137,-0.09145049245025544,-0.10377129873797522,0.18955901341233738,-0.6196484209763928,-0.23568580569244157,0.25889838370469875,-0.4627386796282235,3,right
13.812999999999999,0.05548979817010633,1.000647925674369,-0.09792382986113027,-0.10405229468177635,0.18825143182825377,-0.6190232978405255,-0.23617285514085973,0.258892597053072,-0.4635762423496454,3,right
13.814,0.05211148249294015,1.0025040148288538,-0.10207757047003983,-0.10446656164025409,0.18895666370494374,-0.6194852153845806,-0.23565956781695346,0.2589086784001714,-0.4626767241240998,3,right
13.819,0.051491384672786494,1.0036202175727156,-0.10195736867467345,-0.1026432530739366,0.1891148783122452,-0.6191662012388843,-0.2359468033490315,0.25888373941801435,-0.46320700041164065,3,right
13.82,0.047828770920697074,1.004467813418351,-0.09909416475820851,-0.10640425454647236,0.1880473383317875,-0.6194347957386395,-0.23624079893058314,0.2589397426691218,-0.463612053477781,3,right
13.824000000000002,0.042789017691383276,1.006051860911107,-0.10149603112037824,-0.10089075175937362,0.18980898353552966,-0.6191444564072726,-0.23502997658944336,0.2588215042811692,-0.46175402866213694,3,right
13.825999999999999,0.03837447813583872,1.007105201944679,-0.10428063002793997,-0.10675026683915878,0.1878995510170967,-0.619433277370891,-0.23726187224863254,0.2590178844538687,-0.4652152750414684,3,right
13.828,0.030213476180723356,1.0071662513584179,-0.10268076764822695,-0.10339280131165965,0.1890525674109037,-0.6192991118162552,-0.2343989140184468,0.25877085499769714,-0.46076720847136743,3,right
13.829,0.022856157611164357,1.0064409389118278,-0.10214765233624012,-0.10035853512099684,0.18980008344668411,-0.619021915118279,-0.23678808489917874,0.2589750171039368,-0.46448241236365007,3,right
13.833,0.01413567331212659,1.0063523547126747,-0.09929283329831023,-0.11340926695706914,0.18612524007624642,-0.6199702081363582,-0.23672754247868547,0.2589774463557015,-0.46437568829582815,3,right
13.834000000000001,0.0021206057718301573,1.0054843329890883,-0.09927594514191689,-0.08924712855803078,0.1930131018584808,-0.618259859519307,-0.23215778441346774,0.25856203064767774,-0.4573110846145769,3,right
13.838,-0.009421667896013699,1.0033222349463435,-0.10367272183223118,-0.12026442154579522,0.1841523615603136,-0.6204445447023127,-0.24338533955007569,0.2595737190223034,-0.47468290525280116,3,right
13.839,-0.030920083489613226,1.0031366990113528,-0.10219233435064061,-0.09437137245045724,0.19155646711161228,-0.6186262518429322,-0.22477012353072887,0.257898680085498,-0.44587694219794116,3,right
13.844000000000001,-0.05098633130352549,1.0038494519107042,-0.09851723350549299,-0.09506264114124877,0.19133043066280625,-0.6186558731840899,-0.24932404432810493,0.26010788906223914,-0.4838727911596029,3,right
13.845,-0.05609221604254141,1.003902166089373,-0.09626639604542435,-0.14447098017708038,0.17729617465514536,-0.6221847300634434,-0.35237581609892843,0.2693917945504787,-0.6433274860376167,3,right
13.845999999999998,-0.0696071344535408,1.0067212456216739,-0.08986287326518153,-0.0230388456843037,0.21182105082469604,-0.6135366213980615,-0.37692961876421766,0.2716020054050903,-0.6813217306556381,3,right
13.847999999999999,-0.09792734993618092,1.0118659227988807,-0.07500792879041639,-0.22438090566478106,0.1545692041951583,-0.6278665995960063,-0.3583170572058794,0.2699259471640739,-0.6525206872907179,3,right
13.849,-0.11589365397354227,1.01386729915503,-0.06320093739545064,0.04119276098374653,0.23008492714474477,-0.608968812145485,-0.3695357114926474,0.2709369942375776,-0.6698818906654471,3,right
13.85,-0.12054423437115463,1.0152332174047305,-0.058982439701711756,1.1558070493139605,0.5470161087420601,-0.5295320788060554,-0.3649839796470985,0.2705256463233169,-0.6628347787306901,3,right
13.852,-0.13377602301042402,1.0189675145974129,-0.045183437030111046,1.4213770548249218,0.6225282230825124,-0.5106288764962048,-0.36489697736891624,0.2705196386501618,-0.6627059510448157,3,right
13.853,-0.15129879916389108,1.0188295274543928,-0.02895298314577792,1.220058002965799,0.5652815334941479,-0.5249760986158639,-0.36731421813021253,0.27073564504472736,-0.6664404118946765,3,right
13.857999999999999,-0.16068743476436792,1.0133474490214431,-0.0209786344601419,1.3414241789801806,0.5998034572662709,-0.516289890748844,-0.3644356344216565,0.2704771366072723,-0.6619887020444761,3,right
13.857999999999999,-0.16913156511251534,1.0064383637312107,-0.013012563078646277,1.2921417862436857,0.5857653983643234,-0.5198824531754375,-0.3666513828137453,0.27067788395505665,-0.6654226769686561,3,right
13.864,-0.17645930460542605,0.999578267744318,-0.004796436907775051,1.2912724457652134,0.5855536556952967,-0.5198305456910167,-0.36550672075381924,0.2705708525073588,-0.663634242807852,3,right
13.864,-0.18117849137471695,0.9924346980653868,0.002056446445199034,1.3173464229007474,0.5929323740387625,-0.5180846813648889,-0.36567833301632896,0.27059307730558746,-0.6639294653413548,3,right
13.868,-0.18312384722881703,0.9845953958484378,0.0026311078850198787,1.2862418842023964,0.5841030256900097,-0.5202527865067783,-0.3661249265176694,0.27062502163480995,-0.664584070689775,3,right
13.869000000000002,-0.1781872538671651,0.9777526576872991,0.0012250380376295721,1.310269117252851,0.5909659934558069,-0.518446449549336,-0.36547077799677263,0.2705726931082082,-0.6636009121605793,3,right
13.873,-0.16920155378531299,0.9738027005703952,0.007535579856199109,1.2976909007460276,0.5872903441527794,-0.5196466442288314,-0.3659883829148788,0.2706193539889238,-0.664402147040893,3,right
13.874,-0.15841850365255883,0.9691531112722527,0.011808524647901424,1.2998870819868442,0.5880854454369979,-0.5189668756757002,-0.36582897119226726,0.2705928475323037,-0.6641014099457443,3,right
13.88,-0.14684069756518964,0.9613848134436052,0.010264694287486114,1.3043002705639197,0.5891309291423732,-0.5192942317291231,-0.3655510767219267,0.2705955876885253,-0.6637949053921246,3,right
13.880999999999998,-0.1383224128272262,0.9546420036150158,0.006625579488717928,1.2975575541401414,0.5873805927958176,-0.5192631842314352,-0.36619179991801487,0.2706118740132045,-0.6646021377204593,3,right
13.882,-0.1333021091301747,0.9471406600686435,0.0008755634629053273,1.303158951389321,0.5889748679532744,-0.5188595028237981,-0.36542603775686117,0.27058705504081615,-0.6636135350584664,3,right
13.882,-0.13137347022425966,0.9387878501550189,-0.0013731030252438982,1.3008175593540499,0.5879991549839767,-0.5199751939470107,-0.36592395023010255,0.27060639307630907,-0.6642706548540944,3,right
13.887,-0.1336560101315555,0.9328223208802064,-8.777268892264431e-05,1.2992223676009336,0.5882538517207982,-0.5179205946297194,-0.3661807486421147,0.2706075323583081,-0.6645700086168904,3,right
13.889000000000001,-0.13861311155370676,0.9249283349526084,0.001947968679167866,1.304048098703221,0.5885693979822808,-0.5208112365416039,-0.3647388276899141,0.27057389091817585,-0.6627671082718054,3,right
13.892000000000001,-0.1464150173639041,0.9162195250521269,0.0052431521397929,1.2980090122622547,0.5879785969437763,-0.5177937030526745,-0.3674879789427834,0.27064305019019586,-0.6662270689137865,3,right
13.892999999999999,-0.15925113256582815,0.9091876466774813,0.011284684041896052,1.302097969674429,0.5884904666945063,-0.5194942132055593,-0.3639309405534067,0.27055180698500614,-0.6617422785115377,3,right
13.895999999999999,-0.1769170705367794,0.9022102752460701,0.02236740882673685,1.3037586260713798,0.5884015780658233,-0.5210938149200898,-0.3669118251017126,0.27062900923745314,-0.6655042633886011,3,right
13.897,-0.20023325188053082,0.8981028732413356,0.033933638669422866,1.2930522822323778,0.5878127189617682,-0.514340123863936,-0.3668138630518062,0.27062533979003744,-0.6653748043940142,3,right
13.901,-0.22424982126008153,0.8961710770677689,0.04116280100758038,1.313718903874854,0.589135592482813,-0.5268062703210741,-0.36117597856624795,0.2704823341241098,-0.6582748833184661,3,right
13.902000000000001,-0.24861087018401898,0.8930751176347709,0.042089209965032376,1.28689059044724,0.5873540637393767,-0.5108206803207994,-0.37505798528324985,0.27083610465733493,-0.6757657729794748,3,right
13.905999999999999,-0.2773320946353923,0.8923363084379257,0.03778410851854519,1.3094094879713263,0.5888759247129803,-0.5241564859213175,-0.35203191909496345,0.2702486832042843,-0.6467496764295644,3,right
13.907,-0.29246489307937906,0.8939180008612209,0.03481013612238405,1.3086149523478834,0.5887819736525903,-0.5238112459038927,-0.38240611098046784,0.2710237902453387,-0.6850276742410417,3,right
13.914000000000001,-0.29552765749893817,0.8942636494692913,0.03406608603490931,1.2661698534855153,0.5860208833543854,-0.49834138502380093,-0.5098941270727417,0.27427621247579814,-0.845671976487866,3,right
13.915,-0.3082756887147803,0.8990808191588597,0.033136568267512476,1.3707585774141238,0.5928826386158939,-0.560919115428197,-0.5402680121378557,0.27505135202043013,-0.883951804659417,3,right
13.915,-0.3206745574012702,0.9068995272517174,0.03122993438860069,1.1972513882291302,0.5814784765003465,-0.45717336436891115,-0.5172402355821635,0.27446371144395876,-0.8549305684895749,3,right
13.915999999999999,-0.324888552438962,0.9081728667415908,0.029198459464307495,1.4261331998025575,0.5965283676585786,-0.5940067908035647,-0.531129602529959,0.2748181201815816,-0.8724318952582144,3,right
13.915999999999999,-0.3258727044864134,0.9084828159037752,0.028391272784016083,2.386774121683412,0.6596735501890645,-1.1683960436796337,-0.5254757033599136,0.27467388787279784,-0.8653154732526782,3,right
13.917,-0.32324437508271264,0.9143633861456497,0.027719503574251545,2.6156343466602516,0.6747178938934608,-1.3052189227441673,-0.5254022357804398,0.2746719603012186,-0.8652061060415687,3,right
13.921,-0.31960310360427047,0.919278818981755,0.028219008249864945,2.442141890261465,0.6633169973985722,-1.2014910136065042,-0.5283559768250097,0.2747473835257337,-0.8689516224244742,3,right
13.922,-0.3145935669872004,0.9203852141253868,0.027262695591903936,2.5467700381438387,0.6701907276895924,-1.2640503077226035,-0.5248160042040781,0.2746570144283823,-0.8644678186114744,3,right
13.925999999999998,-0.30992099049381555,0.9223445061831166,0.02146908090916968,2.5041845036274344,0.6673897465776959,-1.2385895493922754,-0.5275762937013684,0.2747274630349591,-0.8679559741177194,3,right
13.927,-0.3080105956480753,0.926941111404554,0.013530878494873045,2.5036500703055267,0.6673682769388223,-1.238256093715255,-0.5260770856546839,0.27468923098958054,-0.8660862780729108,3,right
13.931,-0.30856224324390424,0.9320470389111613,0.010020568416127001,2.525829707959263,0.6687969008922066,-1.25154988746494,-0.5264450774163785,0.274698551616386,-0.8664873426765427,3,right
13.931,-0.3124899840531533,0.934601183269034,0.01835681954593874,2.499297168301639,0.6670948691607971,-1.2356375053826594,-0.5267930382951498,0.2747075433804293,-0.8670336223227602,3,right
13.936,-0.3164240662125646,0.9336074142646545,0.03328925765322113,2.5199142624037147,0.6684082252755392,-1.2480138032499,-0.5261670806486314,0.27469143855789613,-0.8661126384781381,3,right
13.937000000000001,-0.31919663327763836,0.9309254677068486,0.04438514650823713,2.5087740023137255,0.6676939963872104,-1.2413314990479716,-0.526762421327112,0.27470672918133765,-0.8669681756955366,3,right
13.940999999999999,-0.32603861986705956,0.928911849622578,0.0503590390595092,2.5115228334082857,0.6679107064830307,-1.2429320937938062,-0.5263319877029556,0.274695757364356,-0.8664267637118226,3,right
13.942,-0.3369850599195142,0.9292589173254981,0.05455465508540844,2.5139126342329314,0.6679518106805182,-1.244499796492487,-0.5266058558558795,0.2747025394297472,-0.8665763510112239,3,right
13.945,-0.3494311870449341,0.9300919953507613,0.05928185576217218,2.5097720086477047,0.6678794728047477,-1.2417844469872592,-0.5264091008777174,0.2746979694288273,-0.8667751255510543,3,right
13.946,-0.36728846707331864,0.9308087011602051,0.05733537871710661,2.5133635494317086,0.6678703077120891,-1.244226268470876,-0.5265998692931765,0.274702181905454,-0.8663491959705907,3,right
13.95,-0.3881912022854942,0.9348491167026762,0.04220305839651426,2.511113773011468,0.6679179377252669,-1.2426462069293345,-0.5264156200155305,0.27469815879101567,-0.8668272275040187,3,right
13.950999999999999,-0.4046141567555094,0.9408408710987004,0.03046899595693128,2.512540153912043,0.6680134687346835,-1.2434971028316082,-0.5264918889582177,0.27469974697292443,-0.8665131456631369,3,right
13.955,-0.4204791240989232,0.9444112674622022,0.03626134009494897,2.510696256479564,0.6675293674964995,-1.2428303969194874,-0.5267072562763286,0.27470482767398885,-0.866430421650948,3,right
13.956,-0.4363527121703611,0.9451015914652436,0.044057448903644325,2.514130913351587,0.6685844307531106,-1.2438877642706712,-0.5260095584179719,0.27468861617770923,-0.8670999052622967,3,right
13.96,-0.4493009529245704,0.9446128643837375,0.0485942429499657,2.5088253008440264,0.6669985406055534,-1.2422020111867886,-0.5272593129379625,0.2747176476468496,-0.865803187774999,3,right
13.960999999999999,-0.4671900842376147,0.9433551284283257,0.060917494956707736,2.5147221730422915,0.6687049352576333,-1.244142831611796,-0.5256643890586559,0.2746805277851511,-0.8674801584587153,3,right
13.966,-0.4880868865427085,0.941986951003073,0.07514905017755666,2.5113165663874355,0.6677191664729121,-1.2430228416768843,-0.5269920435669647,0.274711554577292,-0.86607592966414,3,right
13.967,-0.5106652590257958,0.9418604441793555,0.08982385639053453,2.5078507481803376,0.6668343000444568,-1.241739060676604,-0.5269711746040284,0.2747107839483651,-0.8661313887686313,3,right
13.97,-0.5374853853226117,0.939609828160846,0.10191939995172652,2.522335022750114,0.6706613957923582,-1.2469457298655522,-0.5243898652227837,0.2746511085624751,-0.8687499658141862,3,right
13.970999999999998,-0.565846757020291,0.9368073734864109,0.09735526641307984,2.49550544092816,0.6635663197736178,-1.2373100756208948,-0.5307169562529532,0.2747979762230327,-0.8622949378100431,3,right
13.974,-0.6032176595214755,0.9419425199620732,0.09072323738323591,2.5300028942761115,0.6726795975913613,-1.24970953742725,-0.5202304872321417,0.2745540842849873,-0.8730005260794527,3,right
13.975,-0.628230641130584,0.9476250643783417,0.09258871363802568,2.5011783800736618,0.6650701321362464,-1.2393452250496522,-0.5340622679762401,0.27487626852976604,-0.8588825066957677,3,right
13.98,-0.6343541824037169,0.9488155817659608,0.09465165619907229,2.5019124531082912,0.6652722282659544,-1.2395936164103436,-0.5921368433572265,0.2762234548982923,-0.7996151514693175,3,right
13.981,-0.6571638738882493,0.9530406978282223,0.1066862850015518,2.5570898181663964,0.679798109939166,-1.2594958880359366,-0.605971478976249,0.2765465276172411,-0.7855046552128517,3,right
13.982000000000001,-0.6849230710089199,0.957289725284539,0.12325097747148751,2.4214937684237348,0.6440984092957167,-1.2106012197006302,-0.5954819207876345,0.2763016743956316,-0.7962021034233715,3,right
13.985,-0.70126292436743,0.9639470189393601,0.13269110589340238,2.64633531681893,0.7032901780860958,-1.2916751150726806,-0.601807838400902,0.2764481764995873,-0.7897439815692289,3,right
13.985,-0.7110649033431431,0.9705005609764475,0.14024924011158565,2.349746878183559,0.6252158150405733,-1.1847294323791107,-0.5992367720396226,0.27639168964566513,-0.7923895543395271,3,right
13.985999999999999,-0.7126282452323849,0.9724833927117177,0.14026559144425518,1.1049584096343974,0.2974845960937036,-0.7357740752439433,-0.5991938620838428,0.27638405842946634,-0.7923869261903891,3,right
13.989,-0.7178715207483941,0.9847667963231308,0.13246357733613273,0.8083584757088567,0.21940860113868182,-0.6288165762302058,-0.6005531203783802,0.2764249219582295,-0.7910659847672828,3,right
13.99,-0.7233450851459634,1.002681975978294,0.12247257616448043,1.033187968580802,0.2786035233684241,-0.7099057014752177,-0.5989267238813147,0.2763780067015974,-0.792660016067233,3,right
13.994000000000002,-0.7207641087361191,1.015419605498316,0.11315201574702691,0.897683402847379,0.24289957855441272,-0.6610072338929753,-0.6001900616738687,0.27641126481012235,-0.7913990901106767,3,right
13.995,-0.7100355670919243,1.02812575820783,0.11397855247394986,0.9526406611337586,0.25742973766123617,-0.6808849547394606,-0.5995193818392166,0.27640346448593844,-0.7921397838623754,3,right
14.0,-0.6863856020986194,1.0402575185146699,0.13107770166730837,0.9537288388617494,0.2576294006268497,-0.6811980999011469,-0.5996477031323585,0.2763814500671433,-0.7918276537367702,3,right
14.001,-0.6602756410805314,1.0500933711553997,0.1618849373953756,0.9244922681576652,0.25001800339231006,-0.6707313918365925,-0.5998739636549272,0.27642972449817915,-0.7919088586946549,3,right
14.004000000000001,-0.6414048588593633,1.0546036368095968,0.18006306541868505,0.9592805613583528,0.2591399756742574,-0.6832447512494956,-0.5995056290058212,0.276368405416569,-0.7919017631364722,3,right
14.005,-0.6230613550461368,1.0587523571756465,0.17068970699769767,0.9325473560452013,0.25202857466738077,-0.6735377901595438,-0.5998431712382226,0.276418297347683,-0.7918626167899512,3,right
14.009,-0.598121862465205,1.0705101356789841,0.1628250907016876,0.9462706562629477,0.2558771773429218,-0.6786977272128152,-0.5996476964794263,0.27641413363767037,-0.7920648002582341,3,right
14.009,-0.5613514059428892,1.0835952156062092,0.16530985228940787,0.9443766123452533,0.2549728737842213,-0.6776523309548501,-0.5996492549140983,0.2763361485109129,-0.7914967070891408,3,right
14.013,-0.5129256336568528,1.0944975700094943,0.16040514001292677,0.9387621454787509,0.25399230186595856,-0.6760717454405782,-0.599841189928727,0.27651889933970575,-0.7925955024359435,3,right
14.015,-0.4622130454967891,1.1070684512196638,0.14606785438256825,0.9468393948752445,0.2557223637001149,-0.6786307269525715,-0.5995080173387732,0.2762451861173696,-0.7910040616820531,3,right
14.017999999999999,-0.4132866787182012,1.1281410619193135,0.13418924300839652,0.9405882012978992,0.25407272374810286,-0.6763732076984337,-0.5998719263926292,0.2765371676473043,-0.7926916820817553,3,right
14.019,-0.36892971444071765,1.1568266126469715,0.14815509214396239,0.9421889580438896,0.2552305334341233,-0.6776070437948634,-0.5996478648757027,0.2763681469953825,-0.7917306136008555,3,right
14.024000000000001,-0.33464582525029996,1.1786160461807684,0.18136647301890152,0.9462888262000962,0.25462772692630903,-0.6775851596842736,-0.5995229942619512,0.2762240143242368,-0.7908325887829057,3,right
14.025,-0.30522433989092224,1.1871083984168185,0.1898715490590244,0.9374402245968902,0.2548071460836492,-0.6766325280806278,-0.6001812836033967,0.2768573632109804,-0.7946489263188996,3,right
14.029000000000002,-0.273394196983176,1.1902342134612693,0.17823056112398644,0.9478730239698607,0.2548797826334024,-0.6780084928231761,-0.5989402640507145,0.27568235914338496,-0.7875920212863552,3,right
14.03,-0.23667225566072142,1.1987129020641092,0.17695666250001713,0.9411741396319333,0.25466013808053556,-0.6769719467263732,-0.6005383782155209,0.2771912124184631,-0.7966488515675179,3,right
14.035,-0.19780683302121316,1.2147002105453764,0.1643883498965841,0.9374851561972317,0.2550232362113819,-0.6768292498443507,-0.5992022741539171,0.2759315227213143,-0.7890895748037914,3,right
14.036,-0.1624181646837655,1.235690019933661,0.13805748209882893,0.9574779655061793,0.2544542926066479,-0.6788387582128987,-0.5992456554189614,0.2759657409881398,-0.7892871331254558,3,right
14.038,-0.14124400276769963,1.2592199881959139,0.1285747865361398,0.9194914238162357,0.25526697342898985,-0.6747851895424644,-0.6017698469876468,0.2783672736830628,-0.8037243810556266,3,right
14.038,-0.1362344918743665,1.2794087391577402,0.1299188321814411,0.9685966269313164,0.25431288423710463,-0.6801075250491463,-0.5955569959360039,0.2724644943708231,-0.76824756987247,3,right
14.043,-0.12333559079448446,1.2971486275792143,0.1351438259296439,0.9274610096589389,0.25506824070064354,-0.6756153598493255,-0.6058606919376267,0.2822515476337114,-0.8270678089588581,3,right
14.045,-0.10888992144643696,1.3095885500302527,0.139070988045073,0.9287918363289851,0.2551149264213543,-0.6758113294349395,-0.592269523174775,0.26934255973353505,-0.7494840589481379,3,right
14.048,-0.10386421795791687,1.3122392023967109,0.14138547582254768,1.006651923854632,0.253498942147636,-0.6841784769709839,-0.5352306430518304,0.21515736287850598,-0.42381655080448893,3,right
14.049000000000001,-0.08493903642187942,1.3193444403585202,0.15786669210257626,0.8149644665198782,0.2573673911159182,-0.6635069248198942,-0.5216386791422811,0.20224866516412385,-0.3462306519484359,3,right
14.05,-0.06975359063163991,1.3354150184935174,0.16988013452324013,1.1329138806385672,0.2510008549278267,-0.6978194196912719,-0.5319444002053053,0.21203521900835798,-0.40505406358453144,3,right
14.052999999999999,-0.0709691012570143,1.3448517660134436,0.17177789301594,0.7134914100434997,0.2593701603924182,-0.6525500519199954,-0.5257277507349485,0.20613297717701873,-0.36957513428324024,3,right
14.054,-0.07058624818451197,1.3465602960114953,0.16968769061901923,-1.0467872627747346,0.2947388428548581,-0.4625481513770047,-0.5282575939357282,0.2085341970763802,-0.3840108598853742,3,right
14.056,-0.07620982904609644,1.3533295325642558,0.13876967613809643,-1.4662285864280085,0.303077771357778,-0.41728256131029035,-0.5282944971933028,0.20856818363075053,-0.3842158288103142,3,right
14.058,-0.08475406965476415,1.3650211061469877,0.08844812857368406,-1.1482341093622586,0.29675058848346086,-0.4515998628139461,-0.5269631318377908,0.20730955053477357,-0.3766426159633818,3,right
14.059000000000001,-0.09045822239544196,1.375753413547721,0.054009737074086864,-1.3400011734749118,0.30060855873125464,-0.43089525386952443,-0.5285622103591285,0.208816446776449,-0.3857174594713738,3,right
14.062000000000001,-0.10249240352925709,1.3889514759589223,0.046714457102914934,-1.2620286364655708,0.29893092799088566,-0.43934090415439586,-0.527310220518461,0.2076439675941426,-0.37864510142978036,3,right
14.062999999999999,-0.1228100469612301,1.4078824421356662,0.04690604761128489,-1.2608194342978458,0.29914190156265763,-0.4394113523657244,-0.5279920027452996,0.2082751245647482,-0.3824636699965468,3,right
14.068,-0.14695996608084005,1.4291142929015177,0.036370622379658116,-1.3018769999541053,0.2996363651140146,-0.4350644231070099,-0.5278332918522346,0.2081313913141759,-0.38158890442169546,3,right
14.069,-0.16403282708938433,1.446302871790359,0.035898027834657696,-1.2527291909584715,0.29897371962341635,-0.44028552265682075,-0.5276437932603512,0.2079654632194948,-0.38057047907928787,3,right
14.073,-0.17113023844792946,1.4603132596637458,0.04599417773918264,-1.2909575623502885,0.29960187734344823,-0.436195064322062,-0.5279904914393773,0.20824963597584895,-0.38234683430264604,3,right
14.074000000000002,-0.17044303004764516,1.4740746420903508,0.020803952605714868,-1.2704864669183764,0.29891808876708886,-0.43847715998102865,-0.5276334029245607,0.20798814096386886,-0.38065726003677997,3,right
14.079,-0.16267522476877644,1.4868345877012443,-0.047977596480542464,-1.2748303656045308,0.2998841097879783,-0.43777578129154804,-0.5279117325671502,0.20815721082462874,-0.38181820804954025,3,right
14.08,-0.1476446264664356,1.502512963441181,-0.1028429450212825,-1.2809036790812605,0.2984933386088584,-0.4375205381509155,-0.5277590525900782,0.2080881765822814,-0.38128768268057295,3,right
14.082,-0.11762422168354708,1.51815672864489,-0.11156933755131015,-1.2707045237625059,0.3001437158449558,-0.438130232333338,-0.52775885202666,0.20808858871246413,-0.38128960321002137,3,right
14.083,-0.07805327424650266,1.5287906540218017,-0.1025446283479903,-1.2801648556127476,0.29885539524756805,-0.43750076097499285,-0.5279312855448938,0.20811155900916828,-0.38164106263317116,3,right
14.087,-0.04588139096778325,1.5369714840682445,-0.09366197760020047,-1.2742331125965154,0.29872275795983405,-0.4381442689031259,-0.5275839857654466,0.20810361454578497,-0.3811047919105036,3,right
14.088,-0.026739417244981956,1.5427770707856898,-0.0895465610732995,-1.2757127562347788,0.30149552498425025,-0.4372583194887424,-0.5280635877152189,0.20807877654853973,-0.381684959643229,3,right
14.092,-0.018802245948434396,1.5520103687619184,-0.08833431234979294,-1.2782553851125347,0.295279013497855,-0.438644043952941,-0.5275748139248645,0.2081267638194003,-0.38119495848572615,3,right
14.093,-0.01848052803521795,1.5665178531435786,-0.076413598543113,-1.2730442145459921,0.30452343990037634,-0.43672939590987636,-0.5278500816938542,0.2080919965845682,-0.3814371449716705,3,right
14.095999999999998,-0.018220780137546258,1.5734217420983665,-0.07326467915509742,-1.278862447868383,0.29467518619897237,-0.4387426341308813,-0.5280842100531833,0.2080598211123986,-0.381628341421803,3,right
14.097000000000001,-0.011598182069912198,1.5703611255521412,-0.09270843081795668,-1.275085290390495,0.30035521520217157,-0.4376232447988714,-0.5270678671562828,0.20821020938131723,-0.3808400057621312,3,right
14.103,0.0013626706224009316,1.568534491606297,-0.1075552284930269,-1.2738906370397693,0.30529891153594113,-0.4364388616952596,-0.5289445551808514,0.20792288337740183,-0.3822551553385457,3,right
14.104000000000001,0.01518055250679869,1.5711052548818898,-0.09508728499672395,-1.2824901692894919,0.28374334531225276,-0.4412648441963096,-0.5265403743025198,0.20829784735683127,-0.3804703174884756,3,right
14.107000000000001,0.024442716310978965,1.5748122711812194,-0.06006671042462005,-1.2659369087440604,0.32370085868273635,-0.4323776644591727,-0.5285452273195828,0.2079815404550283,-0.38194670594434477,3,right
14.107999999999999,0.038370579809181155,1.5782003180856323,-0.029624670111941132,-1.2873237411624538,0.27240140066817553,-0.4437777121476486,-0.528490081492659,0.20799190418158464,-0.38190336168478145,3,right
14.110999999999999,0.059852729173276456,1.57698792147125,-0.020529430516366607,-1.2694213477839713,0.3152200670108603,-0.43426156958713524,-0.5246738255704395,0.20859483996285438,-0.3791217943684878,3,right
14.112,0.0774997948379983,1.5714895619231886,-0.02839589799190658,-1.270100525841969,0.31408286018259285,-0.43450731056781355,-0.534053361710892,0.20710745893286955,-0.3859533446753802,3,right
14.116,0.09505592340413235,1.5685809350158193,-0.04334127568646228,-1.3035821080551466,0.23238042262807448,-0.4527013381308841,-0.5185024921568158,0.2095778170867788,-0.3746331869571255,3,right
14.117,0.10845580190150225,1.5681105768178014,-0.052352029992529525,-1.221074649222874,0.4331545972494887,-0.40798714512744444,-0.5390133635037131,0.20631622650060175,-0.38955912882524246,3,right
14.117,0.11160710847198435,1.5671192275343948,-0.05300789960702125,-1.357912315530903,0.10028999399195226,-0.48213547509548765,-0.6250869728927193,0.1926838941797613,-0.4521426627241917,3,right
14.122,0.11383169367162715,1.5663386886704753,-0.05429171986395796,-1.1774473246357275,0.5393096234857184,-0.38431749806933224,-0.6455961389843223,0.18942352877047744,-0.46706070225690755,3,right
14.122,0.11684921824950366,1.5655154507533635,-0.05494020612155809,-0.41992976512307184,2.3824041056055285,0.02610758180890864,-0.6300499001802249,0.19188536788283717,-0.4557586705361326,3,right
14.123,0.12225062880916639,1.5652162175300242,-0.04182453972416135,-0.23953837412981782,2.821379630824759,0.1239574145183917,-0.6394202707396346,0.19042296220468027,-0.4625595535346673,3,right
14.126,0.12681241063318485,1.5666620314773811,-0.016376323067806113,-0.37629640088383065,2.4885627471322955,0.04977461757496605,-0.6356182371984054,0.19097776649718962,-0.4598195529987076,3,right
14.127,0.12741918715911899,1.5672642034606228,0.0048357985379211274,-0.2937586890216148,2.6893550646197557,0.09447570645719731,-0.63554608010571,0.1910565990927997,-0.4597334886696035,3,right
14.132,0.127952911157602,1.5650873399026963,0.01841615004511413,-0.3275043444789121,2.607494354130718,0.07639599617776989,-0.637564443400114,0.1906702166889518,-0.46123372680772845,3,right
14.132,0.12683731524050346,1.5601939536258036,0.031357046796270126,-0.32761529065218087,2.606697699260647,0.07590428134959262,-0.6351604000479124,0.1910798683564897,-0.4594718601507117,3,right
14.136,0.1217797831696633,1.5520942995165865,0.04471585850714062,-0.31052766248989094,2.649028076987168,0.08577310512278341,-0.6370117903315087,0.1908427407770259,-0.460790336744185,3,right
14.137,0.10658111572354056,1.5433338641749381,0.047884109548845095,-0.3311031138326723,2.5982148602868556,0.07402185477131629,-0.6360534856557551,0.1908131866706747,-0.4601822002772861,3,right
14.140999999999998,0.08536955502720332,1.5374392605846783,0.02955545947954892,-0.3149000326732608,2.6379625551355517,0.08306058268083306,-0.6362007048663718,0.19110232742890365,-0.46013685489427747,3,right
14.140999999999998,0.07025437811300708,1.534770472728271,-0.0013883007322574087,-0.3241961150277596,2.615989480967019,0.07853615731116464,-0.6365689254499601,0.19066058158124133,-0.460591380461386,3,right
14.147,0.06381669963272839,1.5330509212264407,-0.02831980405320029,-0.3207573518287036,2.6222781419797228,0.0787490996641143,-0.6360263873665178,0.19105225987885804,-0.4600480884242479,3,right
14.148,0.07459910872966213,1.5307878576495142,-0.039379779040432925,-0.3208470758234947,2.625640709104733,0.08154234551535272,-0.6364587544798346,0.19098617819605085,-0.46036109711358975,3,right
14.151,0.10572587138161577,1.5285106201381997,-0.03140055047507702,-0.32191947849478975,2.6186365953868083,0.07747484089686447,-0.6363184445825927,0.19044191973433888,-0.46053519094289974,3,right
14.151,0.1440106041239355,1.5274704844169924,-0.016299191896991774,-0.3204922078882484,2.6256134868096535,0.08102728604632971,-0.636102707623431,0.19177117676746486,-0.45974744477989704,3,right
14.155,0.18346028502536754,1.5295361299333257,-0.0006981023720540078,-0.3230678793435433,2.6193768811345284,0.07965607254087555,-0.6366134343082919,0.18975787244123932,-0.46105987399110093,3,right
14.155999999999999,0.2200868318567095,1.530912418602845,0.010262847251010456,-0.31752716028783434,2.6263573342848026,0.07750289698889029,-0.6359998891989993,0.19191548469428737,-0.4596106340960029,3,right
14.16,0.24736398758206105,1.5275502384210888,0.005580867893359892,-0.32764050973991843,2.616608529650575,0.08380495341538939,-0.6364007099373805,0.19066071893730202,-0.46048157410999396,3,right
14.161,0.270917128154725,1.5213818183414303,-0.010060909178741806,-0.31316318707298507,2.6296661328646964,0.07407264851205733,-0.6366022256616006,0.18960429723782202,-0.46112795081758506,3,right
14.165,0.2920703638816171,1.5123149087627337,-0.028476962918801762,-0.3284833424698348,2.6160232124445555,0.0845090046874751,-0.6354546665751156,0.19427482098525212,-0.4581066234307051,3,right
14.165999999999999,0.30678446060201525,1.5010176579542698,-0.04729346890819272,-0.31980973492611814,2.62346914342494,0.0783816622685357,-0.6376455390353715,0.1856012674752603,-0.463755023606208,3,right
14.17,0.31736915647434716,1.4884660267003027,-0.06003593546035199,-0.31144705411186197,2.632052008220737,0.07358156175834416,-0.6348098148315926,0.19674417868646188,-0.45648608794919165,3,right
14.171,0.32506067939665206,1.4742982672820237,-0.06920456122782141,-0.34659793511087617,2.5980319595248136,0.09537756908631861,-0.6371866370122123,0.1874369745495164,-0.4625610151420394,3,right
14.175999999999998,0.32719255453587426,1.4610089280263308,-0.07950183726093216,-0.28166973273922197,2.660483121873365,0.05481450544891026,-0.6371079005375155,0.18769826766547112,-0.462387010389426,3,right
14.177,0.32255476689949814,1.4521086480747685,-0.08687220064474314,-0.36498521673683715,2.5804361029023797,0.10693117699454688,-0.6326141846204731,0.20542212803259866,-0.45082913047276074,3,right
14.181,0.3147526643691516,1.4479348243650083,-0.09210010163946335,-0.29544784433653337,2.6472055664931506,0.06340894270853109,-0.6436798240735018,0.16184141721997264,-0.47925017403767023,3,right
14.182,0.2973804308510927,1.4439979284090674,-0.09177550402837234,-0.29725116900510673,2.64562034846645,0.06463593264226467,-0.625324961864543,0.2341123140474336,-0.4321226903218278,3,right
14.184000000000001,0.28216111811492195,1.4426432196713441,-0.08813278444333955,-0.4301141191332015,2.5175754250976077,0.14746275428249933,-0.649537331807399,0.13877601329274059,-0.49428396517896867,3,right
14.185,0.27988048474741534,1.4439693040390154,-0.08815747741149553,-0.10363646375259425,2.8320332655859426,-0.056172635827201625,-0.7511628909880056,-0.2612702966763285,-0.7552168994072939,3,right
14.186,0.26295897537307,1.4383960713461184,-0.07878859487135045,-0.6449400747990273,2.310714329385376,0.2814782898916036,-0.7753749276585994,-0.35662502237998484,-0.8173756750417529,3,right
14.19,0.2455776210372909,1.4329727986929603,-0.06802275478408168,0.06904693557900429,2.9983269413476363,-0.16388197668395788,-0.7570187202895371,-0.28433392045881933,-0.7702496544774688,3,right
14.190999999999999,0.2428455984730555,1.4318113872086657,-0.06546886056085333,3.0657504037334666,5.884864259340078,-2.033219973058853,-0.7680905386541621,-0.3279080076577453,-0.7986761215581368,3,right
14.192,0.2272249479583265,1.4255320671478475,-0.05012420937085016,3.7797350955265103,6.572504336506974,-2.478574271520302,-0.763583170964307,-0.3102482968757245,-0.7871002113104857,3,right
14.195,0.20672854465858942,1.4192260228924487,-0.027965850985998,3.2384824558675636,6.051159262082788,-2.1409284857496154,-0.7635254868448327,-0.30984765829103444,-0.7869589478363781,3,right
14.195,0.18840891536449092,1.4112395316881625,-0.008538859660791903,3.5647894087055665,6.365593129816514,-2.344570997118353,-0.7658787862242936,-0.31935571199035984,-0.7929917769777444,3,right
14.2,0.16704034436838494,1.3966565138770832,0.013056789762054754,3.4322720242531086,6.237672898178589,-2.261713138438899,-0.7630581643703582,-0.3080114769479929,-0.78575870872585,3,right
14.2,0.14866890709101832,1.3817382474159485,0.026602252032765464,3.429961589048145,6.235836841656585,-2.26054650304544,-0.7652579730420336,-0.3167743483741836,-0.7914028738248844,3,right
14.204,0.12862604696261482,1.362996425069103,0.03428088666401005,3.500036776657386,6.302951984894881,-2.303987345543396,-0.7640618389733089,-0.3122710574391312,-0.7883248446640032,3,right
14.205,0.11082185087041035,1.3392751217124221,0.03930154445773404,3.4164221669349235,6.222578193261393,-2.2519452974377634,-0.7643585715022566,-0.31277906256584603,-0.7891093120565159,3,right
14.21,0.09637676748343202,1.3135148834111754,0.04168798736226973,3.481040403089403,6.285137944072921,-2.2924880948824455,-0.7646301065072909,-0.3149842873948847,-0.7897676145995184,3,right
14.21,0.07751229294209969,1.2836903070002705,0.05101545755040879,3.44715802121043,6.251473174306892,-2.2706005123814696,-0.7641382920523329,-0.31165436700227833,-0.7885524653786579,3,right
14.214,0.05902567874125412,1.2535233677855981,0.05231785024763844,3.4531749164536087,6.259040058228344,-2.275648299559685,-0.7646071557847015,-0.31461104233707154,-0.7897184120025658,3,right
14.215,0.04102765101439541,1.2266444198453461,0.03746758916979218,3.464902345258416,6.268163630707766,-2.2813757221350706,-0.7642639837557792,-0.3132700454778258,-0.7888369284688952,3,right
14.218,0.01911490456589949,1.203409543282207,0.02709646621070738,3.446883778742732,6.252539286731208,-2.2714016463686573,-0.7644928948501108,-0.3121098818706658,-0.7894949336475336,3,right
14.219000000000001,0.002136084463998351,1.1846982733663598,0.02530994815517565,3.4619444645403226,6.267060835448714,-2.2808080141947227,-0.7643118396753308,-0.3161076620674402,-0.7888696282635241,3,right
14.224,-0.006471667391558978,1.1663605686658136,0.020947818004250482,3.4554463502261425,6.257591559837313,-2.274404935623096,-0.764500023894417,-0.30982128934511827,-0.7895920026186183,3,right
14.225,-0.01607722466198011,1.14608943141595,0.00972271533474308,3.4516215390528275,6.261243891740522,-2.2773880877173154,-0.7643146614597758,-0.3165826568703729,-0.7888612546904422,3,right
14.229000000000001,-0.026763788098999708,1.1267522111230526,0.003161567699638212,3.463904021489271,6.262130001093327,-2.27704042129914,-0.7643976818065594,-0.3125811871977806,-0.7892213690844525,3,right
14.229000000000001,-0.04392707104299995,1.1081444858179954,0.0072021889521498,3.4484045603652715,6.258867704781663,-2.2759098686179637,-0.7645885675644606,-0.30960142000928115,-0.7898390148623116,3,right
14.232999999999999,-0.07346982771107663,1.0909679601449085,0.007543565782825272,3.458972917660015,6.2623061144836925,-2.2775696202239093,-0.7639484489296381,-0.3234107876442285,-0.7876391375369484,3,right
14.234000000000002,-0.10943802256755478,1.0786750625990105,-0.0012116400033514898,3.463068889561575,6.260440541371002,-2.2758709893488787,-0.7651003305673951,-0.29766263478154487,-0.7916276227097007,3,right
14.239,-0.15372892943236477,1.0774579984940365,-0.016870888414059104,3.4358932047447786,6.25969587301595,-2.277531831862937,-0.7636291318782167,-0.3307554186490729,-0.7865271946044881,3,right
14.239,-0.20125286194928638,1.0882875268435082,-0.03760415239922234,3.488474957218058,6.263180716767032,-2.2758155689034223,-0.7648542143603332,-0.30311562735954545,-0.7907760830919182,3,right
14.245,-0.26025617880942165,1.1055728722623048,-0.050083834654281525,3.4201719672498037,6.2579494290468025,-2.2775281231056326,-0.7648332150796717,-0.3039114080500128,-0.7906948971980035,3,right
14.245999999999999,-0.3224159310211707,1.1270248908000862,-0.04794159452957815,3.4775238176553565,6.262633736987659,-2.2763054619045695,-0.762457221278396,-0.35645788933769246,-0.7824841791937803,3,right
14.248,-0.38132953332037733,1.1485010497331882,-0.030897522225389547,3.475467148678744,6.262021322489845,-2.276019943160076,-0.7682829088902423,-0.22724952171761734,-0.8026233643997789,3,right
14.249,-0.4615681602329621,1.166936452778669,0.0008906252877281841,3.3674529073486412,6.254383567366798,-2.279199267517537,-0.758627180442718,-0.44149647375452616,-0.7692447241586362,3,right
14.253,-0.5106793709972117,1.1778851358832252,0.0229695728431007,3.6336624774655304,6.273853051065775,-2.271844680624495,-0.7713629502710431,-0.15890577239328513,-0.8132667413384737,3,right
14.254000000000001,-0.537471597505597,1.1816333623887336,0.030384310334988625,3.192009651867056,6.24131660612481,-2.283866781468907,-0.8248364615837593,1.0272081102158888,-0.9981338362737207,3,right
14.255,-0.5837258787453741,1.185050753606084,0.04038593002899658,3.7746324515740555,6.284313427755158,-2.268070200670858,-0.8375741204779803,1.3097913012007134,-1.0421539976381933,3,right
14.259,-0.6108677463655334,1.1880962877682606,0.047139175804592384,6.219877812316545,6.464497033519793,-2.2015310116143345,-0.8279163495962316,1.0955524760449455,-1.0087773664705721,3,right
14.26,-0.6736820869029427,1.1924229197478455,0.04908545770177008,6.802476497849824,6.507468557668725,-2.18573807879707,-0.8337412548701763,1.2247639300799404,-1.0289173110725571,3,right
14.26,-0.7774828889215153,1.1958387467208333,0.045672252986754876,6.3608102548038765,6.4749224251197495,-2.197722593091223,-0.8313720510004594,1.1721905033397544,-1.020699941558203,3,right
14.263,-0.8691768478526365,1.1994662953371966,0.03814149127491042,6.62716968415484,6.494533578508204,-2.190485657713618,-0.8313364492179552,1.1714527047497085,-1.0206330730881317,3,right
14.264000000000001,-0.9677748602755539,1.205869803931058,0.028568517435969894,6.518780407020916,6.4865344282097785,-2.1934324294128418,-0.8325824632057648,1.1990093570230953,-1.0248614286032065,3,right
14.269,-1.0529920306379417,1.2082290001478677,0.008806738421025511,6.517337945778106,6.486518821769726,-2.1934831718623657,-0.8310904279992875,1.1659993678227103,-1.019781452914015,3,right
14.27,-1.1106688808438743,1.2084721019061195,-0.01749481833866999,6.573963445191758,6.4904921591081095,-2.1919097642051293,-0.8322512874055177,1.1917117859992956,-1.0237611023644773,3,right
14.274000000000001,-1.1388305954269717,1.203348753341946,-0.04518187565538046,6.5061910220876165,6.485788072991637,-2.1938074791879303,-0.8316290908349189,1.17783134539355,-1.0215436873887915,3,right
14.275,-1.1225390010662206,1.1930889470366437,-0.06265227730584673,6.5589017207304,6.489381123417099,-2.1923160656244676,-0.831762295459748,1.1810400990248422,-1.0222178698911173,3,right
14.277999999999999,-1.0652895112471785,1.1871694548670257,-0.0619331802033203,6.530445821669543,6.487410265413676,-2.19311571261978,-0.8319446739645373,1.1846469924137062,-1.0224805446943859,3,right
14.28,-0.9668427222590688,1.174506806635779,-0.046162865048365365,6.53724701704851,6.488163858247404,-2.1929831762701317,-0.8316374047946891,1.1783698933706213,-1.0218694055236393,3,right
14.282,-0.8368989047181701,1.1515135709882447,-0.008956170286306004,6.543959667974948,6.48784490041743,-2.1926303349302723,-0.8319227331795259,1.1842701474182604,-1.0224963832635665,3,right
14.282,-0.6936202141643242,1.1250990674444035,0.03635514682840673,6.532336468415245,6.488391218918101,-2.1932412887687005,-0.8317426490644522,1.1802690101607258,-1.0218703168907022,3,right
14.288,-0.5558259838071554,1.079298842131747,0.058498713340234106,6.542807380037559,6.487440444070307,-2.1925936665470163,-0.8317910446171074,1.1821455156180483,-1.0227051485062164,3,right
14.289000000000001,-0.4410527888188515,1.0050160020988126,0.05244816063562844,6.536021582697176,6.48831400971844,-2.193067973538131,-0.8318602194726089,1.181849280941886,-1.0214193959949638,3,right
14.292,-0.36025585908031194,0.9120052524840612,0.04653670140937015,6.539643142053391,6.488592790444727,-2.1929719582103493,-0.8317140819653136,1.1813352111073736,-1.0231885760047978,3,right
14.293,-0.31621833698491464,0.8111424024248988,0.06480312268372988,6.536913899496845,6.485842865737261,-2.1925080294431014,-0.8318776854919168,1.1820611062568682,-1.0213302065234826,3,right
14.298,-0.2991831005616271,0.7183816680538662,0.1013262257530532,6.541167443084376,6.491982046918663,-2.1936227148313865,-0.8317708461427145,1.1813607245282147,-1.0223604293036024,3,right
14.299000000000001,-0.2988604800515866,0.6412161658605426,0.13784287133563633,6.534359510519028,6.482788577887246,-2.1919719369217665,-0.8317403800076455,1.1821492066790675,-1.0234646651979662,3,right
14.302,-0.30983550203720167,0.5808748101659632,0.16715554610166547,6.542230064625871,6.492635037847917,-2.1937154019816605,-0.8319740578398754,1.1809769221311273,-1.0189854179705324,3,right
14.302999999999999,-0.3263422662753864,0.5419004219230328,0.19575947712477215,6.5376870381718675,6.486944879744929,-2.192707472773542,-0.831523164140556,1.1827401013765493,-1.0272288868773427,3,right
14.307,-0.34680337162505387,0.5225447386625524,0.22027287001762133,6.532419891064123,6.481943892975762,-2.1918765333172185,-0.8321052851200839,1.180567733430159,-1.01665746048117,3,right
14.307,-0.3704022195389507,0.5183696766599648,0.2350928962862774,6.553727507406549,6.503709779691519,-2.195563124537374,-0.8316191022932196,1.1823449584968035,-1.0254783785089814,3,right
14.312000000000001,-0.39411280977287755,0.5262020218051358,0.22993147604702008,6.514294385593301,6.46334755777915,-2.188722975721516,-0.8316352781485516,1.1824379434649024,-1.0252591970758704,3,right
14.312999999999999,-0.414420449048053,0.5402673878625621,0.20421183389084174,6.5650462102526355,6.515186456216651,-2.1975039214026166,-0.8325493874008344,1.1785841780264779,-1.0083728285911535,3,right
14.317,-0.4252966867197357,0.5544305761508552,0.17708832111994233,6.522617266464367,6.4718998969555255,-2.1901732511061462,-0.8303019820237465,1.1878920299769757,-1.0498567494946527,3,right
14.318,-0.4425922447656121,0.5728611990464748,0.12739044607625405,6.523640110000528,6.473072585335867,-2.1903784643959687,-0.8340249480422417,1.1724990988721729,-0.981077025992948,3,right
14.321,-0.4598977741567265,0.5858923240329864,0.08477135886638201,6.605111760527211,6.555628819935309,-2.2043331531132955,-0.8291195531444205,1.192802538262391,-1.0718009104748434,3,right
14.323,-0.4610768200096861,0.5875729817527258,0.07671987066784407,6.404936891957659,6.352699522151262,-2.1700252064511556,-0.8084774198503122,1.2781899883768688,-1.4525959422289532,3,right
14.323,-0.4884072004071989,0.6036004904782029,0.02931975089608369,6.736874959013451,6.689185905935775,-2.2269140170838666,-0.8035817490709523,1.2985174359709841,-1.543329937361018,3,right
14.327,-0.5208413453055398,0.6205709032963146,-0.01787257946349663,6.298983907948282,6.245337375007513,-2.1518732871925175,-0.8072941940535385,1.2830985274837847,-1.4745392741573302,3,right
14.328,-0.5276971787950601,0.622851593263194,-0.02114104741466269,4.460752629794805,4.382379735519915,-1.836930412537762,-0.8050427878877494,1.2923965075686914,-1.5160190368605297,3,right
14.328,-0.5617679328910391,0.6389183485214782,-0.04377888463031647,4.0227300066599,3.9384695894180135,-1.7618763596068032,-0.8059917945177874,1.2886288894514415,-1.4991689495795537,3,right
14.331,-0.6104563878798651,0.6646155508421618,-0.06298821212293902,4.354873744476671,4.275052290071617,-1.8187859979169452,-0.8059328834388322,1.288536507545767,-1.4988717014735797,3,right
14.331,-0.6466939831207263,0.6869784566258113,-0.05714609359659429,4.15452874197472,4.072043314020423,-1.7844608185549413,-0.8055543606962192,1.290579519131069,-1.5078045537372122,3,right
14.335999999999999,-0.6869269867163885,0.7126346061211732,-0.04723719589423924,4.235990559550602,4.154594953295227,-1.7984145216255552,-0.8060292738802276,1.288142473244564,-1.4971216611205773,3,right
14.337,-0.7238097348934303,0.7362782918597777,-0.025386198007574017,4.2373434508368835,4.155922188959025,-1.798653140782867,-0.8056246398806644,1.2900198747545262,-1.5054132313585935,3,right
14.341,-0.7534177522450232,0.7533991501679045,0.0030008547168273317,4.1941939757874405,4.112298220091932,-1.7912495251966556,-0.8059503748000867,1.2890748293205554,-1.5010296883009682,3,right
14.342,-0.7760606573681066,0.7659417778305038,0.026689677560789847,4.245972229061443,4.164617786176911,-1.8001343982294893,-0.8056233615080401,1.2891312380909872,-1.5018256121349007,3,right
14.347000000000001,-0.7905422763959512,0.7761769898304232,0.038398525038033496,4.205522518721347,4.123779488085596,-1.7931913007784046,-0.8060274885350138,1.2896922908480373,-1.5033870821595556,3,right
14.347999999999999,-0.7982911235879866,0.7836715648629284,0.041605332096633765,4.227270741025283,4.145751744921807,-1.7969225445451538,-0.805564004831657,1.2888700457352629,-1.5008767256997322,3,right
14.35,-0.7993447000162903,0.7875948767335323,0.04442292715493747,4.222858466810255,4.141151030467259,-1.7961781012927127,-0.8059178165074542,1.289590293410758,-1.5031657211815626,3,right
14.350999999999999,-0.7984051599968578,0.7908197209048001,0.046239348038202496,4.215551599667698,4.134166651075674,-1.7948903945847379,-0.805991435322346,1.2893049081885464,-1.5018845550964075,3,right
14.357000000000001,-0.7978448698968861,0.7925090133253494,0.047824178723247956,4.228184571659719,4.146243274370118,-1.797116023170675,-0.8051120834311557,1.2888911912536203,-1.5017548520574546,3,right
14.357999999999999,-0.7988878311048264,0.7938909005115529,0.04432522225022009,4.215533059946691,4.1343132771463615,-1.7948735420191078,-0.8070522313817372,1.290124246408967,-1.5033331513549082,3,right
14.362,-0.8021364765302926,0.7980884531252513,0.03634587503887862,4.2244451024753396,4.14263412896587,-1.7964600515597353,-0.8041745015121032,1.28821571726478,-1.500671507240843,3,right
14.362,-0.810031827604953,0.8014789012623529,0.03031712921414548,4.221755605138773,4.139902561059607,-1.795999875183427,-0.8072391478423218,1.2902632346406238,-1.5035661980403083,3,right
14.365,-0.8230491846323507,0.8046564503009596,0.02316447811243347,4.216738568326657,4.13613629902845,-1.7950295485455732,-0.8054732234478006,1.2890597668082506,-1.5018030923884318,3,right
14.366,-0.837307765331543,0.8103560655321043,0.011404684193462866,4.229696488208436,4.146255371472124,-1.7975026096503812,-0.8039269466538366,1.2881230517498161,-1.5007313226620056,3,right
14.37,-0.8527725455171741,0.816752171554018,-0.006409326025252811,4.210712332190958,4.131511126781784,-1.7938727103067489,-0.8106549773766808,1.292387661991397,-1.5061557132822037,3,right
14.370999999999999,-0.8638597447389316,0.8227259265901125,-0.029363774488180214,4.230489724491319,4.146762434894546,-1.7976634030803122,-0.7981847531336705,1.2844488451796434,-1.4959632575005877,3,right
14.375,-0.86825426006219,0.8277255791126557,-0.04988228887333361,4.219057631633179,4.137945470525487,-1.7954723435752538,-0.814195719798243,1.294649759924665,-1.509081282384536,3,right
14.376,-0.871879415356136,0.8323564678949456,-0.06004989274867327,4.21022246071922,4.131378252329175,-1.7937582567777355,-0.8008293016433485,1.2861301811271288,-1.4981165146519158,3,right
14.38,-0.8701027903806924,0.8363805091446759,-0.06084693759228599,4.250208650181907,4.16145647244462,-1.801485908819262,-0.8011893635345433,1.2863726507808182,-1.4984621784836576,3,right
14.382,-0.8638086432323125,0.84070504492526,-0.05980269017599104,4.175988873862691,4.105610190555835,-1.7871437512026276,-0.8266827094796718,1.3025801186131813,-1.519211753839273,3,right
14.386,-0.8568511541823153,0.843534449062201,-0.05433879567792742,4.271205274797397,4.177233148788304,-1.8055452225726385,-0.7640246369322582,1.2627289837087519,-1.468152112942473,3,right
14.386,-0.8433190947203695,0.841286635902404,-0.04111281610639449,4.191753771738266,4.1174787470233465,-1.790189376228716,-0.8679148121037745,1.3288091241253097,-1.5528289554877743,3,right
14.39,-0.830414552528201,0.8381006353809708,-0.03170912419265868,4.1940080784211675,4.119202575914512,-1.7906234858017807,-0.7308835268000176,1.2416480089281345,-1.441136813164499,3,right
14.390999999999998,-0.8268367850287266,0.835268849182373,-0.029259255448757897,4.3450574753460565,4.23268396660085,-1.819825132558491,-0.15571650905075843,0.8758514584060503,-0.9724611313294181,3,right
14.392000000000001,-0.8204445292240736,0.8275252086766076,-0.022727054179839768,3.9737208367293704,3.9536823222397284,-1.7480372984768344,-0.018685808969171387,0.7886933949777672,-0.860778045971679,3,right
14.395,-0.7999398084886258,0.8119068196483374,-0.010973694707796702,4.589404704909921,4.4162697336739605,-1.8670626867320705,-0.12257222716394227,0.8547642543369383,-0.9454341454350947,3,right
14.395999999999999,-0.7838821251809385,0.7994435006316638,-0.003887367457158709,3.7773427719426294,3.8061458791102685,-1.710075296473816,-0.0599249783999974,0.8149330422864398,-0.8944095417263929,3,right
14.395999999999999,-0.7784775430334264,0.7949718349666535,0.0006555404072343452,0.36875859893635843,1.2453466443429972,-1.0512195710224184,-0.08539761389156636,0.8311078007255346,-0.9151117055209583,3,right
14.4,-0.7594318087853195,0.779991807264627,0.010787460411294534,-0.44331669879368546,0.635246990610455,-0.8942527412220277,-0.0857869979924189,0.831391480062647,-0.9155059927260456,3,right
14.401,-0.735098067716631,0.7554497370398796,0.02070007112243893,0.1724215956704944,1.0978074028203866,-1.0132377202946348,-0.07239073819580241,0.8228361677074527,-0.9045142523941863,3,right
14.404000000000002,-0.7175600133826471,0.7369131141958494,0.026598840680102778,-0.19905110625065425,0.8187986882816924,-0.9415057635449594,-0.08841618142432492,0.8330434958837578,-0.9176057458894298,3,right
14.405,-0.6972411722846172,0.720058834539769,0.03170859081861266,-0.0477578264558467,0.9323609792055968,-0.9706485603331241,-0.0759680099122141,0.8251560788048901,-0.9075238818358056,3,right
14.409,-0.6791394088655298,0.7001674671293834,0.0399933616912586,-0.04583329882252925,0.9339067607891522,-0.9711206831043383,-0.08261840165271686,0.8292903682187727,-0.9127426043348335,3,right
14.41,-0.6637411894894562,0.6837724299405896,0.0508539346445042,-0.12496804766039737,0.8744108342845488,-0.9557812743378074,-0.08121003920200312,0.8285587256885132,-0.911940325820715,3,right
14.414000000000001,-0.6473407017557951,0.6712555935901511,0.058138728479672046,-0.029872126706573507,0.9457724084683247,-0.9740777683329954,-0.07927017107455081,0.8271238146601281,-0.9099360034371198,3,right
14.415,-0.6346885454198321,0.658842533516907,0.06348626173096905,-0.10440187830610259,0.8900463499275851,-0.9599454449004234,-0.08248064847483473,0.8293258990361164,-0.9128897505374609,3,right
14.419,-0.6262063036092025,0.6498951077824728,0.06604420150724957,-0.06347826193874499,0.9203318406369714,-0.9673841164184919,-0.07958772091544698,0.8274875906466812,-0.9105351008416411,3,right
14.42,-0.6175390117977477,0.6438030336434158,0.06069852839881427,-0.07389820019246657,0.9130674882592444,-0.9659486492595125,-0.08129503868196551,0.8282758732829572,-0.9113009068584171,3,right
14.424000000000001,-0.6078136386792365,0.63748339586709,0.047235540014778254,-0.08341460120416574,0.9054682955703364,-0.9636478590173894,-0.08097779064376069,0.828753778739459,-0.9124719864306363,3,right
14.425,-0.5967802559995299,0.6306123618531256,0.03073425333358922,-0.06512218534699044,0.9192077659759135,-0.967179818744868,-0.08018870373920728,0.8272382717622782,-0.9096961550787981,3,right
14.429,-0.582968313894954,0.6245694082523902,0.01946856011695308,-0.08421753271017146,0.9056941645218592,-0.9643441281245648,-0.081491824057309,0.8291472579285013,-0.913031812714404,3,right
14.43,-0.568910274990053,0.6225729223439355,0.011020770887263002,-0.06827668337876136,0.9157669636267314,-0.9654703302059913,-0.08042911210064396,0.8278478436634389,-0.9108517542192284,3,right
14.436,-0.5545496639670668,0.6197980698300535,0.0020212343219305003,-0.07993788815765653,0.9098461573125386,-0.966133205060661,-0.08047612975981097,0.8273383471053098,-0.9097582844818021,3,right
14.437000000000001,-0.5412694262253206,0.6133641240526321,-0.004838948750139946,-0.07284514484495602,0.9121464121832921,-0.964394329168127,-0.0820471848188482,0.8306941969429169,-0.9159937330546042,3,right
14.437999999999999,-0.5334101466234134,0.6086827886578767,-0.010789698818937451,-0.07421843768630879,0.9128659838324895,-0.9659263935612804,-0.07871381649051536,0.8242053906225004,-0.9040871235538803,3,right
14.437999999999999,-0.5307495476890756,0.607035276497448,-0.01684282390988809,-0.08113994272834696,0.9091708772796492,-0.9661359940105478,-0.08314537720909014,0.8326319684646848,-0.9194999018032617,3,right
14.444,-0.5283957902967541,0.604399277782157,-0.021932982454206166,-0.06295979423823457,0.9162331927310619,-0.9628733547400956,-0.07938166677904382,0.8255586567610053,-0.9065792460421329,3,right
14.446,-0.5283431810959536,0.6002078972657842,-0.0241333337199663,-0.09314446670635032,0.9057926358953717,-0.969608140517903,-0.07958228349423786,0.8258075961105148,-0.9070120272477608,3,right
14.449000000000002,-0.5375788594057884,0.6000261186211586,-0.02569534198942841,-0.05595181860163638,0.9180182781020774,-0.9606559178434235,-0.08649633071112914,0.8391405304469001,-0.9314289779815685,3,right
14.45,-0.5516727183852541,0.6028311539704123,-0.03384379814156058,-0.08633406152499198,0.9083195856060291,-0.9682613756059847,-0.06935948547098927,0.8062899466927164,-0.8712932026699506,3,right
14.454,-0.5708110651840231,0.6034976283064833,-0.04978515873331939,-0.08608705295010166,0.9081359088021481,-0.9679383368576868,-0.09782733238770874,0.8607832068290407,-0.9710495888437136,3,right
14.455,-0.5847570760536895,0.6039853861556586,-0.060688008474404566,-0.02709082859374321,0.9274617360959356,-0.9536561450067751,-0.06025839410099763,0.7889042749011339,-0.839450166511581,3,right
14.458,-0.5870338156905329,0.6042378643128716,-0.06349294356548138,-0.17106589643589423,0.8807635839719477,-0.9889712948657114,0.09735775862006277,0.48718889605262555,-0.2871539657082772,3,right
14.459000000000001,-0.5986237458689291,0.6032194674123608,-0.07183681014200716,0.06716131549633053,0.9578016981007951,-0.9303132691940772,0.1349314508801393,0.4153329872482989,-0.15553765396741576,3,right
14.46,-0.6081293227953586,0.6036343725212628,-0.07993866230487419,-0.24682303650324144,0.8563877756046181,-1.0077377971627217,0.10644636236240754,0.46979649776416943,-0.2553284361044729,3,right
14.464,-0.6101118348910664,0.6031308491400418,-0.07974479365119518,-1.5646040073683518,0.4305806248667279,-1.3326521055722091,0.12362410320405656,0.4369535838501234,-0.19514250359200017,3,right
14.465,-0.6260330036005852,0.6014508215153352,-0.07710659957452456,-1.8784667760670095,0.32929428835006613,-1.4101157793617762,0.11663877422220939,0.4503338022418514,-0.2196165719343826,3,right
14.466,-0.6466293929055126,0.6015331857030164,-0.07267591365207732,-1.6405259032651986,0.4060780688486012,-1.3513854779589973,0.1165325106238235,0.4504573917685012,-0.22000510968091458,3,right
14.469000000000001,-0.6649824771435455,0.6010400545514303,-0.07078884580306723,-1.7840027166943382,0.3597393328176144,-1.3867905060715386,0.1202081888229804,0.44358271207739863,-0.20708491931279221,3,right
14.47,-0.6830957920055464,0.6017780738674772,-0.07704223506211094,-1.7257004913977305,0.37867384118648784,-1.37243030160602,0.11580526884295461,0.45178787549444194,-0.22257589221576954,3,right
14.472999999999999,-0.6986815595514209,0.6025657557272741,-0.08828028096285226,-1.7247153843988166,0.3787648222130925,-1.372129146521171,0.11923587917057288,0.44543847017772564,-0.21048947469442952,3,right
14.474,-0.7125977685180669,0.5986073589044197,-0.09730209808086218,-1.755551365115048,0.3691265103608382,-1.3798200894542227,0.1173876851901766,0.44888336415384256,-0.21699435967284636,3,right
14.479000000000001,-0.7252146107815173,0.5945734075575535,-0.10385111898578075,-1.7186619849560643,0.3807247359061635,-1.3706367772637265,0.1177989371981639,0.44791315773119156,-0.21561199277828993,3,right
14.48,-0.7396615769555803,0.5899568129365016,-0.11069613893265812,-1.747313690239337,0.37160827982793254,-1.3777423097935733,0.1183186879542371,0.4475062306365204,-0.21360101331987003,3,right
14.482999999999999,-0.7516595987048551,0.5836386007112266,-0.11616377385115957,-1.732103785270195,0.37678222601682065,-1.3740536052539654,0.1174199563321295,0.44821521571520995,-0.21707822083984626,3,right
14.484000000000002,-0.7615009213846154,0.579266014638908,-0.12181532116348619,-1.7350156566967117,0.3749941971729957,-1.3745612227348123,0.11827804062380369,0.4478126544962924,-0.21366810953561438,3,right
14.487,-0.7702630682876417,0.5721558815026073,-0.1236496478650933,-1.7401416004317112,0.37479892634072415,-1.3761898850412464,0.11769477251576288,0.4479410920896856,-0.21603387704552476,3,right
14.488,-0.7733035081406094,0.5635346452322904,-0.1216675277920753,-1.731796445417745,0.3757028506925758,-1.373684300718979,0.11792695197181471,0.4474879249837419,-0.21522304293306102,3,right
14.492,-0.7767635203909903,0.5574198921344574,-0.12545444668608083,-1.739444231415506,0.37466061657161287,-1.3759272591811447,0.11802136397466434,0.4491397094792632,-0.21429447577353894,3,right
14.493,-0.7810330236558872,0.5498557048167654,-0.13112514830816124,-1.7350109758147347,0.376104577024525,-1.3748361512205842,0.1176777923263888,0.44560976629444604,-0.2168649340141119,3,right
14.497,-0.7857931280114054,0.5414289674477499,-0.1359257458954241,-1.735061091370603,0.3734413973436177,-1.3741894913852326,0.11816048616447401,0.45093276548431616,-0.21313440027591038,3,right
14.498,-0.7925405530302401,0.532751754864299,-0.14484383707210102,-1.7393797487880707,0.3780960613319071,-1.376761498157237,0.11768546318801545,0.4451827689177728,-0.21697313987091038,3,right
14.503,-0.7943473456402044,0.5233827744941616,-0.15324810257608756,-1.7318752065446872,0.3714951769551498,-1.3726624576084325,0.11796026070803127,0.4485044536423298,-0.21475335725201922,3,right
14.504000000000001,-0.7925968273853639,0.5164648367282383,-0.15639909666047436,-1.740073174100996,0.3784677347120942,-1.3770809600810334,0.1181099016109888,0.45153477675469733,-0.21314729638130486,3,right
14.507,-0.7896108398951536,0.5101300621181809,-0.1579143845946202,-1.7350236420665284,0.37454021966043605,-1.3744507672362059,0.1173422890134492,0.43848840202849815,-0.22057490867479662,3,right
14.508,-0.7860411557371068,0.5035029309208326,-0.16331045146299264,-1.7322191743340085,0.3706540094146009,-1.372565644242036,0.11877123261573755,0.46267266317811806,-0.20677978755363283,3,right
14.512,-0.7841141760584242,0.49975015916852655,-0.17192737916898254,-1.7470279699918438,0.38684187574368756,-1.3814415320654798,0.11694388637224352,0.43160456799764846,-0.22446881483702802,3,right
14.513,-0.7822936738735896,0.49801981231240194,-0.1784836902819395,-1.7191066233481955,0.3569699538802652,-1.3648680184314796,0.11846580577554956,0.4575487779543034,-0.2097113997753676,3,right
14.515999999999998,-0.7839277476197124,0.4967607845274001,-0.18212851195863833,-1.7550628176907,0.39529280827274493,-1.3861748247490884,0.11841619132528078,0.45686249461692263,-0.2101462521459534,3,right
14.517000000000001,-0.7905476224216907,0.49534375291856547,-0.18387013727305648,-1.725001433569179,0.36331382071682006,-1.3683761549739377,0.11555155437834275,0.4073210954055225,-0.23814032291031245,3,right
14.522,-0.7945534371902669,0.4927259547012561,-0.18889566564256616,-1.7259784964008786,0.36412480257356233,-1.3688982133585803,0.12259792886685068,0.5290776901698857,-0.16930379758651753,3,right
14.523,-0.7938045424199047,0.4880735202534522,-0.19936241555029488,-1.782767384749285,0.4252783036304594,-1.4027053995253462,0.11091642594146495,0.32719623806027043,-0.28343959080376235,3,right
14.526,-0.7942121883193438,0.48311573655300005,-0.205228268819767,-1.6429906362301465,0.27503787759340154,-1.3195629901068204,0.12632122353133185,0.5934827857527867,-0.13289994058148785,3,right
14.527000000000001,-0.7915910885168067,0.4792366771948405,-0.20781253300226254,-1.8748031289303562,0.5241218221526667,-1.4574307610261263,0.1909797113419626,1.7112154507802306,0.49880366641479484,3,right
14.527999999999999,-0.7856025169862377,0.4757622675469641,-0.21193116070513868,-1.5690296719682455,0.19559001359277906,-1.275580429904216,0.20638166745275388,1.9775070761324351,0.6493269482689911,3,right
14.532,-0.783025865156151,0.47226394703393526,-0.21547629275881208,-0.2857734858085151,-1.1834944335855315,-0.5123204153364822,0.1947025174123967,1.7756227500802542,0.5352284860125318,3,right
14.533,-0.776893366245138,0.4640376056994676,-0.22185688162727224,0.020015678981289586,-1.512008255439216,-0.33046595706470305,0.20175261641377223,1.8973679761643893,0.6040022471329504,3,right
14.533,-0.7691086516774255,0.4523691108598947,-0.22634037129507906,-0.21183862289367497,-1.262960664920501,-0.46834449031155106,0.19887251378202528,1.8478639302204254,0.5760927124931449,3,right
14.537,-0.7639996180747526,0.44486080073968054,-0.22593551548389812,-0.07198044525332245,-1.4131486549468701,-0.3851814750312501,0.1988526565145859,1.8471100564717808,0.5755716901742914,3,right
14.538,-0.7581065938850604,0.44015857527363766,-0.22679690036332326,-0.12889415874478036,-1.3520539618506304,-0.4190198313175234,0.20033472742678357,1.8731409461146327,0.590376020078303,3,right
14.540999999999999,-0.7576675207823361,0.4351707503001856,-0.22780826820255973,-0.12972369886099686,-1.351198861023954,-0.4195055426687965,0.19854354340505778,1.8419993149214193,0.5727360016216183,3,right
14.542,-0.7612467531413377,0.4306526872217037,-0.22538839574080247,-0.09977691033788272,-1.38317512171471,-0.401734391693212,0.19996341659854602,1.8661915773899502,0.5863322134958759,3,right
14.546,-0.7655625415777657,0.42527328164081735,-0.22288114767469708,-0.13574006544502823,-1.3449374099210523,-0.42304451945397825,0.19914969942016214,1.85326302074056,0.5792721302368535,3,right
14.547,-0.7745716018931346,0.41905347924595515,-0.22319513438172944,-0.10759086731923828,-1.374619517809894,-0.40641251399051104,0.19942195650669742,1.856007884910359,0.5803989530896624,3,right
14.552,-0.7868196351332026,0.41595164471760704,-0.22360566739085727,-0.12291182386089089,-1.3587112869375264,-0.41541703528451934,0.19950019160670024,1.8597680112913608,0.5830444464485249,3,right
14.552999999999999,-0.8020669941168677,0.4151356126990443,-0.2259617074015426,-0.1193488421410634,-1.3623035093651157,-0.41334372899065064,0.19925076339871406,1.8535366935520623,0.5791080730580749,3,right
14.558,-0.8205766730861412,0.412568105352238,-0.2315681672109574,-0.1151003878807165,-1.366393179212516,-0.4109094106096207,0.1995769912822536,1.8591585734377554,0.5822817949656794,3,right
14.559000000000001,-0.8373403598098191,0.4102387148084644,-0.2379519569299967,-0.12285223569495621,-1.3595872086379304,-0.4152237988695445,0.19917812355459708,1.8558267537133442,0.5811674204699924,3,right
14.56,-0.8500974123556041,0.4107478129949623,-0.2433036691243462,-0.11490153066640013,-1.3655093955141573,-0.41100428647753073,0.19968666750579253,1.8564752368502027,0.5797773678427078,3,right
14.561,-0.861675661189256,0.411972851767786,-0.2443728343199572,-0.12106131971550879,-1.362104831691338,-0.41404344326796017,0.1990699496960424,1.8579609399546317,0.5832373794771819,3,right
14.565999999999999,-0.8699914341334217,0.4131979857001381,-0.2446825411808306,-0.11770795610106224,-1.363146732469307,-0.4125465570319101,0.19967540781327442,1.8554795413747713,0.5790417535764092,3,right
14.567,-0.8733538085568862,0.4162321855299527,-0.24737070158117258,-0.11770351392504796,-1.3631277533726194,-0.4125485710879097,0.19936048924580793,1.8575151036299344,0.5818059954030084,3,right
14.57,-0.873509737337576,0.4180525047013297,-0.24764558686809313,-0.12143299593761755,-1.3638746569029414,-0.41384308698464467,0.19898045613499019,1.8573987530318248,0.5831316469143033,3,right
14.571,-0.8711371268705455,0.41673974636962935,-0.24547245037904955,-0.11396324827396365,-1.3610378372945993,-0.41151072648676457,0.2004432947624997,1.854456175611353,0.5753797626541335,3,right
14.575999999999999,-0.8684404734801279,0.416874897057505,-0.24507315352582323,-0.12423950038862874,-1.3662005953750684,-0.4144746484014097,0.19777790050444172,1.8607286057573398,0.5902162456150659,3,right
14.577,-0.8610615422525374,0.4152376010856097,-0.24562362339035912,-0.1137919785109188,-1.3601532065633068,-0.41161641643709906,0.20118312530327104,1.8523808426495676,0.5709998031285717,3,right
14.58,-0.8518464792348255,0.40890369723001185,-0.24463632162577734,-0.11966581690581851,-1.3638204176071749,-0.41317153693728015,0.19834784848233328,1.8594736967387817,0.5871121688534199,3,right
14.582,-0.8448961853826937,0.40677649029059115,-0.24293554464148823,-0.12466433614271046,-1.367056991195613,-0.41447220145374486,0.19841261417416367,1.859091421570473,0.5865694182236302,3,right
14.585,-0.8343490550772351,0.4073794399926197,-0.24228319993238404,-0.10298855214684832,-1.3526891195126685,-0.4088961361063236,0.20385053383687243,1.84607325561818,0.5561304796573492,3,right
14.585999999999999,-0.8250677432076015,0.4055829621097321,-0.24327579500731922,-0.1429981254012815,-1.3795319505219696,-0.4191261050328333,0.19050263250498883,1.8783448704243644,0.6310989938205022,3,right
14.59,-0.8126792635378508,0.4080351012403658,-0.2425257778007765,-0.09175491141872864,-1.3449284824655852,-0.4060671410540485,0.21262663446350188,1.824734320223898,0.5067411100476891,3,right
14.591,-0.801188182003709,0.41290703241463317,-0.23948102763361662,-0.13447576904828717,-1.3738741642173893,-0.4169356235318201,0.18344877287718825,1.8954825397698143,0.6707875725562138,3,right
14.595,-0.7984416118550928,0.41344581923376056,-0.23820775214955675,-0.1333192306029057,-1.373107046308713,-0.4166375896991462,0.060950484037963874,2.192317835346774,1.3593133215397948,3,right
14.597000000000001,-0.7867063792297126,0.41213249068320207,-0.23703656615657445,-0.051959940695124274,-1.3177666381705817,-0.395982439227623,0.03177529665613112,2.263069816692173,1.5233597185578431,3,right
14.597000000000001,-0.7715215439215259,0.411946449456155,-0.23443822817642915,-0.2518845979864814,-1.4538039990199896,-0.4467301402334423,0.053895124864807714,2.2094330439251175,1.3989893873271826,3,right
14.600999999999999,-0.7578912596850873,0.41182343701842994,-0.23311912450827613,0.07955375178984649,-1.228223270649993,-0.3626096944781342,0.04055065845162609,2.2417815756772903,1.474002268639167,3,right
14.603,-0.7447907136135159,0.4107584103930664,-0.23534195624929605,-0.35757379653217997,-1.5257790863118466,-0.4735473033834701,0.04598882546811907,2.228615147349317,1.443471683410513,3,right
14.603,-0.7406470837949845,0.40969708315505216,-0.23551758751771498,-2.1924388121833815,-2.7750199933748085,-0.9391572619196967,0.046046812571114454,2.228443809999373,1.443065053684034,3,right
14.605,-0.729370366576719,0.4079286292900035,-0.2288009007555391,-2.629521963930178,-3.072582947005942,-1.050077890654571,0.043226255783929655,2.235320741934075,1.4590311416934023,3,right
14.605,-0.7127425822432853,0.4041465192470045,-0.22424421764570424,-2.298149006112003,-2.846975845927289,-0.9659861387339885,0.04661057590526913,2.2270799210163013,1.4398992906688806,3,right
14.61,-0.6998552187829263,0.39948888386352466,-0.22294592423276155,-2.498030450795065,-2.9830763277874466,-1.0167042648488873,0.043965801302069354,2.233506891432981,1.4548126796262353,3,right
14.610999999999999,-0.6834654314652924,0.396461330598969,-0.22013666675918797,-2.416638576512594,-2.9276253521608924,-0.9960635506179377,0.045419862644128686,2.2300100586859095,1.4467268423873492,3,right
14.615,-0.668960672546893,0.39639630282777083,-0.21635648742515723,-2.4156368255392335,-2.9270051524326135,-0.9957848121936095,0.04502212063388348,2.230883573980983,1.448678690103421,3,right
14.616,-0.6578886383573186,0.39435488977586297,-0.20858274127090456,-2.4580679519187716,-2.95581302776366,-1.0065853108434224,0.04476382080105783,2.23166520428044,1.4506191944417308,3,right
14.620999999999999,-0.6478145224863722,0.389176328121956,-0.19918881673892908,-2.407197941677826,-2.9212557895780398,-0.9936444095829364,0.045272067646273007,2.2302430130516875,1.4471634347456832,3,right
14.623,-0.6383217006814952,0.3888873867564415,-0.19141059156988321,-2.446889202151044,-2.948247664033781,-1.0037299031800004,0.04477427770838352,2.2316009763180715,1.4504386002591796,3,right
14.624,-0.6315148268199471,0.3894001213547642,-0.1854368721386413,-2.425255383867805,-2.9334506730871395,-0.9982679938052446,0.04518850118503539,2.2305981601026996,1.4481144004773383,3,right
14.625,-0.6298328717031381,0.38373533269017207,-0.18173536232855625,-2.430742186300433,-2.937399678799117,-0.9995716968242297,0.04478777788786528,2.2312895644368633,1.4494826038384594,3,right
14.629000000000001,-0.6285297393416832,0.38057886681062497,-0.18013273037347993,-2.4354208321528765,-2.940219542798453,-1.0009111462338764,0.04529117610085014,2.230708873279527,1.4486734838233148,3,right
14.63,-0.6286547902175605,0.38082128194581244,-0.1803629524886402,-2.4268157465636504,-2.9348084614836014,-0.9985409818389949,0.04463901401874927,2.231335916915387,1.4493255336085678,3,right
14.635,-0.6295765346080724,0.3789093788598209,-0.17861392592386027,-2.4350622372276574,-2.940066562373035,-1.0007822438625742,0.045315759497286195,2.2307119484993945,1.448733740235271,3,right
14.637,-0.6300304452175153,0.37814546814599537,-0.17697046516889514,-2.428865056640287,-2.9358438521761165,-0.9992109781311653,0.044953908065732455,2.2310021575942183,1.4489124870421477,3,right
14.639000000000001,-0.6350222480487625,0.37973485986581623,-0.17925326112434492,-2.43340134273081,-2.9395940755062,-1.0000863505121103,0.04449773099239996,2.2316008895086643,1.4498750959678124,3,right
14.64,-0.6389179598256429,0.383006625979474,-0.18306444175008652,-2.4292102644914744,-2.9352287467734737,-0.9996530041655153,0.046257863151691864,2.2295509658533277,1.4469855946304577,3,right
14.644,-0.6419824742407082,0.38638162111279734,-0.18700364584458667,-2.433983484005494,-2.9407338744283074,-0.999924092061693,0.043036535274181636,2.2332497422637747,1.452105461790485,3,right
14.645999999999999,-0.6510013912298489,0.38885471407864114,-0.19103473115718714,-2.4291706522988386,-2.9350528254386057,-0.9997051244287025,0.047162990527311696,2.22852324937157,1.4455847361380814,3,right
14.649000000000001,-0.6580767336292115,0.392010421163773,-0.1946098176981307,-2.4315163553617656,-2.938039301102404,-0.9997210137295461,0.043722392348828645,2.2324600806827517,1.4510071031387057,3,right
14.65,-0.6640884711712305,0.3961233623125089,-0.19549137276309098,-2.4356936455173273,-2.9420802803024793,-1.0002822873028525,0.04379952604568407,2.2323887989498,1.4509430392640263,3,right
14.652999999999999,-0.6724883140712674,0.40121612791807265,-0.1957236880172728,-2.420939870583287,-2.926795374175263,-0.998722556077977,0.050411472297793476,2.2247657520444752,1.4403318483323608,3,right
14.654000000000002,-0.6781689070528295,0.40692590899520176,-0.1994740756201258,-2.4476639005202254,-2.9547084313989957,-1.0014528557289126,0.034179956269955764,2.243461255152754,1.4663159094937082,3,right
14.659,-0.6845838391374734,0.414071158348897,-0.20330456566485233,-2.4134921699988494,-2.918963418807423,-0.9979839825433238,0.061086244940005446,2.2124731689324193,1.4232575367674776,3,right
14.66,-0.688269860401743,0.4176841389979362,-0.2032432502820118,-2.4419620130549458,-2.9487666256709923,-1.0008641918045451,0.025599157772938766,2.253346441285707,1.4800502309100483,3,right
14.663,-0.6893434010366368,0.41913956694652177,-0.20357915442624192,-2.4414146694303045,-2.9481088933034774,-1.0008451690240578,-0.12339951723377973,2.4249516316554027,1.718546050135119,3,right
14.664000000000001,-0.6938533610971176,0.4267550166454954,-0.21012209109469052,-2.386397168352164,-2.890789803629574,-0.9951620296075409,-0.15888544966411022,2.4658310949244413,1.7753506912231365,3,right
14.664000000000001,-0.6954479257300126,0.4323263422016375,-0.2169708661296197,-2.5213594304340927,-3.0314992474543674,-1.0090590747573027,-0.13198041029733998,2.434836308973999,1.7322793926008342,3,right
14.671,-0.6963704380140289,0.43536654553497134,-0.21573654673180595,-2.297654898111796,-2.7982396330046297,-0.9860376274634595,-0.1482124016559444,2.453529270101307,1.758258537964416,3,right
14.672,-0.6990025907158448,0.44030394622930474,-0.21283401576423827,-2.592713545551402,-3.1059064339329607,-1.0163989160319664,-0.14159631085779809,2.44592843020646,1.7476902225431163,3,right
14.673,-0.6996413161508546,0.44259145719165066,-0.2126406753404469,-3.8315775072246865,-4.3974877117833024,-1.1439986392160089,-0.14152809444449932,2.4458093596799246,1.747533906238059,3,right
14.674000000000001,-0.7020452909028516,0.44723449904284895,-0.20804878381661845,-4.126666125176918,-4.705171558452602,-1.1743700171884126,-0.14495590723236587,2.4498147165139965,1.7530885447899638,3,right
14.674000000000001,-0.706330205843676,0.4534911661634319,-0.2018576513252102,-3.902923689400683,-4.471901354978495,-1.151327682044108,-0.14084218332939424,2.4450199788959073,1.7464361039213936,3,right
14.679,-0.7105185540709762,0.4580432989313995,-0.19997527390019376,-4.037893019622957,-4.612575967810322,-1.1652558957618881,-0.1440580182935862,2.448748215764331,1.751612804416362,3,right
14.68,-0.7161287983236759,0.46452813664878306,-0.19804940755588912,-3.982943082362695,-4.55537540019245,-1.1595361497617351,-0.14228695258686458,2.446756862116505,1.7488364069659688,3,right
14.683,-0.7205994399243216,0.4699610061235882,-0.19534365310258064,-3.982223646598836,-4.554500963963806,-1.1595472451006295,-0.1427783479167179,2.4471668679868994,1.7494346746396565,3,right
14.684000000000001,-0.7206470206330715,0.4716040493251888,-0.19297494038616758,-4.010961627214947,-4.58458420776515,-1.162423217232368,-0.14307951780681866,2.4477822916120813,1.7502411979017816,3,right
14.689,-0.7225536276011975,0.47176446293501617,-0.18887976055792177,-3.976496166643509,-4.54859864948641,-1.1589099160598502,-0.1424772427410433,2.446759169815629,1.7488789641494509,3,right
14.690999999999999,-0.726480057949449,0.47084552791782486,-0.18448763634855114,-4.003396555466477,-4.576544352664579,-1.161749721590076,-0.1430700349939028,2.4477044879994616,1.7501452480281072,3,right
14.693,-0.7266105112965495,0.4679605904158135,-0.17993897050761637,-3.988780674249849,-4.56162994089893,-1.1600199857326263,-0.14256610406439463,2.4471265175697123,1.7493415976361009,3,right
14.694,-0.7295542460876216,0.4626106182512608,-0.17312548654945822,-3.992317070152151,-4.564759486400442,-1.1607707845513966,-0.14307701040851167,2.447227553806884,1.7495699545154655,3,right
14.698,-0.7371878755143636,0.4560642797644827,-0.165427972873662,-3.9958787318849303,-4.569156284811337,-1.1606634191950589,-0.14241098864424745,2.4475741344064192,1.7498506904137057,3,right
14.698,-0.7442965876988861,0.45377070876036596,-0.1609948050021177,-3.989455011882509,-4.561914470049201,-1.160379791848736,-0.1432844153758187,2.4469188496821963,1.749239709531273,3,right
14.702,-0.7510432221485851,0.4546372436201608,-0.16180675145840018,-3.995689717194049,-4.568409831207348,-1.1610250503078294,-0.14237573738393458,2.4476430322360097,1.7499266805595886,3,right
14.703,-0.7574563665399852,0.4541782891945829,-0.1643761241995403,-3.9911036589195317,-4.5646383324038595,-1.1598522344811886,-0.14286539202732218,2.447184157947209,1.7494735354546291,3,right
14.708,-0.7604305499349233,0.45567836902314857,-0.16624593138501878,-3.9938639487456817,-4.565208692611545,-1.1617375539149872,-0.14346261610978675,2.446989341128204,1.7493618976149379,3,right
14.708,-0.7590862814763839,0.459127492552029,-0.16802687019709395,-3.9924652453484604,-4.567192379257039,-1.1592049684593106,-0.1411356267457673,2.4481701856527796,1.75030665940174,3,right
14.714,-0.7529725753199041,0.46236089939544633,-0.1668191119963885,-3.9929610520294347,-4.564040559972624,-1.1618023367071992,-0.1453992149833887,2.445921439575806,1.7484727770703725,3,right
14.715,-0.7406583661436899,0.4653900815783081,-0.16250161150280418,-3.993342109709794,-4.566556958226684,-1.1603701534431123,-0.13993629585345996,2.44882162085645,1.750845206551373,3,right
14.716,-0.7300096236598062,0.4678055020667613,-0.15890776256050176,-3.991595383519607,-4.5665646205103325,-1.1589224511164042,-0.14449212227495445,2.446395992968215,1.7488584442440653,3,right
14.72,-0.7181456935204187,0.471543195944298,-0.15447986669154706,-3.9954109200331276,-4.5625434465546375,-1.164865149400184,-0.1443872694306555,2.4464800808146556,1.7489378493122074,3,right
14.72,-0.6989096675632835,0.47599083254095437,-0.14929756569474723,-3.989240148077279,-4.570942624770968,-1.1539371095706596,-0.13564006554022073,2.4510427417240574,1.7526392930091241,3,right
14.725999999999999,-0.680478824626167,0.47966063871133857,-0.14658914767028874,-3.996836789398919,-4.559818632851453,-1.1679360333967435,-0.15711750209820438,2.4398085193321157,1.7435141107765442,3,right
14.727,-0.6579480591826845,0.48332756497845675,-0.1456489630967971,-3.990633954793492,-4.569248056355889,-1.1562627015936089,-0.12151307630720413,2.4584381134531212,1.758647907458554,3,right
14.73,-0.6385964041746406,0.4862291814131353,-0.14458306985435737,-3.9905861959105855,-4.568773868123063,-1.1565579986629717,-0.16847402863823588,2.4338688601560086,1.7386907782829608,3,right
14.731,-0.6313532711880084,0.48707715843854665,-0.14383465042293359,-4.002986292177617,-4.551376930619102,-1.178871978907406,-0.36562560689136914,2.3307284790217193,1.6549055275698452,3,right
14.732000000000001,-0.6120585755949723,0.4891550650066803,-0.14375730808952789,-3.972822495632591,-4.594451754128554,-1.1240560764541379,-0.4125877298685406,2.306167772948653,1.63496026469145,3,right
14.735,-0.5793245006677588,0.49524850160389466,-0.13960506015725735,-4.022713727837932,-4.522914725806172,-1.2149334233196196,-0.3769820383797461,2.324788121821875,1.6500812269935512,3,right
14.735999999999999,-0.5615382047750856,0.4990719745322322,-0.13390849303656502,-3.956956173653156,-4.6173113513974435,-1.0950687109774702,-0.39845899016148867,2.313550374193291,1.6409511470602993,3,right
14.739,-0.5555257849464919,0.5012081416542049,-0.13244052938412756,-3.680738470213966,-5.0133909811192146,-0.591932928586115,-0.3897159938902421,2.318143726754082,1.6446952079386392,3,right
14.74,-0.5353700883351916,0.5065616415560028,-0.12996560967408344,-3.6150055135357375,-5.107784743921483,-0.47206285894735456,-0.3896020920451435,2.318161788839834,1.644682937185351,3,right
14.741,-0.5085120027654788,0.5121220596807122,-0.12430746089418468,-3.6648371672750795,-5.036230161457993,-0.5629464047703784,-0.3941708895164694,2.315830819526127,1.6428276030509137,3,right
14.745999999999999,-0.49008609669008757,0.5192833878703007,-0.11682944929775171,-3.634780013890713,-5.079379311148191,-0.5081312804090408,-0.38869505815150485,2.318636751824983,1.6450691779276627,3,right
14.747,-0.4757593467796497,0.5257094050502151,-0.11173384842856308,-3.6470276656753633,-5.061821297283631,-0.5304289745633135,-0.392964209935918,2.3164286516319432,1.6432917189990779,3,right
14.75,-0.468131198417868,0.5294204908773141,-0.11006390454443513,-3.6471470930520873,-5.061592940657116,-0.5307612779185131,-0.390648326533677,2.317690476808015,1.6443489345866562,3,right
14.75,-0.46462901016819846,0.5348616666349602,-0.10387395725474458,-3.6408333003844238,-5.070750547955905,-0.5190333132520801,-0.39120980635946634,2.3172348815781367,1.6438752025921928,3,right
14.754000000000001,-0.4623574210940346,0.5370639412888089,-0.09569837368945801,-3.648379606092421,-5.059796482368221,-0.5330886060827411,-0.39176103217853336,2.3172252924019463,1.6440458752509983,3,right
14.755,-0.4678833756155919,0.5358534289781458,-0.09159933596256867,-3.642529206072405,-5.068309418908004,-0.5221325916034405,-0.39077680968784173,2.317398139418488,1.6439673564344421,3,right
14.759,-0.4793154723417738,0.5378253960767747,-0.09165511403737683,-3.6456997909272415,-5.063711259593562,-0.528035304279072,-0.39171043609535683,2.317182331339691,1.6439665250645206,3,right
14.761,-0.4901520347182882,0.5399884449752753,-0.09189864130749828,-3.6448467317563154,-5.064835936438897,-0.5267308824551602,-0.3910450153659086,2.317533000282322,1.644253011355481,3,right
14.763,-0.49812749980623905,0.5400014904675798,-0.08891459712474797,-3.6443600581625253,-5.065848722981607,-0.5250436141631417,-0.39144405893053713,2.316818089668775,1.6433483740240726,3,right
14.764000000000001,-0.5060113934024534,0.5415039382874627,-0.08747985911619208,-3.645207043218825,-5.064094988964853,-0.5279627291942897,-0.39119565452595717,2.3181045172775283,1.6451334243692142,3,right
14.769,-0.5147797130208582,0.5439013666381334,-0.08728334551411351,-3.644594671904879,-5.065632343608339,-0.525160686719202,-0.39140733662469257,2.316268706503121,1.6425382425470745,3,right
14.77,-0.5254542936644304,0.5448854204593316,-0.08822231631801579,-3.6449071427495574,-5.064659906615923,-0.5270733225639102,-0.3912112189879048,2.318210028092111,1.6452918654229363,3,right
14.773,-0.5387078678564676,0.5471146850977455,-0.09395076157878746,-3.6444937905086556,-5.065247677365541,-0.5263325327408463,-0.39127791066529266,2.3171131408096217,1.6437212291214116,3,right
14.774000000000001,-0.5482488736750085,0.5495287058874438,-0.09838961629685725,-3.645644172285091,-5.064570058531562,-0.5259362534187916,-0.39156654964567833,2.316045357491849,1.6422672062545098,3,right
14.779000000000002,-0.5510311086425401,0.5498666434639587,-0.09794086274430572,-3.643240120705493,-5.065797442991212,-0.5272504823789812,-0.3906815174718156,2.3205178707559875,1.6484660560479112,3,right
14.78,-0.549409332401953,0.5510869942261571,-0.09456992549006692,-3.646878049008038,-5.063891383259458,-0.5253846376748199,-0.3922547449171401,2.312260313431645,1.6370007918859686,3,right
14.783,-0.5475696729045579,0.5514508764136289,-0.08618156143725247,-3.642931392743806,-5.066022681053761,-0.5272479448563261,-0.3902496626182828,2.3228544226641885,1.6517147475292597,3,right
14.785,-0.5461831069015685,0.5493702129623431,-0.07539501383499203,-3.6452102742952017,-5.064791920031354,-0.5261696876880728,-0.3919178784241528,2.314014598482039,1.6394356099028595,3,right
14.787,-0.5444105278617951,0.5468875089492347,-0.0678943184559174,-3.647330191654082,-5.063512185625642,-0.5255203166370919,-0.3918954284183665,2.314238116969838,1.6397528237065866,3,right
14.788,-0.5438235138096716,0.5447608656317999,-0.062384100278123286,-3.63825558538204,-5.06883056771837,-0.528725630511081,-0.3886389928725549,2.3311426411946474,1.6632119060176327,3,right
14.793,-0.5436965115293015,0.5441739531163814,-0.05821730165501634,-3.6550726277469603,-5.05898077608283,-0.5227625623147432,-0.39661712679240857,2.2896147084450176,1.605574427474994,3,right
14.794,-0.5497995788487726,0.5427409577408775,-0.05545491007040646,-3.633468065739865,-5.071647589320847,-0.530397100667009,-0.3833945043479406,2.3584611066925842,1.7011292328354268,3,right
14.797,-0.5570275595387859,0.5401542020308485,-0.053160510867972986,-3.6515073535162683,-5.061062943662952,-0.5240326911361615,-0.4008362712592289,2.2676584040611925,1.5751009018301776,3,right
14.798,-0.5587431818169499,0.539868444703035,-0.05164947521063932,-3.6510424732462825,-5.061329757268034,-0.5242373583923261,-0.47406187942040806,1.8864394824966033,1.0459955106546268,3,right
14.799000000000001,-0.5679505759306225,0.5409836137648607,-0.05033365670722115,-3.616558679409716,-5.081602764914422,-0.5362402776700547,-0.4915095869818726,1.7956435694439234,0.9199787045998437,3,right
14.802,-0.5827357810734723,0.543284136833603,-0.05274259738670324,-3.7012893683237738,-5.031785021205739,-0.5067104864379854,-0.478280537964695,1.8644826206157918,1.0155210395324688,3,right
14.802999999999999,-0.5975095549449402,0.5466327054485308,-0.05908096997244258,-3.5608102704216833,-5.114391313311897,-0.5556739633338064,-0.48625622443347233,1.8229518982337518,0.9578788227460244,3,right
14.808,-0.6085750945495596,0.5484743755173449,-0.0630469955623674,-3.7460982978136306,-5.005424956725945,-0.4910956770345555,-0.4830211151520769,1.8398807806881428,0.9813792580274802,3,right
14.809000000000001,-0.6110350067779353,0.5499715074603402,-0.06330656154932618,-4.524099422423536,-4.548077274284721,-0.22020092246875256,-0.482952783029766,1.8400518835629742,0.9816074899565856,3,right
14.81,-0.6183157020255909,0.5518569354163302,-0.06543470475975682,-4.709401582259606,-4.439105457164912,-0.15563765154193313,-0.4846867812509764,1.831287217383232,0.9694559388769133,3,right
14.812999999999999,-0.6299092774967621,0.5524217605126429,-0.07013349813825609,-4.5688768259605155,-4.521710046248366,-0.20456663445921253,-0.48261619742954043,1.8418064791228335,0.9840428392076876,3,right
14.814,-0.6380349357033056,0.5509957171563948,-0.0706246537827431,-4.653709263764338,-4.47192150777492,-0.17509530052214517,-0.4842176800757527,1.8335812278908015,0.9726324077169718,3,right
14.817,-0.6442636824395009,0.5475043943241747,-0.06761482078463145,-4.6190544353649585,-4.492119341054861,-0.18701885482828048,-0.48338891209503493,1.8381179887219354,0.9789403368406396,3,right
14.818,-0.6468531896838727,0.5418450014179039,-0.06153763166759524,-4.618809412250161,-4.492510773228029,-0.18730526424612076,-0.4834963383808548,1.836843203618079,0.9771348972915307,3,right
14.823,-0.6497840653407665,0.5319086132009454,-0.05335162787051924,-4.636652076532579,-4.481777174771716,-0.18089492537903337,-0.48387525012662896,1.8361030131917633,0.9761697903637995,3,right
14.824000000000002,-0.6521055419528613,0.5202723589037839,-0.049228419277924484,-4.615095158643404,-4.494555185927016,-0.1884861726207086,-0.4832959782450594,1.8376065527382237,0.9781802517470083,3,right
14.827,-0.6518850301756649,0.5102621344602076,-0.04437414701487906,-4.632166756979304,-4.484726357341605,-0.18270710639212712,-0.4838131023881051,1.8361198010583268,0.9761775915672538,3,right
14.828,-0.6530138680512703,0.49916909221646993,-0.03765446353108676,-4.622417308806439,-4.489790396170971,-0.18556864702952203,-0.48356748217502005,1.8374092516914178,0.9779678362055838,3,right
14.833,-0.6531645207439916,0.4871210716417935,-0.03326235282809967,-4.625620486576796,-4.489056666149855,-0.18537130438159605,-0.48339956331836437,1.8360467806107126,0.975963832503835,3,right
14.833,-0.6490839392433003,0.4751997792682774,-0.028636122640020564,-4.626652007357697,-4.487040295392357,-0.18388622497548296,-0.48402972736948724,1.8378774997390352,0.9787628927870557,3,right
14.838,-0.6427594493458846,0.4638289407531758,-0.024149971582634405,-4.623578627027213,-4.489970889881516,-0.18585371330752493,-0.4830306423414482,1.8354535693380014,0.9750135836361785,3,right
14.839,-0.6366571985803111,0.4535294699166414,-0.018203839721884954,-4.627502761927065,-4.487673956215637,-0.18449505042416275,-0.48410662518605685,1.8379804846347811,0.9789311859511042,3,right
14.842,-0.6270479832902774,0.4439987494765081,-0.00797537697383979,-4.622839409112198,-4.488330500406605,-0.18445498774915528,-0.483467669041486,1.8366104615726178,0.9767926627928069,3,right
14.843,-0.6161271679947535,0.4366985567684558,-0.000232128173409354,-4.628648146148828,-4.4896802475885345,-0.18623489008119515,-0.48300252225656964,1.8349829174144803,0.9743290616265406,3,right
14.847000000000001,-0.6026881391763066,0.4292745487662938,-0.003248886445530932,-4.621690107098527,-4.486662973115841,-0.18298502363198577,-0.4851782624983576,1.8413753881046515,0.98409639978747,3,right
14.847999999999999,-0.5790126804830666,0.41879427033706207,-0.013717779362632538,-4.628482639716915,-4.490246624637167,-0.18666704998754835,-0.48111822426700973,1.8296517780398263,0.9661653085378424,3,right
14.850999999999999,-0.5552684462729613,0.40796151090584604,-0.02233577639127228,-4.624976931882641,-4.4879299402786526,-0.18439355299724802,-0.4863369194652952,1.8446767507465247,0.9891495452566413,3,right
14.852,-0.5353265506500673,0.39560708435347264,-0.0197032641616774,-4.620652260428919,-4.486697874061525,-0.18288782025665803,-0.48197820406007197,1.832143772197836,0.9699763339147379,3,right
14.856,-0.5231633010142374,0.3822588453170177,0.0036201358111252273,-4.637175710274591,-4.493501062183075,-0.19031540802761293,-0.48210407879269296,1.8324401100833545,0.970434763917597,3,right
14.857000000000001,-0.527504730752836,0.37404858330376456,0.04462117652213688,-4.607100721523995,-4.48055138805972,-0.17634278672059114,-0.4903884814919292,1.8564816070001098,1.0071959289702925,3,right
14.860999999999999,-0.540369457932571,0.37200410210093443,0.0837382791160004,-4.645513722910431,-4.497299028861376,-0.19435594505280313,-0.47001798810549944,1.7974381769389556,0.9169096664702775,3,right
14.862,-0.5637813331035262,0.3764178706360012,0.10105523423077822,-4.61353123545747,-4.483267392239661,-0.17928699280230814,-0.5037942766816602,1.8953263105564595,1.066594834570731,3,right
14.866,-0.5805324174137947,0.3831634069180027,0.10103424965554064,-4.614263373696462,-4.483723340943316,-0.1797425697613998,-0.4592451190780358,1.766207315992586,0.8691557571954593,3,right
14.867,-0.581685786574099,0.38778970334183255,0.09591657294976877,-4.675602581046861,-4.510275621640552,-0.20834948517470026,-0.2722532680516534,1.2241989264535287,0.04035155376686245,3,right
14.867,-0.5859292138977993,0.404659088028387,0.07444347801975906,-4.525031592698436,-4.444904592240166,-0.13796735285189018,-0.22770978129129563,1.0950581662097294,-0.15711286033899466,3,right
14.870999999999999,-0.5697431523112342,0.4403366969434436,0.0403082304879977,-4.774611986444254,-4.553331852805332,-0.2546916893610517,-0.26147775077070023,1.192977485347765,-0.007392025334464314,3,right
14.872,-0.5463184584067448,0.46423377003547417,0.020347952166450148,-4.445443578602429,-4.410305412288478,-0.10072114652147354,-0.24111265827771294,1.1339159631639648,-0.09769709854146885,3,right
14.876,-0.5394714968637677,0.47062882478709034,0.015542645536335846,-3.0636558882544334,-3.809991951182627,0.5455191114086927,-0.24940146775751798,1.157935108767465,-0.06096659000436215,3,right
14.877,-0.5167977882117438,0.48963854492858555,0.015949607998370075,-2.734492734852924,-3.666973042000903,0.6994981441631347,-0.24950720825296965,1.158316791917835,-0.06040193148442531,3,right
14.877,-0.4978692643058439,0.5094618697130653,0.021309400819537472,-2.9840516471247396,-3.7753963393353986,0.5827559149943693,-0.24518589004699481,1.1456316189407985,-0.07975969237177297,3,right
14.880999999999998,-0.5107441632433622,0.5182290278825071,0.027794581999820156,-2.8335344482733333,-3.7100073867845484,0.6531653946244516,-0.2503566916043114,1.1608454038238294,-0.05655141059174288,3,right
14.883,-0.5374009031407547,0.5334405969776204,0.03288503831046395,-2.8947771633845547,-3.7366172578704644,0.6245253671468172,-0.24633710348317733,1.148971133645912,-0.07465396138287261,3,right
14.885,-0.5613528172059034,0.5594140011588487,0.03663082766575876,-2.895639856262129,-3.736969710038117,0.6240985585901135,-0.24850837929804453,1.15536090955005,-0.06490667525868912,3,right
14.886,-0.566431635588289,0.6096146888065714,0.04396775225359037,-2.8635318755065295,-3.7230701214765745,0.6391602702689625,-0.2479791855031472,1.154016322734273,-0.06700921950948688,3,right
14.890999999999998,-0.5518431899740656,0.707619585931077,0.057494338553477194,-2.9019927785514295,-3.7397066849912983,0.6211118426731942,-0.24749510190833748,1.1520030692396932,-0.06993813559054862,3,right
14.890999999999998,-0.5350478650295998,0.8812290755128084,0.0686467790074975,-2.872040225067706,-3.7267670313607244,0.6351785662233606,-0.2483337541790644,1.1554846767535756,-0.06487186523132984,3,right
14.895,-0.5316633710273495,1.1393350642275202,0.06480071643701624,-2.888192795645381,-3.733752945264519,0.6275994934145726,-0.24759446522576647,1.1520527729676378,-0.06980376277858091,3,right
14.897,-0.5542678983017626,1.4561254598571047,0.04032560798537745,-2.8844955417357907,-3.732082544813638,0.6292804950150094,-0.2480644945205764,1.1544426246006418,-0.06640116967562318,3,right
14.902000000000001,-0.6113944888408371,1.8242249598027043,0.009449736435134701,-2.8802308276091537,-3.7304357944407984,0.6314295138369873,-0.2477870655845956,1.1536476303455498,-0.06761906500333616,3,right
14.902999999999999,-0.7015325460331507,2.231308674150427,-0.02608553414848874,-2.8876128039459728,-3.733287937295603,0.6277117435025356,-0.24808649252157472,1.1526093111972016,-0.06873962802952496,3,right
14.904000000000002,-0.8182615786041414,2.6504605316254564,-0.07358865574442881,-2.880695892780531,-3.73071831215626,0.6312717164383662,-0.2475540456848163,1.1554221167766827,-0.06550604266654603,3,right
14.905,-0.9378854040832236,3.0605214313624494,-0.12408922016926563,-2.8853283375725143,-3.732384271595185,0.6288462966467759,-0.24838359469765295,1.1513282104042641,-0.07017358577559898,3,right
14.911,-1.0180377921352688,3.401751619941959,-0.18429197378902917,-2.883288397251261,-3.731493442269782,0.6297981228787748,-0.24745253015517715,1.1555566735871634,-0.0654053923101782,3,right
14.913,-1.0291762906893511,3.61985682182152,-0.23739404939005626,-2.883350552952995,-3.7321672493008244,0.6302488538108375,-0.24798993353987664,1.153112195410197,-0.06816245341160947,3,right
14.915999999999999,-0.9516132966333325,3.681637773596803,-0.23911982849382252,-2.8843308236742473,-3.7311175791350517,0.6286939565940215,-0.24855715058420572,1.151305219734995,-0.07007987075135466,3,right
14.918,-0.813785462333835,3.5641641447459387,-0.1664370298913259,-2.8831285405895275,-3.7327944405807365,0.6308918833124164,-0.24620948976187806,1.1596015894999216,-0.06109441711557824,3,right
14.92,-0.6760569887069753,3.273984014276112,-0.018639773296662276,-2.884064991298094,-3.73085948420552,0.6287102914233449,-0.25055638961682725,1.1441970351380535,-0.07778700722844954,3,right
14.921,-0.5382639508893875,2.8502758984953855,0.17543524510606295,-2.883519387506398,-3.731971025483384,0.629973040108484,-0.24496633204609908,1.1639517706524045,-0.056391700205035276,3,right
14.924000000000001,-0.393929815818435,2.414196702695955,0.3939308899210212,-2.8838183454704724,-3.7332776774167327,0.6307013437874239,-0.24963684009276976,1.147471663374627,-0.07423523016242557,3,right
14.925,-0.2371283435102847,2.005905549962346,0.5893685831227744,-2.883507894708294,-3.7280226133695846,0.6270463680163194,-0.2495219842589786,1.147947566590346,-0.07370614266527134,3,right
14.931,-0.07422852720222446,1.6306613453351333,0.722737330055522,-2.8840320680834104,-3.7377334457698295,0.6338490031314288,-0.24056812897860108,1.1792412166211983,-0.03988301453885466,3,right
14.932,0.06618143283691774,1.3208266333265297,0.7734480688338974,-2.8832975296305894,-3.7252496330317704,0.6251425039227239,-0.2625661041266263,1.1023048001419407,-0.12304835437989461,3,right
14.934000000000001,0.21500193328623396,0.9766587798309875,0.6897749000006834,-2.8839367037532315,-3.7356656320911106,0.6323994940044213,-0.2260924820596008,1.2298641706565703,0.014837004229324054,3,right
14.935,0.3124325827882065,0.7369049567730735,0.5861240707539201,-2.884006923316523,-3.7354613708586393,0.632160962650639,-0.27420305880577056,1.0616236247034272,-0.16701887786733954,3,right
14.936,0.3353011808513078,0.675412652727124,0.5487075791171092,-2.882427918444492,-3.715349897862981,0.6184946206568311,-0.4761957166867093,0.35547309062814686,-0.9302861777316731,3,right
14.939,0.4167345103238498,0.4791791732884292,0.42025720542208017,-2.886233451512018,-3.7646661378087467,0.6521225579345306,-0.5243113136714475,0.18724332884223394,-1.112125089084814,3,right
14.94,0.5124009631849284,0.20620376703294283,0.19853466061824984,-2.879929657702725,-3.682967011254859,0.5963611328266916,-0.48782741379858074,0.3147899952548847,-0.9742613472250942,3,right
14.945,0.5404285362161729,0.09696951057845458,0.07670242918954066,-2.8882502079470225,-3.79065477931646,0.669909678104588,-0.5098404886339929,0.23785281186025176,-1.0574221393556602,3,right
14.945,0.5472394811256031,0.06138277319720924,0.03956580095290149,-2.923451978009305,-4.243200298536687,0.9784876378147354,-0.5008692621149524,0.2691775975883013,-1.023561877489855,3,right
14.946,0.5226457778109667,-0.006509085690966672,-0.06499293635750296,-2.931764656482347,-4.350689732742552,1.0520458483510555,-0.5007681410666622,0.26958145254101507,-1.0231285698214754,3,right
14.949000000000002,0.4371011071798254,-0.05458715392264048,-0.18112693533816548,-2.9254731683132014,-4.2693006337201025,0.9962693150710934,-0.5054378842203819,0.25320869642968,-1.0408220545219353,3,right
14.95,0.291463455505831,-0.04234501165042752,-0.2332893149477235,-2.9292685202096296,-4.318360424795278,1.0299097490732583,-0.49982494496610186,0.27285147393301756,-1.0195920476898543,3,right
14.954,0.1054505671386501,-0.011486743922271185,-0.2650794539808579,-2.9276889317839236,-4.298234101089694,1.016244132046469,-0.5042256236637357,0.25750462418642306,-1.036183808646879,3,right
14.954,-0.09002490400870855,0.02502247452004381,-0.2624766614492062,-2.927778890608409,-4.298527401221328,1.0159813515330336,-0.5017964402190014,0.2658754752159923,-1.0271244057684241,3,right
14.959000000000001,-0.2695195380712672,0.05648389370539729,-0.22766093473393872,-2.928374963910233,-4.30785721471295,1.023291275902117,-0.5024522164866551,0.2637913306655678,-1.0293969877386464,3,right
14.960999999999999,-0.4166093768855811,0.06582256233119574,-0.18622273821770785,-2.927701830876206,-4.296920682977942,1.0145093730312758,-0.5029358315260335,0.2618455473797103,-1.0314757232544158,3,right
14.964,-0.5394070158382543,0.06987268498591531,-0.13869617273358636,-2.9281651792137615,-4.305099117502582,1.0213866842985688,-0.5019658589137398,0.26543959979204246,-1.027610417311742,3,right
14.964,-0.6509784869584487,0.0779798239304155,-0.09674684608581266,-2.927881106517784,-4.300508126401452,1.017699351350546,-0.5029831616737903,0.2618848371337088,-1.0314530651499025,3,right
14.970999999999998,-0.7648621451186945,0.10513719508760444,-0.06210074926065471,-2.928231178051324,-4.303103621449613,1.0183648381619927,-0.5020915817259259,0.2646258107348223,-1.0284537764967863,3,right
14.972000000000001,-0.8950319520342164,0.16373633516172187,-0.03692302163168096,-2.927520259931526,-4.300048649732671,1.0198306418161982,-0.5028703134507762,0.2627624804738853,-1.0305512038230704,3,right
14.972999999999999,-1.041308211277806,0.2530153324085416,-0.02606418520049028,-2.9287416015476233,-4.305292868007444,1.017299182243125,-0.502151906586805,0.26399252666357076,-1.029097494860685,3,right
14.974,-1.196525374138129,0.3686867901387908,-0.027137794743376523,-2.9271897142111105,-4.298160965909435,1.0199263826716845,-0.5027555316456491,0.26324828185256466,-1.0300340215472856,3,right
14.979000000000001,-1.349170100916887,0.5019004653095576,-0.03908328379351256,-2.9284487458606763,-4.304133306035899,1.0180292994538613,-0.5025154946946402,0.26329816112142734,-1.0299043003311157,3,right
14.98,-1.479696478759986,0.6394421406521991,-0.060140547016904584,-2.928513148964579,-4.304867786456951,1.0184770402899364,-0.5019705292753454,0.2645230925786416,-1.028513316992384,3,right
14.982999999999999,-1.569700235281715,0.7651205794677902,-0.08845300193409145,-2.925956583556787,-4.290953781728138,1.0200635685465227,-0.5037319184768093,0.26134262162331523,-1.0322407424624365,3,right
14.984000000000002,-1.6104868436068709,0.8671119355079879,-0.11822782552867396,-2.9317700220029517,-4.322383126084512,1.016187651556181,-0.5006127039207451,0.26672583759408186,-1.0258862600682241,3,right
14.989,-1.5999200739772879,0.9293150149888102,-0.1343850888402996,-2.923091038819516,-4.275411518129314,1.0219114723294696,-0.5045649146804005,0.2599989090108342,-1.0338439448862542,3,right
14.991,-1.5427831685727904,0.9445232674944166,-0.13379763122557842,-2.9323516856143925,-4.32559700699323,1.0158870651708873,-0.5012876834772881,0.26553692047770144,-1.0272868061223672,3,right
14.994000000000002,-1.4446028119042111,0.9103141227487538,-0.1066128039277354,-2.927001045590461,-4.2966012860696345,1.0193687290509437,-0.5013422101338252,0.2655067813241806,-1.0273300524927036,3,right
14.995,-1.3296620383820965,0.8384371849937438,-0.05112046269813379,-2.922369016770311,-4.271354838980338,1.0221989142638956,-0.5076822427785258,0.2546280472571749,-1.0401893355178116,3,right
14.998,-1.231867871969778,0.7553718909055993,0.0179715045104286,-2.942615451324003,-4.381519348623062,1.0095913178841236,-0.49214840709714314,0.28119413765192025,-1.0087789453576532,3,right
14.998,-1.1474061742972874,0.6763461590615308,0.10628980238366481,-2.9050694447219723,-4.177234393754686,1.0329831897246642,-0.5178859732445935,0.2372105323451174,-1.0607820750455854,3,right
15.003,-1.0949694213401748,0.639505298243049,0.16242652290078705,-2.953282379938015,-4.43956804404232,1.0029609798647416,-0.48394446207117403,0.2952025636961264,-0.9922215230841168,3,right
15.004000000000001,-1.0868979765842912,0.6303431019593853,0.17324831808819308,-2.913029808874843,-4.22054596360632,1.0280190314862279,-0.3414557953091627,0.5386967788206541,-0.7042753335372327,3,right
15.005,-1.0533990003674927,0.6275660242459302,0.19330166531824622,-2.9141214134587736,-4.226459105599462,1.0273210735471152,-0.307514354819093,0.5966877847006749,-0.6357282704376068,3,right
15.008,-1.0027637307622161,0.6579009676400644,0.1956690845741619,-2.990871608147488,-4.644169413546455,0.979622375528778,-0.3332478415498942,0.5527192828503664,-0.6877016821662372,3,right
15.008,-0.9655726645074023,0.7116496164149364,0.16957633420354118,-2.8022259489109533,-3.617496224006352,1.0968752365154684,-0.31772815530872484,0.5792362282295753,-0.6563393106563946,3,right
15.014000000000001,-0.8776636369529591,0.8226362616607654,0.1187819618472344,-3.1150056732907485,-5.31975877798785,0.9024680464111193,-0.32403921122005785,0.568456001034128,-0.6691365653781645,3,right
15.015,-0.8045130411010042,0.918193967370557,0.07165386497928622,-2.702467448261204,-3.0745251596276177,1.1588772218525694,-0.3241365573077596,0.5682821790723686,-0.669239494193114,3,right
15.015999999999998,-0.7843173031583026,0.9463723800862653,0.058787927332942407,-0.9713994419105122,6.348315709784573,2.234840613482387,-0.3208135657819998,0.5739715471374964,-0.6626558513663577,3,right
15.017000000000001,-0.6932826047950527,1.0587803634615034,0.004763005009955738,-0.5590023094841599,8.593162003663833,2.4911751268080513,-0.3247918159151173,0.56716216854044,-0.670566146817154,3,right
15.017999999999999,-0.5578556337111245,1.2174324196011173,-0.07707418968093628,-0.871474485396807,6.891748629114662,2.296926175282337,-0.32169762921734735,0.5724541863520025,-0.6643691220076291,3,right
15.023,-0.4395280183828359,1.3327006700172066,-0.13762614585011776,-0.6833194123126365,7.917057702375101,2.4139353968303565,-0.3233530987736931,0.5696366328937819,-0.6678215381139492,3,right
15.023,-0.31513855957515646,1.4350564087897044,-0.2025821245049138,-0.7594448828641405,7.501098183089096,2.3665343720093137,-0.32300557585971623,0.5701950590199433,-0.6667733062295191,3,right
15.027999999999999,-0.20987710811496305,1.4924524398236336,-0.24978340787176978,-0.7611250368640288,7.493516241608435,2.365573799806662,-0.32250694962807214,0.5711080444218253,-0.6663613570068037,3,right
15.029000000000002,-0.13111679228824447,1.503409387749168,-0.2668099422360499,-0.7206335473510572,7.713251217361913,2.3907058707008284,-0.32334125058435836,0.569607571239197,-0.6673167625044117,3,right
15.033,-0.07912521173504974,1.4796139605943024,-0.26412011810485275,-0.7683288044478727,7.452305822332498,2.360987806990603,-0.32256844681102076,0.5709877659737255,-0.6663373119076176,3,right
15.033,-0.07166889317404229,1.4230376044607138,-0.24655007076134577,-0.7324091977215778,7.6520957905877545,2.3835468178593073,-0.32304851127837375,0.570168195780606,-0.667312376326504,3,right
15.037,-0.10738457010846711,1.3569148645547884,-0.22868056603774642,-0.7498673892371261,7.549716042648953,2.3722947016547815,-0.32294203537079963,0.5702387728898938,-0.6660178656871844,3,right
15.038,-0.17685799066648397,1.290277486659508,-0.21068497409583306,-0.7486550779895667,7.5653303144334165,2.373539939047725,-0.32270573577531636,0.5708967851798065,-0.6680070977638348,3,right
15.040999999999999,-0.26403823106187224,1.233401755566066,-0.18637330104163524,-0.7405703076860706,7.602152896632794,2.37817321903979,-0.3231731841307231,0.5697189211044673,-0.6652717767832583,3,right
15.042,-0.35862079784376416,1.1872420476388568,-0.14949049512235135,-0.7498311810293001,7.5516788995950215,2.372413294200329,-0.3226533948829285,0.5710110506375878,-0.6681442812749425,3,right
15.048,-0.4519153780846614,1.1490281112468717,-0.10263207822473434,-0.7461672252112002,7.584953896733181,2.375418474414204,-0.3229876491171561,0.5702068709855752,-0.666553021730278,3,right
15.049000000000001,-0.5373904719428473,1.1165749000266776,-0.05306059108374647,-0.7404743609822884,7.585478413905809,2.3772940446637314,-0.3231080328956716,0.5697990851341782,-0.6648426397729519,3,right
15.052,-0.6151091387351354,1.0834711275837479,-0.0072539593261683535,-0.7551218691259658,7.551191985850266,2.370670212287939,-0.3223063822114586,0.5720507889943274,-0.6717733663629976,3,right
15.052999999999999,-0.6836664756703441,1.0525903341482659,0.027848512963299626,-0.736796611810721,7.602499193254789,2.379416532308542,-0.32384286679374896,0.5677908901204155,-0.6590207282070668,3,right
15.056,-0.7424731105873374,1.0279919427765867,0.05864528215364219,-0.7487680878568461,7.565321973781238,2.3735026594201942,-0.3218584720943076,0.5732793945390322,-0.6753727546984397,3,right
15.057,-0.788104298372623,1.0071369341248455,0.0899378194583833,-0.7561760863393154,7.549132821245109,2.3702162841410503,-0.32352019570389057,0.5686901833477676,-0.661731156945635,3,right
15.061,-0.8248694796295946,0.9956747044025781,0.12014054327963133,-0.7176089041069406,7.653459928213959,2.388422909089017,-0.32345669022323775,0.5688425764498943,-0.6620637234765492,3,right
15.062999999999999,-0.8591949487810082,0.9989748647995732,0.14735323957428786,-0.7909231954139146,7.450226638601594,2.3535438032782947,-0.32034775449121616,0.5774997254889607,-0.6881941293456788,3,right
15.065999999999999,-0.8843861738346284,1.0077923854026647,0.1684915049883663,-0.6959906588435716,7.715514907376049,2.3988248690245535,-0.3280120674618312,0.5561893736545941,-0.624013563419374,3,right
15.067,-0.9027434706300173,1.0217771554066746,0.18526206729247918,-0.7755817535805515,7.492195008598362,2.360810645926501,-0.31529706179274575,0.591529915233858,-0.7304144533793069,3,right
15.072000000000001,-0.9115640037856636,1.0333732685758306,0.19168817227466287,-0.773141045372099,7.499824409145742,2.362022307794028,-0.3320705089080477,0.544917159820778,-0.5900759067650749,3,right
15.073,-0.9106203041407532,1.0349745819143763,0.19186575623248892,-0.6219034979966503,7.922723244525354,2.434169316705944,-0.40242910626456907,0.3492807052083877,-0.0009240077699301241,3,right
15.074000000000002,-0.9071139550314211,1.0422196883348631,0.19698457869835,-0.9941380485470868,6.8804538204415895,2.256513296842927,-0.41920378966186184,0.3026748077931691,0.13941426409586416,3,right
15.077,-0.8821222705449948,1.0479296505694324,0.19397607382951004,-0.37671749693574536,8.609926434856481,2.5512313546480216,-0.4064874462099479,0.33800793157361375,0.03301367227482496,3,right
15.078,-0.8577624256711366,1.0458629388952287,0.1867586826174158,-1.1911999126947523,6.328125436642135,2.1624237795583183,-0.41415125119029716,0.3166947502573178,0.09719434814467227,3,right
15.08,-0.8497453728330852,1.0442363036520859,0.18367446312316632,-4.610095696385248,-3.2500679472087746,0.5303852902092825,-0.4110467508133007,0.32537652718517907,0.071062962656427,3,right
15.081,-0.8098389393265619,1.0320734919266294,0.17138418130820215,-5.42460499483145,-5.532136225653583,0.1415381737129957,-0.4109737011033472,0.3254759405767178,0.07073250818690205,3,right
15.082,-0.7469092941774487,1.0117961908082957,0.1579714135482153,-4.807098370730953,-3.802006033104928,0.43634542137578736,-0.4126491100040468,0.32096268329274646,0.0843710742400836,3,right
15.085,-0.6869793003290179,0.9912049432576752,0.1486189352363581,-5.179523709919944,-4.845470352842982,0.25854129161218814,-0.4106510866079106,0.3263755637728064,0.06802207097547705,3,right
15.087,-0.6223156722432162,0.9692985509814599,0.13700493993211627,-5.027966504070138,-4.420840605849831,0.3308852797015213,-0.41219345358227377,0.32214827609742286,0.08077339670575864,3,right
15.091,-0.5624317469613522,0.9492595549957574,0.1259242682331243,-5.025935584159388,-4.415138335709349,0.3318995100695449,-0.4114035017302117,0.3244649632020479,0.07384009237390647,3,right
15.093,-0.5097813925534114,0.9298199834320073,0.11080717518757213,-5.10516168114955,-4.637133875637712,0.29398711620999163,-0.41148619298074063,0.32384792433435944,0.07555880949805738,3,right
15.095999999999998,-0.4621692224562741,0.9135108358580339,0.09213143363546078,-5.010314638486419,-4.371367372718479,0.33939316371952377,-0.41188539718336553,0.32340425318192817,0.07713568928771905,3,right
15.097000000000001,-0.42371872781566944,0.9021249727239985,0.07364258257345409,-5.084108168426697,-4.578143777925789,0.3040397710315935,-0.4112858936180048,0.3242539943164586,0.07428085139710627,3,right
15.102,-0.39614873630084757,0.8960028813427496,0.05621176481387201,-5.04427838209952,-4.466539072828329,0.3231076351352586,-0.4118169006791542,0.3234287549601201,0.0770020592463542,3,right
15.102,-0.378324910547529,0.897040150725525,0.04451891391889884,-5.053707469740128,-4.492943448657028,0.31871339054797404,-0.41158115228506964,0.3240900678620221,0.07501276697884804,3,right
