time,gFx,gFy,gFz,ax,ay,az,wx,wy,wz,subject_number,foot
0.718,-0.23159438975054475,0.9869104340892267,-0.10449899531630338,0.025400465831932575,0.028899937569416834,-0.01980009868520169,0.02169961579088212,0.04819820190838839,-0.04059976982734667,2,right
0.718,-0.22569396821290721,0.9909821223033347,-0.10179291391264511,0.026716611972113825,0.028246327637429007,-0.01821390765822095,0.021700375033322745,0.048201755319258736,-0.04060022488207017,2,right
0.723,-0.22516151644068838,0.9918344752812426,-0.1023698213717914,0.05205238582508458,0.015665898460011776,0.012314187551385154,0.021699844657922792,0.048199272611921334,-0.0405999064642836,2,right
0.7240000000000001,-0.22302492981140115,0.9945871795288974,-0.10305909717037184,0.056486804801658845,0.013465459093510612,0.01765168305063442,0.021699668732764434,0.048198450257255145,-0.04059980224967316,2,right
0.7240000000000001,-0.2159415633688939,0.9977556437450787,-0.10219784268101761,0.052339501404706265,0.01552250590928671,0.012663371862536115,0.021701043764316228,0.04820488417922769,-0.04060062454969668,2,right
0.7290000000000001,-0.21074524185058513,1.0001986416905233,-0.1073365864162241,0.05536655950056524,0.01402202347766632,0.016300647234100032,0.02169821522103704,0.04819164761859459,-0.04059893119778989,2,right
0.73,-0.2107016799065338,1.0025030602600742,-0.11899892179110533,0.05371287787049299,0.014841350801695224,0.014315113818797246,0.021702177233383576,0.04821018974062696,-0.040601304739065674,2,right
0.732,-0.2077500551476816,1.0039873158559125,-0.1328241504991125,0.05419230281775043,0.014602715372628645,0.014895047834396994,0.021698281257875495,0.04819195492215444,-0.04059896863921625,2,right
0.733,-0.1992639389573862,1.0051715911886976,-0.14445072222932048,0.054468899100361165,0.014469970481079557,0.015210365576739724,0.021699949095514117,0.04819976436563628,-0.04059997265529458,2,right
0.738,-0.1916635313949991,1.006894896875676,-0.15105608950538182,0.053867754358775985,0.014759007722565193,0.014522982203668908,0.02170326562461122,0.04821527966939338,-0.04060195225899477,2,right
0.7390000000000001,-0.18449743024988374,1.009517136028729,-0.15892552562604645,0.05447047276588591,0.014472975086801681,0.015197466480282012,0.021692611127792614,0.04816542323014687,-0.040595577120893206,2,right
0.743,-0.1787059737568263,1.0115144519207369,-0.16636967791988017,0.054044888563256996,0.014671276253288765,0.014735546863093764,0.02171094553856855,0.04825122422719914,-0.04060655643223632,2,right
0.743,-0.17606059770117755,1.0157665382390455,-0.16489407636177855,0.054236266472100905,0.014581822646021383,0.0149443538930238,0.021688461825324846,0.048145997611955135,-0.040593082907932954,2,right
0.75,-0.17150318823401162,1.0215841759494138,-0.15292480857147223,0.05426054522745006,0.014580845371456517,0.014930337829290027,0.02170637522667188,0.048229846249388496,-0.04060383178342762,2,right
0.7509999999999999,-0.16316665390058377,1.0219159135938725,-0.13515938662865454,0.05407359372690601,0.014638084122736933,0.014844121712392997,0.02170654865837476,0.048230631204137925,-0.04060390329071163,2,right
0.752,-0.14918703776207848,1.0182174057497178,-0.12293681162423777,0.05435726478972243,0.014558473620898911,0.014946635065685124,0.021673283257816787,0.048074984837337874,-0.040584017173124744,2,right
0.753,-0.13258145277616878,1.012544621381823,-0.12342426163261312,0.05405491610339532,0.014633498754154857,0.014875787249827918,0.021749276842046018,0.048430601888235086,-0.0406295052941741,2,right
0.758,-0.12054869273228752,1.004081811256205,-0.13521580346798928,0.05427648607898692,0.014583316795302271,0.01490892699741635,0.021635929932626505,0.04790014843314914,-0.0405616109369208,2,right
0.759,-0.11125103054431447,0.9980960208929904,-0.15107970657338213,0.05425925456964814,0.014592452234954503,0.014885968766721904,0.02175673412975083,0.048465549167782535,-0.040634030210358454,2,right
0.762,-0.10605564985139619,0.9961414716076303,-0.16276860047544456,0.05394556590351833,0.014637094929977237,0.014942072607872295,0.02168697669181194,0.04813898115864706,-0.04059211305978605,2,right
0.762,-0.10619778539219743,0.9954958259359055,-0.1671340832373731,0.05466490988518785,0.014533752628404577,0.014817077352042636,0.02162670934487407,0.04785709795840398,-0.040556210431136705,2,right
0.768,-0.10774979021399235,0.9979812924249231,-0.16224116159664018,0.053600594637811555,0.01468361613257415,0.015013983638563157,0.0218901836864854,0.04908996308830408,-0.040713822664377716,2,right
0.768,-0.11099936836382063,1.0017495759419108,-0.15226542572663143,0.0547281966181402,0.014527237913567113,0.014795884878635075,0.021401686343895724,0.046803932028382636,-0.04042132754750598,2,right
0.772,-0.1125913232677312,1.0024977256219205,-0.1446762300455308,0.054077988657954656,0.014617080861654936,0.014923138111041536,0.022028823429536337,0.04973898172320088,-0.04079710626853199,2,right
0.772,-0.10992844513341046,1.0018703751064082,-0.14142839388779443,0.053524494889575995,0.014690606171779204,0.015042367637979708,0.02150542978677927,0.04728913120819399,-0.04048309231207056,2,right
0.778,-0.10558290986131194,0.9996654745842903,-0.14370309058879832,0.05595341087469437,0.014364623455776097,0.014530799433795804,0.021519198835512305,0.04735434141004081,-0.040492276747676935,2,right
0.778,-0.09954803840874671,0.996181727327645,-0.1508616990652656,0.05145034687586674,0.014968871831899752,0.015480191851513829,0.022518157379804494,0.05202834518178025,-0.041089395483007135,2,right
0.7829999999999999,-0.09289679155800716,0.9953763362072634,-0.1570356206824979,0.057230489168651553,0.014193581593920146,0.01425970117568263,0.02006364399085599,0.040542440392738764,-0.03962036403472545,2,right
0.784,-0.08956428490614712,0.9936981695218621,-0.15375737244732035,0.05240635114008955,0.014840743651339283,0.015278820636387738,0.024132728940532058,0.05958490735244706,-0.04205713734003723,2,right
0.787,-0.08898524627689011,0.9896536938943674,-0.1464107821497609,0.0525359730441724,0.014822241483140135,0.01525367813349894,0.01876624042897193,0.034469686762517736,-0.03884198646757235,2,right
0.787,-0.0901553793695624,0.9886839197232236,-0.1462611489174337,0.06173488041848064,0.013591677171574962,0.013301947989833576,-0.0037665581751118843,-0.07097056112934683,-0.025358566550133577,2,right
0.787,-0.09517971417299353,0.9901056967322929,-0.1465976353575259,0.03912814299134845,0.016617558660971574,0.018095797417990868,-0.009132025985593484,-0.09608297286825021,-0.022141639199739462,2,right
0.7929999999999999,-0.0994773364373023,0.9911409654282406,-0.14600075210849006,0.07660856437459737,0.011599895830395923,0.010148931974951578,-0.0050640451893748,-0.07704354489379778,-0.024580334272992155,2,right
0.7929999999999999,-0.10069349873506507,0.9915202759533771,-0.1488395978653957,0.027174179687322334,0.018218558850077143,0.02062980341622068,-0.007518979221866269,-0.08853060553444851,-0.023112034772358153,2,right
0.7929999999999999,-0.09956876050278753,0.9922639484548413,-0.1505412066538406,-0.18037417706598752,0.04598154963910148,0.06466993038695473,-0.006516356205020726,-0.08384652108577079,-0.02370277601264849,2,right
0.797,-0.09271546969975412,0.9932487691585815,-0.15413834845805657,-0.2298099386725321,0.05259933738516159,0.07515296527517232,-0.006510470857676519,-0.08380300068408883,-0.02372568113451389,2,right
0.797,-0.08113060516093815,0.9945144581105985,-0.1627733174771685,-0.19232192392834874,0.047584970932484316,0.06719792396783136,-0.007022561572065978,-0.08622175246601262,-0.023391995538477754,2,right
0.802,-0.06644847346263816,0.99634567546627,-0.17256504671665276,-0.2149497139622019,0.0506028909936562,0.07201155142764505,-0.0064066789701279995,-0.08331767057011824,-0.023787361807454062,2,right
0.8029999999999999,-0.05127575502052948,0.9971092029732211,-0.18090470356848146,-0.20571117809733708,0.04938634121158206,0.07002497597760421,-0.0068903218347101305,-0.08559033968962337,-0.023486417440093547,2,right
0.8059999999999999,-0.038266675007766274,1.0005461093291037,-0.18715872967223307,-0.2056370464192671,0.04934914610970038,0.07004634173185767,-0.006617179395250104,-0.0843308819368305,-0.023627204054011565,2,right
0.8059999999999999,-0.02847264556640198,1.003675541236531,-0.18709769187040357,-0.21040546124921544,0.050013934156685605,0.07102156784793487,-0.006708583902136721,-0.08469842690675292,-0.023645491791738388,2,right
0.8109999999999999,-0.022125562087504203,0.9995678997857077,-0.17749684704689367,-0.2046510311935541,0.049232553654094104,0.06981631885734949,-0.006724694385200769,-0.08487739636828917,-0.023510207841819945,2,right
0.8109999999999999,-0.014760188204849685,0.9925253400262761,-0.1645492810712032,-0.2091982943723218,0.049818146198238974,0.07081199681463532,-0.00666972454615479,-0.0844931357631211,-0.023697205772151862,2,right
0.8170000000000001,-0.006014317040222922,0.984091780921417,-0.15440252240411034,-0.2066198898665635,0.0495464359420892,0.0701655335693846,-0.0067305909693506204,-0.08487917602518483,-0.023537972477850316,2,right
0.818,0.0008764049777986024,0.9758119490232589,-0.14919271775091036,-0.20743573463618348,0.04952950650413976,0.07050974375183529,-0.006654116246189593,-0.08452227093727693,-0.023582626587173892,2,right
0.8220000000000001,0.0020489704261741314,0.9725275700278202,-0.14772812013673647,-0.20775834239603708,0.049727307315891374,0.0703683133398473,-0.006784802423683654,-0.08494591252225192,-0.023732287361833394,2,right
0.823,-0.002022368816442253,0.9755447674216438,-0.14817443014287346,-0.20690062105590212,0.04948930949310487,0.07035360699398727,-0.006562014525757638,-0.08433267133192482,-0.023344924183139312,2,right
0.826,-0.00783437728488222,0.9821897277315362,-0.14934525121144943,-0.2079472532621945,0.04962823599762961,0.07057713978463231,-0.006876186175763709,-0.08516250633416389,-0.023933633530245815,2,right
0.826,-0.018847815855732315,0.9865848969936603,-0.15039257344876522,-0.2067730694272296,0.049699794914500425,0.07001773863996658,-0.006544683283633352,-0.08429372631873755,-0.02330407606847399,2,right
0.831,-0.03280205343189072,0.9912851067527455,-0.151297498941121,-0.20816281927787383,0.04936321775915282,0.07102167398979167,-0.006730838869393435,-0.08477069625423504,-0.023670963331289964,2,right
0.8320000000000001,-0.045937486144125426,0.9990490952651011,-0.14653545827827674,-0.20654523537979452,0.04992627404738215,0.06962066432533232,-0.006917908231859398,-0.08530571473370685,-0.023971599957953484,2,right
0.8370000000000001,-0.06159220986754903,1.0028867678209874,-0.13403782695159266,-0.2081027279820639,0.04930373657682437,0.0710787655063297,-0.006142808733446982,-0.08316698048234933,-0.02263039087991707,2,right
0.8370000000000001,-0.07987524289808201,1.001914608112378,-0.11945111292414475,-0.20731491728780138,0.04967841223000303,0.07026004250723344,-0.007572298860780262,-0.08709666906953276,-0.025122168981916604,2,right
0.84,-0.09697493529369094,1.0025359498659094,-0.11184351293429569,-0.2062872540622689,0.04995483106139595,0.06948040102753439,-0.005738638136457834,-0.08205899520011366,-0.02192173806380605,2,right
0.84,-0.1122642932354318,1.0048805111671943,-0.1155016476448799,-0.21014147345343648,0.04865917828945827,0.07275612525408376,-0.007268584368652565,-0.08626133358700636,-0.02459377612654798,2,right
0.845,-0.12846706969326735,1.0075258389545005,-0.1209365783307066,-0.20314618872125018,0.05108230176388094,0.06671354487601229,-0.0072303020043967756,-0.08616042539201928,-0.02452043614207436,2,right
0.846,-0.14280447574346852,1.0114285477554708,-0.12489056723350883,-0.21207295800010453,0.04796352969422005,0.07446078901544587,-0.004303097989940076,-0.07810538293905298,-0.019429278908546163,2,right
0.85,-0.1555340036193037,1.0121034128754198,-0.13335778317747735,-0.20464486708715324,0.05057041333942307,0.06799809769303103,-0.01149378050238897,-0.09788849826876975,-0.03194339887843658,2,right
0.85,-0.16468194955784735,1.0112193999176937,-0.14250031058906493,-0.2048072385896924,0.05049488207702893,0.06816502342641233,0.0004272531195280327,-0.06509118860171734,-0.011194864615981868,2,right
0.855,-0.1653473724793012,1.0136377210750367,-0.14685007700541802,-0.21907317317996572,0.045537250175773744,0.08050922121114293,-0.015295842875903288,-0.10835024448722919,-0.038561167700189164,2,right
0.855,-0.16719400311539545,1.0139382873163678,-0.1483605893983284,-0.18406700759097927,0.057729817578485554,0.05018052429744157,-0.08130436955456068,-0.28994931014849534,-0.1534393785558669,2,right
0.856,-0.16813087291440715,1.012202568263876,-0.14791172030996072,-0.2420846108824778,0.03751105666315371,0.10046207155666778,-0.09702678311098342,-0.3332097967288306,-0.1808039268173947,2,right
0.862,-0.16296067099303796,1.0119948887568304,-0.1462885197643057,-0.16557157151247753,0.06418077812630572,0.03414316028246137,-0.08510648792572639,-0.30041093919756723,-0.16005729118839038,2,right
0.862,-0.16016610564185169,1.0117329899845704,-0.14446967468508115,0.1556741600074757,0.17611902381642558,-0.24424352005320193,-0.09229745096590096,-0.32019346561439976,-0.1725721331497787,2,right
0.863,-0.1527455427702808,1.009723406385341,-0.14601260268478636,0.23217796203530142,0.20278950496335862,-0.31056107983327397,-0.0893677983629497,-0.31214355814300665,-0.1674746782939141,2,right
0.865,-0.13780462390525186,1.004755742123125,-0.15521447993476456,0.17417446493126917,0.18256937158311998,-0.26028186787122076,-0.08933478484479895,-0.3120316016558162,-0.1674148885790539,2,right
0.866,-0.12496453752434065,0.9999814883720836,-0.16325774033268914,0.20916986685812122,0.19476357639661146,-0.2906080284827622,-0.09085717630150152,-0.3162497808365651,-0.1700674981925547,2,right
0.872,-0.11280846871819639,0.996928452469383,-0.17083927554420875,0.19490080726961345,0.1898046507601192,-0.27826535570342403,-0.08903103895572201,-0.3111963331113527,-0.16688641409528474,2,right
0.872,-0.09878757127910835,0.9950547109103767,-0.18438194989398277,0.19476521918922512,0.18972921743569504,-0.2780994078410826,-0.09045728214405244,-0.3151328273256131,-0.1693698441424841,2,right
0.875,-0.08504326506859021,0.9938085686648227,-0.19418061379443585,0.2021388481921897,0.19233811085424296,-0.284557287205273,-0.08967572393839873,-0.3130076394204939,-0.16801202232115026,2,right
0.875,-0.07200172882885646,0.9915750266969489,-0.1986902649305708,0.1932863719102813,0.18921465167814516,-0.2768190940351718,-0.0898836015037114,-0.3134990233839402,-0.16836617418047384,2,right
0.879,-0.05987965456898651,0.9899619152890629,-0.19782368477552037,0.20021234943016047,0.19164478495803502,-0.2828498598090152,-0.09003390203332715,-0.31405117626105256,-0.16864085191105344,2,right
0.879,-0.050402169413264725,0.9869457592047874,-0.19157526668413286,0.19638016920864537,0.1903416649021561,-0.2795845882488659,-0.08974640403648053,-0.313090129159849,-0.16812445923763764,2,right
0.884,-0.045771480984099014,0.9826257692494267,-0.18895978515148615,0.19748450772005158,0.190622367037364,-0.28036191245477193,-0.09002549024731507,-0.3139935220817155,-0.1686229473100237,2,right
0.885,-0.04897396230045506,0.9811847040188425,-0.18938655213063513,0.1980563683828994,0.19100088675347482,-0.2811668280401918,-0.0898023956928227,-0.3133809406930005,-0.1682347820427407,2,right
0.889,-0.06038781357824788,0.9815893450609556,-0.19213416649353984,0.1968529394284671,0.19036171060452528,-0.2797445770114515,-0.0899981773822526,-0.3136680683848112,-0.16855186524409133,2,right
0.89,-0.07632414190288891,0.9821613988333162,-0.19773011685362837,0.1980552102773392,0.19095584375667887,-0.2810887585150228,-0.08977292687054253,-0.31362313518406315,-0.16821389993236013,2,right
0.894,-0.09510267890393309,0.9820707200246832,-0.1981905887997542,0.19696806323069874,0.19057853377231004,-0.28014935206920744,-0.09005575131701232,-0.3135437702692839,-0.1686254754610247,2,right
0.894,-0.11741831879904929,0.9799935252663947,-0.19141755021955437,0.19821016652496992,0.1906865161209732,-0.2806649925250273,-0.08976415829202598,-0.31365563512613,-0.16820397414128907,2,right
0.899,-0.14132827735179776,0.9772812095981344,-0.18372796966253568,0.19645296989360223,0.19081655601865538,-0.2804235547017087,-0.08991700609865848,-0.313547959607708,-0.16842028265099568,2,right
0.9,-0.16514830989729018,0.9789511432176851,-0.1761948005626272,0.19881527407523517,0.19053229826225193,-0.2805593579665002,-0.09012623194746153,-0.3136683544107392,-0.1687416517056861,2,right
0.904,-0.19004639982502097,0.9820711193974475,-0.16530379274811857,0.1963454198075458,0.19085215735144173,-0.2804563349444775,-0.08933734204266569,-0.3134904283441367,-0.16755600864286752,2,right
0.904,-0.21500743137640857,0.9809130773832446,-0.14916547550274165,0.1976960650320717,0.1906407471061914,-0.2804499445770525,-0.09077748836461794,-0.3137574340857779,-0.16971494274119303,2,right
0.909,-0.23746313062013774,0.9792903174199079,-0.13043493560139702,0.1992384303672804,0.1905901518389512,-0.2807710993705709,-0.08893336262352142,-0.31342867384105877,-0.16695170244874216,2,right
0.91,-0.25647211841442,0.9759599221857536,-0.12062666379499742,0.1931075816218915,0.19102714432879614,-0.27990015183032024,-0.0904709223185389,-0.31369749080334813,-0.16925498406490663,2,right
0.915,-0.2708516283267904,0.9690917331793191,-0.1214257410806624,0.20436510434379876,0.19017774659881503,-0.2814189797442622,-0.09043711249822553,-0.3137119914316978,-0.16920650173842952,2,right
0.9159999999999999,-0.277407777891829,0.9651756218154683,-0.12476928144718838,0.18993562671518038,0.1912772779890633,-0.2794901714390055,-0.08747953950686127,-0.3131278158709727,-0.16476911219994383,2,right
0.919,-0.2750054634075896,0.9657413753831388,-0.12836240083024697,0.20197092171530162,0.1903555899253752,-0.2810919952132297,-0.09473982686486154,-0.3145381322896,-0.175659368567814,2,right
0.92,-0.26704812225982977,0.9675447875292106,-0.1254662322418661,0.20168633033827066,0.1903945671291855,-0.28108153811890557,-0.08270413310753086,-0.312206182947511,-0.15760699859659927,2,right
0.9229999999999999,-0.26270201418991646,0.9681787429948477,-0.12002975197864806,0.1786045376342888,0.19210646210673682,-0.277918552197016,-0.09857913719992473,-0.3152816866790351,-0.18141769020953336,2,right
0.9229999999999999,-0.2620393337622273,0.9679792132535351,-0.11913295876273913,0.2352861656296361,0.18788185777631378,-0.2856547144975033,-0.1652205581338934,-0.3282174510539465,-0.28138175877270555,2,right
0.924,-0.253505594241892,0.9697791978859216,-0.11504165693152663,0.14132113742037664,0.19489138695908179,-0.27283673251238716,-0.18109639606497607,-0.3312955925119136,-0.30519419723870805,2,right
0.9279999999999999,-0.24531367270907634,0.9720582957399867,-0.11167572754551022,0.26525520702563593,0.1856445854416191,-0.28974423770702057,-0.16906044634317546,-0.3289613791975984,-0.2871400410264568,2,right
0.929,-0.2424589788364733,0.9725991098396329,-0.11170920800284939,0.7855463945786448,0.1468555784768772,-0.3607534187576963,-0.17631810174417312,-0.3303685208552636,-0.29802921112684155,2,right
0.93,-0.23359053487087236,0.9751450344916439,-0.10884266071397061,0.9094740958542302,0.13760797731702895,-0.37766884207822615,-0.1733682399582666,-0.329798119174768,-0.293598848359931,2,right
0.9329999999999999,-0.2235304369270571,0.9810175420823527,-0.10927336255766831,0.8155214136398776,0.1446195895471018,-0.36484055530746395,-0.1733209908584769,-0.32978586117678166,-0.29353575313051505,2,right
0.934,-0.21684419162326896,0.9874160599009831,-0.11216870048326737,0.8721863373309205,0.14039100048606806,-0.3725796149962995,-0.17487529594727308,-0.33009074073054984,-0.295859581508885,2,right
0.9390000000000001,-0.2090042205783553,0.9943343384087872,-0.10601868675904187,0.8491215293474129,0.1421089188862101,-0.3694323558363798,-0.17301764775251227,-0.3297289473884676,-0.29307638703043803,2,right
0.9390000000000001,-0.19900273376763963,0.9993594990947324,-0.09505461282080066,0.8488270090479788,0.14214087725124924,-0.36937958255687264,-0.17445777476568797,-0.3300048624950233,-0.29524299118114294,2,right
0.943,-0.18886229714076264,1.000884182733541,-0.09151221148671845,0.8608552304528727,0.14122449593612998,-0.371048867018951,-0.1736939857377096,-0.3298676157212078,-0.2940766485539711,2,right
0.9440000000000001,-0.1800611379429286,1.0027261195786006,-0.09420435105723002,0.8464594158514569,0.14232468497670148,-0.3690444028074026,-0.17384556094915343,-0.32987815505338275,-0.2943395711650756,2,right
0.95,-0.17238800332887408,1.0042445164892415,-0.09826928156482512,0.8576529799444386,0.14146396866782718,-0.37061162117896296,-0.17408456850102288,-0.3299477385667381,-0.29465447021962105,2,right
0.951,-0.16730374941301163,1.0063615911162285,-0.10527522096471695,0.8516071366687246,0.14192582447079458,-0.36976935522981025,-0.17370122832116044,-0.3298548351701269,-0.2941142199960761,2,right
0.953,-0.16787558156175678,1.0126804704301358,-0.11176752755749284,0.8530716331984254,0.14183888013076254,-0.3699356996071887,-0.17403629133411552,-0.32991963669098817,-0.29461711141251035,2,right
0.953,-0.17813594009575745,1.0198339199122262,-0.11130361196337643,0.8544452215675545,0.1416652719913718,-0.3702314839340012,-0.17385964206840032,-0.3299199289969477,-0.2942876878448966,2,right
0.958,-0.193315735089448,1.0265710026449526,-0.10369193111798666,0.8520653000983109,0.1419650989933583,-0.369720001272702,-0.17384803892721715,-0.3298387030695244,-0.2944175816186829,2,right
0.9590000000000001,-0.2046265771086288,1.0318257269769167,-0.08747561216292246,0.8541795453081481,0.14165744380617346,-0.37023762481619277,-0.17401161494406733,-0.3299882651457037,-0.29444319520411133,2,right
0.9620000000000001,-0.21355267563868877,1.0307787190251432,-0.06908120970209367,0.8528260294383745,0.14187788022211403,-0.3698702999094692,-0.17378371049361316,-0.32981843479186,-0.29433560798802594,2,right
0.963,-0.2216454221706219,1.0278884835927837,-0.06479693384682189,0.8535974932007753,0.1418214661092309,-0.36997392771115767,-0.17395129275205162,-0.32992352632836985,-0.29445159805145815,2,right
0.9670000000000001,-0.22798756635763293,1.02599659075566,-0.0682792801815594,0.8528493874171487,0.14165544565459404,-0.3702107151621735,-0.1739841454010277,-0.32999248693940697,-0.29438424786270523,2,right
0.9670000000000001,-0.23742341736330386,1.019377622332916,-0.06541245486365617,0.8541366463748745,0.14206624660933206,-0.3696120225813828,-0.1736344515095613,-0.32965076562624246,-0.2943702851169977,2,right
0.972,-0.248147936862034,1.0115387051285536,-0.05894514628275244,0.852118153027522,0.14146078806609189,-0.3704916881266379,-0.1743316279681499,-0.33029392672264046,-0.29446911567211176,2,right
0.973,-0.254303486845708,1.0052136061606718,-0.05079000043539265,0.8544001597088962,0.14209644871869964,-0.3695718426028927,-0.17341885935300788,-0.32946467368321936,-0.2943159335558,2,right
0.977,-0.26066720142757405,0.9974328303337211,-0.04580696988659093,0.8530828359033003,0.14172915235555095,-0.37010328099965173,-0.17418833607487005,-0.33015841371190296,-0.29445490624001736,2,right
0.977,-0.26622706288321507,0.9918127210525671,-0.04803692702426944,0.8516591467290118,0.1414337841519975,-0.3705227466113762,-0.17415599107037505,-0.33013742230432835,-0.2944340733897981,2,right
0.9840000000000001,-0.2683369556574138,0.9884898896190155,-0.05233726688263665,0.8575173524876041,0.1427537329366329,-0.36863755134496357,-0.17271935903411212,-0.32882048590629137,-0.2942145010975071,2,right
0.9840000000000001,-0.2693678902133353,0.9851123043949587,-0.05907688989469757,0.8466713270907376,0.14030473840074814,-0.3721355252336245,-0.17626715012689054,-0.3320605594304682,-0.29477884324399317,2,right
0.987,-0.26559928918409925,0.9837175384627926,-0.06682552622237731,0.8606226417701334,0.14344733105764293,-0.367647917785249,-0.17037834219573852,-0.32668715717761343,-0.29383387287138796,2,right
0.988,-0.2622649354035731,0.9841952209456193,-0.06866669531164066,0.8489636371830325,0.14082492526630414,-0.3713918526691076,-0.1781481156157823,-0.3337750920948851,-0.2950835884641353,2,right
0.993,-0.2612471478377347,0.9833686204386461,-0.0697165540508021,0.8492508622827317,0.14089728499999266,-0.3712888844208932,-0.21075170195603923,-0.363524894025943,-0.3003164260247722,2,right
0.993,-0.2548973569864832,0.9802798689006162,-0.07484077762643507,0.8716068265640251,0.145890184624116,-0.3641614903008352,-0.21852241796245098,-0.37061293436110476,-0.3015665179558057,2,right
0.9940000000000001,-0.2474087175160824,0.9764543602980342,-0.08139753173208666,0.8166776701781853,0.13361824688806967,-0.3816780295859077,-0.21263099998630186,-0.36523914673754865,-0.30061925431371717,2,right
0.997,-0.24296763658723158,0.972052707569599,-0.09336675200729874,0.9077576061342343,0.15396435900615735,-0.35263838387413277,-0.21618403583945822,-0.36848013788931316,-0.3011901222022231,2,right
0.997,-0.24112865837102024,0.9692613188799308,-0.1025081541499849,0.787614168020163,0.12712937329240082,-0.3909380316678386,-0.21473917442613877,-0.3671615986155803,-0.30095812782817744,2,right
0.998,-0.24184233183289594,0.9687411218308037,-0.10496318230362248,0.28328895069134713,0.01447044820434398,-0.5517622265382052,-0.21471677829716757,-0.3671427324309444,-0.30095482166379706,2,right
1.002,-0.24259206404167247,0.9674176744866312,-0.11293356476265756,0.16313564434853411,-0.012364569805776528,-0.590062904284329,-0.215478201255547,-0.36783448498407495,-0.3010760310325845,2,right
1.003,-0.24408532563014818,0.9650644504878176,-0.11810376402705616,0.25422558604811607,0.007984278854840095,-0.5610138510327818,-0.2145656944469725,-0.36700588743595963,-0.3009313361975994,2,right
1.006,-0.24840716692676823,0.9610237494410698,-0.1185646625654445,0.19930286723334975,-0.004297214732759723,-0.578559341232932,-0.2152771644866286,-0.36765122361526975,-0.30104359098835376,2,right
1.0070000000000001,-0.25225548166619377,0.95560531212703,-0.12189280033973149,0.22161851538529792,0.0007152967081356281,-0.5713750846005596,-0.21489404943381135,-0.36730327579412647,-0.3009829692615884,2,right
1.011,-0.25340504946754605,0.9513495493956187,-0.11987389408514798,0.2219892124699081,0.0007586384136616347,-0.5713540063173432,-0.2149774512639702,-0.367382550145002,-0.30099818739025375,2,right
1.011,-0.25441629706293795,0.9474260292670243,-0.11390998591784857,0.2102131458415677,-0.0018327128177116731,-0.5750129177233474,-0.2150903565469932,-0.36747540226344677,-0.30101036282619287,2,right
1.016,-0.2559931409023266,0.9445460935983917,-0.1108147355069063,0.22427775900190122,0.0012921355291831173,-0.5705695179177122,-0.2148951228044944,-0.3673147179309105,-0.3009893406281694,2,right
1.0170000000000001,-0.25664257220514,0.9444489972561645,-0.10858838130728457,0.2133889183328042,-0.0011736763332660925,-0.5741235454764404,-0.21508409378772175,-0.367465765932685,-0.30100696485081957,2,right
1.021,-0.25380744652011783,0.9464917560179098,-0.1033439734703612,0.21913585021875326,0.00021790236398076812,-0.5720272757354983,-0.21495428538182615,-0.36736434412801966,-0.3009962815142705,2,right
1.022,-0.24812736608621888,0.9509074321547111,-0.09743118497148184,0.21804653271301097,-0.00021118750178159983,-0.5728288482536568,-0.2150022266678528,-0.3674082464457173,-0.30100407007961594,2,right
1.026,-0.2454700928389788,0.9560949697847615,-0.09721865123145171,0.21616676099153423,-0.00040315688157363516,-0.572870984018439,-0.21503877937186155,-0.3674100264939668,-0.3009910537872908,2,right
1.0270000000000001,-0.24899456616297796,0.9624537298919786,-0.10250688197356188,0.2191244508275464,7.583667290384068e-05,-0.5723720512755182,-0.21492880451471122,-0.3673818070090363,-0.30101656882188443,2,right
1.032,-0.2544774568970505,0.9705813808843535,-0.10936641198343519,0.21658914208193047,-0.0004921374181951228,-0.5731844803976758,-0.21508669545281794,-0.36741829505659473,-0.3009775017388296,2,right
1.032,-0.25542868519553963,0.9763917307093816,-0.11270495829409963,0.21782127093682918,0.00012028206180762004,-0.5719673483898368,-0.21492655931626156,-0.3673868402114401,-0.3010204685483442,2,right
1.035,-0.2529572660773665,0.9790084419731574,-0.10932615767146606,0.2181484888672645,-0.0005771563607687483,-0.5737465421894342,-0.21501914768526703,-0.36740509924614767,-0.30099564972973036,2,right
1.036,-0.24889086717212772,0.9798522081631924,-0.10249589186701594,0.2165534415662213,0.00021600424850107096,-0.5714453498457059,-0.21508094027039365,-0.3674043137388705,-0.3009713616293709,2,right
1.041,-0.24182620726809778,0.979985394437434,-0.10097047843966789,0.21865881901705558,-0.0005389960276799761,-0.5737691997293002,-0.21478724146409,-0.36738634657685043,-0.30107392660633736,2,right
1.041,-0.23636035140469475,0.980321066076608,-0.1055211568550096,0.21717079355420166,-0.00016350875828826696,-0.5725132710963954,-0.21533300631258934,-0.3674207431063913,-0.3008838918136665,2,right
1.046,-0.23239543279247374,0.981589844018371,-0.10692300801762347,0.21673227727132371,0.00034905172265905593,-0.5711607961652183,-0.21463378461693292,-0.36737793243696526,-0.3011281600011153,2,right
1.047,-0.22587615022308516,0.9834104963850323,-0.10355782718052764,0.22020884389548712,-0.0015456217584024431,-0.5765818941126282,-0.21521675094067994,-0.3674130687326569,-0.300924105429913,2,right
1.05,-0.21881993499335922,0.9858683832945154,-0.09820160114460923,0.21339362259782974,0.0018856233526284255,-0.5666462922072806,-0.2151992871405512,-0.36741033539313084,-0.3009293615810812,2,right
1.051,-0.21125481024139464,0.9897532306200466,-0.09492684489392902,0.22227718693027193,-0.0024904091342387706,-0.5793612927164746,-0.21409528435900316,-0.36735085489917185,-0.3013196648770642,2,right
1.055,-0.20414222734526916,0.99498335403153,-0.0969169031082004,0.21480493457166755,0.001150084386307093,-0.5687647561988561,-0.21680978759995273,-0.36749845896611577,-0.30036049962865297,2,right
1.056,-0.197945457171201,1.0065249939611491,-0.10093333414951002,0.21509301553748475,0.0010715612664497014,-0.5690224242316417,-0.21230948980528902,-0.3672537791821475,-0.3019509215124392,2,right
1.061,-0.19434999182392815,1.017029145690122,-0.1038297370701346,0.22911262967714316,-0.005923145585965735,-0.5893049287506545,-0.2182445658598014,-0.3675761648723217,-0.2998530292612288,2,right
1.062,-0.19485204555195101,1.0188985100222197,-0.10510873980526748,0.19453033776294937,0.01123958886186672,-0.5394961804291692,-0.24315579132458004,-0.36892396570794483,-0.2910470324380956,2,right
1.062,-0.18853377557690174,1.0258449650554518,-0.10541382161933269,0.25191559928548046,-0.01720526752640329,-0.6220636306932421,-0.24908964081497892,-0.36924585980857294,-0.2889489292677476,2,right
1.065,-0.17997402132876195,1.033269395151169,-0.10336100258088145,0.17620861684525302,0.020308169229588773,-0.5131660680495896,-0.2445910230086642,-0.3690020334999534,-0.2905396360560882,2,right
1.0659999999999998,-0.17869822374894778,1.032732096652703,-0.10270105572161001,-0.141509054400271,0.17779284195693992,-0.0560317393471792,-0.24730478090114097,-0.3691487007122607,-0.28958035675339266,2,right
1.0659999999999998,-0.17207926176401028,1.0354002363383847,-0.10704470660929533,-0.2172166233097772,0.2153021545913175,0.05285723851730815,-0.24619895326698368,-0.3690898044043618,-0.2899703171489135,2,right
1.07,-0.163778867725666,1.0383673264763749,-0.11010109327994022,-0.15982184236883384,0.18686566612389435,-0.02969404983545585,-0.24618713757254188,-0.3690873830383972,-0.2899765877160562,2,right
1.071,-0.16164890398461879,1.0374960782485023,-0.10471714106574387,-0.19443536350214274,0.20401626286280383,0.020093884116161177,-0.24676062719671352,-0.369120815887631,-0.28977085720383605,2,right
1.075,-0.15907935406154053,1.0375629458116564,-0.08598396811984568,-0.18035297451169416,0.19703527669912393,-0.00016923661176344515,-0.24607256423792545,-0.3690812706168799,-0.29001707093609247,2,right
1.075,-0.15931122677014248,1.0358378435855808,-0.06589286373031872,-0.18015661817101053,0.19694628608411952,-0.0004350787725406341,-0.24661031657314386,-0.36911134422264563,-0.28982568290542854,2,right
1.079,-0.16036109126798323,1.0311938149481548,-0.05912080880616298,-0.18753205704609796,0.20058653257579395,0.01014633078887613,-0.2463144042969442,-0.36909728781118223,-0.2899277611282666,2,right
1.08,-0.16121697118129422,1.0259566286303015,-0.0598839364117329,-0.17870155430960707,0.19622980179021432,-0.002520071067600128,-0.2463960029942738,-0.3690954557841706,-0.28990707760812306,2,right
1.085,-0.1702973288529121,1.0213005550985201,-0.06351614028643496,-0.18557436876524558,0.19961733200945947,0.007332285671774715,-0.24644726958777777,-0.3691089614616266,-0.2898748919412225,2,right
1.085,-0.1841111402896803,1.0189369386594864,-0.06568771985035152,-0.1818667747702719,0.19778762460133162,0.002012957206079076,-0.24634548450730656,-0.3690903012067481,-0.28992812703836024,2,right
1.089,-0.19981059872187948,1.017534037831092,-0.06470318894503181,-0.18273042423599556,0.19823118773674508,0.0032844717844266666,-0.24644544695464646,-0.3691061929046589,-0.28987904065849507,2,right
1.09,-0.2204818391845172,1.014386605655269,-0.0632648715078146,-0.18366707504706056,0.19864592881007617,0.004539760775644183,-0.24636121175268882,-0.36910171589435303,-0.2899086848497001,2,right
1.094,-0.24398497001554226,1.0100926506764218,-0.053822694499298794,-0.18204597280088397,0.19792731549116904,0.002365503322654003,-0.2464450426838416,-0.36908683950220067,-0.2899045861183045,2,right
1.095,-0.26800164004652893,1.0057414035057008,-0.036969289162491904,-0.18354242146574923,0.19856514567839806,0.004325149996449105,-0.24633729381968772,-0.3691253913591599,-0.2898843403117358,2,right
1.099,-0.2915515194399525,1.00069765292492,-0.018631173711325548,-0.18255237558018367,0.19815711570922123,0.003054589950692716,-0.24647796574559971,-0.3690667764543982,-0.2899216198136106,2,right
1.099,-0.31145861956868515,0.9935034339691031,-0.0017333011222329994,-0.18302207796418735,0.19839068206265328,0.0037317480751245216,-0.24633173485729326,-0.369129486071379,-0.2898805848954917,2,right
1.104,-0.32727645930223803,0.9869480050066564,0.004365120136147485,-0.18286816050277177,0.1981610989004554,0.003225218049988387,-0.24641033880109192,-0.3690928911729825,-0.2899063352699125,2,right
1.105,-0.34281129891548023,0.9865360715130168,-9.738650313542989e-05,-0.18296202623434576,0.19855781973785483,0.004011552282575715,-0.2465072974239165,-0.3690630616240915,-0.2899183392698718,2,right
1.109,-0.3579338964607778,0.9891774446702168,-0.006040178971187986,-0.18276202927866989,0.19793636543711338,0.0027523843691909895,-0.2461307309525937,-0.3691964805420814,-0.28984918923549047,2,right
1.11,-0.3709202904754918,0.991077922141307,-0.009259937286156324,-0.1830547414265627,0.19863816829982706,0.004208951583892055,-0.2468204829640018,-0.3689484685086094,-0.2899803516461713,2,right
1.114,-0.3789915863542228,0.9940091275617343,-0.007516210576455185,-0.18288650052125177,0.198233210666874,0.0033687261645420977,-0.2459366972228186,-0.3692671538058943,-0.2898113823241175,2,right
1.115,-0.38098384284627707,0.9954760252111822,-0.0034035288742584316,-0.18256499786296257,0.1977963743539519,0.002390311010289065,-0.24667381616363684,-0.3690008723151925,-0.2899525186195661,2,right
1.119,-0.3776618660390998,0.9948411642147061,-0.000907607168320235,-0.18374348657865866,0.19959426857559748,0.0063429606916828,-0.24665669589145167,-0.3690086838578685,-0.2899481230137615,2,right
1.119,-0.3696175569808515,0.9954558150686481,-0.003040962842372509,-0.18156944129835795,0.19626601419958406,-0.0009705202274519623,-0.24524171983018683,-0.36951481380245843,-0.2896813006411634,2,right
1.124,-0.36036649260279546,0.9962328275457561,-0.012830520798267539,-0.18437551892901966,0.20054656921256975,0.008440971929374017,-0.24871635945238427,-0.3682697635176381,-0.29033742556029973,2,right
1.124,-0.34405480893323126,0.9961847145690779,-0.024228298097288922,-0.18202640758708794,0.19697014859850717,0.0005748237227874927,-0.24295592696576382,-0.37033473548254076,-0.2892498531874496,2,right
1.128,-0.328241255772598,0.9966975918166666,-0.031423303482799377,-0.18207094290487813,0.19705656648899442,0.0007595821625071941,-0.25055401524789456,-0.3676106119226511,-0.2906838995469639,2,right
1.129,-0.3221414457716031,0.9967186046028813,-0.03265520753410606,-0.1866305793716898,0.2039182066259882,0.015876160693521997,-0.28244587857882814,-0.3561893480333766,-0.2967161060168703,2,right
1.13,-0.3027456775560815,0.9954705930453146,-0.03244017604445776,-0.17543854750416082,0.18706239564482421,-0.021255507812441347,-0.290044156696171,-0.35346572188986125,-0.29815054025961446,2,right
1.1340000000000001,-0.27284863637639867,0.9960230450439914,-0.04281504688446919,-0.19399618629148874,0.21500923588837606,0.040310573779014175,-0.28428419336536487,-0.3555285109027503,-0.2970607385115316,2,right
1.135,-0.2592094731380294,0.997912864989171,-0.054117219178853565,-0.16951466632240675,0.17814640174582375,-0.040899909187737594,-0.2877563656150511,-0.3542890817886756,-0.2977231138632542,2,right
1.135,-0.25631202334948755,0.9978254233110351,-0.058232967006477634,-0.06668737198732125,0.02335467881019061,-0.381897103610191,-0.2863469965332041,-0.3547849863351769,-0.2974444686279374,2,right
1.138,-0.25043243722001635,1.0000369552304953,-0.06748064692682892,-0.042197927978033636,-0.013513083566380514,-0.46311976651566694,-0.28632110279084383,-0.3548067753358439,-0.29745668303919004,2,right
1.139,-0.2484961424070971,1.006327624294351,-0.07728912798525653,-0.060770277529187094,0.014445587097110598,-0.4015289833914745,-0.2870681665762197,-0.35452687692511353,-0.29758107202034256,2,right
1.143,-0.25455489328971004,1.0095739508227053,-0.0785659115985022,-0.04955976729223267,-0.002431213416610057,-0.4386964569214765,-0.2861777686152588,-0.3548510977729024,-0.29741995085204176,2,right
1.1440000000000001,-0.26061081604788705,1.0085461927144137,-0.07414660746514243,-0.05413578244848219,0.004460192597286145,-0.4235394426329434,-0.2868642628512609,-0.35461559760479944,-0.2975641214220318,2,right
1.148,-0.2660543539280043,1.0068226729941145,-0.06919374325949092,-0.05417501770964202,0.004514266822212616,-0.42338547051542164,-0.2865074551513669,-0.35470992916051347,-0.297450455316983,2,right
1.149,-0.2739377300946058,1.002719964346434,-0.06707287314578483,-0.051809534229107085,0.0009588397841991482,-0.4312524854081001,-0.28656498963312105,-0.3547469433685253,-0.2975408674273002,2,right
1.153,-0.2881103127244421,0.9957237172658577,-0.06852425192122914,-0.054661858433705586,0.005250192825164059,-0.42178390972648083,-0.28669777031447274,-0.35462870781762934,-0.29746841391823536,2,right
1.153,-0.3062925718562133,0.9886355105332666,-0.0739064311940327,-0.05241225323260805,0.0018584067597683007,-0.429226422892751,-0.2864996573059907,-0.35475599564586524,-0.29750871310001775,2,right
1.159,-0.322811546056212,0.9817312891039589,-0.07567697809391308,-0.053679160841849864,0.0037826865015689985,-0.42508222026217946,-0.2866598682701409,-0.3546991101739332,-0.29753969952789316,2,right
1.159,-0.3405438345533548,0.9781367648953346,-0.0680747014626465,-0.053293261606494835,0.0031721060516183637,-0.4262638200604235,-0.2866025410099514,-0.3546151564933532,-0.2973845908249593,2,right
1.163,-0.35384279721611966,0.9772876250430499,-0.056473348409788605,-0.05311085182662833,0.002934029175046339,-0.4269888884152597,-0.2865348235016855,-0.3548781860111911,-0.29770147467102354,2,right
1.163,-0.36280346727234225,0.9732077375051017,-0.047161941672880264,-0.05355381952839526,0.0035717253615215223,-0.42542416502247404,-0.28670582542065914,-0.3544607388937368,-0.29724197919874734,2,right
1.167,-0.3760080577639964,0.9703184127334897,-0.04282328896079955,-0.05303556202745735,0.002791183450951141,-0.427142247701392,-0.28649793930288137,-0.35491490110519314,-0.29772696555970557,2,right
1.168,-0.39129847846479315,0.9699117227276812,-0.043281551214706504,-0.05358344730887073,0.0036703940632185515,-0.42550207148388597,-0.28663519849978525,-0.3546463636753697,-0.2974499888541714,2,right
1.172,-0.40693816400477634,0.9666442592000001,-0.04789905244555473,-0.052972114939660725,0.0026258440896754116,-0.42712515129427275,-0.2867002239272257,-0.3544339164058085,-0.29720113202644594,2,right
1.173,-0.41586015481437166,0.9618315403746265,-0.05066412060028158,-0.05365846480021248,0.003844335033703524,-0.4254523477502079,-0.28631734344303483,-0.3553987842889037,-0.29827161865917545,2,right
1.178,-0.41072529442115663,0.9580802147898262,-0.046717592142274875,-0.05300932910060398,0.0026697842091144156,-0.42696158511972726,-0.287050586043596,-0.3536011700410011,-0.2962907933602085,2,right
1.179,-0.3967627976487971,0.9571701909242598,-0.039727643777423084,-0.05332915143121775,0.0032649808859495093,-0.42627338126098785,-0.28610076501321324,-0.3559123210094583,-0.29883268310530964,2,right
1.182,-0.38054099053208523,0.956190132795746,-0.03186899127090473,-0.05377657807410931,0.004037510626506207,-0.4251086344344971,-0.28689714061197447,-0.3539816998954165,-0.29671125538442844,2,right
1.183,-0.36398259005807865,0.9555656538492779,-0.0317029414475741,-0.052135164207738297,0.0011353167384127033,-0.42915157816229677,-0.2868704164133945,-0.3540356537053625,-0.2967676490269139,2,right
1.188,-0.34696524153710784,0.9599050918206397,-0.04112231469439481,-0.0551045005264586,0.006404222039913137,-0.421903300087876,-0.2853657150305199,-0.35771237205810036,-0.3008155142174587,2,right
1.189,-0.3278936163786623,0.9663015325363455,-0.047964504136836,-0.051318403268027585,-0.0003203166376084428,-0.43112020327807465,-0.2890713934261946,-0.3486731413041046,-0.29086783746418177,2,right
1.192,-0.3060930826122717,0.9733723995739244,-0.05324183522547277,-0.05446837059886936,0.005276045529673501,-0.42346418772761485,-0.2829246778790281,-0.36366127006385685,-0.30736098608516615,2,right
1.193,-0.29179376761046605,0.9781306644423776,-0.05629991454062144,-0.054399347254659225,0.005152061042200652,-0.42361107662891717,-0.29103279474807386,-0.34389201408517855,-0.2856067995418762,2,right
1.197,-0.2883209695703607,0.978845984001794,-0.059184143016696646,-0.04834952432950346,-0.005591980168357221,-0.4383696149955205,-0.3250674230129914,-0.26090779167619227,-0.19429321209387213,2,right
1.198,-0.2793336711863617,0.9856060056455336,-0.07395880183063883,-0.06319643417829449,0.02077531968782765,-0.40218313861666627,-0.33317498210102525,-0.2411391088144662,-0.17253901500422136,2,right
1.198,-0.26253958586070103,0.9981220939605993,-0.09060349745140292,-0.03858741200024488,-0.022927119146076386,-0.462147575227013,-0.3270282377573467,-0.2561268443543919,-0.18903205535898415,2,right
1.203,-0.2543451993829092,1.003685485390722,-0.0966607881791684,-0.07104444229857224,0.03470995350445888,-0.38306826277880185,-0.33073638522548965,-0.2470865742392965,-0.1790848068434783,2,right
1.204,-0.2507398619705258,1.0053249564226774,-0.09880556610153704,-0.20725570318782366,0.2766900367608822,-0.051031744386462026,-0.3292250649873358,-0.25076700598737695,-0.1831317602775498,2,right
1.205,-0.23692382313107183,1.011384051646439,-0.10224841590324335,-0.23971065807521225,0.3343272527899954,0.02804767145714645,-0.3292094976237118,-0.25081407663518274,-0.18318953185680684,2,right
1.207,-0.22206793117986479,1.0186906689747666,-0.10203483125124285,-0.21511105337622377,0.2906241588246967,-0.0319172355105934,-0.32999234604174454,-0.24889243856209906,-0.18106659586844176,2,right
1.208,-0.21141492091336217,1.0253100427523658,-0.09708860516931103,-0.2299334137580583,0.31699317071300603,0.004270468103967369,-0.329052910683606,-0.2511957510124654,-0.18360940369012277,2,right
1.2109999999999999,-0.19973145536586207,1.0300737629933256,-0.09171110376272801,-0.2239285141888491,0.3062459929171684,-0.010490316968596293,-0.3297873999923991,-0.2493994638131887,-0.18162926643101335,2,right
1.212,-0.18961635997528284,1.031296446767105,-0.08747595004893631,-0.22379782004174667,0.3061263179997269,-0.01063412063199438,-0.32938240270259045,-0.25037579821991685,-0.1826964665109,2,right
1.218,-0.1767909716446479,1.0293292332187451,-0.09050520860477497,-0.22700819946245404,0.311718453957782,-0.0029811285523149633,-0.32949596599196795,-0.2501345609803027,-0.18245389873846785,2,right
1.218,-0.1622560524684275,1.026620999933923,-0.10190112100357523,-0.22319693307175287,0.30499568442831326,-0.012196769892325392,-0.3295624834183617,-0.24991100470290661,-0.1821685257093191,2,right
1.2209999999999999,-0.1538301292637911,1.0271484537551894,-0.11176734890121078,-0.22611215681279945,0.3102683560072802,-0.004945788654239527,-0.3294277240655835,-0.2503148760106416,-0.18266122503779259,2,right
1.222,-0.15309277813547445,1.0298031811764696,-0.11380465036867085,-0.2246420681157561,0.3073542055946199,-0.008997299249323186,-0.32956088225747426,-0.24993018364348446,-0.18219945236748783,2,right
1.228,-0.15899576561126053,1.0353591458194662,-0.10928200944024677,-0.22479517104333568,0.3081472943993787,-0.007817830306772378,-0.32944572841199893,-0.2502104037626415,-0.18250740111735286,2,right
1.229,-0.16822434815011753,1.0422282945006,-0.10215677834460314,-0.22547590158677264,0.30871726110554254,-0.007147684334610861,-0.3295666944911909,-0.25002689311034676,-0.1823769726397283,2,right
1.2309999999999999,-0.1813894999116679,1.0450006594697028,-0.09261215052484678,-0.224539140815396,0.3075628468717102,-0.008642522732784638,-0.32940483916590013,-0.2501668900946555,-0.18236771959900733,2,right
1.2309999999999999,-0.19443657052431956,1.046244872355699,-0.08527753993303352,-0.22522275957439963,0.30878146090183534,-0.006969600372093021,-0.3296188421386197,-0.2500249863631422,-0.18245511148717275,2,right
1.237,-0.2009406430303935,1.0467749174816938,-0.0897825220199357,-0.2251456526911476,0.30769966605391463,-0.008619383262722375,-0.32939584254569515,-0.250163739950676,-0.1823482693898718,2,right
1.237,-0.202194160626341,1.0433905408358202,-0.10122674384777752,-0.22447280910851208,0.30866410650318304,-0.006918156913203166,-0.3295165831073475,-0.2501033462365786,-0.18243160483734355,2,right
1.24,-0.19658525902026985,1.035507200871605,-0.10677671339774528,-0.22577569879231618,0.30775631486109584,-0.008727343248338626,-0.3296607601492991,-0.24995350322392132,-0.18239635119973335,2,right
1.2409999999999999,-0.18367056098503118,1.0286913545326872,-0.10811399294717294,-0.22427716239279513,0.3085297928013241,-0.007065463817827946,-0.329095460805608,-0.2504490807661471,-0.1823754154951945,2,right
1.245,-0.16429131204705266,1.0287282470255112,-0.1145807643266393,-0.22521678493309294,0.3082130351581681,-0.00784673384102432,-0.3301318979814247,-0.24955910268476403,-0.18244579206801217,2,right
1.246,-0.14189711538585933,1.032760245626104,-0.12488395926708103,-0.22579738983231923,0.3075353413605406,-0.009076578360028679,-0.3288038170892015,-0.25069513702920654,-0.18234844667460612,2,right
1.251,-0.1265550750366108,1.039684216255022,-0.13384069994533826,-0.22283289205302007,0.3097548349651509,-0.004720805256342306,-0.3299113383814424,-0.24974974637922132,-0.1824324031058998,2,right
1.252,-0.11629578137498031,1.0487080807257108,-0.1353798009511927,-0.22843111831934895,0.3058149566806413,-0.012555860491123706,-0.3298858334987381,-0.24976434633075947,-0.18241953109703665,2,right
1.255,-0.10370828267802268,1.054300081239611,-0.12786210229944234,-0.2212058043426513,0.3108106840180608,-0.002583053425889919,-0.32775965705541754,-0.25160222354103945,-0.18229460890194635,2,right
1.256,-0.08824363565730331,1.0545452313893833,-0.12566577694933445,-0.22725453084958513,0.3066663638451684,-0.010871313655588466,-0.33297996904849264,-0.24709869868762527,-0.18261376561487233,2,right
1.261,-0.07107766634765539,1.0555081147200656,-0.13223742346284845,-0.22706405190696488,0.306738280937803,-0.010705251421483245,-0.3243262486398997,-0.25456123968900135,-0.18208191863373585,2,right
1.261,-0.06146304644490403,1.0575632436983087,-0.13614865576194748,-0.21560037056078118,0.31474813688181236,0.005253305031222338,-0.3357398155510041,-0.24471989618426973,-0.18278299900808415,2,right
1.265,-0.05970250020033998,1.0584799846836077,-0.13371138528290907,-0.24381785018896168,0.2951182685516015,-0.03388558713229343,-0.38366030624326153,-0.2033797300393425,-0.1857177861446894,2,right
1.266,-0.05410241324688959,1.068436139160363,-0.12778630077838227,-0.19701274681565675,0.3276451042890487,0.03097477832761982,-0.3950734819245511,-0.19353958738634722,-0.18641634438618632,2,right
1.266,-0.04848795772656353,1.0785706611408543,-0.1267203366864649,-0.2587612966696692,0.28474775367643157,-0.054561090242334,-0.3864201846796822,-0.20100082862399676,-0.18588722563055912,2,right
1.27,-0.049483377215259076,1.0806518231224262,-0.12891870495309776,-0.5179312899444519,0.10465466482351063,-0.41364199895054166,-0.39164065809108306,-0.19649681147223602,-0.18620742215854827,2,right
1.271,-0.0528375344353761,1.0914245196017824,-0.12567805453643838,-0.5797085701283742,0.061749146538396894,-0.4991647375190027,-0.38951307668613727,-0.1983389945890194,-0.18607344427058314,2,right
1.272,-0.05588148315596271,1.1064941610543597,-0.12605881856397766,-0.5328504599745462,0.09428659596650743,-0.4343328775515084,-0.3894905941622834,-0.19834432730354973,-0.18608005400001482,2,right
1.275,-0.06073330719618843,1.117949039855481,-0.1343121034109846,-0.5611337669511529,0.07465379515764564,-0.4734265228186863,-0.3905937824803448,-0.1974122260210277,-0.18613607975599555,2,right
1.275,-0.06803526254609163,1.1319654799162293,-0.14401477525692916,-0.5496131135501077,0.08264731259119207,-0.45752526361613094,-0.38927001573263126,-0.19853502439311732,-0.18606654475760898,2,right
1.28,-0.07851712500673146,1.148894760953238,-0.15948213840094666,-0.5494382709077916,0.08276305235833588,-0.4573056782555939,-0.390304592537125,-0.197650762097693,-0.18612492672729275,2,right
1.281,-0.0979753559826053,1.165983714336401,-0.16611407320874777,-0.555550204053168,0.07854895818391043,-0.46561482844104185,-0.3897355860473105,-0.19815769467363248,-0.1860800982334221,2,right
1.284,-0.12473908946191187,1.1769379023476414,-0.13691803088373167,-0.5481549874335897,0.0836228385735412,-0.4556909857521366,-0.38989170045460686,-0.19797125531635035,-0.18612178973603966,2,right
1.285,-0.1533013800760062,1.181562911529527,-0.08393772003262034,-0.5540251619509129,0.07963312894393254,-0.46337535464072255,-0.38999187492508836,-0.19797392920532272,-0.18607255694376829,2,right
1.29,-0.18610609692743174,1.1813998950228997,-0.04451223807238718,-0.5507488245073846,0.08182264163495992,-0.45927608097697015,-0.389794112437428,-0.1980352718141445,-0.1861283971391161,2,right
1.291,-0.22136437032485506,1.1791135646960567,-0.027033792643697745,-0.5515465447294742,0.08130537649971073,-0.460193251954964,-0.3899879991265631,-0.1979551005956187,-0.1860861090554681,2,right
1.295,-0.2535540435530361,1.1810000447638878,-0.014289989764210755,-0.5525589910954491,0.08067597965290577,-0.46122174186500564,-0.38982595542429005,-0.19809560918607882,-0.18607565843802323,2,right
1.296,-0.2805654719515581,1.1805212335343056,-0.014276208136748372,-0.5504966276522427,0.08187153465501285,-0.4595660024604693,-0.3899842729098947,-0.19779762767662817,-0.18618597788399777,2,right
1.301,-0.3013591201462619,1.1771283604320593,-0.030394273616336696,-0.5529575190677225,0.08057002204959471,-0.4609079606032537,-0.3897837751935823,-0.19833952168209645,-0.1859438136150282,2,right
1.301,-0.3136788778374997,1.179426261134544,-0.029971426375883944,-0.5506645605333939,0.08166242538589721,-0.4602667275191459,-0.39004423935688254,-0.1975643983236537,-0.18630265923350772,2,right
1.304,-0.31783466114954106,1.183681388978779,-0.0044762317948706075,-0.552177851312667,0.0810101572194751,-0.4603425627004564,-0.3897737849613152,-0.19838454709929487,-0.18592063460037,2,right
1.305,-0.3216571308983144,1.1841556528028891,0.019589149870492137,-0.552186040773395,0.08100773842987305,-0.46033601779898836,-0.3899186784951927,-0.1979203511268967,-0.18614054328003266,2,right
1.3090000000000002,-0.3261032955559149,1.1871715638946578,0.02666536394448187,-0.5498821651050309,0.0818686191308351,-0.4608927112533281,-0.39009989438145926,-0.19747203325814336,-0.18633396828914353,2,right
1.31,-0.32604454458146004,1.1984913310795902,0.028773927985699686,-0.5549346249784541,0.080049416227052,-0.4593260929806309,-0.3893990073762019,-0.19935540214543157,-0.18549395353003006,2,right
1.315,-0.3196985478060308,1.2096575152175535,0.04061039949268327,-0.5475723134322348,0.08264130255591928,-0.4619057316717128,-0.3906821475093557,-0.19587669788516693,-0.18705039293741052,2,right
1.315,-0.3036138253142662,1.2176434723260152,0.055614122571762764,-0.5553184201068027,0.07994991500015505,-0.45901392760361015,-0.3890382978760679,-0.20034062689111065,-0.18505243265095045,2,right
1.319,-0.2802358638978417,1.2254386184694759,0.061187652285548205,-0.5508752588014718,0.08148138070131264,-0.46073036551143526,-0.3904091065005387,-0.19661474208713528,-0.1867198152105906,2,right
1.32,-0.2484413668645739,1.240007807763814,0.051561233530146175,-0.5470593347973425,0.0827948955063828,-0.4622279900910791,-0.39037790761125457,-0.19671170540524358,-0.18667624974521885,2,right
1.324,-0.2081050656779414,1.2621125752855744,0.03996962971146526,-0.5637214587055286,0.07707958751938682,-0.4556174353119004,-0.387744779856228,-0.2038299393566273,-0.18349282195257322,2,right
1.325,-0.1694942945794188,1.2819534046141992,0.03321825401251362,-0.5328585143172511,0.08765008619790943,-0.46792958553398567,-0.39420963653136687,-0.1863378252047329,-0.19131443130070308,2,right
1.328,-0.13497887604414782,1.3124814862571947,0.011617757368035869,-0.5724625051140821,0.07409759050293002,-0.45208338686798843,-0.38349253580871895,-0.21534074348867288,-0.17834781091212376,2,right
1.329,-0.1157026382654868,1.3371655494241255,-0.008634474711930813,-0.5394097507153632,0.08540037261863057,-0.46532948289160336,-0.39762803164313326,-0.1770844342383185,-0.1954488408064635,2,right
1.334,-0.11151185326854346,1.343342927737402,-0.01374254710200575,-0.5403076884820996,0.08510174650208677,-0.4649704124191357,-0.45697182570036765,-0.016516673564497937,-0.2672521120878198,2,right
1.335,-0.10213884957348979,1.3699620724245243,-0.024428303651002653,-0.6033044308275642,0.06354618197192369,-0.43968605781891434,-0.47110777968815043,0.021743194461026003,-0.28435008118798943,2,right
1.3359999999999999,-0.0936473894972164,1.4054409993669559,-0.020321232823925412,-0.448468937675343,0.11650574838169347,-0.5018461519101237,-0.4603901838193057,-0.007263574286574894,-0.27138677093562436,2,right
1.34,-0.0914022721689273,1.4304092798910835,0.005041530676700465,-0.7051890046915196,0.02871406903541944,-0.39876811071281804,-0.4668548500341563,0.01022707581278674,-0.27920964489128053,2,right
1.341,-0.08994592240724258,1.447654126183974,0.019298076491958867,-0.3665791401515968,0.14449418707661218,-0.5347391074938019,-0.46422337052043694,0.003121613123727802,-0.2760152217498605,2,right
1.3419999999999999,-0.08951744109629159,1.4514905768758926,0.020638502680507348,1.0546789543611887,0.6306134681994167,-1.1054567631371341,-0.4641886278961648,0.0029971703398357624,-0.27599530711494025,2,right
1.344,-0.08667480861566618,1.46210514797487,0.016291135788750633,1.3932886281261512,0.7463684471752557,-1.2414421139767344,-0.4655645153844299,0.006762455508103682,-0.2776287848277311,2,right
1.345,-0.08243442682641658,1.4756815712955569,0.0075545579470044765,1.1365722803453044,0.6586064060251695,-1.1383436869397525,-0.46391561092732114,0.002259291479560782,-0.27566457964147,2,right
1.351,-0.07275185059457764,1.4800903909129097,0.0016680433247767527,1.2913954094987448,0.7115676766997602,-1.2005150733561925,-0.4652009271750547,0.005754925821125963,-0.2772064674433763,2,right
1.3519999999999999,-0.05505578813345553,1.4871579439923337,0.00041574844362172444,1.2284236337800793,0.6899397038857139,-1.175246776624385,-0.4645043922088147,0.003905246444446166,-0.27633743660800625,2,right
1.3530000000000002,-0.03382515151410813,1.4933059549275352,0.0013123754148591505,1.2274891141714246,0.6898087734839244,-1.174829467660218,-0.4646716085991448,0.004245037609366224,-0.27662427844673404,2,right
1.3530000000000002,-0.008972330361845351,1.4961080541357306,0.0022290157145886053,1.2605805987809515,0.7008615861290495,-1.1881780316071648,-0.46484061270606836,0.004896231572346659,-0.2766832555519724,2,right
1.358,0.016663659948340345,1.4999401990601626,-0.001522701844160037,1.2209551805728571,0.6875699099456177,-1.1722061044520027,-0.46454058042688706,0.003846587334809702,-0.2764987029404416,2,right
1.358,0.042603415588720765,1.502803664642588,-0.012436552515092498,1.251795539984958,0.6980057663379868,-1.1846165025461401,-0.46482460782732393,0.0048046785769571,-0.27670016120754815,2,right
1.3630000000000002,0.06912696351594638,1.5049121740498252,-0.023665822338046524,1.2352251660235516,0.692117424705599,-1.178012522800391,-0.4646243607928203,0.004264408175602051,-0.276456486448459,2,right
1.364,0.09490453383487342,1.5100450071781737,-0.024743116753226997,1.2388717142925816,0.6940759465137607,-1.1793145580959985,-0.4647388577882412,0.004222865536635754,-0.2768591227752052,2,right
1.368,0.12431566695081332,1.5135010213265132,-0.01047258905265541,1.243535103234817,0.6944463091687341,-1.1814669938087023,-0.4646768846460926,0.004858295121285515,-0.2761808266595045,2,right
1.369,0.15831850121587054,1.5123973576515672,0.009353245182972057,1.2355947428659395,0.6932326752690079,-1.1779350304107914,-0.46472154151435585,0.003780882540003494,-0.27713469858988576,2,right
1.3719999999999999,0.19298372433735073,1.5133525152191978,0.017681578708130148,1.2429984115754635,0.6945676026949635,-1.1811819369363405,-0.4646827890286549,0.0049535642446828405,-0.27612880082206454,2,right
1.3730000000000002,0.2261831878957639,1.5126198839326368,0.011758143199943089,1.2382075233639132,0.6929185777953687,-1.1792602154933536,-0.4646912126317505,0.004237858591748664,-0.27669270398791745,2,right
1.3780000000000001,0.2548747472814227,1.5088867146454894,0.0009479832073757202,1.2398356257628138,0.6956960788455255,-1.179406641487911,-0.4647678410934577,0.0038096763244426205,-0.2772639989842046,2,right
1.379,0.2759573583791842,1.5064082765069657,-0.006024097680155401,1.2408976641267575,0.6909843027894644,-1.1809930775969104,-0.46454587375684614,0.005992685085904898,-0.2749036112650324,2,right
1.383,0.29259477804697664,1.5006584746692249,-0.004197250451117225,1.2381683999895854,0.6976219426457305,-1.1781663062163217,-0.4649372076558329,0.0018883961887311024,-0.27925529141653616,2,right
1.3840000000000001,0.30709152111268484,1.4911119284035488,0.007073464452783042,1.2412902317716406,0.6906185776356103,-1.1812653795816552,-0.4644390538118373,0.007171170949869745,-0.2736738743532379,2,right
1.389,0.31798293274312006,1.479295908326904,0.020446067523504453,1.2391511096122585,0.6945507439173795,-1.1793394195306013,-0.4648534818834823,0.0027555347887119495,-0.27833014105649345,2,right
1.389,0.32865554602854785,1.461705767196187,0.030397918200813626,1.2389711806051857,0.6985084493478986,-1.1783494918886457,-0.46484847627992776,0.0028950558523677876,-0.27821537411836367,2,right
1.393,0.33823087200558655,1.4431988065698382,0.03409703501633257,1.2424800024799982,0.6821162557493363,-1.1837790507602572,-0.46403701564616784,0.011249669747792849,-0.2693021459457968,2,right
1.3940000000000001,0.342636065959045,1.429139432714813,0.02942995418697812,1.235484299463696,0.7123495265845581,-1.173511865875488,-0.4660249840358804,-0.009309013383463516,-0.2911943185609387,2,right
1.3969999999999998,0.34563342602212,1.4137928770283903,0.03139344477496276,1.2445731179570783,0.6735638614945169,-1.1867398583046747,-0.4627295381434168,0.024785015189247854,-0.25490269333474846,2,right
1.3980000000000001,0.34729216327310475,1.4052442077708718,0.040774534498975896,1.23694756091826,0.7059326014193912,-1.175678473488195,-0.46707753593635104,-0.020186205788809537,-0.3027669730303303,2,right
1.402,0.3469620858785809,1.4029846384301767,0.04389949371026979,1.2373090525896246,0.7051060249141323,-1.1760469171147074,-0.48532140665858103,-0.20891405689158582,-0.5037347473815612,2,right
1.403,0.35019939809339073,1.392100951408099,0.0521334572009904,1.2513266306379385,0.6432151717542178,-1.1969122269789545,-0.4896728013639253,-0.2538844341184333,-0.5515935000976105,2,right
1.4040000000000001,0.35295364348225283,1.3802623600382835,0.06584885379264568,1.216703115230911,0.7952839260398346,-1.1455464901231864,-0.48637367996730635,-0.21979131800857135,-0.5153078558435593,2,right
1.4069999999999998,0.3497546190922956,1.3647767029846558,0.07154551342609441,1.2741407937796887,0.5431528470959235,-1.2307341741614537,-0.48836025149585144,-0.24035034982832437,-0.5372022987304552,2,right
1.4080000000000001,0.34686782385119463,1.3497165692451212,0.0734324612891121,1.1983933189050449,0.875720108997654,-1.1183704606625495,-0.4875609800110717,-0.23199270474136977,-0.5282692432479064,2,right
1.409,0.3464110816813717,1.3457161385983074,0.07361162143850387,0.8802010867099241,2.2714782581855184,-0.6468267781006475,-0.4875297466245057,-0.2318597036130577,-0.528197142819401,2,right
1.413,0.3452780665246858,1.3315498522528233,0.06761810940657315,0.8044578210474208,2.604042982072803,-0.5344720772570908,-0.4879817810479411,-0.23626599315598368,-0.5327922299626668,2,right
1.4140000000000001,0.34548179081243025,1.311714731213804,0.0581799531837963,0.8619523271419891,2.351949363498081,-0.6196493753334352,-0.4874461778356082,-0.23099252361973477,-0.5272717405229546,2,right
1.4180000000000001,0.3507016739322778,1.3021854230382668,0.051887247313529,0.8271096642877346,2.5038962028252367,-0.5682821785138388,-0.4878536728393986,-0.23509280130346616,-0.5315971212271127,2,right
1.419,0.3602709644364114,1.2940251947400299,0.05019375863416867,0.8415905715917422,2.4422497336460633,-0.5891751978035509,-0.4876638581937979,-0.23290179323624244,-0.529184437991723,2,right
1.422,0.3701161565714086,1.2870941586880082,0.04826507662399064,0.8412545917421936,2.441066682439584,-0.589480924089384,-0.487636904522276,-0.23335572832367832,-0.5299242320416688,2,right
1.422,0.3795056079009324,1.2846664482535726,0.042248548534941185,0.8343893326938261,2.473810952770005,-0.5785119427137043,-0.4878238097920007,-0.23402706939991158,-0.5301977812196217,2,right
1.4269999999999998,0.3864974977174744,1.2873646468779119,0.03374755895905515,0.8430205034932643,2.4348206920259474,-0.5916448234790082,-0.487566009923671,-0.23290882501026622,-0.5295482450557412,2,right
1.4280000000000002,0.38725601444598323,1.2967383786609705,0.022761497036467637,0.835666199713876,2.4648277581366598,-0.5814244287411603,-0.48778531031501066,-0.2339428511964344,-0.5302179718312453,2,right
1.432,0.38342896608997357,1.3101118143534936,0.0073286013213504685,0.840849318898248,2.449335898281756,-0.5869224089414163,-0.4877248742803711,-0.23330700352857525,-0.5295372274339509,2,right
1.432,0.37456640819332143,1.3270873412419024,-0.007746999920055096,0.8374803577196366,2.451640045997566,-0.5856892786637053,-0.4875153231703628,-0.2334291319603292,-0.5304669696736579,2,right
1.4369999999999998,0.3585439196943428,1.3480592109958576,-0.023171427147287364,0.8395846156759714,2.4577136004144124,-0.5841953101551642,-0.488055668775129,-0.2337852940923294,-0.5290185302822097,2,right
1.4380000000000002,0.3379372290394317,1.3702654221951076,-0.04317804421215092,0.8388278879740958,2.4488339060243627,-0.5867504750111334,-0.4872348241802581,-0.23310181667556534,-0.5310174239773547,2,right
1.4409999999999998,0.31320606949918206,1.3928108992002586,-0.061451660838223884,0.8372048895324227,2.4558443148543687,-0.5843778730379864,-0.48811264633737994,-0.23385877225340052,-0.5289166121010017,2,right
1.442,0.28551215586299766,1.4129393711153937,-0.07615317674529129,0.8428491567710579,2.45372176605183,-0.5859210667036415,-0.4876010351361712,-0.23337659545328232,-0.5300830478320924,2,right
1.4469999999999998,0.2584038973984044,1.4233690664232892,-0.08419592331137739,0.8319333560060718,2.449874336962194,-0.5853331774602584,-0.4871816955605452,-0.23318281303073268,-0.5313237937280451,2,right
1.4469999999999998,0.23127484609665974,1.4247709283940475,-0.0833565849496668,0.8475194957810507,2.4586770910514586,-0.5851753492746146,-0.48905252856491,-0.23439414294611477,-0.5262784400312459,2,right
1.4509999999999998,0.2010006321803171,1.421716327792078,-0.08515617357556907,0.8311597978896085,2.448172565695506,-0.5857221831939936,-0.48557650276353354,-0.23208206372565665,-0.5355660162137763,2,right
1.452,0.16504130782866688,1.4097249225159865,-0.0909667863811533,0.8404412090153472,2.4549931572496497,-0.585152442469852,-0.4900415240726243,-0.23506575057091758,-0.5236553239955535,2,right
1.456,0.1262102437265234,1.3916383648683186,-0.09604827250879475,0.848974364852966,2.458537504833554,-0.5854503961759706,-0.4863130153949176,-0.23256861710892532,-0.5335935554042225,2,right
1.456,0.08202990868415708,1.3742284640362934,-0.09641093217947178,0.8126112527775469,2.438718148329242,-0.5856020015966866,-0.48641685316371674,-0.23265961371118413,-0.5333467337691573,2,right
1.46,0.035303242582059385,1.3554046772415802,-0.08538444260790438,0.8798151514619863,2.4764903633319086,-0.5849771630587866,-0.49351744113722223,-0.23734488119597458,-0.5143218449772108,2,right
1.4609999999999999,-0.006384241819506973,1.3341617034454347,-0.06168201550665921,0.7936053310344926,2.4276234998940436,-0.585903036815976,-0.4760609793842147,-0.2258009610736015,-0.5610584941921527,2,right
1.4669999999999999,-0.054170569717376084,1.305831712408613,-0.032335609660459876,0.8655429418446084,2.4685726803682204,-0.5850783901923953,-0.5050064663669274,-0.24494922325126411,-0.4835707753441956,2,right
1.4669999999999999,-0.08834321490836734,1.2829386821052813,-0.015746989466225825,0.8636485415576078,2.467231008767873,-0.5851797611248717,-0.4668260931816584,-0.21969109367261494,-0.5857801815671735,2,right
1.4709999999999999,-0.09764024015122966,1.276432224186431,-0.012224845145991519,0.7263374769462811,2.389771038700749,-0.5865415459128416,-0.3065748250232873,-0.11370885186930615,-1.0148159071864524,2,right
1.4709999999999999,-0.12619367042177737,1.2576874638751212,-0.0022186635465280364,1.0637558907997477,2.5804927722430175,-0.5830809664530978,-0.26839111132197013,-0.08845056499885606,-1.1170390217818598,2,right
1.472,-0.16712888703389917,1.2240895131222391,0.02229612009129049,0.5043282463022148,2.2641444720727324,-0.5888606036845059,-0.2973419556845127,-0.10760047915229609,-1.0395313702863826,2,right
1.475,-0.18260972008704016,1.2079075402661104,0.0463240563605232,1.2422012990680633,2.6814478683580276,-0.5812230005028056,-0.27988069422499434,-0.09605137520255196,-1.0862804467401623,2,right
1.476,-0.18907821699103788,1.2032191881899157,0.051113547109842526,4.339398982335672,4.4330511568164015,-0.5491773143908055,-0.2869820223859817,-0.10074689854661659,-1.067267506505869,2,right
1.4769999999999999,-0.2113631451504122,1.1877492021751812,0.058140570868884425,5.077267927708389,4.850368404200871,-0.5415352039545838,-0.2870927713391216,-0.1008230571441111,-1.0669700910397406,2,right
1.48,-0.24422665659403436,1.1690951501696927,0.08476333143854423,4.517859014589144,4.533957308000208,-0.5473353087699354,-0.2833475449684101,-0.09834141074200506,-1.0770007876095185,2,right
1.48,-0.28009362487104345,1.1533783757282898,0.10482742888154158,4.855228512091255,4.72484268635565,-0.5438213601780131,-0.2878377184737112,-0.10131690539093825,-1.064973131250571,2,right
1.485,-0.32550176446906665,1.1421290944017723,0.11385343226678274,4.718007036798069,4.647083306156606,-0.5452808182867794,-0.2843350458610914,-0.09899493494057007,-1.0743573942447233,2,right
1.485,-0.38438668447257984,1.1454051940183907,0.13301541926231564,4.71598957264332,4.646152620148572,-0.545248090898737,-0.2862206754792537,-0.10024423778345573,-1.069305974518002,2,right
1.49,-0.45303772461216263,1.1581800310862702,0.15828595765913017,4.788047830441148,4.68669925950652,-0.544554821109164,-0.2858162804574179,-0.09998135542615591,-1.0703830468634674,2,right
1.4909999999999999,-0.527224959576406,1.1765110851626266,0.17392804245403232,4.70178757211584,4.6380000016770495,-0.5454259318021321,-0.2852433817104043,-0.09958803151965048,-1.0719354936264194,2,right
1.496,-0.6018269869167646,1.2035153276201722,0.18172312266380708,4.768883801294601,4.676133017626666,-0.5446834806189067,-0.28623414882724985,-0.10026801511957086,-1.069250539327709,2,right
1.4969999999999999,-0.6745094802669673,1.2326836181179255,0.19259791823349984,4.732862243842078,4.655171726577741,-0.5452075662928753,-0.2852669118529466,-0.09959800464145357,-1.0718800305275278,2,right
1.5,-0.7459473155431252,1.2581176279739745,0.21116114610665226,4.740808249568358,4.6606776036216395,-0.5448655641641049,-0.2859356354264795,-0.10006452546996099,-1.0700577158295266,2,right
1.501,-0.8148406127446053,1.279976112973491,0.22065057737986637,4.750810051014383,4.665093153823883,-0.5450806226701137,-0.2857003039010198,-0.09990881431985782,-1.0706876630228146,2,right
1.504,-0.8804735746385665,1.2977157219714797,0.20005778977449662,4.733875627585823,4.656504959560855,-0.5450019124084071,-0.2854634639597838,-0.09970788422249885,-1.0713806780140982,2,right
1.505,-0.9393670152526914,1.3074589477385263,0.16446343779995182,4.749457718356965,4.66532674185479,-0.5448383747605738,-0.2861346857477331,-0.10025353913086704,-1.0694486165275967,2,right
1.51,-0.9862935657977782,1.3130228428592872,0.14243910318959208,4.739606163948244,4.65791807417837,-0.5454118224794404,-0.28516365984893555,-0.09945914645028658,-1.0722500002759945,2,right
1.511,-1.019464227272855,1.3174102174791167,0.13991864180740932,4.742816027967464,4.663931602528235,-0.5443008927614735,-0.2861585896971345,-0.1002799369597468,-1.06937101197614,2,right
1.515,-1.0351638175394564,1.3182115637295506,0.1553617425318381,4.7448268461488,4.658805400679238,-0.5458881842350004,-0.28558346020414715,-0.09980456885555776,-1.0710356594279733,2,right
1.516,-1.0284021589151697,1.3157808680742997,0.19051378916324918,4.74019364244694,4.662862911981469,-0.544221345928612,-0.2851760874431506,-0.09945623590279591,-1.0722324718087703,2,right
1.5190000000000001,-1.001775745898795,1.3016016250577436,0.23316037330498846,4.744542468536867,4.661462377540269,-0.5451680436021216,-0.28707295367645896,-0.10106236873106139,-1.0666863083431366,2,right
1.52,-0.9602283786351602,1.275530666647608,0.26044258136837595,4.743093515236499,4.657320342430634,-0.5460351129048164,-0.28354993657428335,-0.09807769681631073,-1.076987097868249,2,right
1.524,-0.9132228893188261,1.2465973090513036,0.26871727174338983,4.739842449541314,4.670033212454776,-0.5423337494350151,-0.28806582537424846,-0.10190757060870169,-1.063780082707922,2,right
1.525,-0.8787447058222073,1.2091019593639238,0.2648088188021872,4.748142509686746,4.6477369669157405,-0.5491769680883416,-0.2842997686168198,-0.09870905583503903,-1.0747970378783271,2,right
1.5290000000000001,-0.8449580640330497,1.1613442881636595,0.24827573402006928,4.736659653769889,4.675904261299802,-0.5403959599594796,-0.284409503465582,-0.09880963504371018,-1.0744736132502513,2,right
1.53,-0.8113344411687966,1.1144964853719623,0.2240889140369734,4.746605797546207,4.652585544124005,-0.5477267797322345,-0.29155443527230573,-0.10486342002989411,-1.0535737854157254,2,right
1.535,-0.7756752537322968,1.0719375595938714,0.1954558300086301,4.745770208545024,4.652911894983017,-0.5475255882238685,-0.2739891249104611,-0.08996344376664231,-1.10496236230092,2,right
1.535,-0.7076183733893109,1.0335270327128279,0.1661493189506597,4.728302021357411,4.698185515002418,-0.5335523866373348,-0.3031101537784958,-0.11467984860131686,-1.0197592632721146,2,right
1.54,-0.6605729305506713,1.0132870920720853,0.1515924636330629,4.772076568516066,4.587352072433392,-0.567905595478635,-0.2647043061685115,-0.08206842907652995,-1.1321360138867629,2,right
1.541,-0.6373822519068778,1.0087489205575186,0.15164683762973988,4.699151668335294,4.770947897387879,-0.5109367033925484,-0.10349355619841794,0.05466271423669623,-1.6037662040387501,2,right
1.5419999999999998,-0.5958160789896028,1.0021102784928457,0.15003030665290876,4.795499890590679,4.528852735897032,-0.5860900879165706,-0.0650949641461589,0.08729223588925261,-1.71613478906312,2,right
1.544,-0.5733899812747694,0.9980785124061691,0.15014548810868833,5.198869713555984,3.512342721341337,-0.901403232610428,-0.09420641007588318,0.06255738958730162,-1.6309451659776797,2,right
1.545,-0.5335665942232255,0.9987160725451778,0.16063786893677257,5.295329345334618,3.270269936409118,-0.976577932749018,-0.0766442520634169,0.07744586540045309,-1.6823206633424905,2,right
1.545,-0.4762503878292107,1.0034665445327131,0.1694641467719465,5.222222515977024,3.453806837628753,-0.9195866110271651,-0.08380256920858228,0.07146539933547232,-1.6614254219362719,2,right
1.5490000000000002,-0.4500759503079489,1.0193665891881445,0.17197278872080368,5.2661686686624805,3.3430871443142713,-0.9539288084245059,-0.08387505009043283,0.07121264542492528,-1.6611147710846281,2,right
1.55,-0.42296137548784646,1.0428591523168045,0.1709997591543937,5.248652022603853,3.3881875831254016,-0.9400367243539801,-0.08016917633152194,0.07462488011239654,-1.6720952831646434,2,right
1.554,-0.39331302414586417,1.0721288311494832,0.15903431177324268,5.247621212129719,3.3887172101359413,-0.9396640837229611,-0.08461668063807828,0.07058776680629361,-1.6589472026265266,2,right
1.555,-0.3648764085068724,1.1051179798152633,0.1398535061498573,5.25808703614527,3.365242615625263,-0.94723825650171,-0.0811388712880167,0.0736514945897577,-1.6691805098277546,2,right
1.56,-0.3297200710807604,1.1357603325655856,0.11601434858122446,5.245787189748514,3.3933957802439023,-0.9382180051297611,-0.08305827928039508,0.07224720335064794,-1.6636806435125493,2,right
1.56,-0.2990024660267549,1.1625528380288255,0.07923120941765727,5.254995920661942,3.3714201094650864,-0.9451587230426215,-0.08251605346166721,0.07198643309434663,-1.6648950204625836,2,right
1.5630000000000002,-0.2755479303249088,1.182947731746999,0.03828553481526471,5.251164903399083,3.383420481483552,-0.9416760032920402,-0.08220860955525616,0.07348799128730661,-1.6664347819635879,2,right
1.5630000000000002,-0.26493367298925574,1.1962225270790756,0.006075377056042601,5.2493794486759615,3.3803269571933074,-0.9418614749206906,-0.08283751456195694,0.07143256719369584,-1.663809518739187,2,right
1.569,-0.2703380375664602,1.2025459260563625,-0.01363039780769791,5.255559730383422,3.3778275418846357,-0.9439696983360719,-0.0822143165675341,0.07317429319168205,-1.666258591429781,2,right
1.569,-0.29468283061071837,1.2006577260191573,-0.016039171518967905,5.247349534295838,3.3824819796906525,-0.9408910727901982,-0.08275971957414102,0.07272218097271069,-1.6646686810196973,2,right
1.574,-0.3335943675603916,1.1946315620531482,-0.007827819388406232,5.254198318458732,3.3780029879069016,-0.9435834452073795,-0.08217309639476182,0.07096992044346058,-1.6652235172674894,2,right
1.574,-0.37594436033682477,1.185230952907253,0.001912726898325412,5.252878223012496,3.3814364315196537,-0.9425294800880706,-0.08297107019233223,0.07543489921983747,-1.6655426875567714,2,right
1.578,-0.4174565547321486,1.1707256780367885,0.018751965587651673,5.244541261569099,3.378759760132905,-0.9409440841379286,-0.08191062664791393,0.06866351668735633,-1.6646865788127083,2,right
1.579,-0.45317868916703624,1.1554955866732493,0.042003570617743693,5.264953241590334,3.3814556528148585,-0.9456287971916215,-0.0830168266774945,0.07590276583088634,-1.6656697706969597,2,right
1.5830000000000002,-0.4815554532395655,1.1396341812197321,0.06555285753438017,5.23417653723907,3.3782534587420816,-0.9383856646754655,-0.08241598064983063,0.07168694021143153,-1.6649902277575008,2,right
1.5830000000000002,-0.5040361531934874,1.1224525160427583,0.08531296799119378,5.267046334883909,3.381514237421517,-0.9461545913321475,-0.08170841395345338,0.06821525426751437,-1.6649572254521785,2,right
1.588,-0.5183612103871769,1.1089615065525351,0.09461569386766036,5.24795685276082,3.3798713523524073,-0.941590433052403,-0.08449453263730258,0.08367572439528992,-1.6660059430136953,2,right
1.589,-0.5239315663925562,1.0979190822495681,0.10280338666660492,5.2319810243806195,3.377261018010441,-0.938028026675557,-0.07938384648028018,0.05495510909016324,-1.6638984337720122,2,right
1.594,-0.5233043354946716,1.086620372081288,0.11757601146547567,5.302686303271713,3.3867300876135884,-0.9542284550371413,-0.08593340344418884,0.09184601023423966,-1.6666403227495787,2,right
1.595,-0.5202184938770418,1.0788767403231723,0.13146887862488094,5.171418062749789,3.3695228016885723,-0.9240737756465781,-0.08047097298925612,0.061040970874175364,-1.6643378036882683,2,right
1.597,-0.5146987101827487,1.0714551108630563,0.1486602045093351,5.34000889177441,3.391538121257465,-0.9628198312938033,-0.08059844177795675,0.06189683074712598,-1.6644538891242469,2,right
1.598,-0.5048746113289655,1.0629293709625238,0.1593657601436429,5.1992412054963015,3.3731914425881158,-0.9304606163176132,-0.09108027400994229,0.12056828593644187,-1.6686650475065097,2,right
1.6030000000000002,-0.4927908564625333,1.056974184072427,0.155897638244244,5.2031164837946715,3.3735633990499787,-0.9313796058062292,-0.06534197419118805,-0.02366965045753229,-1.6582539616761967,2,right
1.605,-0.47871296336785024,1.0496007992432708,0.15974401147655604,5.471332558603624,3.4089541196215754,-0.9929449873984653,-0.10800997438574472,0.21549694675161135,-1.6755283005990829,2,right
1.607,-0.4685866722054587,1.0445206444750141,0.16656722036554264,4.811999709309009,3.322116360674243,-0.8415697682438871,-0.05173292564141995,-0.09997154814780909,-1.6527472382697872,2,right
1.608,-0.4635173054842612,1.042301655701114,0.1738644999323084,5.905243549896355,3.4660573745932677,-1.0925760421411037,0.18453285855841825,-1.4240245073027005,-1.5571479234966334,2,right
1.609,-0.45723699067289214,1.0384307957620722,0.18687953466786333,4.46323398119588,3.276205480583985,-0.7614913833221426,0.24081012296447632,-1.739505672780002,-1.5343824033072688,2,right
1.6119999999999999,-0.4530937999038217,1.0357078996663303,0.19436364678123771,-1.5892221283041748,2.479097979544754,0.6280886983646078,0.19814188871783073,-1.5003253715568188,-1.551639928458291,2,right
1.6130000000000002,-0.4462265459068342,1.0299374852962382,0.21044287315546756,-3.0312697720678328,2.289234970334758,0.9591819828892558,0.22388010234414918,-1.6445580773636024,-1.5412224407385335,2,right
1.6130000000000002,-0.4358367482431035,1.0209209466835336,0.23518687187725085,-1.9379847441773548,2.4331880090036,0.7081663746018354,0.2133990388364844,-1.5859321297992546,-1.5454893911380463,2,right
1.617,-0.4296507690319593,1.0089444652013178,0.2531601886653456,-2.597301899533055,2.346354828034221,0.8595380512093003,0.21326991252776467,-1.5849783776122885,-1.545485441879599,2,right
1.618,-0.42644117880822946,0.9925659058280504,0.2629183290363051,-2.3292225256455072,2.381705648975613,0.79800361203813,0.21873472234240054,-1.6159237562031719,-1.5433550211083333,2,right
1.6230000000000002,-0.4258906213239101,0.9781920535266618,0.26079145699916795,-2.3250531544224398,2.38216344877788,0.7970180365888072,0.21218279251971117,-1.578893129562847,-1.5459255449808138,2,right
1.6230000000000002,-0.4266049658749093,0.965794698895701,0.2538829616620367,-2.4662424811641865,2.3636936927806085,0.8294727298760036,0.2172945090454223,-1.6076739909527198,-1.5438919601251109,2,right
1.629,-0.4305863390559216,0.9529242740028782,0.24866814921203861,-2.297231822600181,2.3858315659342564,0.7906315883197355,0.21451041292942613,-1.5923336035567641,-1.5450878688962195,2,right
1.631,-0.4374239076473664,0.9389167040538698,0.2459020241425034,-2.42868114425793,2.3685714110775056,0.8208273130451489,0.2152114385184719,-1.595418640063473,-1.5445807886775498,2,right
1.632,-0.4402070156885415,0.9251162968244624,0.23966923983678667,-2.358336533536168,2.3779352179000357,0.8047084956815468,0.2158235698220844,-1.6003005820853153,-1.5447180643923026,2,right
1.632,-0.4392340549448569,0.9123242031651404,0.2282936735531519,-2.373150818549107,2.3756639215356246,0.8080079411796075,0.21470350435170282,-1.592243943892917,-1.5446988548059095,2,right
1.6380000000000001,-0.4353728360890966,0.8987524855567339,0.2254476480463006,-2.394241535676032,2.373436884136468,0.8130252312952617,0.2157750253558408,-1.5996668348146255,-1.5446418493062972,2,right
1.639,-0.4299378989148293,0.8890181894586813,0.23465892371827426,-2.3589158834165938,2.3774145382715144,0.8047001566616714,0.21497709674621124,-1.5952080156853004,-1.5449682781885694,2,right
1.642,-0.42386311680012223,0.8818254887076383,0.2544754485065187,-2.3916502705035256,2.3736408554136053,0.8123867392226574,0.21554328585916607,-1.5957504375528233,-1.5440398749569288,2,right
1.642,-0.41481684678993863,0.8726646521676618,0.2720743284128243,-2.3712562966512545,2.3763315652447723,0.8077058353842688,0.21504467863852372,-1.5989667918104642,-1.5458394110197644,2,right
1.6469999999999998,-0.4058038184169368,0.8631249504922109,0.27201564626176106,-2.375959030987266,2.374715632972201,0.8084686322362975,0.21559798697118093,-1.5931017802354948,-1.5432321796668909,2,right
1.6469999999999998,-0.3960015923216049,0.8502352811246126,0.26193874426167263,-2.385583528813301,2.3757250970888446,0.8114027689546811,0.2150436816519477,-1.5995520945320352,-1.5459968130104338,2,right
1.652,-0.38015932748528103,0.8330974073653618,0.24825451588759256,-2.3663467374478957,2.3748621610465332,0.8059052776048539,0.21530785868521057,-1.5955122774644428,-1.54442274668387,2,right
1.653,-0.36179071159673776,0.8121377393036391,0.23778280350092867,-2.387761853053841,2.37566194978448,0.8119744833207557,0.21581329997960866,-1.5935814862078233,-1.5429514568756413,2,right
1.656,-0.343385456252609,0.7884192428599152,0.23595039548339114,-2.373953549177318,2.3753894710128742,0.8081378829422281,0.21405595591426443,-1.604569701999573,-1.5492022643716057,2,right
1.6569999999999998,-0.3285904811362346,0.7661304724279459,0.23670614067101564,-2.369157773111395,2.3742165150521797,0.8064638070091132,0.21723276970001668,-1.5837355588059596,-1.5376451105266915,2,right
1.662,-0.3212540615628503,0.7440630317080548,0.24332164582750554,-2.401779430433656,2.3778134691006554,0.8164640982853242,0.21317219886642055,-1.6105877118112888,-1.5524757716833295,2,right
1.663,-0.3139787125437757,0.7226123171089165,0.25792542265749285,-2.3391831837671035,2.371421170518375,0.7974353578724251,0.21655440096403067,-1.588132799820562,-1.5401001162557604,2,right
1.6669999999999998,-0.3128643218473532,0.7003464121933115,0.27289488015679286,-2.4200301359957237,2.3795654879781383,0.8219783044779414,0.21649215366337238,-1.5888906574195316,-1.5404172525677082,2,right
1.6680000000000001,-0.3197414631379645,0.6786753846976921,0.2839647293223774,-2.3523454066029603,2.3727936251056727,0.8014434832663886,0.20994750595570394,-1.631206386666722,-1.5640680896885701,2,right
1.673,-0.3279888601937371,0.6594492930823773,0.28835040920413857,-2.3549068566123097,2.3728754501664318,0.802170347827146,0.225998316221854,-1.527031185733228,-1.5059635347683111,2,right
1.6740000000000002,-0.3462957982493867,0.6381466192323211,0.2855147565417411,-2.481572507408134,2.3861160182967653,0.8407678112122553,0.19939512653377683,-1.6997915882319485,-1.6022904064512933,2,right
1.675,-0.36059913194543475,0.6261743320603587,0.2821683337521269,-2.1693867160245563,2.3536968610376476,0.7456954515722466,0.23448280090070817,-1.471933210522955,-1.4752457046557377,2,right
1.676,-0.3690904197471189,0.622587780389386,0.27877305725515933,-2.6872228481625937,2.407410429266264,0.9033865496565336,0.3818166600586036,-0.515552578516398,-0.941849749031483,2,right
1.676,-0.38256775576636537,0.6158231505072982,0.2742235144164038,-2.0041871262377056,2.3365769705155355,0.695381354054716,0.4169060660520975,-0.28773985270844504,-0.8148196523262956,2,right
1.68,-0.3912034145987784,0.6118183688340282,0.2716091187528261,0.8618188996885777,2.0391159458599732,-0.17748101161553392,0.3903010029038124,-0.46045086277704805,-0.9111307208119207,2,right
1.681,-0.4113983882776315,0.6062772069642791,0.2613408368728597,1.5447510102883517,1.9683116397380356,-0.38549142684345966,0.4063511004523367,-0.3562568765938774,-0.8530201611100698,2,right
1.683,-0.4428508008827402,0.5989383242489661,0.24237211572316456,1.027033851608452,2.021965136068026,-0.22777630790058642,0.39981266767805046,-0.39873644444861034,-0.8767234035472632,2,right
1.686,-0.4694446538925267,0.5959823436851384,0.22228811886688238,1.3392379348671217,1.9896350387809474,-0.3229115991777274,0.399737048396936,-0.399141782484595,-0.876927776212385,2,right
1.6869999999999998,-0.49689737766292674,0.5938628609468859,0.20450672318907587,1.212250622062364,2.002771896220821,-0.28419870140431347,0.40313842301426506,-0.377192312107702,-0.8647138065710911,2,right
1.69,-0.5209841519314375,0.591863527316672,0.1947274318992785,1.210414796299596,2.0029376838756594,-0.2836305748076672,0.3990587605859093,-0.40354115063601287,-0.87938345543639,2,right
1.6909999999999998,-0.5419399242170124,0.5879529207779615,0.1840088069748939,1.277032283740868,1.9961568732616806,-0.30400956312453314,0.40224381160692313,-0.38292417852525423,-0.8678957883936733,2,right
1.696,-0.5592545495976282,0.5829398057624651,0.16694720446232975,1.19728161505262,2.0041708940608336,-0.2795321452502243,0.400502862719425,-0.3943445958886953,-0.8742848291268639,2,right
1.6969999999999998,-0.5676127584380029,0.5783140769666152,0.14992266613559607,1.2593425606297335,1.9980933385380673,-0.29869909814911766,0.40095549237054195,-0.3910215640137477,-0.872368200691137,2,right
1.7,-0.5719380012650258,0.5698426220100943,0.13741405490801423,1.2259230179184926,2.0012064425611005,-0.2882588853283498,0.4013106650627113,-0.3893806352662763,-0.8715615003626306,2,right
1.7009999999999998,-0.5761575498606737,0.5558164013839529,0.13314562182611867,1.2335358596613748,2.0005673183131925,-0.29069011578144205,0.4006446863339024,-0.39288691290088285,-0.8733843525750631,2,right
1.7069999999999999,-0.581298551394284,0.5383944611299877,0.1333645227190427,1.2423501343605736,1.9999566606268677,-0.29359667729995664,0.40128702448247205,-0.38936902795606215,-0.8715280003244736,2,right
1.7069999999999999,-0.585228755294831,0.5196255997399486,0.1388374386373474,1.227212673138752,2.000554052374957,-0.28827124256076464,0.4007892143793544,-0.3926063027108696,-0.8733341226900542,2,right
1.709,-0.5922086257065351,0.49873935279129716,0.14397415185050505,1.2412225411432565,2.000774392776646,-0.2937694727646669,0.40119017917409755,-0.3887930688129102,-0.8710125278096308,2,right
1.71,-0.6045207853726768,0.4788859531325102,0.138526529137764,1.2320624813181142,1.999672074654018,-0.2894691487357528,0.40076983627622015,-0.3942883648484681,-0.8745230534912709,2,right
1.716,-0.6136086474000118,0.4631113804803269,0.13145022632082015,1.2358876027409085,2.000911016911048,-0.2918381121701983,0.40127806630126694,-0.3868613381445821,-0.869715740764796,2,right
1.7169999999999999,-0.6238220009917222,0.44738473158299563,0.12456425874199008,1.235864981392167,2.000928256460984,-0.2918418409093398,0.4007584754131378,-0.3946350605020862,-0.8747606568714797,2,right
1.72,-0.6369759969731972,0.43518886215335006,0.11205945339191933,1.234333515271108,1.9980515039503208,-0.2891419645436972,0.401023669163283,-0.39037034003003473,-0.8719716030635587,2,right
1.7209999999999999,-0.6459594132147405,0.4296908490059118,0.09991801418853746,1.2354817016502682,2.0048690893204695,-0.29459574607328165,0.4014255679597285,-0.3855702249344166,-0.8689427805552569,2,right
1.724,-0.6557327262146423,0.42399931207048003,0.09128815787073337,1.2357049993924842,1.994497900710391,-0.2870494082321208,0.39995047402531136,-0.40473798952333034,-0.8811767939385833,2,right
1.725,-0.6641425373197406,0.418871238783296,0.08413444841435758,1.23433532618842,2.0056710329439005,-0.29474926779662414,0.4026346784705454,-0.3695235550419339,-0.8586721742288059,2,right
1.729,-0.6680147554794371,0.414482685479449,0.07929532390541666,1.2354883473508176,1.999177813096721,-0.2904104581828318,0.3991997549498759,-0.41466560946125725,-0.8875293135658321,2,right
1.73,-0.673254416488195,0.408275573956922,0.07323897596212312,1.2366328136239282,1.9935645920218625,-0.28671609136739723,0.40206237411115076,-0.3770097323078045,-0.8634522362751321,2,right
1.734,-0.6769451056589475,0.3999662882603404,0.06227088564345412,1.2311891760541658,2.0181751102006826,-0.30275179163731725,0.4020036097467702,-0.37791138867573526,-0.8640454529572685,2,right
1.735,-0.6770566647917955,0.38624752062912027,0.056631518465854236,1.2417001747211622,1.9724919557047018,-0.2731400799857162,0.3964845226855911,-0.4500976456312694,-0.9101524102020218,2,right
1.7409999999999999,-0.6771799627505245,0.372161663197509,0.05970232221256322,1.2279156864324121,2.0311805916342323,-0.3110753561263545,0.4100270297908641,-0.2728126028793618,-0.796891487432831,2,right
1.7409999999999999,-0.6798073429151826,0.35736093502689575,0.05991949849854276,1.239550024614568,1.9821726535945579,-0.27944328407409086,0.3875795106162424,-0.5667217237903444,-0.9846715140309161,2,right
1.744,-0.6832095980633448,0.3442543298247287,0.05786673635024048,1.2392501371683884,1.9834934713123975,-0.2803050892967651,0.41718637338242864,-0.17906169109717449,-0.7369862305216519,2,right
1.745,-0.6831636983188798,0.34083435859419847,0.05708089532240479,1.2168072870486886,2.076980211992547,-0.34053917866453265,0.5415128483223239,1.4483569458527645,0.30258412300317,2,right
1.746,-0.6854551233641721,0.3338489464362443,0.052826393040986463,1.2720413448941952,1.8471987190840304,-0.19251211221913886,0.5711229672104554,1.8360337562599933,0.5502711117543732,2,right
1.75,-0.6930454279758815,0.3237455064845039,0.0480875824000359,1.1803865271396146,2.228197073989584,-0.4379239285030483,0.5486685537726338,1.542099641668649,0.36251183071920834,2,right
1.75,-0.6960619448488823,0.32181889822140897,0.04641310739994434,1.301327128072754,1.7256426729271603,-0.11424679676127295,0.5622216624236802,1.7194020125347311,0.47569203556244755,2,right
1.751,-0.6974660199152873,0.3207915300804822,0.04554733848014396,1.8088778664187721,-0.3843138559688844,1.244254794183373,0.5566896427888582,1.6472260120351168,0.42975615944388856,2,right
1.755,-0.7064094894059005,0.3174237612830561,0.04463567824287505,1.9297903959081613,-0.8869902272079162,1.5678999538719451,0.5566422579350676,1.6462689135993602,0.4289050441404786,2,right
1.755,-0.7180220432895887,0.31236910673386453,0.04245014957080846,1.8382195909879004,-0.5057287935308871,1.3225507421701108,0.5595017284679495,1.68403100300328,0.45326366524844125,2,right
1.758,-0.7300915479087805,0.3049869467029005,0.035568606317655696,1.893275200016177,-0.7359245100532674,1.4704917424513113,0.5560534931900067,1.6387498081620964,0.42423637493516264,2,right
1.7590000000000001,-0.7396992927633969,0.2987471092767364,0.018748832341061603,1.8711233119696615,-0.6419180689823227,1.4103474659784416,0.5587739830696631,1.6740862555219178,0.4466097600395268,2,right
1.7630000000000001,-0.7373868490782959,0.29629434422964507,-0.0034441507909911645,1.8704590557304945,-0.6410758361269056,1.4094290732133123,0.5572399449309133,1.6548951643157164,0.4349934227509997,2,right
1.764,-0.7251329668671501,0.2939169615221766,-0.01676719169353659,1.8824063448240635,-0.6899096499905751,1.4410328715569944,0.5577106472096235,1.6595247367339396,0.4368438124891945,2,right
1.7690000000000001,-0.710470564241708,0.2874116892952474,-0.01710005268683109,1.868571845591259,-0.6307548123965264,1.4032624124036848,0.5579260250596707,1.6642227897340574,0.4412027771293835,2,right
1.7690000000000001,-0.6967799084067694,0.2817956575141496,-0.008877921448657969,1.8786186706929318,-0.6778267679459961,1.4325492308517493,0.5573945690921305,1.6557691221128938,0.4347203523966636,2,right
1.774,-0.6836245249464454,0.2787004583103103,0.003921575291343814,1.8743371303608343,-0.6508800766436694,1.416956766687445,0.5580213332554197,1.6639595721557592,0.43994283447436117,2,right
1.774,-0.6690303356921414,0.27277160044862203,0.014149496173640152,1.8736639019515149,-0.6593106365664871,1.4202293606453147,0.5573509123178797,1.6579614692469486,0.43811879597611886,2,right
1.7790000000000001,-0.6560138293354706,0.26419789925811893,0.01459384122476916,1.8768550765635075,-0.6636227742112891,1.4247237768120324,0.5581081184171169,1.6615272539542205,0.43580891470408784,2,right
1.7790000000000001,-0.6426971984640443,0.2568905859048286,0.008307829377328676,1.8741468097253144,-0.6522863433480401,1.4174395024233728,0.5572514989600805,1.6597794349930943,0.4415362683682382,2,right
1.7830000000000001,-0.6250996822259598,0.252058059864149,0.00177924342705739,1.8736979943361627,-0.6670326876063218,1.4237482815850444,0.5580646531647111,1.6603356991173928,0.43459611535160425,2,right
1.784,-0.6085954471985107,0.24847032455253937,-0.0038660117121605397,1.8788487359147212,-0.6504774001363972,1.420369909432433,0.5576620457484311,1.6608905373593432,0.43916559309678993,2,right
1.7890000000000001,-0.5940443332209331,0.2473022745686883,-0.005956861493526271,1.8693594683574124,-0.6676729024850607,1.4205793485758882,0.5571059713754178,1.6586446334525249,0.44136521832504816,2,right
1.79,-0.5806570505089961,0.25004434499082934,-0.004296364834636175,1.8802706247877896,-0.6526464614825522,1.4224839556204647,0.5591537598284075,1.663448008559408,0.42852997771367957,2,right
1.794,-0.5695923624613616,0.2541783782137256,-0.004577412995167701,1.8735598478702733,-0.6596424151279995,1.4202969599270308,0.5554476232106498,1.655727378001966,0.45309070000203766,2,right
1.795,-0.5529592297752869,0.2573352313489248,-0.0050261984458576,1.8686309199571178,-0.6692232801911918,1.4207000894610342,0.5601730099198616,1.665213386559513,0.42128112034337717,2,right
1.797,-0.5349185813195604,0.2597098627949685,-0.0017065261876828763,1.8920090961004,-0.634787128201544,1.4237662838700609,0.5562429690796706,1.6574742651385213,0.4479513976854265,2,right
1.798,-0.5222997407489776,0.26118942082056934,0.001026988348176072,1.8481268979404897,-0.6964649397799896,1.4166714696882303,0.556325433783659,1.657406405363163,0.44705487636961483,2,right
1.805,-0.5064558581749397,0.26197099464984885,0.0018818357643788897,1.9047083512826817,-0.6182359167843876,1.4264070780463967,0.5638821304602674,1.67290137749074,0.3966654877971695,2,right
1.805,-0.4917523132323493,0.2616906276264416,7.213779295821244e-05,1.85736986037467,-0.6831333810194642,1.418010977403323,0.5453447859707703,1.6352169320204648,0.5207670587374689,2,right
1.8090000000000002,-0.4798749864746659,0.2579644981634307,-0.002462015302945545,1.858741396432575,-0.6817295576757562,1.4184723610956813,0.5760649075531739,1.6975494502194675,0.31490902330672266,2,right
1.8090000000000002,-0.4703004075040437,0.25480960816008935,-0.0026906966462416065,1.9488371856774633,-0.5573328677320957,1.4340466843784758,0.5355534858419446,1.6153862647863342,0.5864647763063826,2,right
1.814,-0.4652769027481458,0.2542312113302027,-0.0016554347695376414,1.727229835416709,-0.8624542145291486,1.395346339526451,0.3654443659718276,1.2703141332562318,1.7262373685982346,2,right
1.815,-0.4525870089619125,0.2510076054882223,0.008955163818684542,2.09474551446134,-0.35684594986878526,1.459716284220773,0.3249403974202554,1.1881569009673463,1.9977908507787738,2,right
1.8159999999999998,-0.44318629188659664,0.24763552351220583,0.01978244522834706,1.6099505724355527,-1.0236028022979102,1.3747103767325188,0.35564999215055426,1.2504507236379414,1.7919146685667942,2,right
1.817,-0.4438542450391759,0.24710071846908402,0.021599714851612533,-0.4249405475807077,-3.8222063049421733,1.0179054423689684,0.3371183048194555,1.2128780751888963,1.9160901526389738,2,right
1.817,-0.44172297579249425,0.24812332166240492,0.030708408672499604,-0.9097748354486268,-4.488916869250436,0.9328338829093274,0.34468376441862925,1.2281588817550382,1.8655421616951375,2,right
1.818,-0.442719111799294,0.25013932052158305,0.03901213900519961,-0.5421847346949971,-3.983434648083191,0.997341019877511,0.3447353591898227,1.2283944776048843,1.8648863819600585,2,right
1.8219999999999998,-0.44688818795799995,0.25388501174454703,0.03587898365520405,-0.7638887153851277,-4.2883059793094205,0.9584333455730782,0.34085919922108765,1.2203462373179041,1.8912919552233616,2,right
1.8230000000000002,-0.45033756488284554,0.2612012468129715,0.03053090183428611,-0.6737015418125448,-4.164297868826065,0.9742551778707139,0.34551891600525864,1.229982709584739,1.8596454505939586,2,right
1.827,-0.45402120697765896,0.2692346803573314,0.025923109123068895,-0.6723712464760849,-4.1624285333978275,0.9745067675841504,0.3418634276348075,1.2224893570099753,1.8843224612728777,2,right
1.829,-0.4551463005152991,0.27665666535822087,0.024623546363544933,-0.719775007276172,-4.227696782496663,0.9661530761287718,0.3439161934724041,1.2264902289315736,1.8709170955164294,2,right
1.831,-0.4528090717607368,0.2849746707689098,0.02381525195627883,-0.6629731739119553,-4.149469068776268,0.976169196662993,0.3432556337466668,1.2256710796950827,1.8742133311552478,2,right
1.8319999999999999,-0.44830894750575123,0.29403345792222635,0.02395961630463575,-0.7072389994936499,-4.210458303411347,0.9683540518408933,0.3430832750250221,1.2244251703748894,1.8773133730342417,2,right
1.837,-0.4481557151115453,0.3029395672555615,0.02571774767278797,-0.6833852189884846,-4.177606265458884,0.9725602344697871,0.34356052347860744,1.226492975890198,1.871730443340387,2,right
1.838,-0.44967026536942145,0.31160873591145555,0.020564056037938545,-0.6887023791227976,-4.184811759971722,0.9716668994994875,0.34305139104392735,1.224583631444966,1.877042353091956,2,right
1.841,-0.44535072526492064,0.321889684737815,0.014202554050234314,-0.695393631477002,-4.194351714687758,0.970364808505881,0.34362822255089975,1.2257453042919115,1.873193985185328,2,right
1.8419999999999999,-0.4405080357858951,0.33122416659621534,0.008911250749391267,-0.683816628351656,-4.177848928776896,0.9726164737023087,0.3427339188417937,1.225559704729632,1.875662350443263,2,right
1.847,-0.44095187446730943,0.3405828820354984,0.0028939112441977955,-0.6948675762409218,-4.193760875454032,0.9704073012806407,0.34420497310068215,1.2248228305015463,1.8738579119001835,2,right
1.848,-0.44526188780878784,0.3508309993740724,0.0023046591859765763,-0.6873570262811164,-4.182862396815388,0.9719403778291615,0.3421477032516188,1.2262002994320809,1.87563109001642,2,right
1.8519999999999999,-0.45206931645975457,0.35634695551356566,-0.0016431178205053023,-0.6903547482966137,-4.186979394680965,0.9714162452774165,0.34431507846849774,1.2246800238451252,1.8739118088196376,2,right
1.8530000000000002,-0.46201687906035654,0.36161332295360415,-0.012086383796243452,-0.6915403627117326,-4.189669345432504,0.9708091621398036,0.343103375029435,1.2256402215302535,1.8746351517634912,2,right
1.8559999999999999,-0.4706334752779969,0.3683832042281179,-0.02112472942119587,-0.6871792087029102,-4.181250637194249,0.972486313136962,0.3418582568246754,1.2260629686170896,1.8765968274959643,2,right
1.857,-0.4773310039869549,0.37358800974435025,-0.028166042597499788,-0.6933012097283078,-4.193282020732717,0.9700517457913052,0.3469787132414772,1.2235499233182119,1.8702016410004363,2,right
1.861,-0.48770343642105957,0.380299568753627,-0.031248428074146652,-0.6872845075616565,-4.181156512673683,0.9725576004180894,0.3375425481435538,1.2283300360515905,1.8816666073000294,2,right
1.8619999999999999,-0.49919427364363667,0.38627940738882904,-0.032791378015314177,-0.690765973600754,-4.188170126861744,0.9711088822592072,0.3496450565673038,1.222165312427677,1.8670332462256245,2,right
1.867,-0.5101174915375957,0.39211792374509546,-0.03806352672249885,-0.6926391302749677,-4.192663188565094,0.9700578701355514,0.3395477240583583,1.2273227480375457,1.8792147343692875,2,right
1.868,-0.5210204161130039,0.40056691458094795,-0.04534443524570746,-0.682982230907433,-4.170989191322036,0.9749133765881387,0.33979796112803606,1.2271415973802744,1.8790211008028626,2,right
1.871,-0.5309526179137849,0.4086281908392815,-0.05172392156001758,-0.7009625533683869,-4.211283809893806,0.9658963595297664,0.35912499059307634,1.217443857136026,1.8553454539411063,2,right
1.871,-0.5387684158207675,0.41681233190890843,-0.061695413887163084,-0.6779698029451109,-4.159672332154305,0.9774578922736582,0.31165080202462514,1.2413285578419493,1.9133784784299093,2,right
1.876,-0.5398550803002833,0.4252044612377356,-0.0747056298105755,-0.6971208938231381,-4.20270156108549,0.9678136935458247,0.3903551001857465,1.201714199096107,1.8171961791304796,2,right
1.876,-0.5383036289467615,0.43013447983070796,-0.07912506979949033,-0.6964877498833115,-4.201373367083702,0.9680945289121561,0.2865488669246842,1.2539661046757922,1.9440596305571818,2,right
1.88,-0.5374289727169802,0.4327512975786725,-0.08080859596503596,-0.660467602888229,-4.120022528251959,0.9863976536345823,-0.14925003395326505,1.4732356114320844,2.4767335349892026,2,right
1.881,-0.5330109641990338,0.43715246417052733,-0.08929075799267251,-0.7490826257137219,-4.320097103819649,0.9413971368951672,-0.2530525182280957,1.5254820049158682,2.603618942922557,2,right
1.882,-0.5286637655961347,0.4436513322835052,-0.09713621030944278,-0.6021695406631307,-3.98837573258728,1.0160069447520352,-0.1743522761112537,1.485873606323697,2.5074128826761357,2,right
1.886,-0.5273921370377139,0.44843030971776976,-0.10119351584347462,-0.7959125052219875,-4.425875726674171,0.9176035949963603,-0.2218280077654744,1.5097605878787625,2.5654368914847163,2,right
1.886,-0.5276652808069612,0.45032646258165693,-0.10317127147041036,-1.6089020967742478,-6.2618396840097255,0.5045935919517739,-0.2024875228218727,1.5000430393074409,2.5418400040706963,2,right
1.8869999999999998,-0.5279189367413893,0.4550276582617304,-0.1066031628030926,-1.8025932176816795,-6.6992833875451065,0.40620014546274263,-0.20226623634446972,1.499904491312702,2.5414768831404873,2,right
1.891,-0.5288105409273121,0.4613737940108871,-0.11264396009165084,-1.6557582371823933,-6.367653178979344,0.48079537396958394,-0.21232206003390158,1.5050008573227225,2.5539014029639704,2,right
1.891,-0.5324679362245162,0.46531878770067725,-0.1175545979954655,-1.7443166224559175,-6.567643736323355,0.43580447081436774,-0.20026088516258145,1.4988969288214147,2.539026006585889,2,right
1.896,-0.5370542226111678,0.470805203001634,-0.12159680248389108,-1.7082711589424704,-6.486311841747536,0.45411491662827197,-0.20967921665558364,1.5036508419957864,2.5505954557908717,2,right
1.8969999999999998,-0.5404877019821361,0.4783809367874961,-0.12143301773139083,-1.7077998749037233,-6.48509050633956,0.4543611464682082,-0.20452326419462274,1.5010855165320347,2.544407994585751,2,right
1.9,-0.5416617675336657,0.4861758014911318,-0.11762601418552053,-1.7266329124579265,-6.527848331927721,0.4447816596868698,-0.20588272070158475,1.5016765438858473,2.5457003353352894,2,right
1.901,-0.5453325028690129,0.49317754706213107,-0.11862256885170093,-1.704064278517067,-6.476654753441482,0.45625989719046195,-0.20689741691879787,1.502346860698658,2.5475770805983937,2,right
1.905,-0.5534770131557496,0.4996109855664725,-0.12156316593239291,-1.7216621502772345,-6.51649488218012,0.44731383669032176,-0.20497181633707562,1.5011822639776027,2.544442168721247,2,right
1.906,-0.5594094706647987,0.5060893486417182,-0.12356736898645942,-1.7121006644344945,-6.495093822147464,0.4521601802581371,-0.20683633570866888,1.5022762846315483,2.5473441303213304,2,right
1.911,-0.5647578733970293,0.5115188702687925,-0.12910719525937053,-1.7144571053958457,-6.499794515855636,0.4509998785600138,-0.20536355467554124,1.5015366170519888,2.5455493498315835,2,right
1.912,-0.5697932307999845,0.5185367501003146,-0.13432821436098114,-1.7166570758378257,-6.505833467363528,0.4498182589440126,-0.20661557308464415,1.501877636186804,2.545923911546177,2,right
1.915,-0.5708794976653636,0.5277904750850559,-0.1355949930958852,-1.7126895518087906,-6.495559075776205,0.4519126681483556,-0.20522126103298105,1.501836294703565,2.5468613088841803,2,right
1.916,-0.569243762543405,0.538452139083635,-0.1358482466709637,-1.7164662814828198,-6.50513651433203,0.4499310492320749,-0.20694992825933578,1.5017212648159202,2.545033050981237,2,right
1.919,-0.5626582984887201,0.5500664751126323,-0.1349271598037261,-1.7137218934943321,-6.498947129782238,0.4513247244967261,-0.20517264332136653,1.5018767608164292,2.547062424753392,2,right
1.92,-0.5519661105222228,0.560250858730833,-0.1320940814563123,-1.7155034839575554,-6.501027515019842,0.45053654066797943,-0.20609612491789206,1.501734966977377,2.545762910716306,2,right
1.925,-0.5404354475178248,0.5703678231551652,-0.1288621593848902,-1.714167509490908,-6.502452578909038,0.4509479995647656,-0.2074043028142028,1.5018701668692234,2.545270224272856,2,right
1.9269999999999998,-0.530800309512584,0.5790246674431656,-0.1248425390722075,-1.7155057840240495,-6.498846686945926,0.45066684834360793,-0.20251752336798123,1.5016997789753646,2.5484545850982006,2,right
1.93,-0.5258318241386749,0.5859292229447732,-0.12084741326180251,-1.7142006481196936,-6.502966453245403,0.45090485340187475,-0.2114286111125866,1.5019397820841796,2.5423626064239446,2,right
1.931,-0.5226028297726866,0.594082359743511,-0.11670559767624064,-1.7147627775389722,-6.500150152460599,0.4508647826407328,-0.20002054375643802,1.5016485834650717,2.550228169287192,2,right
1.935,-0.5230319503004289,0.5993703474125717,-0.11058216404184479,-1.7161998158829284,-6.499880738501462,0.45034665734463974,-0.20953044211826694,1.501884905265141,2.5436423856173027,2,right
1.936,-0.5258240401045098,0.6031573147902565,-0.1035758717700197,-1.7114685734011426,-6.504593548467442,0.4518233606786045,-0.20932660596882358,1.5019047428447405,2.5438905736259048,2,right
1.939,-0.5240118335321289,0.6086804743448879,-0.09486063589364702,-1.719962707137767,-6.495214769853348,0.44922679493516227,-0.1910182174970943,1.501367793858086,2.5562239756416414,2,right
1.94,-0.5216181890064834,0.6118084497699268,-0.08425258095971197,-1.7091170290678248,-6.5074024178152285,0.45253008523565014,-0.23595410432259345,1.502656898398241,2.525822589839894,2,right
1.944,-0.5181666715770876,0.6141435893992272,-0.07454380598463753,-1.718149048574828,-6.4971666985862715,0.44978334479027127,-0.1614658060966312,1.5005270740539536,2.5762583582921676,2,right
1.945,-0.512858472526169,0.6161145191162506,-0.06809231472386501,-1.717995443302955,-6.497672960744692,0.4498125313110145,-0.2597125991763166,1.5033362061327538,2.509721738455757,2,right
1.95,-0.51213560168732,0.6156752947290703,-0.06519256483465208,-1.7004688845244251,-6.516444358365463,0.45520215693221766,-0.6721865029530925,1.5151623905577876,2.2305834007087944,2,right
1.9509999999999998,-0.5105766151296356,0.6149010410810055,-0.06245537993085392,-1.7434456155729958,-6.470031118081677,0.44200469924737684,-0.7704357139773388,1.5179761662030051,2.1640272785812575,2,right
1.9509999999999998,-0.5045543423612477,0.6134735100057837,-0.055905292875943036,-1.67220836887542,-6.5470630130628225,0.46387775702601947,-0.6959468799323721,1.515840713410748,2.2144974963637405,2,right
1.955,-0.5011117520870421,0.6122615346638896,-0.051094365469728814,-1.766174970971376,-6.445446197300921,0.43502376210101856,-0.7408744035422897,1.5171300479958234,2.1840568527563007,2,right
1.955,-0.5012003504758609,0.6110402985714816,-0.0488319564933285,-2.1605216696123737,-6.019444394627883,0.3139778681244024,-0.7225898830771625,1.5166053506580481,2.196417741332372,2,right
1.956,-0.4991325375658546,0.6086859975222936,-0.035814284242411176,-2.2544929239909415,-5.917864061575351,0.28512258272054924,-0.7223448401117107,1.5165958787279932,2.1966719106303367,2,right
1.959,-0.49556997531795216,0.6071691214524497,-0.02059675385361131,-2.183278027199653,-5.994828565273853,0.306979434857819,-0.7319056956424081,1.51687658513081,2.1900254117920395,2,right
1.959,-0.4962893891574213,0.6046113473805256,-0.014698903110876255,-2.226155851237762,-5.948499203765676,0.2938448544324619,-0.7204570350734483,1.5165382397976617,2.19801656459366,2,right
1.964,-0.4996198419615845,0.6015434802553787,-0.011616292743689534,-2.2088459486398437,-5.967197659580094,0.29910131586874256,-0.7293667897437932,1.516804062170796,2.1917494448205552,2,right
1.964,-0.5023604315176144,0.6020872167771263,-0.013839740739753002,-2.2083597653685567,-5.967724665462473,0.29933115429254953,-0.7245583011789983,1.5166615403455785,2.195104674031767,2,right
1.969,-0.5036043291274959,0.6035908564616692,-0.02012335822702357,-2.2177616846149806,-5.957568246891463,0.2963654662607209,-0.7256889981163267,1.5166852675820128,2.194541030041525,2,right
1.9709999999999999,-0.5011687860373353,0.6039268497486221,-0.02777720972841886,-2.2066812534362015,-5.96954072336028,0.2998009119817674,-0.7268758771751915,1.5167478677024189,2.1930916326122505,2,right
1.974,-0.4945174161189817,0.6042369527906539,-0.03816075603318726,-2.2150286079101327,-5.960507713635075,0.29730678198304716,-0.7248203634634881,1.5166394390437412,2.1955938859417294,2,right
1.975,-0.48425818720974273,0.6012656760375961,-0.04499716842735782,-2.211070564366585,-5.9648224919878965,0.298302572312087,-0.7267036044342048,1.5167543598173236,2.1929571180246197,2,right
1.9780000000000002,-0.4732684607361423,0.5967050458721793,-0.03977645174255652,-2.2110003091194814,-5.964832606844615,0.2987014815182054,-0.7254654305781951,1.516670102999099,2.19488042094875,2,right
1.979,-0.4628440531095497,0.5928943708994443,-0.02113528574424287,-2.2136012730780803,-5.962103888169762,0.29744019054817245,-0.7260756345887284,1.5166875271891538,2.194477518394643,2,right
1.985,-0.45307170854874346,0.5880377514964483,-0.005301436405611788,-2.2103869240885605,-5.96551161670913,0.29879579590905136,-0.7257887856037515,1.5167689741457275,2.1926574131522094,2,right
1.986,-0.43918892486583905,0.5810346144281544,-0.00699903027334666,-2.2123613677886014,-5.963376681466583,0.2981931209515221,-0.726109344206263,1.516572577965598,2.1970426466251327,2,right
1.9880000000000002,-0.41502464183156107,0.5654191105767572,-0.027196065738843186,-2.2130708746530434,-5.962735123059769,0.29729053733055,-0.7255534140877444,1.5168638539126942,2.1905539539828673,2,right
1.989,-0.39067110223208457,0.5468272599190189,-0.04442846673336197,-2.208991704368648,-5.966857590123828,0.3001074160936402,-0.7262492172392001,1.5165556945357412,2.197400508688844,2,right
1.994,-0.3778788748700972,0.542298574654979,-0.03353014369975278,-2.215942811884892,-5.959772038063264,0.29563956176465556,-0.7258482944660047,1.5167348072286453,2.193444856733988,2,right
1.995,-0.39558289092137416,0.5807787587248487,-0.018581727976249685,-2.2082157990383373,-5.96766811283956,0.30049949080691474,-0.725273816675559,1.5168794304697184,2.1901867457955264,2,right
1.999,-0.4379785351771936,0.6691309475182252,0.0005972603286407887,-2.2128932957290717,-5.962875158576633,0.29762643316395776,-0.7274917127950222,1.5162312322006035,2.2046396306502065,2,right
2.0,-0.48365292696028706,0.7771255959302237,0.02593467126593839,-2.2162637197727495,-5.959460797983169,0.2953518364948858,-0.7233933309293432,1.517436555982798,2.177829438770191,2,right
2.002,-0.5300420141082045,0.8826165667819345,0.01575978257273047,-2.2002920190413437,-5.975727724468255,0.3056791485961891,-0.7286748610480036,1.515886614463231,2.2122394302299426,2,right
2.003,-0.5514055976515795,0.9481169010443555,-9.993362613476293e-05,-2.2302007535445885,-5.945246444393723,0.28643924233567264,-0.7242568778508227,1.517184430531529,2.183522104215128,2,right
2.008,-0.6199153460520228,1.0003239715063654,-0.010570583854059977,-2.1916914964087457,-5.984501030530101,0.3111755467497941,-0.7243525129923297,1.51713911403292,2.1843064597315305,2,right
2.009,-0.7455047447864156,1.061348440562535,0.014856084771437194,-2.223886603756535,-5.9516775333553245,0.29051171640279916,-0.7328790925740571,1.5146901530481727,2.239017181074952,2,right
2.012,-0.881798500316771,1.132140157105197,0.057393088085326796,-2.222943444712297,-5.95264918256828,0.291090118711099,-0.7119397810282448,1.520729148167747,2.1045512427646713,2,right
2.013,-1.1025425525466233,1.2624763621517316,-0.009970953389850507,-2.1617434642149416,-6.015018557058546,0.33044058424971223,-0.7466600460454096,1.5107016814123084,2.327486578141503,2,right
2.017,-1.2537495813906565,1.3473712006266032,-0.08142307570245921,-2.3122719811539385,-5.861595406601921,0.23369535474733208,-0.7008582113923839,1.5239423770615455,2.033454137657996,2,right
2.0180000000000002,-1.3351835658076614,1.405303826848345,-0.13935589234243417,-2.0626448244530895,-6.116035111714124,0.3941119521346693,-0.5085442386568124,1.5793500347409233,0.7991369898180769,2,right
2.019,-1.476004973123826,1.5090560496245424,-0.24297053040957262,-2.391923287185195,-5.780396383882701,0.18252220722367754,-0.46273353306292714,1.5926150791178544,0.5051337292641458,2,right
2.022,-1.5570752445525151,1.568172880023475,-0.30447730252807126,-3.773970522753418,-4.371718051867675,-0.705624221075805,-0.49746785727681003,1.5825613931448943,0.72803447233646,2,right
2.023,-1.7007258063449404,1.6890587881454324,-0.46648902192126396,-4.103272965005719,-4.036025514393316,-0.9172072327514514,-0.4765163936311445,1.5885899278935733,0.5935672289921988,2,right
2.024,-1.8634679568331376,1.8236349777525052,-0.7089413339369913,-3.8536016030776996,-4.290556601556831,-0.7567990970825944,-0.48504371463497614,1.586229260707559,0.6483606097174464,2,right
2.0269999999999997,-1.8416606165460592,1.8122797474847752,-0.8460131341369985,-4.004184933315552,-4.1370381274562025,-0.853542929040676,-0.485159518994735,1.5859945764704406,0.648952373068912,2,right
2.028,-1.7319939185545326,1.7295440286862154,-0.8788007412419292,-3.942937667061142,-4.199456552605612,-0.8141768918610858,-0.48069519176359604,1.5875634210496439,0.6205229865963855,2,right
2.032,-1.5637500198299992,1.5872087092741198,-0.7642152722599277,-3.942007165859885,-4.2004844469399405,-0.813637734883742,-0.48604463809274917,1.5857441992898087,0.6546315084372605,2,right
2.033,-1.359032916747328,1.398166662303763,-0.5159939118118725,-3.9742554469475087,-4.167450776568468,-0.8342406986216128,-0.48187652843511447,1.587064584163436,0.6279787718659222,2,right
2.037,-1.1535846584719893,1.1986749616824897,-0.19042292607737588,-3.9356041486627493,-4.207076451808868,-0.8095707474132303,-0.48412925320568545,1.5866502200975068,0.6426274466809115,2,right
2.0380000000000003,-0.928252331998865,0.9881051389853281,0.1853504904680765,-3.965739615540188,-4.176134583732374,-0.8287713575239124,-0.4836028220901818,1.586046072047341,0.6386301199718012,2,right
2.042,-0.7063786086311439,0.7976887214809305,0.5349893288972218,-3.9495086541369386,-4.192775230130248,-0.8184116476763463,-0.48302815884017036,1.5875128096499216,0.6360097661503005,2,right
2.043,-0.48516705243174296,0.6316449692234678,0.8077464019706551,-3.953058391657137,-4.189348099659725,-0.8208328842220658,-0.4840337501549189,1.5856271077881878,0.6411521769054727,2,right
2.046,-0.26246679607911483,0.4950655590657745,0.9769046531312937,-3.957799216249305,-4.183901039209205,-0.8234292872099096,-0.4830866277418931,1.5871720500764395,0.6361197784872892,2,right
2.0469999999999997,-0.028353994140271475,0.39293019095717086,1.0356605763374507,-3.949599164560642,-4.193317749962672,-0.8189343321298472,-0.4837356078452645,1.5869960936035565,0.640293207166769,2,right
2.051,0.2251233622367712,0.32799814335090727,0.9918173548303628,-3.9575179063415775,-4.1839476287511275,-0.8230732408237946,-0.4834134294647667,1.5847298106299648,0.6362861766987736,2,right
2.052,0.48041921429056095,0.31625574559315517,0.8580064083125023,-3.95208808633487,-4.19051774770986,-0.820340748865525,-0.48350209645140135,1.5900957617004232,0.641289014266534,2,right
2.056,0.7245600939957724,0.35809554485276507,0.669284375198147,-3.954120065287245,-4.188454510522227,-0.8216536308368902,-0.4835250689899169,1.5820458607522936,0.634820655229426,2,right
2.057,0.9268000416922345,0.4545895530327623,0.4747369762641096,-3.955537850809954,-4.1850911191271685,-0.8211599163704169,-0.48347148445806276,1.5906358066198814,0.6415308088551694,2,right
2.061,1.067714908865352,0.6005684502439255,0.32104645833361556,-3.951177957613556,-4.193921086253756,-0.8215677949176778,-0.4835483861931228,1.5856588625509538,0.6379462006645409,2,right
2.062,1.1409014125882238,0.7718730136377074,0.22520550098962688,-3.957419793787732,-4.181013991037713,-0.8207913406446488,-0.4833877632572661,1.5814354724568331,0.6334070423860485,2,right
2.0669999999999997,1.1486198734175415,0.9416124458286947,0.1699358771963823,-3.9511136694802897,-4.194420923826527,-0.8218418609138547,-0.4837187961205785,1.6000292164061118,0.6509006794642878,2,right
2.068,1.1245128492238459,1.0830730972454845,0.13494792479944484,-3.9547577712081874,-4.186670135811481,-0.8212362685866521,-0.48317254576499064,1.5655262223268218,0.6188864613303181,2,right
2.0709999999999997,1.0647047687860374,1.1828668884250477,0.11654745440704409,-3.9571423189204005,-4.180772186651234,-0.8202244595895096,-0.4838580709341181,1.6098355581954795,0.6598985523703238,2,right
2.0709999999999997,0.9874217232215051,1.24815085877911,0.09862340751137927,-3.9457351086472245,-4.207599846746714,-0.8240210849202803,-0.48329315885879126,1.572839931816913,0.6256979618090743,2,right
2.076,0.8882969147499367,1.2791955834464108,0.08264105091229786,-3.9669301634031973,-4.157795940877416,-0.8170091991362262,-0.4832821011410787,1.5738532253593505,0.6264757444056803,2,right
2.077,0.7452422191731134,1.2804269724781825,0.08187177569030624,-3.939787572112925,-4.221683236176349,-0.8260564844551476,-0.48444297928193464,1.6443618377600853,0.6921758074285271,2,right
2.081,0.6140968137618352,1.2690300133768768,0.0914217129394612,-3.9624045292186763,-4.16837411271495,-0.8184804772908834,-0.4816233406401917,1.471041792059256,0.5308662146236837,2,right
2.081,0.4059056065721016,1.2379126509063931,0.14038493873564917,-3.9617451253420723,-4.1699049973749815,-0.8186438431123355,-0.4862866256438484,1.758424424001956,0.7982816661630487,2,right
2.085,0.23815630363471588,1.2102363957564277,0.1874412818313823,-3.9188815172818408,-4.27118979135339,-0.833286081797513,-0.4801411045271739,1.3793599007907242,0.44556346194584784,2,right
2.0869999999999997,0.2145328550227726,1.205258290059442,0.19961313932722663,-4.024231389486301,-4.022170855981749,-0.7973168468004517,-0.45425731255170226,-0.2116557806569524,-1.0351564294692708,2,right
2.088,-0.002399904836974172,1.177612433216278,0.2502283619935153,-3.849605968996469,-4.435056867381366,-0.856972531410055,-0.4481168767398108,-0.5907335397921836,-1.3878972249724875,2,right
2.0909999999999997,-0.22138270379319136,1.149052782563475,0.29355050997766186,-4.079883215439743,-3.8904771019071593,-0.7782642316272324,-0.45277465860608174,-0.303336586406444,-1.120457331752847,2,right
2.0909999999999997,-0.2519014453779703,1.1463510577361529,0.29257371053834624,-5.047222975813124,-1.6050135691680187,-0.4480405918926989,-0.44995293153958466,-0.47665118929111994,-1.2817576262177535,2,right
2.092,-0.4405971295976766,1.1324399263656373,0.3070563416545785,-5.277503843231846,-1.0604731039323565,-0.3693225700451797,-0.4511320516665943,-0.4061900714013613,-1.2161386450130534,2,right
2.096,-0.6729905025330791,1.11998094463969,0.317189472986142,-5.102769648303815,-1.4732749752683616,-0.4289630242342081,-0.45108173832321385,-0.4050745824043286,-1.2151864077275858,2,right
2.096,-0.8057472825690617,1.1170721371893562,0.316019101200371,-5.208489436084366,-1.224387286350427,-0.39308899371346095,-0.4505731154048001,-0.4422167403455267,-1.2496371284479437,2,right
2.1,-0.9318016950539693,1.1098028425430984,0.3228864489726301,-5.164873134211051,-1.3255092074170252,-0.4075083151441041,-0.45120258263080404,-0.3977614846028663,-1.2083759630509259,2,right
2.101,-1.0003631280649308,1.101290430403676,0.3325917979501266,-5.165321721018826,-1.3271874980475098,-0.40802570367937485,-0.4506805308063314,-0.4323274497233057,-1.2404976464353399,2,right
2.1069999999999998,-1.0306069663149813,1.0812855519030804,0.3505177446796993,-5.186759574549441,-1.2738295788250986,-0.4000426646723225,-0.45105967693342797,-0.4138589874114509,-1.2232179056160746,2,right
