time,gFx,gFy,gFz,ax,ay,az,wx,wy,wz,subject_number,foot
9.488999999999999,0.35347821734326323,0.3719764858739373,0.1611578134105816,-0.7671591273548768,-7.5809153289259,1.085565071965867,1.4357328526808841,-0.45730015791192613,-1.9513712536714787,3,left
9.493,0.35784929392360154,0.3903920648559406,0.17117750769241938,-0.7464084997488167,-7.572417836833794,1.0651933747368294,1.4346045387792734,-0.4549844215966473,-1.947867417698482,3,left
9.494,0.3654473178259521,0.4040882463807841,0.1778049785995695,-0.7508152032558071,-7.57444152951911,1.0696005553102883,1.4352148091238683,-0.4558390787652515,-1.9493127688629115,3,left
9.499,0.37274018172174517,0.4171414241016316,0.18547185107380548,-0.7569674941293008,-7.576533080435003,1.0754827188110432,1.4347278792232463,-0.4564940037395703,-1.9496714079973396,3,left
9.499,0.3833502263858162,0.4278164827236882,0.1925389924094188,-0.7466317098945572,-7.572837062498927,1.0655333085735827,1.4355062546188175,-0.45452571114343443,-1.948055847152468,3,left
9.503,0.39632603860371496,0.43782609513640014,0.19412576430303882,-0.7562202563263225,-7.576330310281873,1.0747872910409995,1.4342673043641465,-0.4573522759843147,-1.9502810407502897,3,left
9.503,0.40631699553607936,0.4517035023626065,0.19373631926086954,-0.7502076005136618,-7.573885674882488,1.0688908299477455,1.4356913192846958,-0.4544846155569554,-1.9481543979619331,3,left
9.508,0.4178836265577087,0.4631997316305855,0.19130287677243185,-0.7517068170971383,-7.5752373175429595,1.0706341193165474,1.434869178953611,-0.45614308409445214,-1.9493854699541107,3,left
9.509,0.42964523988225706,0.4760836210985012,0.18752086342387858,-0.7542867381981146,-7.57458602201836,1.0725387732009055,1.433933368645365,-0.4572501660189658,-1.9499037047656205,3,left
9.513,0.43892625282258296,0.49106063706556513,0.18390798103338507,-0.7489992705208527,-7.5749743571022785,1.068286874137642,1.4377360909883,-0.45198751873097387,-1.9469336188901794,3,left
9.515,0.4493334113289733,0.5043753874401496,0.17543451862646575,-0.754903821360811,-7.574668422951653,1.0730822436250576,1.4306973183985061,-0.4617678999855658,-1.952475732460772,3,left
9.519,0.4567931865024196,0.5199385274381972,0.16659665757335668,-0.751069205288049,-7.574674411457961,1.069896692459173,1.439755762581771,-0.4492361613423145,-1.9454055221418047,3,left
9.519,0.4603464327140385,0.533536224100859,0.16064453513835536,-0.7498587056174597,-7.575527511561322,1.0692051036369525,1.432182593336546,-0.459686141557199,-1.9512859905807487,3,left
9.523,0.46259434436011165,0.5464205525982404,0.14984599889444455,-0.7585856040696024,-7.573180434087847,1.0755946694227507,1.432368537961259,-0.45936920986244045,-1.951073256103915,3,left
9.525,0.46346192321513335,0.5613638848718001,0.13937586533295312,-0.7417827263207752,-7.577284332541678,1.0631382198033537,1.4468993478638716,-0.4395883554277964,-1.9400955796875574,3,left
9.527999999999999,0.46867743862314304,0.5707837159876266,0.13415557010768064,-0.7634970214885138,-7.572068653165206,1.0792690487211223,1.4111929075894198,-0.4882332381928066,-1.9671135849728396,3,left
9.527999999999999,0.47800678989358164,0.57591499825158,0.12802887911130367,-0.7453130956885722,-7.5764035515746215,1.0657471780272798,1.4704041075965144,-0.4075801524089733,-1.922325538878426,3,left
9.532,0.48348403102668813,0.579280993278128,0.12275710307821447,-0.7460198811078532,-7.57636622874827,1.0663244678861794,1.3922939960444143,-0.5139529107295919,-1.9813830016775882,3,left
9.533,0.486626184194367,0.5790992110045841,0.12102370172744699,-0.7799878359901697,-7.567830648047251,1.091414537036448,1.0645082153632244,-0.960350766904233,-2.229222895924245,3,left
9.533,0.498098518479028,0.5774464581146,0.11678579690492309,-0.6962469944717375,-7.588723262444839,1.0294974715031493,0.986393949845197,-1.0667097561756096,-2.2882614454002743,3,left
9.537,0.5198865183920351,0.5746058067319049,0.10526827136962971,-0.8351565524783968,-7.5540945829922395,1.1322226309217485,1.0455964866673337,-0.9860802864581752,-2.243493717846163,3,left
9.538,0.5330073033190649,0.5728065155736869,0.09624786396458085,-0.6519328907898352,-7.599785661105488,0.9967239747594243,1.009938359980596,-1.0346999527215206,-2.270520017515052,3,left
9.542,0.5371453936944734,0.5724466749132455,0.0937062112843254,0.11684318550206901,-7.791694913103739,0.4282677552471059,1.024358182494855,-1.0149333497170145,-2.2594734083703107,3,left
9.543,0.5565290830200531,0.5692340316513389,0.08310204367833371,0.30003277826317265,-7.837457730308635,0.292795576176635,1.024718744084471,-1.0146282880131645,-2.2594082872518007,3,left
9.543,0.5833099206550652,0.5651165402634581,0.067632379762713,0.16116453070001938,-7.8027097996166805,0.3954924895531907,1.0169465972493246,-1.025027195272231,-2.2650776703803164,3,left
9.549,0.605668873959806,0.5618573314069566,0.05708166743065507,0.2449036290567126,-7.823720363015539,0.3335631105056759,1.0261389948799455,-1.0125888526619917,-2.2582169575379414,3,left
9.55,0.6306388251379555,0.5611899935915172,0.04301873680924391,0.21084590034987005,-7.815138224598685,0.3587511267514978,1.0191616136086394,-1.0222499405512204,-2.263669970061119,3,left
9.552,0.6539572877132186,0.5640711600764952,0.024258330616328243,0.21035398387807375,-7.814997968132392,0.35911962467585723,1.0225746718283006,-1.0170891217637807,-2.2605170170714324,3,left
9.552999999999999,0.6743800318187894,0.5658727610649015,0.008002829267853975,0.22821244972981483,-7.819643071080888,0.34589555509709274,1.0224215848354639,-1.0181813270959013,-2.261619179328116,3,left
9.558,0.6912425624631392,0.5703249797658674,-0.006909059024024034,0.2068439575248458,-7.813915351168998,0.36173179017545454,1.0205190417956975,-1.0196876759377254,-2.261847078556568,3,left
9.559,0.7037949388363716,0.580097582300644,-0.0230302189855549,0.22345730464261765,-7.818617442162531,0.34939882369628816,1.0229840344386267,-1.017195441552764,-2.260948356229207,3,left
9.562000000000001,0.7175383920086034,0.588921706925347,-0.03750864022808074,0.21452638130508678,-7.815840712696451,0.3560497224830008,1.0213409849613821,-1.0194407942169135,-2.262199569886647,3,left
9.562000000000001,0.726883425540759,0.5975260804189433,-0.04803985422389795,0.21655394149057094,-7.816582396441009,0.354530692340269,1.0211352201198682,-1.018116194369199,-2.2605635550513137,3,left
9.566,0.7303872095399855,0.6084590000644576,-0.054561302027159246,0.21889000819537577,-7.817629128140579,0.35276269266820914,1.0236482243843616,-1.0183612707619385,-2.262757273665833,3,left
9.566,0.7335834306965037,0.6186315993457407,-0.05925476940391847,0.21492085538899136,-7.815144942758328,0.3558270382144064,1.0191799110907622,-1.0189754083714408,-2.2600289946879584,3,left
9.571,0.7309100913915393,0.628787634129848,-0.06072794305454338,0.21852153647851183,-7.8186152167581735,0.352942253181309,1.0242063695850754,-1.0179621697651622,-2.262737782808456,3,left
9.572000000000001,0.7212066265542476,0.6403863629213075,-0.054412200840445346,0.21625746912710858,-7.814895620161594,0.3548888714301709,1.0211257604229547,-1.0187881588723584,-2.2613071746003057,3,left
9.577,0.7101778317013906,0.6498690545856967,-0.044358376784803144,0.21712965417835506,-7.817627607644215,0.35402685959993113,1.0190183946932212,-1.0187522607393842,-2.259655592838058,3,left
9.577,0.6953530430336464,0.6574005074498879,-0.0316511458811629,0.2171222370697901,-7.8176479120850075,0.3540303202808095,1.0292524020085247,-1.0175294515589792,-2.2661110232607635,3,left
9.581,0.6753711942317298,0.6633563507807354,-0.013076456359665886,0.2169968487684763,-7.812952583312613,0.35452597247668216,1.0100346831039828,-1.0201233555568572,-2.2543231887672874,3,left
9.582,0.6549721253753139,0.6668227118075178,0.007984515776044877,0.21665258199614482,-7.8235253104266675,0.3538598712056116,1.034796823261812,-1.0166748355305977,-2.2693912225114192,3,left
9.587,0.6332013951237343,0.669973604166121,0.029561707721343804,0.217685519384908,-7.80788244623881,0.35446946987823946,1.0140885450186072,-1.0196040510060551,-2.256843532549868,3,left
9.588,0.6057332141550438,0.6693669876299937,0.0576190484393517,0.21628085274414163,-7.824482177936365,0.35404410747696635,1.014703307830294,-1.0194468829329753,-2.2571307009011186,3,left
9.592,0.5810896286871816,0.6638419486924148,0.08885396080462027,0.21718945424499508,-7.8149151604279385,0.35421814463298146,1.0540449889176142,-1.0140682639649525,-2.2811935215490804,3,left
9.593,0.5601308060762435,0.657586438145136,0.11832771938080835,0.2180130990030543,-7.806678087668038,0.35433833649726765,0.9572705660099928,-1.0274017099866968,-2.222131691362497,3,left
9.595,0.5336028245936028,0.6460955717924936,0.1564981121905828,0.21429188331188392,-7.84269784384774,0.3538986128128411,1.1177547312269414,-1.0052503295275632,-2.32002037331291,3,left
9.596,0.5177945210528944,0.6352608562703606,0.18340187711891615,0.2213043060748685,-7.7759269893499905,0.35463167656203964,0.9060687006299417,-1.034485241560462,-2.1909295618564766,3,left
9.601,0.5115367184999644,0.6325349042041613,0.19148156199117605,0.21222306221103762,-7.861644371587064,0.35374731682205635,0.017530022531840078,-1.1571133931867368,-1.6488623221068117,3,left
9.602,0.4966233973935926,0.6205303737132157,0.21204236129420384,0.2198377711056358,-7.790092382118923,0.35446101669050234,-0.19415336320095164,-1.1863546746866152,-1.519798683548096,3,left
9.603,0.4771473727275706,0.6024674571346429,0.239472601163181,0.21963775277065342,-7.792028146672793,0.35443727328763985,-0.03366556163048477,-1.1641875555303707,-1.617653057427053,3,left
9.606,0.4595951561615227,0.5918031746250692,0.25687250898850056,0.20504277813721056,-7.928451332907576,0.35313184955605126,-0.13046408869955112,-1.1775497181071208,-1.558597432775703,3,left
9.607000000000001,0.44834792380206795,0.5827548671859368,0.27180781159004425,0.24093242911155976,-7.593147220559243,0.3563277429421825,-0.09106546618050725,-1.1721293529715962,-1.5827219286018397,3,left
9.611,0.4250528879772904,0.5827209805671656,0.3075344078517275,0.18140435874333483,-8.149092334143543,0.351044644652143,-0.09054152102587455,-1.1720188467824522,-1.5828524485107907,3,left
9.612,0.4012592065908764,0.5856891741112374,0.33923675111575113,0.2599424098903294,-7.415801377078583,0.3579977308518652,-0.11114496374091813,-1.1749157131384433,-1.5705485324515998,3,left
9.613,0.3921651622386054,0.5883203829024743,0.34737934460652087,0.5898433469140263,-4.337610703780534,0.3870124973860177,-0.08645551774931437,-1.1714562442950687,-1.5853498709109113,3,left
9.615,0.35158036414968685,0.61001565332589,0.3993930204540451,0.6684402044082056,-3.6042678655478637,0.39392339105149843,-0.1057007363398401,-1.1741350221902058,-1.5737215797492803,3,left
9.616,0.2904962782546544,0.647993296352207,0.49330107032347814,0.6087903011807616,-4.160327414003936,0.3887275768883698,-0.09526866486475966,-1.1727369311470761,-1.5803035569158683,3,left
9.62,0.238375203779548,0.7025619994649326,0.5872646200591378,0.6448619290191114,-3.8248381398400912,0.39179336137768256,-0.09778069594027045,-1.17294793792969,-1.5780680502147921,3,left
9.621,0.19660253815107065,0.7716175088068944,0.69456773330882,0.6300529520453167,-3.9615008740288524,0.3906405397931892,-0.10029653026000424,-1.1735288800493309,-1.5777436486992689,3,left
9.625,0.20791196939117135,0.8484566601648631,0.8191070930766786,0.6300294294670519,-3.9632056381329117,0.39049155956773307,-0.09582248874067968,-1.1726247990993524,-1.5789885525677072,3,left
9.626,0.2760182579745293,0.9611926205390345,0.9544703416756835,0.6376184148612786,-3.8917571565854585,0.39122221735172336,-0.1000606190882675,-1.1734381529203117,-1.5775861666871274,3,left
9.631,0.3712752816004565,1.1216322411442123,1.043301415068222,0.6282788305749606,-3.977655869060216,0.39052407611764983,-0.09706152737514193,-1.1730259593489074,-1.57942604705964,3,left
9.631,0.5108371455930633,1.3084965271661764,1.023692134162552,0.6359300026487614,-3.9102786794990747,0.3907996418531907,-0.09880503613926334,-1.1728437976159873,-1.5761684914200655,3,left
9.637,0.7148669178283591,1.497022429985349,0.8838514595384506,0.6312156758872545,-3.9473595225440365,0.3910690298353164,-0.09781141399472432,-1.1736731852691555,-1.5817884160018274,3,left
9.638,0.9825107103822783,1.6333609550783224,0.5989769023787889,0.6331481540511334,-3.937797906302355,0.39040007269846466,-0.09857742854769866,-1.1723368725132897,-1.5738416163703048,3,left
9.64,1.3087864604455306,1.6717451355454922,0.20002884699838075,0.6333329755014522,-3.92932438075053,0.39108497554127075,-0.0978942326824217,-1.1737800073320674,-1.5822315348049765,3,left
9.641,1.6475916931483747,1.637662885219166,-0.20717511011927528,0.6315559176158885,-3.9458450894472428,0.39093435241703633,-0.09807829830122769,-1.1729167134128704,-1.5775125250013704,3,left
9.644,1.908977123926347,1.574741866943115,-0.5418862532277087,0.6347697293883026,-3.9283773351217097,0.3899773749433426,-0.09928057675987623,-1.172317808539118,-1.5728076195778669,3,left
9.645,2.0571518702942395,1.4948611727972372,-0.7751010046956797,0.6301064172020775,-3.943282144734986,0.39240043920424195,-0.09572708896265555,-1.175177215075421,-1.5923555445028983,3,left
9.65,2.087527637848599,1.394059482066705,-0.8947712244047288,0.635889751777265,-3.9319931347291597,0.38868229082176764,-0.10200873142129246,-1.1698308428856568,-1.5562922382917928,3,left
9.651,1.9718712435900965,1.272117453516866,-0.8924811103580192,0.6302418403356009,-3.9392047764840123,0.3926916288681151,-0.09401200284767247,-1.176706388922595,-1.6025566638051607,3,left
9.654,1.763515423067771,1.1407156981265465,-0.8288018438065756,0.6332405946421646,-3.937501623690756,0.39035130888505115,-0.10066001302183239,-1.170961030927324,-1.563950465579791,3,left
9.655,1.504520520363333,1.0088959816132839,-0.7246353396445618,0.6363835689357271,-3.9308427665608354,0.388384470910968,-0.10058762845915992,-1.1711346783281242,-1.5649286321808664,3,left
9.658999999999999,1.23163399942817,0.8832557697019594,-0.5896387497862929,0.6238063159556138,-3.949028012134126,0.3970989759801836,-0.08755844926818576,-1.1820334218286201,-1.6387607815287666,3,left
9.661,1.0036185292377942,0.7701341703330056,-0.4635707286921103,0.6467868448687794,-3.918499842097376,0.3809063195882666,-0.1194557687906674,-1.1552212885705377,-1.4573701701582291,3,left
9.664,0.7566797097606073,0.6810429435281984,-0.26357369440293554,0.6174326687133191,-3.9562771734683686,0.40171327560792697,-0.06660134200501569,-1.1996871088532424,-1.7581021407719881,3,left
9.665,0.601812220866252,0.6305541472393199,-0.11877305290710494,0.6418708726371898,-3.9253540528468736,0.3843347291666094,-0.13631330346064496,-1.1410302513021955,-1.3614420163883119,3,left
9.669,0.5645558050042279,0.6235068556735063,-0.0794105947000303,0.6412731022348672,-3.9256436659137552,0.3848150846079159,-0.42908268113372,-0.8948737400056307,0.303640913142858,3,left
9.67,0.4219996359363374,0.6288288822063025,0.09346723176408848,0.5945522901609677,-3.9856347705510156,0.41793122238035507,-0.4988074396495291,-0.8362022804558591,0.7003039962325167,3,left
9.671,0.2509166389965132,0.6583595342555411,0.3244274384304454,0.709270384637374,-3.839170825986486,0.3365167624326494,-0.44593962309231683,-0.8806918387769591,0.39957143545170315,3,left
9.673,0.09877734106813424,0.787399840029666,0.5580511755510749,0.5191222782662477,-4.081529479074818,0.47151761969025907,-0.47783006221817204,-0.8538575918165207,0.5809515812645716,3,left
9.674,-0.024218727033020568,0.8990346092397536,0.7356868326244959,0.7698914422771941,-3.762115900929525,0.2934423042788102,-0.4648501385126885,-0.8647619072481012,0.5071491160714443,3,left
9.679,-0.05260385879166659,0.9328690762562044,0.7753945022183246,1.8226175343188231,-2.421037282285025,-0.45393790956193186,-0.4646739982223063,-0.8649622984494016,0.5061198175374751,3,left
9.68,-0.1400777784410197,1.0681191961657401,0.9056188370341889,2.073354503452946,-2.101805442400594,-0.6320276394375808,-0.4714689927037779,-0.8591475845541687,0.5447891306359232,3,left
9.681000000000001,-0.24104517747355514,1.2623145721912006,1.0610297735415624,1.883256207195911,-2.3438276780797387,-0.4970098634034424,-0.46332812238406,-0.8661309319896762,0.498474594759776,3,left
9.684,-0.26355721892689365,1.4229101135870776,1.0938713651195822,1.9979344993525017,-2.197784084757357,-0.5784230789547332,-0.46966782931175943,-0.8606661075315296,0.5345358657060442,3,left
9.685,-0.26087599914753373,1.5948118988182483,1.0824730894791044,1.9512075125204393,-2.2574066528663743,-0.5453490100540113,-0.4662476347364357,-0.8635987137829781,0.5150854849825581,3,left
9.687999999999999,-0.19206650111024112,1.7369649099031284,1.0061135172243827,1.9506960915759854,-2.2578072917026555,-0.5447716828979592,-0.46703691076467757,-0.8630491777017599,0.519569950975228,3,left
9.689,-0.07042479295025285,1.8257114530833247,0.8793818037624452,1.9749519940840319,-2.2272709244275943,-0.5622944350711091,-0.4679233038184547,-0.8619389555978272,0.5246155577340774,3,left
9.693,0.06398034568322947,1.8579434134587718,0.7410054285882239,1.9458524126708312,-2.2639812320520925,-0.5413374252809782,-0.4663880424788045,-0.8638569823180435,0.5158813361424377,3,left
9.695,0.19467527760160597,1.8115655579594905,0.6099772430406529,1.9685874249312647,-2.235179656818464,-0.5576068130943987,-0.4678186298107233,-0.8618854162927005,0.5240182316618505,3,left
9.698,0.2922474834141401,1.693574328538401,0.5058819191027553,1.9561041366261924,-2.2513636809801136,-0.5489935435343787,-0.4668648424869496,-0.8632998122743227,0.5185942451942005,3,left
9.699,0.3565185343826175,1.5150432285889612,0.4208030449433414,1.9594822308930606,-2.2461317888305077,-0.550586758599487,-0.4672972967170499,-0.8629417258164056,0.5210535057897938,3,left
9.707,0.39320397646200045,1.3020720286140208,0.37421996625592296,1.9617704888483738,-2.2448200802621283,-0.5535978262867423,-0.4672328633865091,-0.8618597552758634,0.5206855217541568,3,left
9.708,0.41649251059991876,1.0827493009883202,0.36950734381244416,1.9573189622801213,-2.248523330150616,-0.5487366496658372,-0.46714232060505956,-0.864532039066671,0.5201748031075194,3,left
9.709,0.440056727021202,0.870403136187712,0.3941493088856845,1.9616635468825885,-2.244557431203443,-0.5531767682063012,-0.4672222177256581,-0.8605920213405935,0.5206226136365992,3,left
9.709,0.4691555403845403,0.6748741108049123,0.4353984060563123,1.9581043086234342,-2.2491031470382756,-0.5506614620058634,-0.4672103566932768,-0.8647304577351449,0.5205620123531405,3,left
9.716000000000001,0.5038603927871372,0.502494854652479,0.4757996793599681,1.9614246813489629,-2.241970489933623,-0.5505051231144554,-0.46721780439319616,-0.8623387440826736,0.520601175589082,3,left
9.717,0.5367334166960109,0.3551404778642466,0.5072284401879468,1.9573805683689174,-2.253758327627042,-0.553378821158165,-0.4670624193871553,-0.8604132571103742,0.5197119746967087,3,left
9.718,0.5578815340202846,0.2350440031022413,0.527642044951959,1.962564373389157,-2.2372543364324873,-0.5484886779490377,-0.46753350331642696,-0.8690161191457109,0.5224095411162946,3,left
9.718,0.5611370367018866,0.14314433008263686,0.5453571072831112,1.957197212093448,-2.254645751799139,-0.5538146317021031,-0.46666975635555785,-0.8530535871936384,0.5174654551952276,3,left
9.722999999999999,0.5486887512708145,0.07919586779017697,0.5619978455151029,1.960047376660984,-2.2449162435836176,-0.5505587495350281,-0.46779293322343485,-0.8735385795494637,0.5238914920873232,3,left
9.722999999999999,0.5191426157105753,0.04192943361554116,0.5816231373976113,1.9637449002908727,-2.2349506313837235,-0.5486341423084299,-0.46684816582621136,-0.8564423467518515,0.5184903538116379,3,left
9.727,0.4848228059694995,0.033706298398650233,0.5954216039888055,1.949595559008005,-2.2759788335398676,-0.5585028530362955,-0.4668589142010982,-0.8569183000809273,0.5185427963956456,3,left
9.728,0.45773385596164284,0.04881465431517505,0.5923596237980202,1.9754665998788523,-2.2003606327976715,-0.5399382397192101,-0.4687277450580676,-0.8894588719556012,0.5292478818735467,3,left
9.732000000000001,0.4531882236569742,0.07559720008657253,0.5710044607765499,1.9423326015929685,-2.297349910891622,-0.5638378998603957,-0.46414293818291386,-0.8094694976660881,0.5030029645035623,3,left
9.732000000000001,0.4928972878908907,0.11813298471463082,0.506903260993719,1.9699559887083513,-2.2164261119174795,-0.5438564989643715,-0.4717489754146331,-0.9420929374794127,0.5465299764149605,3,left
9.737,0.5383472315148126,0.15130567617180354,0.4474102817431612,1.9693477547465914,-2.2184420891488923,-0.5444996218065804,-0.46171020754184533,-0.7671680132623717,0.4890906854713411,3,left
9.738,0.5587638958262178,0.16134070079828916,0.4281431763152227,1.9162292063299766,-2.3733081860895613,-0.5822754253668424,-0.4195914636191568,-0.032930516593806136,0.24781953828465608,3,left
9.738,0.6204382323725567,0.18976275741899584,0.36214311897469764,2.046612844076116,-1.9928827755503598,-0.48929583492157447,-0.4095483272744683,0.1419898166090973,0.190345214428794,3,left
9.742,0.7628942048186829,0.23183556752303092,0.24942970346107113,1.8304899352685646,-2.623575617701637,-0.6435077917120645,-0.4171546306531704,0.009370756406923173,0.23391989583739733,3,left
9.742,0.8628886274044105,0.25158815101642984,0.1889006396458079,2.1155288154448484,-1.791722043119015,-0.44007807150620576,-0.4125874197338382,0.08936410106028986,0.20765480234277262,3,left
9.748,0.8944173719461577,0.2585775226096323,0.172519458450327,3.312282731047331,1.7003320499896841,0.41356508934023967,-0.41440800275261,0.056802761954143674,0.21830547318818122,3,left
9.749,1.0116698366102757,0.27458048880113095,0.1310594608769123,3.5972780621857856,2.532147082445057,0.6170429569455234,-0.41450080401123124,0.05636862573378953,0.21852263920686021,3,left
9.75,1.1792087224170165,0.29583521308949556,0.08381345685057487,3.3812310675569375,1.9015244654108423,0.4627501717623995,-0.41345580902770357,0.07340719564346504,0.21284717466723851,3,left
9.753,1.3127205805232087,0.31410172017779114,0.05903747088183249,3.5115306260169548,2.28186469947002,0.5558117335445609,-0.4146570338560612,0.05297675835644382,0.2195940364046014,3,left
9.753,1.4448919646137726,0.33772439615071637,0.031078317800787212,3.4584660664456655,2.127068575007255,0.5179988888863969,-0.4138000123214194,0.06892106983700763,0.2144230210612023,3,left
9.757,1.5541279231733123,0.3716146023053191,-0.0031464381909591384,3.457882151174389,2.125041199190181,0.5172952793078464,-0.41411098378645117,0.06025910712455325,0.21704903321374025,3,left
9.757,1.631154064889495,0.4155449354346109,-0.034525834729220224,3.485358194609054,2.205869927837372,0.5374756435959277,-0.4143112029915424,0.062353885320715986,0.21674113518818564,3,left
9.762,1.6816112760323425,0.4721172426506355,-0.056622322615781,3.45251142009554,2.109114493514892,0.5132376544325898,-0.4137968699832245,0.06446588593736187,0.21557959896436518,3,left
9.763,1.6950116503410435,0.5391005985916417,-0.06574542197717627,3.4779976108382824,2.184373340300591,0.5322086169075335,-0.4143287555619033,0.060657980452786635,0.21720386566060607,3,left
9.767000000000001,1.6777638326994078,0.6143867750142868,-0.06749435101113804,3.464202873694827,2.1437399030976945,0.5220304585772407,-0.41411954706167564,0.06435356923800581,0.21599296569457627,3,left
9.767999999999999,1.6304806894962933,0.6953328720430803,-0.06159273652934386,3.4677924117792194,2.153458394608262,0.5239197776694198,-0.4136938772361287,0.06163508400409593,0.2161932316764486,3,left
9.771,1.5576419840145088,0.7769449522598064,-0.04840910741161106,3.4702415614856488,2.163032166853026,0.5278222992525213,-0.41492914394843206,0.06327181248661926,0.21723920290297416,3,left
9.772,1.4647499064459155,0.8561515010375964,-0.029318940799859486,3.46598984154846,2.146449289164737,0.5210807798605162,-0.4129939229956109,0.06244160494584349,0.21514919430337315,3,left
9.776,1.3554182645514872,0.9281274557103738,-0.006283972769195327,3.4693535075218374,2.1613866082430446,0.528028366340397,-0.41509068873495303,0.06273689746182284,0.21757094045069397,3,left
9.777000000000001,1.2360060239718762,0.9901582477929445,0.019073266786090913,3.4674355287939336,2.1517069376478437,0.5230351812637456,-0.41385659452238166,0.06296179251865447,0.21604190531198678,3,left
9.781,1.116209273466216,1.0404444123608423,0.0465864135062724,3.469219794285147,2.156879509734305,0.5242768575747724,-0.4128629754466667,0.061925953216675586,0.21512710230127935,3,left
9.782,1.0042011029924478,1.0766352747797454,0.07328714082550233,3.465283574832025,2.1529624473523965,0.5281910793819842,-0.4173409513737236,0.06419053080525558,0.21987458733496607,3,left
9.786,0.9013178759059068,1.103402052355335,0.1004112147527405,3.473308794492893,2.159079291432965,0.5185523626477895,-0.40900604638646754,0.060527007796383835,0.21089479704555514,3,left
9.787,0.8119587780910138,1.1248625400107084,0.1321113462018802,3.461109783074348,2.149295362094243,0.5327711193669871,-0.4197192672122969,0.06503772165043066,0.22248819927970465,3,left
9.791,0.7393469863725504,1.140949992164058,0.16635986441010386,3.4744152219340343,2.1605993807486357,0.5178264062810752,-0.41077106734996316,0.06135400019415777,0.21278345923713599,3,left
9.792,0.6759944505042124,1.1541792903120014,0.20056477811387813,3.466727557680333,2.154076335599317,0.5264653844707312,-0.4110195292582226,0.06132691141043296,0.21308552443431278,3,left
9.796,0.6220016622678946,1.166424976303671,0.23540686811070444,3.459446115524548,2.146518685762394,0.5334333377979151,-0.4280650283529927,0.06868802128267738,0.2314852431349934,3,left
9.796,0.5803163998059554,1.1762759336713056,0.2743601297646231,3.4904735288376925,2.1770925225229325,0.5023139213484924,-0.38616076553919104,0.050779289670807935,0.1862051208752762,3,left
9.801,0.5386966721968112,1.183364979493899,0.3148535439253481,3.4329673217012306,2.120515085082993,0.5600602595042303,-0.45564242685161893,0.08040254923934478,0.2613012333489,3,left
9.802,0.5126550256773594,1.1869129365467563,0.33579294040862673,3.5068715232426397,2.1933268022814687,0.48594583813401965,-0.36399649903699827,0.04135614181126772,0.16224461942741014,3,left
9.806000000000001,0.5075580154174025,1.1880330610071148,0.3406504335500521,3.4451351621481736,2.1324625075185786,0.5478091974438812,0.02069720606963979,-0.12265729996296248,-0.25354601744013144,3,left
9.807,0.4813433840376509,1.1870339575235027,0.352467899309171,3.446765082900372,2.133915987404939,0.5460689513383683,0.11234104988562371,-0.16169672469873553,-0.35259921331933036,3,left
9.808,0.4436793548262796,1.1838900652762128,0.3605496410577246,3.564712801047726,2.2508175510655075,0.4283589173414602,0.042860807936492225,-0.13209556963461708,-0.27750201330190016,3,left
9.81,0.41422519207846276,1.178829304371385,0.361510519208896,3.2748064306254334,1.9636221830016656,0.7177458741013126,0.0847688872646713,-0.14995563919914676,-0.32280049293411317,3,left
9.811,0.3751870743018358,1.1648460289940759,0.3641239973651658,3.7555336376076647,2.4398350856153463,0.23790812205091233,0.0677098087675236,-0.14267571449223865,-0.3043535614371857,3,left
9.816,0.352409942705844,1.1532011045963289,0.3629546446495138,3.1213956031836307,1.8116484177457823,0.8708244900781017,0.067486489357301,-0.14259910128794984,-0.3041297345802504,3,left
9.817,0.34764662977569566,1.1492706413366713,0.36265896228648287,0.4599345845985895,-0.8255204888964383,3.527067178791998,0.0764019027068685,-0.14637468451868585,-0.31374098772830455,3,left
9.818,0.32549652878754753,1.1307278337078293,0.3694844784947179,-0.17430332931286086,-1.4538053442145555,4.160008240194429,0.06571725496083493,-0.14184347615620313,-0.3022173321540622,3,left
9.821,0.30440835422875295,1.1017844567963628,0.38384435047704046,0.3065448882972189,-0.977448442843694,3.6801530034370376,0.07404739912815331,-0.14538403399397593,-0.31121038206740287,3,left
9.822000000000001,0.30019902835387907,1.0743548912150527,0.4009227504611347,0.016633757134879718,-1.2647371766076496,3.969497099426788,0.06952744885880455,-0.1434407723285049,-0.306303106898144,3,left
9.826,0.3027427940716896,1.0447295660335543,0.4119731859815794,0.13431756565164532,-1.1479122184011339,3.851943100077845,0.07062627831167409,-0.14396407337528122,-0.30756077558188766,3,left
9.827,0.31432563248643014,1.0151204411829946,0.41566884982748264,0.13657848405962264,-1.1461096737716998,3.849912162625278,0.07169612268117673,-0.1443256627963031,-0.3085966091409487,3,left
9.83,0.33260743236701673,0.9854965836884855,0.41258316140980245,0.07388682986324942,-1.2076219648122777,3.912156256096581,0.06978284347928512,-0.14362565919479084,-0.3066765186263636,3,left
9.83,0.35691040499052745,0.9563775104624901,0.40672102261721166,0.14880547469321898,-1.1339807168972964,3.8377077455353823,0.07159880792114821,-0.1443077895281365,-0.30852141541958555,3,left
9.836,0.38816153226028716,0.9288167574597441,0.39876105015238217,0.09074424177155582,-1.1912582678142591,3.8955145898809875,0.07030024941615959,-0.1437535588831727,-0.307116773064355,3,left
9.838,0.42057608609119834,0.9032649008532831,0.3827645971501397,0.1211708689757702,-1.1606082426953617,3.8648748117248077,0.0710900077181832,-0.14426009695644815,-0.3081893022998211,3,left
9.84,0.45653161286437294,0.8803102647007869,0.3610638972800968,0.11628975459418706,-1.1670548748736032,3.8706292992757922,0.07057997767963092,-0.14365452186554503,-0.3071377726935737,3,left
9.841000000000001,0.49498094875391496,0.8571621398727367,0.3366169842111276,0.10420226875893943,-1.176262184201938,3.881170919069648,0.07103076656365412,-0.14442556469242362,-0.30837131565046305,3,left
9.844,0.5335416391443077,0.8348748032490942,0.3096276617052235,0.12318763147585321,-1.1608464687099522,3.8640910093644147,0.07060792813604104,-0.14362844149846488,-0.307118703153374,3,left
9.845,0.5760892629206098,0.8112453631393728,0.27975161328252257,0.106041789693123,-1.1751292272432228,3.879713625679967,0.07076110703222535,-0.144049862392828,-0.30774396020932454,3,left
9.849,0.6193038531118367,0.786818264149393,0.24872912022831822,0.11498614648608757,-1.1662428478636293,3.8707742357072754,0.07134471935517506,-0.1446065052661925,-0.3087710285668219,3,left
9.85,0.6647552110045689,0.7658493849651375,0.22459695947036,0.11802064765053263,-1.1682555638952499,3.8705079515520375,0.06952960415159506,-0.1424873226705322,-0.30507488850183184,3,left
9.855,0.7120615157654888,0.7444021711047406,0.205244140405616,0.10212664610033426,-1.1725333794700816,3.8800571840147806,0.07276247469973535,-0.1463597232059892,-0.3117853711660311,3,left
9.856,0.7552597299101983,0.7259218421901035,0.18556897834812836,0.12798375692908442,-1.1640251398518815,3.863670149486921,0.06864106537142403,-0.14140087967616527,-0.30320093084185923,3,left
9.859,0.797601331225853,0.7138006626372475,0.1668132513124507,0.1000192861677189,-1.173491401466537,3.8815379685424904,0.07206997779155175,-0.14553454476183186,-0.31035486675430113,3,left
9.86,0.839093131869217,0.7087348849548998,0.1473004007014503,0.11680950873114572,-1.1673961131854322,3.87058370707497,0.07202304282471457,-0.14544487482596524,-0.3102107698728938,3,left
9.863999999999999,0.8731795430745617,0.7117033812940257,0.12946544604685695,0.12815297148095064,-1.1652402035882115,3.8642621069852505,0.06533370762097254,-0.13749213204799932,-0.2964064589660651,3,left
9.865,0.899097326157124,0.719143959939438,0.11662774048743572,0.07338320059515294,-1.1797476679713519,3.8970380527733313,0.08172181123557767,-0.15701066276108566,-0.33027808107651035,3,left
9.869,0.9233075433628883,0.7399703574104264,0.10988721747131627,0.17588136586068592,-1.1519274044868606,3.835331803347967,0.05456261686926516,-0.12465810240210969,-0.27413138250383684,3,left
9.871,0.937812091355771,0.7603402582105176,0.11000303283493607,0.044057864156926474,-1.1878562628782998,3.9147737779705976,0.09038557833100043,-0.16732593667876672,-0.3481888281671619,3,left
9.875,0.9426665143419929,0.764829570801147,0.11011060472702909,0.15420008496124005,-1.1577765134282996,3.8483658332574002,0.2408117355808027,-0.3464765482701645,-0.6591081760909988,3,left
9.875,0.9503170066729596,0.7881329014056271,0.10685902016350657,0.15088417378299473,-1.1589128487240936,3.8504894509825633,0.27664364991852664,-0.3891351275350575,-0.7331756315101369,3,left
9.876,0.9540395271372857,0.82696686753986,0.10648003651210539,-0.05804797040530082,-1.2152147797442971,3.976050226340623,0.24947332417862067,-0.3567982548652715,-0.6770163809598787,3,left
9.881,0.9511179035286337,0.8562665991969136,0.10779871390682741,0.45588691150241695,-1.0764491868038275,3.667048742927424,0.2658628617753258,-0.3763004952180911,-0.7108899837502128,3,left
9.882,0.9348450466395367,0.8975452738134022,0.10548609851996063,-0.3963580103126247,-1.3066306558570777,4.179492380506023,0.25919510605683904,-0.3683559726930592,-0.6971090216898194,3,left
9.883,0.9172404900935871,0.9296954195606195,0.10376230309885323,0.7277763092404336,-1.0030098581848492,3.5035665159861087,0.25909469112896977,-0.3682762975752216,-0.6969062859050723,3,left
9.884,0.9114143448109278,0.9378488491928783,0.10506569534623998,5.445625360769443,0.2709194980459393,0.6669252783800887,0.26260592663687476,-0.3723734690794647,-0.704151024194587,3,left
9.885,0.8856496462761796,0.9661416355286425,0.1035350264645179,6.569754315659521,0.5745093302248809,-0.008974225666996682,0.2583954908312067,-0.3674786507586858,-0.6954677616823236,3,left
9.888,0.8427018401812891,1.004368029204187,0.09911882285813062,5.717515197403312,0.3443613548809826,0.5034408900448055,0.26167986672558546,-0.3712720122846572,-0.7022364873160246,3,left
9.889,0.7984433957900123,1.031104887314324,0.09577919175647814,6.231452289157063,0.4831397215464748,0.19442856499244493,0.25991103092831813,-0.369216324621915,-0.6985892522371342,3,left
9.894,0.7455983934092303,1.0589695087327051,0.09138685327264495,6.02250088706777,0.42672659399078877,0.3200839334478911,0.26029366706616625,-0.3697722374925011,-0.6993969331607894,3,left
9.895,0.6928393227360217,1.0835226279015377,0.08635472388028909,6.019226408476017,0.42582946840185,0.32200401467518674,0.2608225939580566,-0.3700792338629391,-0.7004353113226648,3,left
9.899,0.6386036078443759,1.1029880830399197,0.08641994011430121,6.129309225935471,0.4555662746420482,0.2558879060095295,0.25990734368866225,-0.3695453571118963,-0.6986384225062463,3,left
9.9,0.5833542557030303,1.1171943390071313,0.09387300171999939,5.997544874347151,0.4199788724298579,0.3350392653272162,0.26079741415215485,-0.3699231043595377,-0.7003615540322105,3,left
9.902999999999999,0.5361891275061981,1.1258193585149283,0.10587998410467936,6.100017523410581,0.44765188503162723,0.27345842496203254,0.26018380294653265,-0.36973617029341255,-0.6991862745048327,3,left
9.904,0.4935227837621791,1.1332535320704094,0.11931275549045246,6.045196945853869,0.43285102124968206,0.30648389340574944,0.2604049282422421,-0.3700043072894853,-0.6996441025989557,3,left
9.908999999999999,0.4567987493705772,1.134352641766128,0.1320452144756,6.05670404712939,0.435951729161686,0.2993584571566687,0.2606009462824657,-0.369228880659595,-0.6998767292008519,3,left
9.91,0.4253791837651135,1.1296624653192264,0.14266644555814845,6.0732123272364,0.44041927361119637,0.28978926982070596,0.26003078292038473,-0.3708554402878023,-0.6990926161271842,3,left
9.914,0.39422756676948173,1.124701687199145,0.153714430250508,6.045593856116913,0.4329504671984923,0.3059572230705732,0.26085303975135327,-0.36839517670496064,-0.7002037776184278,3,left
9.915,0.36816057486083,1.1168720318127399,0.16375508148757068,6.071175140958421,0.43986652987426234,0.29092545206340037,0.2600141193175287,-0.3710626612652096,-0.6990970414560945,3,left
9.918,0.3459968818401914,1.1068918734649758,0.16910075449585044,6.055278631499312,0.43557385620567113,0.30048665079333864,0.2604992466003717,-0.36952187912737255,-0.6997373322059692,3,left
9.919,0.32307733131365557,1.0972128588272245,0.17270836804720646,6.058825107252991,0.43651733459468434,0.2977056108957187,0.2608339937933093,-0.36809428073679235,-0.7001168079103062,3,left
9.923,0.30349535959626306,1.0841439628378242,0.17515541445955368,6.066599522159544,0.438649041634512,0.29451347611810297,0.25926097970830086,-0.37421342356943615,-0.6982328174829482,3,left
9.923,0.2865466931047325,1.0681742194711767,0.176660649232393,6.051198971472179,0.43444218108025284,0.30156195923832474,0.26218349243018935,-0.362871819461846,-0.70173774926877,3,left
9.927,0.27222098377441195,1.0518113943417071,0.17868079125710173,6.068323900140462,0.43911794818957617,0.29362247883922266,0.2584378107775613,-0.37744325324337036,-0.6972516106688417,3,left
9.927999999999999,0.2623595736965329,1.0321166890720768,0.18010573982372186,6.057311210882553,0.4361140496796585,0.29888248239114334,0.261561658191129,-0.3652744801128736,-0.7009902759988327,3,left
9.933,0.25629618364277895,1.00032442873951,0.18096736891343213,6.053357120449008,0.4350217079456714,0.3000848810029987,0.26146853583665375,-0.36559357626183664,-0.7008710608569106,3,left
9.934,0.2551699362573314,0.9649128710557389,0.17923513616430511,6.079727748787013,0.44225305483494004,0.2893689016436879,0.25554889758161037,-0.3888410669307727,-0.693819350283515,3,left
9.937000000000001,0.25554329441243406,0.934014522187383,0.17724400822599695,6.029187943167457,0.4283998139770547,0.3102261519366941,0.2701049430028243,-0.33170923012832054,-0.7111649778576181,3,left
9.937999999999999,0.2607221452687888,0.8915308968288262,0.17951991347235077,6.094449181242332,0.4462878392135229,0.28322343944248835,0.24597112239461028,-0.4264371944258444,-0.682406920366029,3,left
9.942,0.26746885199873727,0.863467565118582,0.18118081916936662,6.039819289195458,0.4313129415008312,0.3058563606341148,0.2778015221773025,-0.3014893155865857,-0.7203334228178127,3,left
9.942,0.2692225249331014,0.8559333763110524,0.18102827524475307,6.041863732899316,0.43187444827869675,0.30490001282960244,0.4113987929109121,0.22298908635573095,-0.8794694829492071,3,left
9.943,0.27814610069050727,0.8259874920638591,0.1848699873589661,6.144171131336669,0.45991814945004517,0.26287069633566207,0.44322846710590097,0.3479372076472442,-0.9173848882330495,3,left
9.947000000000001,0.2918815395912226,0.7908224203699246,0.1908204702540499,5.8920500286241975,0.3908040614434154,0.36657933929863684,0.41909415320201737,0.2532111840502532,-0.8886466983246735,3,left
9.948,0.30301005733885084,0.7641688870563337,0.1920065664515636,6.310242799477008,0.5054492006773077,0.19452008661314618,0.43365502511836385,0.31033511790070845,-0.905969047823957,3,left
9.952,0.31122460846735683,0.7444244606359572,0.19043798072671178,5.758645644848633,0.3542239236050744,0.42147561241236764,0.42772344796292416,0.2871045845291306,-0.898934915009162,3,left
9.953,0.3142501784284185,0.7422377453471234,0.19084035520140724,3.4441236391501744,-0.2803250183356893,1.3736354376180173,0.42764977774730806,0.2867597493626089,-0.8988162284243937,3,left
9.954,0.320331810895225,0.7356490005240375,0.18619181333621052,2.892629843365519,-0.4315497303270608,1.6005569939455508,0.4307507267240689,0.2989568238006187,-0.9025234331129556,3,left
9.956,0.325736923750745,0.729718231513395,0.17212683921934843,3.3106898891448493,-0.3168920377566337,1.4285276785115,0.42702161282436335,0.2843679525229754,-0.8981069732046667,3,left
9.959,0.3245246826783046,0.7397080927890909,0.15441693437121717,3.058600274474965,-0.38605298794286547,1.5322744402901343,0.4299485515580847,0.2956971310124574,-0.9015106249460756,3,left
9.96,0.32475902727490635,0.7554940395925235,0.13469415888864644,3.1611260173727826,-0.3579111276993077,1.4900734436170038,0.4283346439060335,0.28963892492213117,-0.8997308961826933,3,left
9.964,0.32628905599753766,0.7788495499765287,0.11290662278870392,3.1625987189831397,-0.35749659971475645,1.4894532385074006,0.4287552322836572,0.29094931836449933,-0.9000568244377081,3,left
9.965,0.32652464253068847,0.807862820247627,0.0885138862881952,3.108870212390878,-0.37231217962239826,1.511630819972408,0.4291185195468433,0.2926471273647099,-0.9006291050253037,3,left
9.969,0.3263122837203134,0.8362367683795757,0.05972499526610205,3.173131895630993,-0.3545185683543695,1.485048276508703,0.42840140975202634,0.2898346841249225,-0.8997760608057315,3,left
9.97,0.3248922630886167,0.8659844663974485,0.02937626234740246,3.123212736144177,-0.368450359775324,1.50578598861732,0.42916802941502696,0.29233908376242745,-0.9004306173563598,3,left
9.975,0.32156252036696387,0.8977433555761392,-0.0014058313068293542,3.150005341672826,-0.3608630510759261,1.494566892856802,0.4285017535133978,0.2908775452689324,-0.9002280656139954,3,left
9.975,0.3135277671197332,0.9285125944326694,-0.0318419825367579,3.143941337704579,-0.36262918456504223,1.497145163022327,0.4290206434757988,0.29119302271161673,-0.8999643159841264,3,left
9.981,0.2978339701653243,0.9578166896467304,-0.05424381679219066,3.1369901393113486,-0.3647404924762364,1.5001734267883984,0.4286767878642582,0.2916781692238778,-0.9004948044961085,3,left
9.982000000000001,0.27605020645206935,0.9873857788314909,-0.06612131289054002,3.1486783632306663,-0.36087526176698936,1.4948253558702511,0.4287685617967027,0.29097852583358896,-0.9000608937986103,3,left
9.982999999999999,0.25252263513272954,1.0131801849523252,-0.07366016501462158,3.138287476457289,-0.36486131813128386,1.500028075357596,0.4290728972458795,0.29125838305343255,-0.8999553132625409,3,left
9.984,0.22844287194487983,1.0324826282586108,-0.07983644026744993,3.144552682688592,-0.36174876078279505,1.4963127096069595,0.42821639406534817,0.2918974738539124,-0.9009840431343705,3,left
9.988,0.2052714446156475,1.0460107531936371,-0.08385096658961225,3.1423660410065297,-0.3634599357229269,1.4981191372683527,0.42966612119805475,0.29016888913085537,-0.8989109403414273,3,left
9.988999999999999,0.18799066486452015,1.0493804124377624,-0.08542544017004128,3.1423921914509534,-0.3634627287129993,1.4981163674103901,0.42786625742358897,0.292629575998643,-0.9016464814868375,3,left
9.994,0.1749363745193162,1.0434917913942505,-0.08687727173115736,3.1419551113288273,-0.36151999796043194,1.496613976455265,0.42934228426449134,0.2904722542707293,-0.8993308490332164,3,left
9.995,0.16648597888843436,1.0312055565955849,-0.08729723585225421,3.1448532841136094,-0.36543872094429375,1.4992661233200981,0.4293258151261328,0.29061971043346346,-0.8994219459023467,3,left
9.999,0.165964518719303,1.0132433756869943,-0.0851152701743384,3.138965942526035,-0.36002161999873716,1.4959527246679145,0.4264674343739021,0.2945683581356436,-0.9037840357934068,3,left
10.0,0.17025208319848126,0.9927774592201787,-0.07437315924478302,3.1461561258671225,-0.36554554464409084,1.4991091802880026,0.4334506759438991,0.2847034523530235,-0.8930112216018791,3,left
10.003,0.17976188361501497,0.9665875730175237,-0.04863357679988005,3.1417090505588874,-0.3624342903065613,1.4974049865121657,0.4218928735556542,0.30113606061038034,-0.9108984917393737,3,left
10.004,0.18663284622650383,0.9488690697271455,-0.030678484371637997,3.137755794278813,-0.3597844260088249,1.495987666480206,0.4371266362760049,0.27942456920596265,-0.8872914023366985,3,left
10.009,0.18864324108608138,0.9444875508523591,-0.027384475058337906,3.1554120586043437,-0.3712826028042248,1.50204967423561,0.5010755254151682,0.1882797225257914,-0.788211813792762,3,left
10.01,0.19364469418380104,0.9298684734503695,-0.01709634233072778,3.122331132551806,-0.35005224958270165,1.490944163843615,0.5163006495169162,0.16654942251788862,-0.7645921253700619,3,left
10.01,0.19318476692258935,0.9132661794171583,-0.006208690383508832,3.1650425180386934,-0.37724827653621273,1.5051102432158334,0.5047597503314378,0.1830247775522664,-0.7825031395904326,3,left
10.013,0.18850171068693902,0.9030776600742692,-0.0007613348724028102,3.1292809842565243,-0.3545731414081273,1.493322948572796,0.5117197802887501,0.1730882801281402,-0.771699690102485,3,left
10.013,0.18087482926161835,0.8957797154661185,0.0034750635264615614,3.1302408640078827,-0.355186838573771,1.4936537198046547,0.5088855781213169,0.17713297573596518,-0.77609040956228,3,left
10.017999999999999,0.16697320161609763,0.8981520845666483,0.004542889821583275,3.1986306086413547,-0.3983744805624062,1.5160269411557716,0.5088539499438046,0.17718303186159326,-0.7761692394812476,3,left
10.019,0.15564645792347512,0.9019915736943102,0.0007632619035277384,3.030469148713848,-0.29224751493630396,1.461047958715806,0.510322198379679,0.17507789094802026,-0.7738316991355338,3,left
10.023,0.14149683260560275,0.9095041604109675,-0.010364584629116224,3.3093579849295374,-0.46818886003142385,1.5521879362922286,0.5085669441709344,0.17759586996284027,-0.7766383894281443,3,left
10.023,0.1303016442834214,0.91818419844903,-0.01724962689317938,2.9414518810879198,-0.23613997216944838,1.4319884331462585,0.5099289703027633,0.17563969724500156,-0.7744429786164319,3,left
10.024,0.12791680531751154,0.9205812257428805,-0.019378265375893808,1.3971596248471,0.7379429702320522,0.927706184901649,0.5091918879695925,0.1766970229461038,-0.7756216960304371,3,left
10.027000000000001,0.11501027037606094,0.9315329510509887,-0.028447360027016824,1.0292147846282143,0.9699834704113539,0.8075318286786355,0.5093828977279077,0.1764338525466547,-0.7753961184546849,3,left
10.029,0.0953355067177873,0.9491580625647507,-0.03776567539750075,1.3081534442172726,0.7940456544600345,0.8986095528569453,0.5095158637944602,0.1762132076662669,-0.7749627838530126,3,left
10.033,0.07766662127678614,0.9662125925905621,-0.0470267445429024,1.139979895774066,0.9001957149432904,0.8437443566158889,0.5092851194640208,0.1765956759889996,-0.7757115720968624,3,left
10.033,0.05630180135400879,0.983669363559684,-0.062441881535706824,1.2082884021945222,0.8569374735438305,0.8659519133729353,0.5094692382367474,0.17626776727388416,-0.7749465068068053,3,left
10.037,0.036375932341556394,0.9960346036739913,-0.07858289341362393,1.20946168141839,0.8564486264099103,0.8664681657117144,0.5093632421297651,0.17647095258694973,-0.7754931089738596,3,left
10.038,0.019527281416398735,1.0021802258521888,-0.08962656543219116,1.1733632624494361,0.8789664096243588,0.854551809322935,0.509458527990221,0.17633530004338416,-0.7753486545637785,3,left
10.043,0.0048566637331243535,1.0010242745154034,-0.09691265713609108,1.2164487413569467,0.8519000232208171,0.8686754260146974,0.5092548349206342,0.17653011348128997,-0.774955635616507,3,left
10.043,-0.005624823582563514,0.9948938599264368,-0.10409874726961663,1.1831346505859772,0.8731246616747478,0.8579057522701015,0.5096684822107034,0.17615904496061735,-0.7759343199725228,3,left
10.047,-0.01678098153064942,0.9870134640842895,-0.10755931975677288,1.2006350508261292,0.8613994482748667,0.86327257605026,0.5090393100495787,0.176729783183678,-0.7744929444046371,3,left
10.048,-0.025813028542029406,0.9740396241033702,-0.10108883732619814,1.19746825905445,0.8645815562465843,0.8628359743797975,0.5097260564002941,0.17609857706369253,-0.7760047490235792,3,left
10.052999999999999,-0.030527044940698467,0.9578256465498314,-0.08357358452509568,1.1915047943896966,0.8668888157118902,0.860156461620791,0.5093293444658685,0.17646296574581835,-0.7751308283857941,3,left
10.054,-0.03611583364098314,0.9407293411189626,-0.059146976015531386,1.2007269164064795,0.8622313990821773,0.8637511701873504,0.5089521631126264,0.17682796086758965,-0.7744329285144669,3,left
10.057,-0.039705588904342434,0.9236606015405389,-0.03463950907866652,1.1929648602354441,0.8671374492555486,0.8612217168888252,0.5105575183242361,0.1752966364601779,-0.7775593820010813,3,left
10.058,-0.042113941172512034,0.9083192675886465,-0.011592993014753687,1.196431570782068,0.8627999077181108,0.8612719734710801,0.5075824304513094,0.17813302208514242,-0.7717574314431177,3,left
10.062000000000001,-0.04603504874302298,0.8934455968211494,0.008070158609388091,1.1981332215565468,0.8666422132953855,0.8642996100545649,0.511405753003494,0.17448696680857106,-0.7792032226792831,3,left
10.062999999999999,-0.05065180494535462,0.8815040308343163,0.017500431012311093,1.192205546567183,0.8630479644639169,0.8586763301357092,0.5082121878398298,0.17753250116507072,-0.7729886504105701,3,left
10.067,-0.055389491884883096,0.8730813383564391,0.01647191304071214,1.1997642666169126,0.8660972392135285,0.8650756992322255,0.5082956418655005,0.17745604731475229,-0.7731638658482896,3,left
10.067,-0.0591211631620334,0.8662634650474765,0.013426624182604107,1.1945663010910161,0.8648599293340988,0.8611067367728884,0.5143992738741082,0.1716245672000387,-0.7849862313955753,3,left
10.072000000000001,-0.05907923106108083,0.8633670122947638,0.015183512410251548,1.192667625202146,0.8621624392155856,0.85852931871144,0.4993985695919827,0.18595223620951112,-0.7559213699477096,3,left
10.073,-0.050516903022689394,0.8624479601361077,0.018328856624359617,1.205739872217314,0.8709591005382301,0.8713660863931589,0.5242719436703351,0.16219703122389734,-0.8041139001125447,3,left
10.077,-0.04391924621319285,0.8613626665785259,0.018511318092587596,1.1803733772375866,0.8553565080932761,0.8471925589014995,0.4914617819289563,0.19353004552527137,-0.740547211446515,3,left
10.078,-0.04139211812188447,0.8613197168030571,0.018296026331409643,1.2133482110519809,0.8751347688662905,0.8783647946343076,0.35373959432234947,0.3250703474245682,-0.473753988941723,3,left
10.078,-0.029434879217369363,0.8608038557978346,0.014067941669819378,1.1856522341976525,0.858731172503401,0.8522851508698686,0.320924476778898,0.3564019467330851,-0.41018297777363627,3,left
10.082,-0.010119125107087075,0.861957499249888,0.0019874634345605174,1.1866555053153567,0.8590082773848141,0.8530762149066715,0.34580559740298433,0.3326489535723177,-0.4583822644479659,3,left
10.083,0.0071960794159457355,0.8669963330519121,-0.008281710420316928,1.2387886380766866,0.8907305141744855,0.9025779328848653,0.3307984857746998,0.3469747930981215,-0.4293118148293817,3,left
10.086,0.022331765076307818,0.87225990248377,-0.015259354025760757,1.1102912362226665,0.8130025273376815,0.7807862791878273,0.33690174549844965,0.341143206774993,-0.4411338548760026,3,left
10.087,0.04452676639642087,0.8787261726868123,-0.026049042152925188,1.3234734781715485,0.9417879336090992,0.9827677054403925,0.3369976339669321,0.3410703031081751,-0.4413199169358607,3,left
10.094,0.05999114843950873,0.8845913218680191,-0.03176747342068398,1.042251552182421,0.77195376778147,0.716339944506549,0.33377692617501686,0.3441080877728037,-0.43508166932699865,3,left
10.095,0.06520210798471367,0.8858770274823407,-0.03309849308002265,-0.13815947938877193,0.05894580977177266,-0.40194056399819655,0.33763891201178364,0.3404730716541557,-0.4425611838063758,3,left
10.096,0.08463265248871607,0.8900258012334699,-0.041093861161242806,-0.41936280350312305,-0.11088267126303918,-0.6683685752374222,0.33462553486867747,0.3432985247551711,-0.43672583761658235,3,left
10.097000000000001,0.10666506083024903,0.8979779178515321,-0.04770087992614621,-0.20617007433682305,0.017877282477284696,-0.4663768858488811,0.3362474789847574,0.3417719371773985,-0.43986675723719454,3,left
10.097000000000001,0.12324016120571835,0.9060414481521679,-0.05271763008187183,-0.33478356360772954,-0.059784675572538665,-0.5882038296152236,0.3359025104150546,0.34214612916457016,-0.4391969590850067,3,left
10.101,0.1411914760470011,0.9163471040413111,-0.06324015049396568,-0.2823601261356383,-0.02818298411648573,-0.538630043707025,0.3354016782814091,0.34248078999620896,-0.43823221663793777,3,left
10.103,0.15170465245252357,0.9274734581663104,-0.07488925853896233,-0.2818321407652372,-0.027740672014687582,-0.5379452970830989,0.33626782159553026,0.3419008049949713,-0.4399004995113911,3,left
10.106,0.15779104885562753,0.941041915878505,-0.0879758419776687,-0.308966218635658,-0.04430575551501857,-0.5639115296697874,0.335418540996131,0.3424086975687385,-0.4382671415046613,3,left
10.107000000000001,0.16268298110721552,0.9565757113629345,-0.10011175237107306,-0.27640157218181705,-0.024460851859765084,-0.5328034802460195,0.3360076360343674,0.3420877240539769,-0.43939884514469496,3,left
10.111,0.16477286273369313,0.9714206189240377,-0.10380363079029467,-0.30186840977405704,-0.03991733963693489,-0.5570398347588739,0.33580549190630704,0.342282977700412,-0.43900719858505144,3,left
10.111,0.16435221019819707,0.9852817852173893,-0.10020669401724905,-0.2878048944712147,-0.03158082355804079,-0.5439393650318161,0.3355753126842518,0.34205440072932425,-0.4385788358828618,3,left
10.116,0.16394151059773815,0.9928551776016046,-0.09463552917033177,-0.2917973339567308,-0.03348923171862243,-0.5470073952748551,0.3362130803820604,0.3424699441892642,-0.4397741959777117,3,left
10.117,0.16581156185036983,0.997493904959162,-0.08718745202210115,-0.29401180378081315,-0.03569263261450552,-0.5503347369710884,0.33528767541528187,0.34182524216278654,-0.4380413648886663,3,left
10.121,0.16707903511333366,1.002941926417694,-0.07642301592115469,-0.2894516944866802,-0.031875678026741586,-0.5445064279510371,0.3362396474026949,0.3425454082509437,-0.4398217220637759,3,left
10.121,0.168835351766552,1.0041089837389445,-0.0657087259115143,-0.29397917756687947,-0.035457473399736844,-0.5499977175511263,0.33568934082003515,0.3421296566743605,-0.43879249962742917,3,left
10.127,0.16734123995217332,1.003630448309015,-0.056160866699155945,-0.2899846410528838,-0.0330528749527214,-0.5462245680366937,0.3352910446641776,0.34169826023427874,-0.43805278041666107,3,left
10.128,0.16258731413308353,1.0042942038569862,-0.04852245471515178,-0.29434854385614606,-0.034114559098770494,-0.5481270764260628,0.33713238356480435,0.34349172551239215,-0.44148062119232095,3,left
10.13,0.15774335115213947,1.0051552130244334,-0.044371486024279094,-0.28834955154156905,-0.034088088289270936,-0.5475433359023758,0.33371298991345644,0.34017044082194814,-0.4351146198017919,3,left
10.131,0.14837729532288244,1.004874979617167,-0.042855228533941206,-0.29634713672081836,-0.033552659866164035,-0.5475127572147418,0.33809701314937524,0.3444411774808811,-0.44327610865515404,3,left
10.138,0.13916227756063795,1.003183086599165,-0.04356609889580844,-0.287999011737323,-0.03423067390864627,-0.5477131361862319,0.33444034580376203,0.34087300301486567,-0.4364687914590899,3,left
10.139,0.1279690014770556,1.002067475027474,-0.04162534241956352,-0.2925421960137664,-0.033669620925636856,-0.547332349328819,0.33454632836603493,0.34096189257211346,-0.4366669874519894,3,left
10.141,0.11291754498957357,1.0004176879597018,-0.03880287535094143,-0.29784648336373476,-0.03402400575762696,-0.5483170954703777,0.3414870314675144,0.3477984564077492,-0.4495846384285874,3,left
10.142000000000001,0.10251093204419309,1.0012846841774832,-0.03898241431808293,-0.2769049728516423,-0.03384519242887597,-0.5461563458724485,0.3244236270220201,0.3310008588031167,-0.4178261297282024,3,left
10.145,0.09180995847098625,1.0040078789316378,-0.0344503973633596,-0.3153302950283082,-0.033928725503577464,-0.5497758383633974,0.35271337111482526,0.35885257757265915,-0.4704795687347576,3,left
10.145,0.08359231774228654,1.0035515630191083,-0.029115390977609717,-0.2660835293345133,-0.033877704008840284,-0.5452149081869275,0.31540285989232764,0.3221144739061782,-0.40103619517536504,3,left
10.146,0.08230660276356196,1.0032412655696397,-0.028803382688941954,-0.30715798695373714,-0.03389671365190308,-0.5489879233239422,0.1587955500916171,0.16788627433105535,-0.10956102030622059,3,left
10.151,0.07812654699424218,1.0054515732624842,-0.02845844126446516,-0.3061936948598085,-0.03398504578770632,-0.54901967091549,0.12149048069506155,0.1311454479534004,-0.04012723889414163,3,left
10.152000000000001,0.07141035103749382,1.0095048243495213,-0.030173748119438362,-0.2273931429518515,-0.0336595206054862,-0.5413849450854153,0.14977284745874475,0.1590015354736536,-0.09276741395886218,3,left
10.155,0.06641600891376978,1.0143723916013707,-0.03516691629057275,-0.4208979921230315,-0.034352959297607816,-0.5599934994121578,0.13271248003415997,0.14220001811105176,-0.06101517994635727,3,left
10.155,0.0628522879614582,1.0232277582654583,-0.04293842379791655,-0.1001075282493725,-0.03323276931119122,-0.5291788871656842,0.1396618356187837,0.14903720116403674,-0.07394618281182704,3,left
10.16,0.06172580037973777,1.0326602846524726,-0.04907685211738895,-0.5232205540190461,-0.03470572070793693,-0.5698214341651097,0.13974193430759518,0.14913170010915722,-0.07410157220460212,3,left
10.161,0.06180851304458828,1.0347661679495628,-0.04937137402576608,-2.299573408476011,-0.04109064009799039,-0.7405732733530193,0.1361281973904078,0.14554992512174797,-0.06736690262737019,3,left
10.162,0.060592650080770624,1.0412030078344983,-0.054758572264103286,-2.7227096939648368,-0.04257756407974843,-0.7812317994717133,0.14046220299966838,0.14984114764840276,-0.0754419695137093,3,left
10.164,0.060315638098208973,1.0526639694088282,-0.0638393847120294,-2.401876828207965,-0.0414320792614496,-0.7504044600716483,0.13707788797015097,0.14649813083350743,-0.06913940529723123,3,left
10.165,0.0610141544089581,1.0588403710000516,-0.06684439086389914,-2.59543315789996,-0.04215581697700828,-0.7689902831747881,0.13893107595321025,0.14830371426293976,-0.07258120426090162,3,left
10.17,0.06080121371200855,1.0642865693186003,-0.06672143938235178,-2.516590218160099,-0.0418061198860188,-0.7614462114296086,0.13844110819707578,0.14788438975068108,-0.0716928713150789,3,left
10.171,0.06471109132278594,1.0627325608014144,-0.06289019740328575,-2.51563304414577,-0.04189681223555873,-0.7613051564502737,0.13807912429688557,0.14741882823057395,-0.0709785499795425,3,left
10.174,0.07421042359115204,1.0532041131646852,-0.054158376326554736,-2.5567646149538477,-0.04195218707170105,-0.7653081209196053,0.1387677350111593,0.14823092272780602,-0.07230998169778177,3,left
10.175,0.08776102383524888,1.0470524368205172,-0.03890403291092798,-2.507376888786272,-0.041815302982634035,-0.7605404611212686,0.13810044606715924,0.1474669342485252,-0.07102834022140136,3,left
10.18,0.1038397976388506,1.0385248299945737,-0.017771847071221196,-2.54601918015006,-0.042028083043121375,-0.7642078326974904,0.1386296933216098,0.14798727563247474,-0.07201302763381029,3,left
10.18,0.12054556219036688,1.0272951452795658,-0.0015209708913036224,-2.5248389138014966,-0.04171055304295508,-0.7623198173737289,0.1381747024422151,0.14773725511684582,-0.0712398072690581,3,left
10.184,0.13868916876700044,1.020540242686316,0.00555119751418349,-2.5302933063578337,-0.042146291419975654,-0.7625898142763778,0.1386874218396006,0.14778942018041308,-0.07202585599451312,3,left
10.185,0.1569873199884087,1.0139662034264105,0.0035233097233638403,-2.53492926959303,-0.04165256047743673,-0.7633475752440966,0.13804875504950007,0.14783599403785608,-0.07108813894893021,3,left
10.19,0.17776614012707354,1.0078462469169873,-0.005428350126669755,-2.5260940532185066,-0.0420275768834243,-0.7622494377295954,0.13870609875627515,0.14776312433518066,-0.07204403406153162,3,left
10.191,0.20171385591841917,1.0026720289857867,-0.013146566333888072,-2.5350376264566616,-0.04206298621201144,-0.7631065269842976,0.13836338394125866,0.14784189740046833,-0.07156079303798196,3,left
10.193,0.22683260153021298,0.9950510013695328,-0.020754361660403852,-2.527763115299268,-0.04128348134366788,-0.762870468036535,0.13788413256069382,0.14772835936172038,-0.07080200703743927,3,left
10.195,0.25859656109075124,0.9857732854160347,-0.028614420627510677,-2.5333174408991797,-0.04302529443456056,-0.7623461197056639,0.1396807165288401,0.14792810935026166,-0.07356269034513715,3,left
10.199,0.2963213098615488,0.9740071981886372,-0.028535172191567273,-2.5289302634633737,-0.040440891164148514,-0.763503121015457,0.1364031858639524,0.14761146183685037,-0.06854402854929376,3,left
10.2,0.3325950639488264,0.9630269521329718,-0.021970724479969422,-2.532180117547589,-0.0431906700142978,-0.7621325339003764,0.14059958906162925,0.1480057629277753,-0.07496562148655217,3,left
10.205,0.36595603432720003,0.9529058272850471,-0.014608700913150377,-2.531259478522071,-0.04160543292017072,-0.7630164575020506,0.13710102846925537,0.147681870783613,-0.06961362677065702,3,left
10.206,0.39373041163854444,0.9432512881761415,-0.00869177107832391,-2.5274902468168774,-0.04022787469054104,-0.7634925064362865,0.13717709932777647,0.14767096791787238,-0.06972352222780916,3,left
10.209,0.4129536316740863,0.9400719942051532,-0.005648032092841473,-2.5384959834852596,-0.046236153263525155,-0.7608814985645886,0.14390950879182857,0.14835224616519777,-0.08004364301624095,3,left
10.21,0.42515551586290823,0.9430383394555227,-0.004870370633533983,-2.519383565299897,-0.03509881875071062,-0.7658483892211423,0.12738377298940656,0.14670168917461596,-0.05471902780840853,3,left
10.214,0.4287073529349388,0.955334549306593,-0.0047344746323622,-2.5434561568090426,-0.04939758484396267,-0.7594255794991673,0.15477886077560155,0.14943141096654156,-0.0966980712794569,3,left
10.214,0.4274822618920664,0.9664146063742091,-0.003176937083994866,-2.5235586931358496,-0.03746159941550491,-0.7648068856149619,0.11864501326797164,0.14583235085909618,-0.041328470774859606,3,left
10.215,0.4257266130033266,0.9700754205161184,-0.0043411764073936245,-2.523788138349289,-0.03778214672987705,-0.7646314267847037,-0.03304428264195561,0.13066847039725948,0.19112708737054385,3,left
10.219,0.4202712651040643,0.9833800501518425,-0.012558967650104613,-2.5625494891203777,-0.06054796561955532,-0.7544494707391546,-0.06918021889746785,0.1270659069364955,0.246500909002125,3,left
10.22,0.4125542672477473,1.0013003560404,-0.030006754949389057,-2.467728724567116,-0.004596852025268567,-0.7795189207122161,-0.041784023468139364,0.12980327761648275,0.20451829305491664,3,left
10.224,0.40261838827754204,1.0210059212139209,-0.054119867848306,-2.624772305714205,-0.09736354614542031,-0.7379357797243338,-0.058304818480587634,0.1281404953632091,0.22983764872596404,3,left
10.226,0.396065486179106,1.0373707665026544,-0.06627609930315011,-2.4177004586418533,0.024992817553252927,-0.7927904261876901,-0.05158831923768928,0.1288373760859864,0.21953993916254166,3,left
10.228,0.3938147631102284,1.0413149159133956,-0.06815787936223654,-1.5481948669602976,0.538608295000822,-1.0230090057720211,-0.05148363657057222,0.12881172549115566,0.21938667467492284,3,left
10.229,0.3889014350314992,1.0531106627294853,-0.07216350147009643,-1.3411459300684143,0.6609610559933867,-1.077866236219875,-0.055018720427566364,0.12849390873701855,0.22479696757988876,3,left
10.23,0.3866149899135065,1.0682230315109176,-0.06369821137165477,-1.4981295161903008,0.5681983877282111,-1.036276913484113,-0.05079156891960991,0.12890098363775707,0.21832217353336852,3,left
10.232999999999999,0.3809950303378342,1.073689172202092,-0.044428438127917635,-1.4034240308810144,0.6241505305655932,-1.0613572936276614,-0.05407192849898612,0.1285438697471621,0.22335478117532773,3,left
10.232999999999999,0.3696886556687083,1.081171600287664,-0.028686390398504943,-1.4420105086354629,0.6013727164208211,-1.0511598854952213,-0.05232580102322587,0.12881319460450935,0.22066054217076614,3,left
10.238,0.35845504046005405,1.089368858799828,-0.01578661695887345,-1.442444460508836,0.6010786026421855,-1.0510011555444279,-0.05268389772123558,0.12861410285416053,0.22124100772373023,3,left
10.238999999999999,0.33946025310244243,1.0948620271014375,-0.00815753023817085,-1.4223912843756392,0.6129761879791572,-1.0563717005115907,-0.05321187493686439,0.12876162137897468,0.22201122605803142,3,left
10.244000000000002,0.31667836028150675,1.100473587670154,-0.006321172523438159,-1.446447172226053,0.5987162846149883,-1.049943087829458,-0.0523521181417799,0.12868793367451925,0.22072467266075427,3,left
10.245,0.29276489112174975,1.105397372922719,-0.010721033918426697,-1.427660914121649,0.6098356913698341,-1.054943157128286,-0.05311487910905799,0.12861032442642906,0.22189383035704027,3,left
10.248,0.2657892164782556,1.1083350539194061,-0.021356988665154546,-1.4379460521858825,0.6037967120080292,-1.0522664504327162,-0.05268909774389462,0.12894880432721312,0.22118392664947964,3,left
10.248,0.24182008771217484,1.1063371152111796,-0.02974102711796611,-1.43523368698943,0.6052777611907214,-1.0528325336429298,-0.052716867037307075,0.12826976735623588,0.22135767740397816,3,left
10.252,0.22122050526748038,1.0992658202779761,-0.03405624538153687,-1.4332098405179328,0.6066820702627647,-1.0536303593958705,-0.053008344768378575,0.12924944286565038,0.22160866179887276,3,left
10.253,0.20801468987756627,1.087875614616733,-0.03488440902543638,-1.4370512351499007,0.60415710614539,-1.0522921160501573,-0.05257581278093586,0.1282173350906053,0.22115439679987642,3,left
10.258,0.20117529931244071,1.0712322918483144,-0.029325224317420597,-1.4333315427934812,0.6065581364922763,-1.0535328815149052,-0.05290738742776444,0.12880541882696722,0.22154207481687888,3,left
10.258,0.19682909239355545,1.0514998688859196,-0.01999674865691587,-1.4362691691843934,0.6048242206541697,-1.0527570506037685,-0.05293934919913956,0.12933804400250154,0.22148702525840208,3,left
10.263,0.19939534757906152,1.0308497978258502,-0.008988424833135826,-1.4337734534824125,0.6059221481271855,-1.0529442685586257,-0.05233113580644487,0.12705450688354686,0.2210098136093111,3,left
10.264000000000001,0.2088940344559923,1.0117951166969834,0.003325180524479567,-1.4365508962008908,0.6051417562891818,-1.0532913345016044,-0.053569693793714304,0.1312779981835221,0.22206451418976395,3,left
10.267999999999999,0.22500530833724458,0.997080546502326,0.017649183524870167,-1.4331083148937687,0.6058919656232495,-1.0525880111225625,-0.05193950514061396,0.12585910445739645,0.2206490178326458,3,left
10.267999999999999,0.24353887879435826,0.9861225554542848,0.03418155266337576,-1.4366476948858713,0.6051692721334923,-1.0533722975461441,-0.05331721127299244,0.13038096503397412,0.2218566778751807,3,left
10.272,0.2679440436586518,0.9772825269107797,0.04509442955948194,-1.4348085062444302,0.6054651847660637,-1.052864587391014,-0.05325420821367402,0.13026212847501872,0.2217839512615466,3,left
10.273,0.29850844157075496,0.9688286274059867,0.041593205252469595,-1.432203095494767,0.6063230971956914,-1.0526972265928976,-0.050695663651329444,0.12163065479956407,0.21958762412757943,3,left
10.277999999999999,0.32747890882217656,0.9630141944023981,0.027700773981482765,-1.4419363526662035,0.6035550456443046,-1.0538720543967344,-0.05702128897889437,0.1428400623554598,0.2250439698100637,3,left
10.279000000000002,0.36704865688936555,0.9616080985139059,0.017946175219003442,-1.4241868264128463,0.6085105355986035,-1.0516135396263597,-0.04651933934132991,0.10767678945761569,0.21597501460074242,3,left
10.282,0.3952597720100943,0.9605110863681319,0.016069953879031127,-1.4469111305053275,0.6021871178823546,-1.0545314115233158,-0.060376097968044724,0.15405497076845562,0.2279451678112253,3,left
10.283,0.40252196639525867,0.9613009076895321,0.0175539936466532,-1.4279660677046473,0.607450483599153,-1.0520882995821288,-0.11852403943359713,0.3487457910395715,0.27815453407574975,3,left
10.283,0.4311118986908282,0.9671807284291246,0.013639706067828047,-1.4283762574241265,0.6073690925346313,-1.0521819762751665,-0.13238103070725993,0.3951214577033489,0.29012667799587133,3,left
10.287,0.4647154733220617,0.9720369071562013,-0.0005328471179785114,-1.4648395215678613,0.5971316115633928,-1.056749843154842,-0.12187582307492552,0.3599612060229016,0.2810509615242621,3,left
10.288,0.485318836383934,0.9760516422588466,-0.018606480359754013,-1.3753358720528444,0.6222230741374886,-1.0454903913305724,-0.1282120010142083,0.38117058384115526,0.28652280773349287,3,left
10.293,0.5066525338811549,0.9865163245075483,-0.045673618441715594,-1.5237093683989469,0.5806373818029809,-1.0641670360738535,-0.12563233879767652,0.3725322799746371,0.2842999803845232,3,left
10.294,0.5136120986581754,0.9946335634978288,-0.06512797223098958,-1.3280031458635775,0.6354891995738361,-1.0395325188326268,-0.1256001073848885,0.3724296055271018,0.28426179570378013,3,left
10.297,0.5139693433605131,0.9972348717110802,-0.0709748295407873,-0.5064044636072242,0.8658069678792264,-0.9361660346119216,-0.12694543469267816,0.3769271191462382,0.28543792464138595,3,left
10.298,0.5174790660141884,1.0079716353542265,-0.09670043959398134,-0.31067246603163257,0.9206716258924352,-0.9115362957042644,-0.12533282242158822,0.37153393605326,0.28403134926622076,3,left
10.299000000000001,0.5120234948849145,1.0236314110580476,-0.1284032827486687,-0.459079781444719,0.8790696845154333,-0.9302071847357726,-0.12659103100612812,0.37574361112049093,0.28512394025845056,3,left
10.302,0.5026446523157069,1.0393440547493253,-0.14696117744820958,-0.36956572636480345,0.9041642110337293,-0.918947841812317,-0.1259049699146934,0.37344426942259745,0.2845428900796484,3,left
10.302999999999999,0.4913633915161189,1.0581844239806393,-0.15389181974443628,-0.40597980483138085,0.8939556027408564,-0.9235285794258148,-0.12607973868269157,0.3740385981826603,0.2846568703240116,3,left
10.306,0.4753874573253945,1.074456120797052,-0.14171692026633542,-0.40652476299895834,0.8938005914291016,-0.9235917050422098,-0.12622654338003558,0.37451423684074625,0.2848472399325138,3,left
10.307,0.45544709109222753,1.0870153182057987,-0.1299481404146746,-0.3873632997271495,0.8991787186028467,-0.921194685422944,-0.12595567362948812,0.37362663488684167,0.28453535427625753,3,left
10.311,0.4290301748615526,1.098039749953434,-0.12679576067427162,-0.41033203643085137,0.8927295239424711,-0.9240638005588042,-0.12621553018417153,0.37448138025568484,0.28482189366193056,3,left
10.312000000000001,0.39974012764485944,1.1069414978196228,-0.12305514358386964,-0.39242329310412827,0.8977606377775964,-0.9218316317205457,-0.12601907695572906,0.3738236165267126,0.2846527491790011,3,left
10.315999999999999,0.36980810617436954,1.1149685662961928,-0.11303584056068999,-0.4020705093216746,0.8950513865821434,-0.923036095378829,-0.12616579162461344,0.37434256942319705,0.28466433964891186,3,left
10.317,0.3410613993829358,1.1225116303752927,-0.08619266759246247,-0.399955323124626,0.8956352409153164,-0.9227522270660337,-0.12602622577934136,0.3738119312683562,0.28480690582630375,3,left
10.321,0.31758682585387427,1.1300317482755666,-0.052300811884826416,-0.39715051987099115,0.8964514131913254,-0.9224572080577367,-0.12618759043798686,0.3744465785481796,0.28455375903532765,3,left
10.322000000000001,0.29885465085040125,1.139988620890128,-0.020684381243428997,-0.402003348838156,0.8950392206563578,-0.9229677884861446,-0.1260242573986281,0.3737992854895733,0.2848311360753891,3,left
10.328,0.287866864863089,1.1508328736457376,0.011825776663402687,-0.3973218683247658,0.8964153123231502,-0.9225016144975888,-0.12610490832245672,0.3741270954786963,0.28465897449851807,3,left
10.329,0.28451537243585645,1.1572184470776041,0.03944809490178916,-0.4005295908138059,0.8954651696666881,-0.9228072087597675,-0.12624253999384705,0.37463842793247315,0.2845695320187978,3,left
10.33,0.2843392380815899,1.1619229988793447,0.05294813164361044,-0.399320712097456,0.8958037664001464,-0.922654308872835,-0.12575158140858547,0.3727750863122995,0.28505746240804597,3,left
10.331,0.2863051878808026,1.167172159310125,0.04994316687776794,-0.39851667152732606,0.8961233231305372,-0.9227348493199434,-0.12664207176875608,0.3761630223142887,0.2841352013716263,3,left
10.337,0.29074356504826315,1.1681991714142343,0.04627883687698148,-0.40102129082430094,0.8952057121163339,-0.922634609110928,-0.1255029795192138,0.3718280038290651,0.2853233008427487,3,left
10.338,0.30059349716379147,1.1670238268707274,0.0529846379791355,-0.3974397136722051,0.8965314380468485,-0.92280370322092,-0.1264523997928969,0.3754408073931726,0.28432988690131183,3,left
10.34,0.31332314057906885,1.1641117143925506,0.06302148274220817,-0.4010521982716315,0.8951755585366412,-0.9225975336742211,-0.12643306310619848,0.37536691333351374,0.2843627270390843,3,left
10.341,0.32247009877650984,1.1575589072836612,0.07067882629702157,-0.39896271755151763,0.8959599993183649,-0.9227164414641778,-0.12460127923194844,0.36839993388259995,0.28623733349527436,3,left
10.347000000000001,0.3313528355843668,1.1492589929832946,0.07910839608437241,-0.3976173860867671,0.8965071784507022,-0.9228761283968219,-0.1290965953020752,0.38549550500787017,0.28162286430243166,3,left
10.347999999999999,0.3452743500366926,1.1362861582519566,0.10134415178270818,-0.40409525822404824,0.8939444315436007,-0.922251144867813,-0.12164441493999922,0.35715786230748703,0.2892755433313562,3,left
10.350999999999999,0.35459699207405104,1.1260301097106318,0.1212765955299729,-0.39205270365236167,0.8987063811312828,-0.9234066465635228,-0.13147430026405943,0.39453417779132627,0.27918168385537556,3,left
10.352,0.3557068467097928,1.1242375056007796,0.1260983979577633,-0.40747802752271034,0.8926013088922067,-0.9219180117110769,-0.17272547027080282,0.5514648571189205,0.23681808177773714,3,left
10.353,0.3594660482631147,1.1189452689356028,0.13895750599818885,-0.39461755369525586,0.8976949636157343,-0.9231631989756965,-0.1825555350647668,0.5888445715015416,0.22672488333506857,3,left
10.356,0.3561075524242033,1.1169201519505414,0.1448299588866127,-0.39501331530991135,0.8975396776541931,-0.9231349774586868,-0.17510564780147697,0.5605019196153098,0.23437725685836802,3,left
10.357000000000001,0.342046065541704,1.126659474004116,0.1386112692543522,-0.41933174365058695,0.8878941856817355,-0.9207362656964606,-0.17959208003250535,0.5776008093855722,0.229761064524716,3,left
10.36,0.330311080551972,1.142607527923383,0.1282002276277283,-0.359524299119549,0.9116194774150279,-0.9266285085605337,-0.17777910289963586,0.5706363030538424,0.23164103499307068,3,left
10.360999999999999,0.31470824211778836,1.1671699819640464,0.08654078472371673,-0.45868379624301003,0.8722777140839113,-0.9168577338711656,-0.177731434874674,0.5705505908213544,0.23166433238272804,3,left
10.366,0.30222690906771255,1.1829076882030451,0.049104811437095816,-0.3279050809021373,0.924169865807856,-0.9297473652861091,-0.17871176214115492,0.5741855407682616,0.23068300070511852,3,left
10.367,0.29963705262689055,1.1882700575214922,0.04264997561693441,0.22091023724351375,1.1418318882796594,-0.9838520269159972,-0.1775540271453793,0.5698219719332407,0.23186106743428925,3,left
10.368,0.2919494776953463,1.2087458520277896,0.030731004715896158,0.3516700643996862,1.1937143711391647,-0.9967434608694279,-0.1784300288482069,0.5732342918712575,0.23093942388950564,3,left
10.37,0.284347667872064,1.2320765363170159,0.01903175985768779,0.2525413671153037,1.1544010607019477,-0.9869714048638296,-0.17800699955358473,0.5713676661963687,0.23144452156688106,3,left
10.370999999999999,0.28099232525382556,1.249634029409152,0.010751312663882788,0.31231987430039637,1.178066603642284,-0.9928605366818912,-0.17801513536806973,0.571841749967247,0.23131449132301762,3,left
10.375,0.2733271704495066,1.2677283815477396,0.0007219190570571625,0.28800933899321646,1.1685177916015337,-0.9904731786061644,-0.1782682022597433,0.572260893744014,0.23120391134751447,3,left
10.375,0.26194684245206046,1.281028148475724,-0.003174015312346758,0.2876471542265363,1.1682422566615696,-0.9904237913208932,-0.1779471299568753,0.5714726731733082,0.23141458359619033,3,left
10.38,0.24587760207529483,1.2938879544560602,-0.01729242623325307,0.30041900585268944,1.1734380540375289,-0.9916967136630059,-0.17815378004402177,0.5722627627157724,0.23120136213756126,3,left
10.380999999999998,0.2238821264798473,1.3035220092241773,-0.035766301670773264,0.28513249662002427,1.1673190433362186,-0.9901837232059277,-0.17819989684833354,0.5716343036620297,0.23137480242956446,3,left
10.385,0.1994014645660243,1.3075078510608988,-0.05078244086615977,0.2970212526325639,1.1719240124863124,-0.9913436756976797,-0.17783746455343669,0.5720924178780653,0.2312422799406279,3,left
10.386,0.17804051532431583,1.3104361154696607,-0.08174535967309618,0.29064056145474554,1.1697488152117963,-0.9907535649955043,-0.17846866011098517,0.571753557185168,0.23134715021636323,3,left
10.39,0.1642191719359161,1.3107854990393872,-0.12686534773864933,0.2920450819262288,1.169693724567733,-0.99082493380185,-0.1777626934589423,0.5719885734337475,0.23126919475546714,3,left
10.390999999999998,0.15780357168876744,1.3120307533072497,-0.17422559085644906,0.2938212856401372,1.1711490857251143,-0.9910823781126625,-0.17819276300732909,0.571937592050151,0.23129173635437175,3,left
10.394,0.15759642579995914,1.3158518483661004,-0.216937005975373,0.29081760847500526,1.1693593827926931,-0.990720683972276,-0.17849459268225398,0.5716299750173186,0.23138111791756216,3,left
10.395,0.1646856206412996,1.3193114511859716,-0.24822218766714127,0.2935787568408218,1.170448948186945,-0.990992096235554,-0.17704657162623644,0.5724895550770355,0.2311187375993877,3,left
10.399000000000001,0.17782694659030113,1.3273494950038869,-0.2702813691941081,0.2918380032973591,1.1708692179636024,-0.9909427021258018,-0.1797619019221418,0.5710108051954117,0.23157526129196793,3,left
10.4,0.18961730270069638,1.3458610384083025,-0.28469581694321455,0.29239564877233504,1.168552673505245,-0.9907187320962088,-0.17626457485325409,0.5728675061791277,0.23099936756130687,3,left
10.404000000000002,0.2001131103747579,1.366504846151667,-0.29620255828138764,0.29276842151538285,1.1724858847643587,-0.9911713332708629,-0.17918870341162935,0.571336042402484,0.23147664992086908,3,left
10.405999999999999,0.2079299320418782,1.3944023035432673,-0.3152381220944722,0.29193002847511673,1.1681186577609637,-0.9906457378862693,-0.1791029430123165,0.5713479714697705,0.23146823839525188,3,left
10.408,0.20686985398862454,1.4321783665588983,-0.3368981336024114,0.292710517128994,1.1707585005497871,-0.9909779726985414,-0.17354494577927002,0.5743459064199874,0.23054535733944875,3,left
10.409,0.19968300855110255,1.4690803020350207,-0.3501761731894616,0.29246272576731547,1.1726720041215422,-0.991175647837991,-0.18721510331199157,0.5670217306882102,0.23280891555778177,3,left
10.415999999999999,0.1809917941527527,1.521769002597913,-0.35642472125410046,0.2918484212655359,1.163630200977905,-0.9901473182244362,-0.1645462590726775,0.5791464101678492,0.22905515421824793,3,left
10.417,0.16331279341645627,1.5619563088580295,-0.3595301211514822,0.29338959525172903,1.1805551154293341,-0.9920922495266612,-0.19444689975363222,0.5631643926177607,0.23401014962025884,3,left
10.419,0.15939424136736324,1.5729786173889457,-0.3599262124703229,0.2912649432920136,1.1587674198876774,-0.9895821723852064,-0.31995367448891754,0.49603191916811956,0.2547861079220356,3,left
10.42,0.1425867355362387,1.6101310023150053,-0.3540333451786516,0.29310161641394455,1.1769783154632698,-0.9916815623239431,-0.34985242423578333,0.4800638554056078,0.25975439836571257,3,left
10.421,0.11769528089277405,1.6550710174835594,-0.34138737589648505,0.29295361897174255,1.1764542330950187,-0.9916202894851007,-0.3271858319767669,0.492164046586793,0.2559805767031611,3,left
10.423,0.10161061914963142,1.6782423336747523,-0.3304734755335101,0.2897114497554525,1.141814722160026,-0.9876306375832399,-0.34085603756459304,0.4848673928453051,0.2582587684468914,3,left
10.424000000000001,0.08636951042545585,1.69456665177171,-0.32926497237060837,0.29782550225484206,1.2269951463235045,-0.997439719051083,-0.3352927590484215,0.48784682965993875,0.2573421547613688,3,left
10.427999999999999,0.08123173461857425,1.694505037073771,-0.34097907976434716,0.284312618780344,1.0857532683704407,-0.9811798513235076,-0.3352193675338757,0.4878527460802185,0.25729256870092976,3,left
10.43,0.08312639894829912,1.6899285270643427,-0.35133450367632113,0.3021649335407339,1.272043502514087,-1.0026168886122424,-0.33812495644012575,0.4863665830005402,0.25785105636019046,3,left
10.433,0.08370073959559467,1.688143595408441,-0.3547934724683813,0.3770256709692822,2.053969110350157,-1.0925932581947027,-0.3346470970218721,0.48813235582572584,0.2571666057402038,3,left
10.434000000000001,0.09108054444305227,1.6795009671800136,-0.36341674123700296,0.3949159808672369,2.2402123543619235,-1.1139919841338868,-0.33735215869657087,0.48677792545740284,0.25772139859841203,3,left
10.434000000000001,0.10071404729532474,1.6720072310734264,-0.36019254973721826,0.3813271439872993,2.099050182443661,-1.0977990575591536,-0.3358917274808385,0.4875195227583097,0.2574337265135075,3,left
10.437999999999999,0.10508258883064844,1.665774626643659,-0.33516455496981434,0.3895489839596786,2.1841476996746847,-1.107533615134817,-0.3362409403966362,0.4872546739559829,0.2574007144010224,3,left
10.439,0.10167960887304575,1.6640373267013868,-0.30338001889803323,0.38618872859799436,2.1495503297279654,-1.1035926065900492,-0.336585165716476,0.4873214619066818,0.2577498589071401,3,left
10.444,0.08684692386022054,1.6675879024098172,-0.27079287012150227,0.38612482057547354,2.149076394890722,-1.1035510257416319,-0.3359890052274552,0.4872086496091081,0.2571482343771485,3,left
10.445,0.054583682668571894,1.672666350097495,-0.24041659138715926,0.3879770250747451,2.1671026415141816,-1.10552261699227,-0.336526018942345,0.4874507523727942,0.25785404861628136,3,left
10.448,0.003107329536371573,1.685292424378881,-0.2094560428327361,0.38566689833789347,2.145639662628601,-1.103264175930084,-0.3361780028446346,0.4872150863314853,0.2573046986543985,3,left
10.45,-0.0577404135134761,1.6981331787569909,-0.17428654040225106,0.38760381842902597,2.1621629000709337,-1.1048695513931202,-0.3363639530146406,0.4871118549566416,0.25733123530014257,3,left
10.453,-0.12383433419411943,1.7092196796684047,-0.13527037589348195,0.386421262433564,2.153445019987532,-1.1041574080134775,-0.336223261334452,0.4879695908369258,0.25821992252387527,3,left
10.454,-0.19272561656904472,1.723956101009549,-0.1027740844046714,0.3867524474553301,2.155351925754234,-1.1042521608558054,-0.3364428287461587,0.4860640857570538,0.25617196639082795,3,left
10.458,-0.2523734750232456,1.7359072842668137,-0.08821837450960822,0.3872457191832595,2.157414677586197,-1.104242074005512,-0.33609165774362953,0.4889192714363995,0.25922337346131796,3,left
10.46,-0.2992442305388165,1.7473493963733744,-0.07579726854356592,0.38600559722766187,2.154380310056073,-1.104688220713172,-0.33649735045567064,0.4858589300447658,0.2559755164240277,3,left
10.462,-0.33464438408721053,1.759750262644144,-0.05029416715608455,0.3878250420472573,2.1563183314588485,-1.1035424585666462,-0.3362633908283151,0.4876268254478465,0.25785254054273915,3,left
10.463,-0.35426207820130795,1.7685240508062474,-0.013274740196045865,0.38580316078278565,2.156129779058776,-1.10519950003241,-0.33599171106632003,0.48918859153488686,0.2594579042151026,3,left
10.468,-0.3615150121903964,1.77586955681263,0.030732133643220243,0.3873239235832995,2.155331985863553,-1.103769890218044,-0.33708980153299706,0.48240297123076276,0.2524147483406247,3,left
10.47,-0.3594358929749152,1.7778455773812114,0.07794310726626866,0.38733547481308145,2.155309492551542,-1.103755081368476,-0.3350581813807962,0.4949840615367493,0.2654780957403955,3,left
10.472999999999999,-0.34431534365928035,1.7678638833964855,0.12646563241449205,0.38466078232352263,2.158307629705374,-1.106582709666904,-0.337672337169698,0.47882674774872336,0.24870404188458473,3,left
10.474,-0.32015207490027353,1.748139531512934,0.16508575735977907,0.3907125131929167,2.1508144083094907,-1.1000476636814285,-0.33548776401436003,0.4923163337047898,0.2627090144798655,3,left
10.477,-0.2852647434353449,1.7126215343535642,0.1934363525225615,0.38173437828743007,2.1625213916042805,-1.1098570095125124,-0.3355384085768365,0.49195690311713647,0.26232491520037715,3,left
10.478,-0.24276106895118396,1.66511651152726,0.2102806876776258,0.3912765712733594,2.1497322812659205,-1.0993651018059625,-0.339738037312167,0.46621395348569444,0.2356347906433125,3,left
10.482999999999999,-0.20164940104059814,1.6197652483489013,0.21629723866465994,0.385770905886329,2.1572215303596503,-1.105437796437394,-0.3294236470067087,0.5294805799609092,0.3012441444418467,3,left
10.484000000000002,-0.15715914795112718,1.570872237918477,0.23908208311029988,0.3810340570690196,2.1637150976777724,-1.1106799949788755,-0.34652441891036706,0.42458364626771994,0.19245599089613522,3,left
10.487,-0.130754012055104,1.5389231773328715,0.261596089383488,0.40176436260463577,2.1351703915387796,-1.0877296792029967,-0.3239679192228053,0.5629413712815301,0.3359504306932391,3,left
10.487,-0.12464351014807795,1.530855092985277,0.2695732345832139,0.3633260562179901,2.188223232172265,-1.1303018999382348,-0.22923295730866988,1.1437580769718214,0.938149993472706,3,left
10.488,-0.10110281782590516,1.5083871798092203,0.2968961390603261,0.4126799538051747,2.120019186572902,-1.0756304866586976,-0.20667230457486774,1.2821191928489837,1.0816397663617616,3,left
10.492,-0.0692319263267173,1.4797405979130378,0.3367495572841104,0.37147285250117346,2.1769984833255824,-1.1212732336495241,-0.2237835340082741,1.1772113722160285,0.9728713995736596,3,left
10.493,-0.04022678355977986,1.4740625009207347,0.36639849981933986,0.3726061023365597,2.175449236793189,-1.1200469345985695,-0.21344972729026507,1.2405021705913417,1.0384304732735115,3,left
10.495999999999999,-0.007497411515600728,1.4789913622169457,0.3911082462255425,0.4511300285994461,2.066757606015031,-1.0329862019322604,-0.21767800320737335,1.2147186810676407,1.0118312161517862,3,left
10.497,0.021220910457597605,1.4895719444962068,0.40670856762725127,0.2580959173335401,2.3339500480946422,-1.24695645978254,-0.21769610515846352,1.2144112641606575,1.0113234983332449,3,left
10.501,0.05128073386284103,1.533633045173327,0.3848882223856557,0.578175900860557,1.8908967296647632,-0.8921927600334819,-0.21553489723168923,1.227854465053881,1.025448155546313,3,left
10.503,0.07157928050545093,1.574482678672703,0.35572065616103177,0.15597651986743882,2.475309222062788,-1.3601176310536462,-0.21815488317302745,1.2117081265279976,1.0086268176439055,3,left
10.504000000000001,0.0755083141404157,1.5876881649659589,0.34294386474288596,-1.615678246059434,4.928087643172314,-3.324481274319223,-0.21606671467605004,1.2243498736373901,1.0215770575835539,3,left
10.507,0.08144328398142783,1.6464902444176526,0.28326723478973725,-2.0378571356823905,5.512502494884676,-3.792416844987597,-0.21728430425129125,1.217404148469936,1.014882142958244,3,left
10.508,0.08160663445292082,1.737145992943626,0.18842814650577414,-1.7178659833095022,5.06948101531229,-3.4376095311150516,-0.2168418780079856,1.2192224310683266,1.0158949792106196,3,left
10.511,0.06784062697490478,1.8141789737833585,0.10095481936342314,-1.9106724122217824,5.3365506709148995,-3.651688864866804,-0.2167805246718318,1.2206955031838342,1.0184924841907588,3,left
10.512,0.050902290382312025,1.894125079979566,0.017495896561207452,-1.832561717709878,5.22811864256815,-3.5644325845342615,-0.21710352011994477,1.2178406897622145,1.0146795330980134,3,left
10.515999999999998,0.03381167466220146,1.9586554186495628,-0.037275789644612214,-1.8308645410905986,5.226178600799775,-3.5634707399598096,-0.216625355710448,1.2207655329168814,1.0177046589209429,3,left
10.517000000000001,0.01675264903610565,1.9972565005963774,-0.06129610795616467,-1.8726198455158816,5.28358390049596,-3.608859441320622,-0.21728793993131662,1.218323025308011,1.0167542528828595,3,left
10.522,0.002571386163417866,2.016137568602623,-0.06579230122025959,-1.8230452576329768,5.215123416365633,-3.554284707181343,-0.21636392707468305,1.2202849901201849,1.015172938939144,3,left
10.523,-0.009950683268432021,2.0127822456677325,-0.053069116518618537,-1.860974893468545,5.2679753685004505,-3.5971054512671676,-0.2175346057426418,1.21863305247314,1.018853880122417,3,left
10.526,-0.021635998230447283,1.9922013202745918,-0.03892449197054182,-1.841825613392341,5.24036870856557,-3.573403336173692,-0.2163625507280223,1.21992732700267,1.0144460287887735,3,left
10.527000000000001,-0.029915282922748265,1.953967540404919,-0.031218221683970232,-1.843863476782769,5.245075569257018,-3.5799167365194413,-0.216989056040582,1.219492719887528,1.0173176471852585,3,left
10.530999999999999,-0.031059175695352815,1.9054028617479197,-0.03924024540394783,-1.8526605211560423,5.254942192806656,-3.584452284999708,-0.21768673924835863,1.2181442441637085,1.0187832882158327,3,left
10.530999999999999,-0.023717993617314078,1.8592094160455905,-0.06218411344776266,-1.8405224121671113,5.239980280682476,-3.575153124103338,-0.21492390312886084,1.2222488360158237,1.0105057085484748,3,left
10.537,-0.010023188412112905,1.8170824280019202,-0.08646322975356929,-1.8494134699444609,5.252306416986926,-3.585048038836203,-0.21997931699398193,1.215061913430237,1.0262973038300043,3,left
10.538,0.013300218955491733,1.7812365279297664,-0.11269953287395561,-1.8483264440966112,5.247381984552218,-3.576127398157591,-0.2135120086783076,1.2241363290125529,1.005860504010541,3,left
10.540999999999999,0.04279697732750824,1.7578971480791525,-0.13567924192265862,-1.8397698817261479,5.24334903681423,-3.5842714543984115,-0.2189019093445761,1.2166267844010994,1.02299086623258,3,left
10.542,0.08685499702602353,1.74137182984605,-0.14316775553802627,-1.8564226255747212,5.2547492571586805,-3.5764336343262344,-0.2187695082015411,1.2167267422722148,1.0224199902951003,3,left
10.546,0.1442788755920701,1.7284211158305842,-0.1425535537285,-1.8372482590309813,5.240626006293368,-3.583210843545503,-0.20845538127498614,1.231319569020209,0.9900398362879623,3,left
10.548,0.2004367623590974,1.7190850554089443,-0.13445861789710972,-1.8492802762112897,5.250108189450159,-3.580353590343627,-0.23378848015729142,1.1956040152760044,1.0697839440601253,3,left
10.550999999999998,0.28313384498556426,1.699556391191353,-0.10786613892986059,-1.8566888833322963,5.254172483383739,-3.5745992962954762,-0.19178927823116432,1.2547612855426518,0.9375013865551461,3,left
10.552,0.34445616832783205,1.684836986407818,-0.08862431217825278,-1.8187993269177087,5.228802881998904,-3.5937101366628172,-0.24718802873931608,1.1767601402365755,1.112009666659707,3,left
10.555,0.35936501950203414,1.6807913975901005,-0.0852797944241814,-1.8903560536765227,5.277643464736817,-3.5597045722103244,-0.47970823454280154,0.849234396606211,1.8443843418277392,3,left
10.556,0.42360997067625394,1.6561062945062464,-0.05909388100113812,-1.7980104681600153,5.214282339193581,-3.6028506731619308,-0.5351200347832925,0.7712554134867314,2.018916778697819,3,left
10.557,0.509531840218465,1.6239032510927445,-0.018002049968640185,-1.875298183052209,5.267455270682472,-3.567051346292055,-0.4931020498052659,0.8303681353087569,1.8865861889039957,3,left
10.56,0.5804986455034238,1.5922256329058833,0.022993702551253777,-1.8729115731659098,5.265588351009012,-3.567677350713628,-0.5184462991123657,0.7947163228389974,1.9663979133497436,3,left
10.561,0.664837302384435,1.553367977518169,0.07184379979898509,-1.726325969563953,5.165333745388294,-3.6368497639832604,-0.5081449480259634,0.8092384774247916,1.9339445639217407,3,left
10.565,0.7356354256452042,1.5250238033135324,0.11539679599675934,-2.087036098980806,5.4123707214470445,-3.467332594215905,-0.5079623047495807,0.8093901457357501,1.9334243596062959,3,left
10.565999999999999,0.8047045516774827,1.495934557163825,0.16406640205150608,-1.4888113043330695,5.00252993989066,-3.7482051613072844,-0.5134424598459946,0.8018868010192624,1.950567589587626,3,left
10.572000000000001,0.8493177930182807,1.4752878413999766,0.20076164320138337,-2.2779104593131847,5.543205786894122,-3.377814729670657,-0.5068625199541015,0.810854685608488,1.9300111504192787,3,left
10.573,0.8573725525308181,1.4711182758038863,0.20717204943158793,-5.590000072236117,7.812282211476625,-1.8227756278607425,-0.5120087945339514,0.8039000931766719,1.946052744185355,3,left
10.574000000000002,0.8896730559517184,1.4505696898779705,0.23065434780284114,-6.379068897911926,8.353011790105713,-1.452428338158017,-0.5092452876127331,0.8076667287357594,1.9374207844031002,3,left
10.575,0.9217399597415443,1.426670605742704,0.2632186033982987,-5.78086129526124,7.943045183320491,-1.733199966806215,-0.5097776041561362,0.806668136000588,1.9392415962703229,3,left
10.575,0.9280690042107531,1.408155583600228,0.28230268976251327,-6.141639239811514,8.190299812790508,-1.5638572406615365,-0.5107841266465281,0.8060500455564754,1.9419476503420698,3,left
10.581,0.9309842011306876,1.3804144995115557,0.3089212958288217,-5.994830709459811,8.089743747866002,-1.632788254197063,-0.5090447605243152,0.8071241600172516,1.9372689468638113,3,left
10.582,0.9304715405923892,1.3547046127436504,0.33780002194695713,-5.992847544715616,8.088195235500194,-1.6336689535370081,-0.5108184386962331,0.8063130080334107,1.9418739575125636,3,left
10.584000000000001,0.9279278784760394,1.32904373507922,0.3713716603653876,-6.069617812954235,8.141176015973283,-1.5977163751167611,-0.5095529936517991,0.8067510270690745,1.9386707633444777,3,left
10.585,0.9231962869521446,1.2983092290305833,0.4127892534963222,-5.977711292352577,8.077675992197538,-1.6407503594147588,-0.5098919112581601,0.8062614907187111,1.9397451298580854,3,left
10.589,0.9223689572333165,1.262772904299617,0.45252741066558744,-6.049220068099025,8.127189760270761,-1.6072847595517137,-0.5107829580790944,0.8075007631070609,1.9410996042074102,3,left
10.589,0.9222095516256319,1.2207189362374806,0.49227661401227724,-6.010627458001592,8.100526333105918,-1.6253591250543953,-0.5085579388947958,0.8049351325280405,1.9374100867949917,3,left
10.594000000000001,0.9166769770503929,1.1789310616250468,0.5276993467924797,-6.019739855492942,8.106327381477676,-1.6209948829195517,-0.5118333821838658,0.8088238738724605,1.942775729043125,3,left
10.595999999999998,0.9145456598828581,1.1360341004031527,0.5602719335718789,-6.029154705550779,8.114197132521436,-1.616848784864617,-0.5083998987238872,0.8045969560204203,1.9372394103731143,3,left
10.599,0.9076823325360914,1.0930901445624874,0.5914067248473065,-6.012853803012835,8.100587160014264,-1.6240329106327827,-0.5103843662305847,0.8070376417135575,1.9404398531288805,3,left
10.6,0.8909890551220532,1.053883562781879,0.6151891539703533,-6.027721678441296,8.113767663287245,-1.6176257894816113,-0.5119660393862919,0.809325559711766,1.9427934466245,3,left
10.605,0.8670185251028808,1.01650175864597,0.6340752523831845,-6.017983624815404,8.10471004242427,-1.621742067369043,-0.5048769648407229,0.7995526228123775,1.9319693844164074,3,left
10.606,0.8333297506905466,0.9836383332814507,0.6511974564343267,-6.022884322819429,8.10804591198034,-1.6194362321202167,-0.5180319753465239,0.8176628829127854,1.952067795675416,3,left
10.61,0.7904007814423707,0.9567655519290095,0.6682781738119177,-6.020202485675835,8.110635467173486,-1.6215415704987501,-0.5011510494397,0.7943954189970581,1.9262952524602825,3,left
10.610999999999999,0.7443970136873861,0.936875836381789,0.6913236255884674,-6.02364377911462,8.102877654419476,-1.6179943803694306,-0.5152391607389211,0.8138240195193738,1.9477944982589488,3,left
10.615,0.6945985913709383,0.915465654682403,0.724952703302109,-6.017884305501902,8.114021224423627,-1.623577961156872,-0.5148443678690515,0.813324633271725,1.947173589191589,3,left
10.616,0.6404141983200902,0.8913187311136781,0.7563511977802138,-6.024853923656141,8.102711555824552,-1.617238210498027,-0.4880388576493563,0.7761786592419665,1.9063520906907703,3,left
10.619000000000002,0.5938933848694639,0.8711520399302575,0.7794444778622001,-6.020833903449432,8.109249638346217,-1.6208948355894321,-0.5539335936633727,0.8674502017783838,2.0067114047948476,3,left
10.62,0.5412051938686739,0.8413905374141407,0.808778106544068,-6.01553629052877,8.113634615874172,-1.6249168189856245,-0.4446782725715509,0.7161259748653245,1.8403191861688288,3,left
10.624,0.501737230671292,0.81928953014834,0.8282531054693998,-6.036353905803512,8.092831275880389,-1.608446678344598,-0.5887820075099783,0.9157193135830537,2.0597753805084915,3,left
10.626,0.49111642096736813,0.8150084469254038,0.8310196634635023,-5.99786064828306,8.131484891472194,-1.638928825999166,-1.1936194535358713,1.7537780748748593,2.980928956309472,3,left
10.627,0.45331820958549174,0.7914343297738704,0.8444787252070111,-6.047445567816285,8.081963766448766,-1.599723108563662,-1.3377178048878227,1.9533868476936747,3.200372014039039,3,left
10.629000000000001,0.4058981746313428,0.758145521910536,0.8558639397774201,-6.005972190064228,8.123247536213311,-1.6324769208934904,-1.2284713862153802,1.8020145022302585,3.0339904618417077,3,left
10.630999999999998,0.37127463265227645,0.7317475303659481,0.8580740103372702,-6.006920366501147,8.122024575105852,-1.6317041577673694,-1.2943574361524952,1.8933909836945348,3.134367743510213,3,left
10.634,0.3267625646949369,0.7029989611868523,0.8642939205383272,-6.086780109376306,8.043804059105437,-1.5688057722187043,-1.2675550791075594,1.8560709657901748,3.093473201480185,3,left
10.634,0.29249497774926986,0.6760124897043823,0.8707345140116125,-5.890604236594813,8.236108653640214,-1.7232891227219937,-1.26716851608666,1.8557927803368468,3.0929921540576273,3,left
10.639000000000001,0.2565091081549724,0.6415151917766062,0.8903362915072002,-6.215911843608691,7.917303774945828,-1.4671718037655759,-1.2812328065089567,1.8750269390857481,3.114304716715349,3,left
10.64,0.22849403633797413,0.6169004552405091,0.9087221233901388,-5.786766465798993,8.337746551343287,-1.8049890135561846,-1.2643906171705714,1.851799815047242,3.0887007731169414,3,left
10.64,0.2222312585353045,0.6104152078954452,0.9137023441332369,-3.985452942151447,10.102965733954608,-3.223899470921912,-1.2775010282349493,1.8701773124190848,3.108758553949148,3,left
10.642999999999999,0.193192287991681,0.5854695895114981,0.9297788927114137,-3.5562510832810434,10.523384324995863,-3.5617774276792407,-1.2704429470553493,1.8597138467226806,3.097715715746677,3,left
10.642999999999999,0.15403694489638142,0.5492897750048795,0.94327493854486,-3.881593636818827,10.20453746107066,-3.305488439470106,-1.27203532130463,1.8630977804452382,3.100646720819849,3,left
10.65,0.12811805461170978,0.5152542469915036,0.9465761370695462,-3.685533673384232,10.397093404793264,-3.460322052899479,-1.2739386045789978,1.8642905718381009,3.1029245764955022,3,left
10.651,0.10645361491934924,0.4741004987030399,0.952201550680596,-3.764999668181508,10.318288426400558,-3.396868046447029,-1.270671375466312,1.8609148135508766,3.098443636539641,3,left
10.652999999999999,0.0908040035350148,0.43383309664350056,0.9541682719745683,-3.7666674167975995,10.317990542262065,-3.396773936502286,-1.273714769812368,1.8651414085961127,3.10308284976767,3,left
10.654000000000002,0.07640049208365476,0.3939523464740283,0.9548216196284367,-3.7242644928413857,10.358214113102491,-3.428968483837804,-1.2717167044298603,1.8602386374556446,3.0991219167307342,3,left
10.659,0.06932068768608968,0.35299675251065604,0.9536999360705917,-3.7746474312534337,10.309416256412677,-3.3898028165969887,-1.272513045228632,1.8662200421044561,3.10243280080142,3,left
10.66,0.07100025568135206,0.3174512244957118,0.9465675931554794,-3.736046800570756,10.348375162712326,-3.421227482097009,-1.272652881111269,1.8591363856390664,3.0995155701717905,3,left
10.663,0.07299056791068698,0.2839092756846919,0.9345653915440179,-3.755633178828157,10.325528208288759,-3.4025113305871084,-1.272017602459762,1.8660144024476364,3.101885173901384,3,left
10.664000000000001,0.07708383547405007,0.2523933154945843,0.9163395263553944,-3.7533623446212463,10.334048859850817,-3.4099635543934026,-1.2727111955569126,1.862491969646136,3.101012887124644,3,left
10.667,0.08417930195238604,0.22275811310407628,0.8923474029791423,-3.7446605041842105,10.334850528848627,-3.409869727105516,-1.2722938366223033,1.8580513094935946,3.098716081219652,3,left
10.667,0.09714331077138447,0.19166551847316599,0.866176207515138,-3.756809056818771,10.329104917283932,-3.4058387884849926,-1.2722467274556073,1.874894726640032,3.105917234570131,3,left
10.672,0.1126802255245886,0.1634419834856019,0.8420503304723717,-3.7477681564674583,10.338018214819078,-3.4130088759252954,-1.2727777335755803,1.8442710785872949,3.0932371259640306,3,left
10.673,0.13150328403765685,0.13476565481698413,0.8187497840140543,-3.7492279252641416,10.325161469625328,-3.4015855077118875,-1.2719345936508135,1.8833719004806155,3.1092744931583916,3,left
10.677999999999999,0.15601288775821487,0.10555591588322363,0.7974249456125868,-3.757116995262634,10.343544764397489,-3.4188494823295303,-1.2727089628215555,1.850823164873556,3.0959913372705974,3,left
10.677999999999999,0.1813518004149638,0.07619916371748814,0.7763144890273315,-3.741395156635417,10.319992502225597,-3.396208626760072,-1.272576853033514,1.8515573168716917,3.0961855257339392,3,left
10.682,0.2103157209377674,0.043470672598854974,0.7558958719308311,-3.7596005191153408,10.343684111780824,-3.419205001105295,-1.271393959190254,1.9140108647458582,3.1219516388813817,3,left
10.683,0.2410649842898093,0.015189992605763123,0.7410800922603895,-3.748113533682626,10.33094230398958,-3.406681058247347,-1.27446648238525,1.7607219569596557,3.0588651823233923,3,left
10.687000000000001,0.275269068527534,-0.016606781731730375,0.7203412279377353,-3.741220622235602,10.31701372207808,-3.3935121425347723,-1.2693039516472635,2.014798546921613,3.1633676683450087,3,left
10.687999999999999,0.2986062599486574,-0.040338118455590904,0.7045873128406446,-3.7769370503518456,10.372541667525827,-3.4467681113914552,-1.2761455117839535,1.6797063378934665,3.0255723747632266,3,left
10.693,0.3031164698080041,-0.04624711878436892,0.6994275291070631,-3.7093920230756323,10.270843407599244,-3.3490377957329036,-1.3046481211462648,0.27299075643167714,2.446921160718892,3,left
10.694,0.3229207492316404,-0.06700559638414649,0.6784106122761844,-3.7965907510661756,10.400974252352153,-3.474157267729725,-1.311512823271376,-0.062088394746266554,2.309150727513188,3,left
10.695,0.3519227351103269,-0.09416007946907948,0.6518948155532238,-3.723602091325555,10.292516032211438,-3.369855530078712,-1.3063132650479063,0.1919574601661238,2.4136080589196256,3,left
10.699000000000002,0.3766851835725519,-0.11313022468179193,0.6255543259604464,-3.7258638564456583,10.295184414052802,-3.372444032341518,-1.3094187321228445,0.038722002689744975,2.3505760403689364,3,left
10.699000000000002,0.40727682366559276,-0.13415849391487605,0.5896977796298537,-3.864272451940291,10.502710552954621,-3.571952091351621,-1.3082313428857517,0.10110114316152553,2.3762980552081805,3,left
10.702,0.4386084934723363,-0.15140474995809383,0.5550451164532347,-3.5236780358783095,9.99300609130285,-3.0819209474151537,-1.3080504175080439,0.1019143762018594,2.376498061649892,3,left
10.704,0.48099247402921863,-0.16998766002284102,0.5237864996368107,-4.088538458122886,10.837999821514522,-3.894293108443782,-1.308941604422582,0.06931711657333667,2.363277870398202,3,left
10.707,0.5103518211714722,-0.18245396183915774,0.5085105944212355,-3.343451406259164,9.723483002705944,-2.82281844272339,-1.3079236483429448,0.10838523953025098,2.379163469713288,3,left
10.708,0.518063137655293,-0.18319214138780793,0.5054954437372703,-0.21555096897491122,5.046113597737967,1.6746196843579448,-1.3086386980596616,0.07792614895415091,2.3667142422366405,3,left
10.709000000000001,0.5468043807469316,-0.1903409050177006,0.4910477985054808,0.5295698612849228,3.9316451484336072,2.746076684599778,-1.3084914341298788,0.09445097632997511,2.373664608900719,3,left
10.710999999999999,0.5817050703895917,-0.19670778634458097,0.4727683214402125,-0.035443729792368095,4.776419521809526,1.9337846362011764,-1.307966139407326,0.09044017957266678,2.371519999378564,3,left
10.712,0.6057937825094895,-0.1949441167756282,0.4564419066891265,0.30554986778157167,4.267286760538264,2.4236069866838523,-1.3090901500528571,0.08651566532331767,2.370757703057215,3,left
10.716,0.6301934546754038,-0.19259493805409622,0.4385161548514308,0.1664108920047209,4.4737668423261265,2.2244809626395545,-1.3076670295940687,0.09352752988332083,2.3725969860081086,3,left
10.717,0.6510485554805341,-0.18734567226928694,0.42273623151646444,0.16515170787766925,4.477871149245072,2.2213680406642737,-1.3088228667984367,0.08687446668399909,2.3706932381963006,3,left
10.722000000000001,0.6704410127367955,-0.18161148693179963,0.4066596564653823,0.23715835664357693,4.3680064402820715,2.32618344676089,-1.308735168224021,0.09162261832699906,2.3726531561379005,3,left
10.722999999999999,0.6870793900975821,-0.1786761483272392,0.388212746445163,0.15036856217846856,4.498723026757476,2.200850055436639,-1.306900809954306,0.08875919238704758,2.3699318814147876,3,left
10.725999999999999,0.7008841243103381,-0.1745557724613312,0.36843747703700025,0.21879364891777042,4.3982851318417335,2.2981200659287992,-1.3111893079802095,0.09056811887348773,2.3742038155332397,3,left
10.727,0.7113940348189909,-0.16811605094094706,0.34599880799817606,0.18029162467734045,4.449823551511496,2.246321129602154,-1.3047684449152972,0.08900374960267737,2.3682970399688203,3,left
10.732000000000001,0.7157856903275757,-0.16159157163530502,0.3239761310316621,0.1919695454175444,4.44274815162333,2.2569871671087705,-1.3116177637735924,0.09045992584924914,2.3745072590945266,3,left
10.732999999999999,0.717720106418994,-0.15693262839268945,0.3075154321498328,0.19758947719766032,4.421603330317278,2.272580005132244,-1.3076528928157574,0.08995247028235434,2.371055453612213,3,left
10.735999999999999,0.7119055179469276,-0.15460756184021873,0.29428252017143774,0.18405916155553761,4.451990876207464,2.2471381883971837,-1.3042705234767116,0.08786182218455238,2.367402838198605,3,left
10.735999999999999,0.6983918157198437,-0.15318313865060518,0.28715721781771686,0.19982697743432337,4.428504098629074,2.2697551167378616,-1.319132176657976,0.09430478950519819,2.3822811382139806,3,left
10.742,0.6824135152897997,-0.1500108212754912,0.2899179422545938,0.1832509912749628,4.434446213805456,2.2570348479364903,-1.2915596234732463,0.08284540896062387,2.3548879407960808,3,left
10.743,0.6617068015237809,-0.14658734928235012,0.2949872576929351,0.20163832975059917,4.450014654232453,2.258076931238395,-1.326967889999478,0.09744921860357168,2.3900190543848945,3,left
10.745999999999999,0.6433658071224762,-0.14614089460010143,0.30139198986235216,0.18107259517624735,4.416524560423205,2.2663931544087497,-1.297404148334791,0.0853031166615312,2.3607052356882896,3,left
10.747,0.6250604438727834,-0.14779886617629162,0.3111861876837243,0.2004844795530752,4.455981276031019,2.2539155887589697,-1.2982129888134204,0.0854582836155133,2.361435261168425,3,left
10.752,0.6019853349603177,-0.14938784261980367,0.3188546516209352,0.19095185360805175,4.430665587777288,2.263547804913974,-1.3545614358985685,0.10918472770845052,2.417544780009268,3,left
10.752,0.585704256520286,-0.1534175006216572,0.329799962837227,0.17750025641255118,4.416670352475842,2.2643187386870727,-1.216048965570547,0.05107570654932176,2.27970322257473,3,left
10.755999999999998,0.5676790393796565,-0.1644415510234254,0.3505020264187813,0.22671500504341524,4.492359889610025,2.247047971066342,-1.4457187919161434,0.147365594205398,2.5082406600073552,3,left
10.755999999999998,0.5510271973432781,-0.17269947958802728,0.36354554887595925,0.13772599054687062,4.348582724185493,2.282361004152548,-1.1427754037577635,0.020370436598227175,2.2067900509712044,3,left
10.761,0.547516695515377,-0.17352019384463646,0.3669438192408782,0.2511720739529128,4.534426728495535,2.2358324259087192,0.12876822345627525,-0.5129686233045379,0.9414218005493468,3,left
10.762,0.5344275540671543,-0.18096040758783172,0.3796600085639703,0.15680553378451428,4.378759366305229,2.2751794476226603,0.4317375212650737,-0.6399676790589359,0.6399295966641265,3,left
10.763,0.5126629689183291,-0.19036884567222895,0.393023193275275,0.15883236595602498,4.38376442713686,2.2733378528702586,0.20202698080778422,-0.5436821682340015,0.8685277477571776,3,left
10.765999999999998,0.498310204291315,-0.19367998015293347,0.39567549474928565,0.3401758885616535,4.6784817269125085,2.2003745614239674,0.34057370783650465,-0.6017591438972448,0.730647658528889,3,left
10.767000000000001,0.48121168471692977,-0.1948380993806217,0.3970646412440815,-0.10478764993900619,3.9529642733825097,2.3808371644925597,0.284225644079735,-0.5781094475177284,0.7867226215214512,3,left
10.770999999999999,0.4572635206882911,-0.18762379139527952,0.4049531655715659,0.6327057769119245,5.156325218148668,2.08118931544461,0.28335411337664107,-0.5778310748293325,0.7876036412081565,3,left
10.772,0.4416905811902766,-0.17972524849324117,0.4126611764148337,-0.33995853638833784,3.568960866448141,2.4765915695702274,0.3130572719196977,-0.5901202607234594,0.7580119642219816,3,left
10.775,0.4377591407922097,-0.17981293359405104,0.41574568083130253,-4.4231243129816935,-3.0933764620781248,4.135692058460577,0.27744830203469606,-0.5754159012698283,0.7934964192769405,3,left
10.776,0.4284435676343175,-0.17613765164172862,0.42479460519203993,-5.3958406065430164,-4.6807012576248255,4.531175417059851,0.30522235779301793,-0.5868407967435277,0.7658084125111535,3,left
10.777000000000001,0.4172645945213882,-0.16927337974887802,0.4349118417414911,-4.6583048343688755,-3.4773360831881726,4.231312659128172,0.29026827501483,-0.5806636132813976,0.7807113156969182,3,left
10.78,0.4122576584306181,-0.16412877234960288,0.4337403208489854,-5.10319777025193,-4.20303638456068,4.412192288942359,0.29349290586312965,-0.5822067804789497,0.7775437244335515,3,left
10.780999999999999,0.4047135078584626,-0.15809980995237888,0.4296065848646276,-4.922142257706966,-3.907833719187948,4.3385915280841,0.2979881033027957,-0.583482356037434,0.7729359104722852,3,left
10.785,0.39762172964692355,-0.1524616803859567,0.43120748483054683,-4.919563511139887,-3.9036435746568117,4.33750120241835,0.2902134552380845,-0.5812695255165369,0.7809048922430937,3,left
10.786,0.39447773191162494,-0.14839970689165866,0.43346622227087717,-5.014667131802765,-4.058326170845607,4.376267703950441,0.2977819635566148,-0.5831593236643847,0.7730881010384452,3,left
10.789000000000001,0.39184591524506174,-0.1461745264254397,0.4329229808381183,-4.9005548180826715,-3.8732333992770327,4.329696830242479,0.2925602472795461,-0.5819926801410591,0.7785118144419536,3,left
10.79,0.3894313757724645,-0.14197774967058333,0.42884974651336405,-4.989705529020492,-4.017112353172408,4.366180147610667,0.2944288099969469,-0.5827856774890328,0.7766542086381962,3,left
10.794,0.3848857652479841,-0.13417968130349262,0.41623068885109443,-4.941352614359772,-3.9397963424311175,4.346291086579693,0.2961503078412498,-0.5816089258593744,0.7745194609142845,3,left
10.795,0.37739693826519416,-0.12369271903953603,0.3988889302545686,-4.952526649425983,-3.95734236816066,4.350929470160354,0.29118390333011845,-0.5838646738843327,0.7804255022115226,3,left
10.8,0.3698258169955314,-0.10971021310481917,0.3866428323561196,-4.965700253746428,-3.977498765422512,4.356490373908658,0.29835311427946803,-0.5803992353078936,0.7718531973848004,3,left
10.800999999999998,0.3636433872205025,-0.09845650912899298,0.3821328156057421,-4.9421214415311265,-3.9433549128482803,4.346256365780135,0.29102865561394975,-0.584226715606881,0.7806750644447257,3,left
10.804,0.36060093066596244,-0.08969094751623433,0.3834187801072756,-4.965557797288274,-3.97413265805181,4.356896420578584,0.29526436337482476,-0.5820167711239053,0.7755739870412721,3,left
10.805,0.36352619806478503,-0.07957504692331105,0.3871713033913672,-4.948237477073981,-3.9550308353336394,4.348492141294128,0.2982092497744411,-0.5798154737493288,0.7718802533661104,3,left
10.809000000000001,0.36799572162831995,-0.07257676471909383,0.38732206719944995,-4.957092924698497,-3.962177477200459,4.353177849533687,0.28440597708762355,-0.589065531516415,0.7889575651406057,3,left
10.81,0.3685285243461377,-0.0676628683912496,0.3796913183316404,-4.957088652920725,-3.962107144760923,4.353186770632796,0.31005036791709306,-0.571930576494496,0.7572411716025053,3,left
10.815999999999999,0.3681729605046553,-0.06207759310677928,0.36777495108816843,-4.9485924690161145,-3.9617903064365967,4.347716108363068,0.27717955588165893,-0.5939569661953761,0.7979095045082623,3,left
10.818,0.3656515901430827,-0.057731294146270665,0.3544075079448623,-4.9646616823255,-3.9570508232802326,4.358856089137419,0.30459618563531266,-0.5755574204958828,0.7639822484581293,3,left
10.82,0.36015238515262615,-0.053882142230394,0.33953389889992114,-4.943446335605053,-3.968620861189884,4.34335861962732,0.3037771971570083,-0.5760234807640561,0.7649788554293233,3,left
10.82,0.35722553474838603,-0.048317212198248596,0.3272223580268982,-4.964450694714245,-3.9536569433117696,4.359223817542395,0.2518224726614427,-0.6112424959518004,0.829345266233947,3,left
10.824000000000002,0.3565465986828927,-0.04522871676538763,0.3224008738074584,-4.952829323685355,-3.9631433436521135,4.35026640557197,0.3795821640967092,-0.524703623305334,0.6710760436670405,3,left
10.824000000000002,0.35837153835449576,-0.047110029097864575,0.32162073658258095,-4.943026387918909,-3.971671725609092,4.342631883689408,0.16775286231121708,-0.6681902616404265,0.9334938433070978,3,left
10.829,0.3607819791120297,-0.0481691240340872,0.31980564038793646,-4.98531012983906,-3.9333385282821465,4.375791894355361,0.4471388754020528,-0.47892527117469996,0.587380058018584,3,left
10.83,0.36135936543188096,-0.04770163948750709,0.31939417727983066,-4.907486404741894,-4.005393321269084,4.31453716997532,1.6195693483004643,0.31562186009884396,-0.8650883774817718,3,left
10.831,0.36488587127935757,-0.048218614927500306,0.3169279054657559,-5.007006277100787,-3.9122033924201345,4.393024671848648,1.8989226981254839,0.5049000332499405,-1.2111677203386515,3,left
10.833,0.36885039025186883,-0.050037126163440915,0.30758957212282667,-4.924100875579905,-3.990294450332156,4.327571907586541,1.6871565895268485,0.3613892093069086,-0.9488216020263406,3,left
10.834000000000001,0.3726446407176105,-0.05304792248633486,0.2971592690482828,-4.926370392262953,-3.9882225325889418,4.329354521370045,1.814831063340177,0.44795780416225284,-1.1069830920586783,3,left
10.838,0.3780947865490074,-0.05543031637623111,0.2899471887306385,-5.0840737745506335,-3.8386981851070288,4.454003093764606,1.7629625078001294,0.41271364162254087,-1.04274439100849,3,left
10.84,0.383720242951281,-0.058005190534332354,0.2840557276359097,-4.696556750349103,-4.206370576515372,4.147671656391806,1.7620939959396553,0.4122532820820769,-1.0416408978221958,3,left
10.844000000000001,0.39395108421989705,-0.059975305578615065,0.2768792767650273,-5.338967732687108,-3.596576057339476,4.655537562039968,1.7894728433945963,0.4306834099922458,-1.0755869847528392,3,left
10.845,0.40080388842982884,-0.05950947143497376,0.27209202724035864,-4.491718401727725,-4.401029092365039,3.9857041031546587,1.7567755455312932,0.40857815555708576,-1.0350678096471848,3,left
10.845999999999998,0.4021085228532624,-0.059336264903106846,0.2699715065763727,-0.9358533866089719,-7.778332853291287,1.1743779504714553,1.7820927171014354,0.4258370399868438,-1.0664080361612411,3,left
10.849,0.41294385687437735,-0.05841016049376832,0.2620317717270202,-0.08871445196892763,-8.582932057767,0.5046169466518662,1.7687219360392192,0.41644754599832257,-1.049921134169168,3,left
10.85,0.4299933418251346,-0.055528653954626216,0.24875269674226463,-0.7309178258171081,-7.972872698396378,1.0123384362659407,1.7712739936331316,0.41874163097375827,-1.0529490387214797,3,left
10.853,0.4464860867982172,-0.05325163091698806,0.2336374612868822,-0.3436676633868808,-8.34086285570185,0.7062110442861447,1.775618696430859,0.4209939981406162,-1.058495690872026,3,left
10.854000000000001,0.4616975551944045,-0.04966678632978133,0.21634421836211745,-0.5011234313832764,-8.191083989591874,0.8306375233658572,1.7687634794885336,0.41689964297439785,-1.0498721150978532,3,left
10.857999999999999,0.47302314565523035,-0.04508984430816216,0.2001380433804809,-0.503495612038872,-8.18903920472206,0.8325759108095075,1.7746578209846575,0.4208987184922822,-1.0571732211255855,3,left
10.859000000000002,0.48762730473481664,-0.04149092472397005,0.18789317790237253,-0.4207873679111973,-8.267508089268086,0.7671576650476424,1.7717535805592597,0.41790912029094307,-1.0538182811348533,3,left
10.862,0.5073111600000556,-0.0361076721750449,0.17777566707988218,-0.519680766126237,-8.173421359611055,0.8452886967227276,1.7710841461436375,0.4197899248734781,-1.0524335254995243,3,left
10.864,0.5285051625506717,-0.032173113983756316,0.1680574662443336,-0.4429261437411359,-8.246829831791917,0.7847859005807059,1.7746557969825427,0.41872772394696134,-1.0576869764358503,3,left
10.868,0.5494453800218945,-0.03160650178241549,0.16088198230190587,-0.48390719438242646,-8.207039048878759,0.8168738176556625,1.7699069668006215,0.41922222976035795,-1.0509203526451345,3,left
10.869000000000002,0.5642656857319728,-0.028441981193242833,0.15454911493694334,-0.47513410347386437,-8.216430575820132,0.8103217630635091,1.7732819995562932,0.41936383962825685,-1.0556121807223784,3,left
10.873,0.5771912128412848,-0.021560544826991185,0.1448047292522917,-0.4635357575697428,-8.226604893704675,0.8008453315715764,1.7742288959862784,0.4181573714031227,-1.0572249643217488,3,left
10.875,0.5896562744572064,-0.012625899788451137,0.13279392146067215,-0.4826031821809074,-8.208487435704484,0.8159177843955026,1.7664645679912825,0.420986865855411,-1.0456806632298896,3,left
10.877,0.5957674298837001,-0.0011495442000708576,0.12171974464451103,-0.465783134995321,-8.226020331595134,0.8031886056247298,1.7817186475352038,0.41631788219518434,-1.0681494028673926,3,left
10.878,0.6007914111113898,0.01282954122283097,0.10968755278252311,-0.47532863381233736,-8.213397004925234,0.809434511493848,1.7618238706488367,0.4221056150440264,-1.0389167053335953,3,left
10.882,0.6030638671190802,0.02855340057938799,0.09426626070849659,-0.4737311174149866,-8.220218965036702,0.8101126617711389,1.77856249487327,0.4173597880651312,-1.063482642019208,3,left
10.884,0.6009694541088211,0.05233049535955896,0.07660741845176905,-0.4698656219505446,-8.218237158244927,0.8049868072046118,1.7779104961179755,0.4173573728568944,-1.0625698162141484,3,left
10.888,0.6009579575649686,0.0790533927240206,0.05993947676006761,-0.47494115792671776,-8.216681101899308,0.8101960246774553,1.7465230106337728,0.42675617063314564,-1.016387218125779,3,left
10.889000000000001,0.600271323144887,0.10156701936312534,0.04810101327153302,-0.47333238598423966,-8.22102799490192,0.8099539160999132,1.8239562335156596,0.4038413372053311,-1.130256416300846,3,left
10.892999999999999,0.6001756064925645,0.13547654135159726,0.03480351968090483,-0.46774163969040145,-8.214011669550764,0.8010235548200773,1.6954616905854298,0.44176890146042336,-0.9413216416042648,3,left
10.894,0.6019806839160278,0.1603618697037258,0.024014372146914625,-0.4817914555753673,-8.223522094230525,0.8204972009942424,1.8649822442908008,0.3917615438281329,-1.1905736160244107,3,left
10.898,0.6016036673855378,0.1672280156276192,0.020903146301203587,-0.46211847935014705,-8.212865026092626,0.794200207687557,2.5764186547089043,0.1818423078557788,-2.2366263124774486,3,left
10.898,0.6016892191739761,0.19450341618812916,0.0063162865252230985,-0.4792376925139587,-8.221095601352069,0.8167058111834667,2.745941529845076,0.13182610814465778,-2.4858849703701122,3,left
10.899000000000001,0.6027513171119413,0.2303609505645453,-0.014743628911868221,-0.4781777011932112,-8.221453298473786,0.8156206413648384,2.6174212408248203,0.1697474893404396,-2.296914180123096,3,left
10.901,0.6021544656408819,0.25613445163894877,-0.02575507814821316,-0.44663604540740864,-8.204680856507455,0.7735878222732495,2.694935805502234,0.14689207990608194,-2.4108825834474015,3,left
10.902000000000001,0.5995118959297481,0.2835354188040328,-0.03390435558130021,-0.525228659665221,-8.24486316218205,0.8777519924321562,2.6633869879934515,0.15614413725700868,-2.3645137806596006,3,left
10.907,0.5951361466461282,0.31377860719890666,-0.03797342793335598,-0.39441449997756683,-8.178741124743189,0.704637264431639,2.662968770146422,0.15638062077839143,-2.363861177670325,3,left
10.908,0.592311125889152,0.33428949236572714,-0.03698692771602165,-0.567194520184516,-8.265704516987537,0.93317018920359,2.679462945409333,0.1513537738454807,-2.3881664294223466,3,left
10.912,0.5925307438646059,0.3411199177372235,-0.03961913817070449,-1.2925862664517545,-8.630732469382302,1.8925086539926912,2.659698239363979,0.15734450938672134,-2.3590528946218123,3,left
10.913,0.5893675536148898,0.3576626666939166,-0.040734592018991,-1.4654582136986734,-8.717541074223172,2.1211357430615685,2.6751066808015223,0.1527306124293077,-2.3817309813600485,3,left
