time,gFx,gFy,gFz,ax,ay,az,wx,wy,wz,subject_number,foot
8.584,-0.6302011222371273,0.9962491963450212,-0.07899080294542571,-5.329088537444898,-1.1411687792805982,1.1638893066421088,0.010279964198421903,0.07880199474025759,0.12115959857718199,3,right
8.585,-0.6261705814444127,0.9702882674903938,-0.0745816726628519,-6.6312953076195535,-2.4392079141430876,1.2914050849390408,0.01810903289957879,0.03890048892598992,0.16621553485295967,3,right
8.585,-0.6174765568481855,0.9302917770446502,-0.07049553133290601,-5.643956200521387,-1.455022003038146,1.1947153757108153,0.014924409135989579,0.05513547117448632,0.14788959684535585,3,right
8.588,-0.6072684095046537,0.9054638721240124,-0.07334949128361043,-6.239509549178916,-2.0486806184054376,1.2530445252907223,0.014878306880918686,0.05537099030326865,0.14761380916181455,3,right
8.589,-0.5949197627832082,0.8837119029876181,-0.08066232248679858,-5.997156792616579,-1.807087243825461,1.2293054451432324,0.0165496335796555,0.04684203636864205,0.15725639313367412,3,right
8.594,-0.5818013962142878,0.8684981897497362,-0.08841552783037762,-5.993712253629361,-1.8036830708599045,1.2289583571668603,0.014548031082729677,0.05706427391312171,0.1457012399845,3,right
8.595,-0.5669421287046637,0.8642153127242631,-0.08975793993771891,-6.120949616492406,-1.9304575452204003,1.2414593921462642,0.01610674377893339,0.04909683091510237,0.15470817342580373,3,right
8.597999999999999,-0.5529870804500477,0.8657050817977472,-0.09199728106526289,-5.968355566864004,-1.778443339291651,1.2264351331557783,0.015266406892946482,0.0533908588067544,0.149856055952849,3,right
8.599,-0.5453261704121637,0.8756552717998639,-0.09856813024053669,-6.087460886345448,-1.8970467637806983,1.238212102202703,0.015457976208425601,0.05243406804899816,0.15092672519974232,3,right
8.604,-0.5359683179284154,0.8900401494075423,-0.10373184152179657,-6.022970315326571,-1.8328788007452959,1.2317851502451882,0.015681753641981416,0.051227438015800535,0.1523175053027853,3,right
8.605,-0.5232380078581751,0.9059239721842183,-0.11254652204846102,-6.037825469521974,-1.8476391524591769,1.2332873315269897,0.015294616195593205,0.05331589925720437,0.1499118031843848,3,right
8.607999999999999,-0.5105387690654485,0.9172680808604283,-0.12491598929750021,-6.055256573058058,-1.8649086949074662,1.2350909863724944,0.01565818322478328,0.0513205953693386,0.15222247169552822,3,right
8.609,-0.4952621460349824,0.9217670410124881,-0.1363254579590369,-6.0243509148345185,-1.8344334167409646,1.231755110025957,0.015414257992844365,0.052677600647496214,0.15064451388298816,3,right
8.613,-0.4805434420022177,0.9262564629548204,-0.14389954911796748,-6.054589060165507,-1.864006632488612,1.2352485280434906,0.015520295357043124,0.052137998559923016,0.15125320979922435,3,right
8.613999999999999,-0.46690191084754407,0.9301123420566936,-0.14853942626810768,-6.032796605917097,-1.8429800134099374,1.232461569685684,0.015522642188436311,0.05191497154833065,0.15159006285359333,3,right
8.617,-0.4552294365952086,0.9349639501451809,-0.15230463773475422,-6.04353982869553,-1.853134424249533,1.2340339751763247,0.015458981207986491,0.05272216377401218,0.150484670908626,3,right
8.618,-0.44912229191364317,0.9464544794435761,-0.1527619010703667,-6.043524309921535,-1.8531132502872556,1.2340372473603265,0.015540374660129967,0.051586963620114445,0.15205564479275427,3,right
8.622,-0.44911367718798206,0.9638354430645274,-0.15322722965883412,-6.034212868954038,-1.8448623484111686,1.2321594723416052,0.015471603004279804,0.05270549889622175,0.15048448459587044,3,right
8.623,-0.4557537761463075,0.9886226266992798,-0.1539788133852119,-6.051011359094904,-1.8592524941197954,1.2360117380439557,0.015511522386200457,0.05205823638881735,0.1513933577455664,3,right
8.628,-0.466022045225419,1.0180353323845712,-0.15488841652557533,-6.029641976303026,-1.8414637791507693,1.230626361050444,0.015506075281835499,0.05170346255845692,0.1519474704772253,3,right
8.629,-0.4778842172449862,1.0460354518548045,-0.16595623795976233,-6.050264636170405,-1.8582764108169165,1.2361559687282369,0.015478335213901866,0.0535191097968897,0.14922562127950162,3,right
8.633,-0.48651033707734326,1.069688558624589,-0.1821335459597992,-6.039038217487723,-1.8492491176143095,1.2330285053377992,0.015532330073072262,0.05013894480572935,0.15428795539957663,3,right
8.633,-0.4877313345165913,1.0845107242047922,-0.19211932087028158,-6.029648614885055,-1.8417546051175238,1.2303606324280225,0.015466315354724694,0.05446231872836485,0.14780685916831626,3,right
8.637,-0.4848094787524549,1.0894083371164538,-0.20064564018751657,-6.069914028438541,-1.8737294634864976,1.2419551909879192,0.015519920147328984,0.05086072665588538,0.15320867212633743,3,right
8.638,-0.48049975422259716,1.0817399197185296,-0.20225546705217257,-5.996033756394242,-1.8152213761491063,1.2205306783153183,0.015514254086598608,0.05097937858317983,0.1530389971768353,3,right
8.642999999999999,-0.47665907954250025,1.066060618012235,-0.1907090670752018,-6.090351290199204,-1.8898021942985026,1.247986934444147,0.015430020579526811,0.05775616244282825,0.1428400293742796,3,right
8.642999999999999,-0.47354300916802344,1.0499278623589925,-0.17245824774497348,-6.011849748453945,-1.827776798378589,1.2250888898191294,0.015640209857070615,0.04108395434715237,0.16792505791829734,3,right
8.648,-0.47943229682052896,1.0321382947584192,-0.14983545662012598,-6.014008173541203,-1.8294899672776057,1.2257108846712148,0.015292148416756851,0.06872518992704048,0.12633494840337817,3,right
8.649,-0.4879569608200834,1.0232183451751453,-0.13824704664879886,-6.163187070875097,-1.9472515353508042,1.2693261668280802,0.01574985684950713,0.03227244004356151,0.18118706009697697,3,right
8.649,-0.48965969073511945,1.0217491662107623,-0.13585055644356472,-5.796656063454829,-1.6579390415862205,1.1621394255281805,0.017651168804537692,-0.12067536000814907,0.41141299098293216,3,right
8.652000000000001,-0.5044667391778686,1.0151711712809177,-0.12233248532753728,-6.404234838354409,-2.1374860962655386,1.3398462072286774,0.018104805357122947,-0.15711717933307798,0.46626657874611205,3,right
8.652999999999999,-0.5195520793423773,1.0121034448445454,-0.1131807046651681,-5.602955604718103,-1.5050822387540723,1.1054593362675398,0.017764615031750072,-0.12949468456085883,0.4246675569361475,3,right
8.652999999999999,-0.5221130991392968,1.0132233343179409,-0.1128216728506452,-2.2401121598640557,1.1488196608207408,0.1215450430735183,0.01796420457992261,-0.14614689861723096,0.449777889114369,3,right
8.656,-0.5354398841843973,1.0151378574531682,-0.10998328902115148,-1.4389571679731714,1.7810771557174423,-0.11286174322212701,0.017890664321453517,-0.1393813787079974,0.4395308002634025,3,right
8.657,-0.5492820507118752,1.0227830665943247,-0.11056755140617941,-2.0463092542228294,1.3018050709470763,0.0648926635630135,0.017878896659705906,-0.13927222298659458,0.4394289782609674,3,right
8.662,-0.5541284057818228,1.0303020953921544,-0.1054793253788359,-1.6800539344361407,1.5907647385344328,-0.042378251912733936,0.017927714778232306,-0.14283319303432307,0.44476207213327357,3,right
8.664,-0.5580048482863773,1.0354819122159062,-0.09286721545193741,-1.8290049671115596,1.473329441084503,0.0013559856655365674,0.017883372783047503,-0.1385840040098025,0.43831372539965807,3,right
8.666,-0.5567200956302758,1.0419900959871806,-0.08507773392650073,-1.8312035575852814,1.4714831498875889,0.0018492477680562766,0.017896622953315282,-0.1418695164722205,0.4434281780183076,3,right
8.668,-0.5526124913330299,1.0457737190033227,-0.07946164480220488,-1.7530048047574311,1.533243947867784,-0.020966064538740427,0.017922608294512265,-0.14013451172729297,0.44052556722749275,3,right
8.671,-0.5467371245374005,1.044727694531649,-0.07679736487243007,-1.8465706548055287,1.4594955538936176,0.00653500966696723,0.01786854655857995,-0.14047783971336716,0.4413993246609209,3,right
8.672,-0.5373701938145463,1.0415938405891902,-0.07976124642444535,-1.7738507128736818,1.5165879321381346,-0.015145030035061863,0.017921572076768567,-0.1410038492545894,0.44190659941151067,3,right
8.677,-0.5277240504057588,1.0359893587915403,-0.07987696899967471,-1.8128351931248605,1.4863328309842756,-0.0030447617967622152,0.01791177223262222,-0.14018383545617677,0.44066976780410083,3,right
8.677,-0.5211327644233892,1.0295895528455112,-0.07444918283802791,-1.8042579139140824,1.4924757296796596,-0.006405333725553368,0.017833982842226582,-0.14085736831074677,0.4422112899832374,3,right
8.682,-0.5178888122245835,1.0255909311637361,-0.06309335503977301,-1.7935128680339836,1.5014544362021236,-0.008870975920073711,0.01802720395362825,-0.14056100244673445,0.44055932395592085,3,right
8.683,-0.5146094830662716,1.022469737049843,-0.041494956630906576,-1.8115476501738264,1.4872259566076496,-0.003588558865290882,0.01773221186019381,-0.1404593516311919,0.4422051483262467,3,right
8.687000000000001,-0.5110453431316799,1.0179073965444967,-0.018153945647997,-1.7952240786944529,1.499183480882833,-0.009621682323345232,0.01804962808554509,-0.14080717159833472,0.4408112390869128,3,right
8.687000000000001,-0.5059906646877745,1.0086128276321826,-0.004993319384527845,-1.8052029231513411,1.49342171641328,-0.003828926841304408,0.01786475057590135,-0.14048405248923068,0.4414325664102817,3,right
8.69,-0.4967375530356403,0.9968345734652768,-0.0002502938969112994,-1.8022730129748248,1.492581234478138,-0.008972456068093392,0.017708447627406153,-0.14046262490807296,0.4423558117676436,3,right
8.691,-0.48290511306720424,0.989061827130298,0.0011818291339978078,-1.8001295843728355,1.497633648444673,-0.00503011038913697,0.01839896825826898,-0.14109910469272313,0.4391335090836871,3,right
8.696,-0.46546121796823964,0.9816181579452188,0.0015069195121304572,-1.8040569657788095,1.4925922177548576,-0.006521740528747389,0.0171165473591479,-0.13976065855747796,0.44487076455049657,3,right
8.697000000000001,-0.44666450610548425,0.9712951090396382,0.0050686290331637485,-1.8017795957583207,1.49271586671323,-0.009462817983886979,0.018763987024769314,-0.141549221800427,0.4376096798353354,3,right
8.7,-0.42603513284486705,0.9643155042732586,0.011802482582781534,-1.7997929541268554,1.5016090680842875,-8.537200973159206e-05,0.017388428121702985,-0.1400265380379121,0.44362638185118336,3,right
8.701,-0.40331279481728094,0.9626428482153542,0.016391635876658518,-1.8069622079756502,1.482365911176016,-0.01645761304099847,0.017425576555949854,-0.14009250199220968,0.44350261047618833,3,right
8.705,-0.38322174158662003,0.9612431478229259,0.02081164625224434,-1.796209736932363,1.5082960953644595,0.004113908567778371,0.020048850640070764,-0.14295073907261208,0.4319576039164696,3,right
8.706,-0.36942223483660197,0.9629115620506349,0.02502744323392835,-1.80584837832925,1.4861253845431732,-0.012868543194441168,0.01360143184865109,-0.1358815485796926,0.4602637952379305,3,right
8.711,-0.35890985052658836,0.9705785704943618,0.023378690209820852,-1.8050130849827888,1.4871799984679503,-0.01257227787273289,0.024291136561420887,-0.14762272175341634,0.41336421931861367,3,right
8.712,-0.35232403713632743,0.9735541989742866,0.02034802984675467,-1.787699632380101,1.5286112674630008,0.020110357146615583,0.010192109185408556,-0.13212773550660603,0.4752083579851074,3,right
8.717,-0.35000853158183803,0.9744931120103744,0.020825601888896237,-1.8312843141216186,1.4259627085186444,-0.059927542866564355,-0.04899264083080945,-0.06707184129269404,0.7347934443795889,3,right
8.718,-0.3457116990055754,0.9807398545644123,0.022381337368539873,-1.7585250522153204,1.5965503134497028,0.07264161238414397,-0.06308976594302906,-0.0515774007609861,0.796629620463475,3,right
8.719,-0.3425443708313438,0.9823734849467569,0.02372974500489308,-1.854737642990979,1.3713520897366493,-0.10215241229430651,-0.05240298632245223,-0.06332161310767365,0.7497483494980637,3,right
8.72,-0.34311537881158527,0.9825646166766616,0.023257706869820774,-2.258630030084098,0.4260744570981665,-0.8357532046363483,-0.05884811706913097,-0.05623934185225431,0.7780234952100801,3,right
8.72,-0.3453328041774901,0.9871645193703986,0.02113415341812612,-2.3549807091789097,0.2007639328784647,-1.0105191671423497,-0.0562243467487967,-0.059126041993078346,0.7665206706433818,3,right
8.721,-0.3500482998619566,0.9910594389068135,0.019710863849105607,-2.281919331356919,0.37159355286681417,-0.8780250550336872,-0.056192495429927304,-0.05914846996401314,0.7663534096414554,3,right
8.726,-0.3539489149652558,0.9943838631225602,0.020003965322986705,-2.3259881063765286,0.2685643430295964,-0.9579162384064432,-0.057557073104722974,-0.05767403369899359,0.772394623209376,3,right
8.727,-0.35603330696047775,0.9949368345990531,0.022109400516813264,-2.308055082024797,0.3104725991395197,-0.9254591693981898,-0.05592479845530679,-0.059432254909883464,0.7651563977236131,3,right
8.73,-0.3552613441119451,0.992116845486614,0.023375913906638793,-2.307807896993968,0.3110888123455512,-0.9248955402108958,-0.05719282044208614,-0.05807403304433042,0.7707960209439075,3,right
8.73,-0.3498192307542439,0.9873216695248666,0.02420759473558477,-2.3171997303047194,0.2890760164526516,-0.9420868337117924,-0.05650737936958637,-0.058812293543189904,0.767756319153329,3,right
8.734,-0.3414479446264049,0.9786948567847277,0.02676053498153355,-2.3059480817333102,0.31543682262507733,-0.9215253099416055,-0.05667845899255437,-0.05859330505002515,0.7684392969878718,3,right
8.735,-0.3293433238575495,0.9676676494259802,0.02762184660244174,-2.3147159883703674,0.2949162599121815,-0.9374885132942573,-0.056820201194273355,-0.058536579468083,0.7692770436013847,3,right
8.74,-0.31688244633378804,0.9575709772272502,0.02532738424909245,-2.309970756329672,0.3059548807340969,-0.929035022158267,-0.05657448639553603,-0.05863614516951515,0.7678274431554015,3,right
8.741,-0.3080946714689634,0.9491957182628477,0.024414413607650533,-2.311095936609226,0.3034949300467682,-0.9306042169259663,-0.05678429475863335,-0.05861471959541692,0.7692038861964177,3,right
8.745,-0.2998278355932552,0.9410438487360786,0.031026375094278635,-2.3122742754708514,0.3004479886339803,-0.9335486364779977,-0.05665479728415314,-0.058590324775686875,0.7682722587617199,3,right
8.746,-0.29312984161303035,0.9326796852716859,0.04267247881706479,-2.3101966478869773,0.3056631323661674,-0.9287912162771188,-0.05674277380774191,-0.05849206633267876,0.7686548460207827,3,right
8.749,-0.2898480103867885,0.9246803787494118,0.04879156329626821,-2.3121588143880407,0.30079095000155376,-0.9331378622221174,-0.05661226452194816,-0.05894510782328559,0.7687573094954243,3,right
8.75,-0.28604578278264015,0.9206185781765273,0.049555041332375926,-2.3107930505787646,0.30398022055052765,-0.9306700296501718,-0.056862463826875834,-0.057962684391273556,0.7683124235425571,3,right
8.754,-0.2800575304802308,0.9214772214994507,0.051910453521453855,-2.3115280589288485,0.30279360221079255,-0.9305346541016051,-0.05647805488170361,-0.059440502835778244,0.7689271980772338,3,right
8.755,-0.26928531135594136,0.9247017903967756,0.05130369499524881,-2.311210825766577,0.3023217821599019,-0.9333125328663945,-0.056902648191060945,-0.057848889915235166,0.7683367342863513,3,right
8.761000000000001,-0.25349011983950204,0.9311410121218047,0.03951623195322015,-2.311357518377286,0.3037880398767817,-0.9285772318881385,-0.05665747797950531,-0.05876826594152384,0.7686786726236732,3,right
8.762,-0.23502075191605123,0.9418300588413316,0.022902872406367094,-2.311262331132274,0.30208311829635764,-0.933735273899337,-0.056413293284950254,-0.059597155817614954,0.7688291779082504,3,right
8.764,-0.20952059512625548,0.9580223093886788,0.010351144442931453,-2.3112206216463203,0.30329226667814724,-0.9305810128170413,-0.0574394431829428,-0.05601682811885535,0.767983566839729,3,right
8.765,-0.18302316866993812,0.9738776145842053,-0.001651181980233434,-2.3116623326804966,0.3032243739022456,-0.9287235166083203,-0.05553855406761508,-0.06265403159262231,0.7695612331558487,3,right
8.767999999999999,-0.16428669095953058,0.9854144864704495,-0.013657983525725163,-2.3105121808714157,0.3017045791263592,-0.938263116909873,-0.05798211300327108,-0.054128759975952734,0.7675471807632583,3,right
8.769,-0.1455695111978329,0.9950987944833626,-0.02447092153597199,-2.312502653183733,0.30485064808630596,-0.9203171961591167,-0.05594086385936692,-0.06124713630865551,0.7692234616981601,3,right
8.774,-0.12704698855709728,0.9960576638601378,-0.03548540588101397,-2.309980341296935,0.30073788368959736,-0.9434179138904053,-0.05599266993972646,-0.061058973909540945,0.7691622634162822,3,right
8.775,-0.11521912436675075,0.9935981317892462,-0.042991907890302765,-2.312070387558717,0.304200418138166,-0.9241088737680676,-0.05989962877253769,-0.04746776535762379,0.7660321796489216,3,right
8.779,-0.11021716765588449,0.9924247065286345,-0.04994624203242015,-2.3120694758409703,0.3039941886260159,-0.9247208779951948,-0.05029939754291808,-0.08086897887453466,0.7737383925349218,3,right
8.78,-0.11240708114470824,0.9832793765412471,-0.05865044364736978,-2.3079077347898145,0.29776266766056037,-0.9612467334388454,-0.06621728415972689,-0.02548905759375406,0.7609611866876889,3,right
8.783999999999999,-0.11519268597349523,0.9764734721985153,-0.06310055692854173,-2.3180651344640495,0.313209849328843,-0.8713647272445739,-0.04522082542686984,-0.09853471392577345,0.7778116726678981,3,right
8.785,-0.11797972866608553,0.973184403169502,-0.06438030538854514,-2.3012498994507053,0.2875661512317031,-1.0204212939850166,0.04292047429967094,-0.40516545928458336,0.848489236317064,3,right
8.785,-0.12285129947844145,0.9656208834598056,-0.06534608972330166,-2.32341512275457,0.32138924781315037,-0.8238129455663401,0.06391820455651931,-0.4782107171863587,0.8653361730231898,3,right
8.789,-0.12550745703500352,0.9619313032710639,-0.06688357671643907,-2.416592186767187,0.4632176598080007,0.0013152550250422612,0.047998301997145956,-0.4228305222970402,0.8525656135979423,3,right
8.79,-0.13227192061106177,0.9558427823514795,-0.07045122591364678,-2.4387303314310795,0.4970176516120245,0.19791665891058471,0.057600277734257944,-0.4562343957700772,0.8602633468767859,3,right
8.791,-0.1416297688131024,0.9448269304784903,-0.07485204176051616,-2.421960437652536,0.4714030298710338,0.048865489529451606,0.05369320711279754,-0.4426366115637814,0.8571410176308636,3,right
8.794,-0.147678672198783,0.9356626437401547,-0.08028265433889187,-2.432072152137422,0.4868452728829812,0.13875784887448428,0.05363851824376842,-0.4424591597945332,0.8570768249061689,3,right
8.795,-0.1533551433385748,0.9240547525479175,-0.08628125575187925,-2.427930384941348,0.48056061369685144,0.10219161767038908,0.055686401366698335,-0.4495649316264408,0.8587464382205502,3,right
8.798,-0.15398390985483051,0.9144901270600091,-0.09372063623286866,-2.427964765243546,0.4804886141669745,0.10165616346659667,0.053233112662766494,-0.4410487733087042,0.8567527175019851,3,right
8.799,-0.14894351756139415,0.9087562459899581,-0.10593167777249508,-2.429941545350446,0.4837427602560101,0.12086371179040303,0.05514400093250192,-0.44768842944491427,0.8582961838934473,3,right
8.804,-0.14053170186381386,0.9005787459235227,-0.12136202293332607,-2.427610301083134,0.4798574060671999,0.09785373388903618,0.054112838722046114,-0.44408556306568403,0.8574917068394499,3,right
8.805,-0.127944126240289,0.8941853658430824,-0.1357844039220351,-2.4293729634013075,0.4828683981591502,0.1157796759686638,0.05435017427711963,-0.44496174626563634,0.8576105026232876,3,right
8.808,-0.11353563583913838,0.8905005431844883,-0.14545105791007967,-2.4283937176192505,0.4812384774175217,0.10611797303027896,0.05462019822036521,-0.4458140002361441,0.8579498654057633,3,right
8.809,-0.09556298129086309,0.88701822482165,-0.1515083781929546,-2.4288611378293687,0.48167181614787474,0.10829278921166219,0.0541512455658345,-0.44428951030323005,0.8574233042632969,3,right
8.812999999999999,-0.07700342275508276,0.8849749846709856,-0.15974925085746927,-2.428448046108503,0.4819341747000244,0.11094343709182847,0.054591715413663686,-0.44573659396743615,0.8578964182300676,3,right
8.815,-0.06181162393507058,0.883541371468614,-0.17087662436887888,-2.4291558999967027,0.4814794780237765,0.10635765077447049,0.054294385221446556,-0.4447014711465294,0.8576590478865074,3,right
8.817,-0.04858524323423158,0.8855770227265158,-0.17971013501196023,-2.428143754390243,0.48181716034108224,0.11070512764579424,0.05443010778887784,-0.4453317939231443,0.8575455329984559,3,right
8.818,-0.04196393227175422,0.890240132774831,-0.1813966242677812,-2.429009780977392,0.4816387019906118,0.1077663572244561,0.05441664698435618,-0.44492351940625013,0.8580428557805113,3,right
8.822000000000001,-0.04051274405556952,0.8919492455184301,-0.17629409097141807,-2.429157621766227,0.48185048416811904,0.10898253381752877,0.054365652074064366,-0.4452853123873053,0.8572439426495833,3,right
8.823,-0.040220183404902084,0.8903863678970747,-0.17002445631133076,-2.4269678566727393,0.48129336491096397,0.10926605660498132,0.05443326723060017,-0.4449457730602431,0.8581062647894397,3,right
8.827,-0.041261120102722426,0.8895490141234538,-0.16864264344838611,-2.431896596252615,0.48245181469835186,0.10794889824184176,0.05437327055405123,-0.4450690883585797,0.8575911348660716,3,right
8.829,-0.03797382827737458,0.8925149422200196,-0.17150597077239127,-2.4245261059163252,0.48069660921514734,0.10975780819931497,0.05442516081388821,-0.4455360282347478,0.8572304965633788,3,right
8.833,-0.03130299812861752,0.8943891358295396,-0.17464651079201454,-2.432406769191333,0.4826034040481436,0.10803637716082332,0.05436770273031237,-0.4440830462301528,0.8589455406193298,3,right
8.834,-0.023788499370884793,0.8957537702444219,-0.17865579949445065,-2.4278530072028106,0.48150173700072635,0.10903256067057843,0.054443594141882365,-0.44667075560905495,0.8557400962727579,3,right
8.839,-0.015798284219019812,0.9008208319443494,-0.17914714465022935,-2.4238777395044533,0.48047427233683737,0.10943545710655492,0.054353091941425166,-0.44337236029134747,0.8598619149307523,3,right
8.84,-0.012741433419441017,0.9046683070558861,-0.17339908519706326,-2.4412123578201514,0.4848709676729078,0.10708376730174787,0.054425741772235726,-0.4461156342547779,0.8564180152182614,3,right
8.842,-0.013235676705551737,0.9058564327896531,-0.16470349833039133,-2.409066880615794,0.47672153837777054,0.1114726841472989,0.054434737158369176,-0.44608018714881637,0.8565211514427518,3,right
8.843,-0.015601010327947043,0.9055479672998938,-0.14880674045081127,-2.4503491127998527,0.4871930866037947,0.1058768300878038,0.05426049824275092,-0.44072344802320274,0.8630565626223087,3,right
8.849,-0.018715227229067533,0.9030711409718273,-0.12756892776855377,-2.4158803662147004,0.47844686502670786,0.1105287228790244,0.05467561382532216,-0.4538426409095686,0.8469805986305707,3,right
8.85,-0.019976837960050307,0.8998314449901932,-0.10887423659649305,-2.4168132454833486,0.47867777069854567,0.11036035053149995,0.05399095781616485,-0.4321039021121693,0.8736396509176406,3,right
8.852,-0.022719443205064485,0.8986022657662415,-0.09848224131497776,-2.482548679744566,0.4953845641073022,0.10168207923420494,0.05489347318998991,-0.46077463838535015,0.8384749591457372,3,right
8.853,-0.023632051727368736,0.8979597842026101,-0.09539740557022425,-2.320971977630527,0.45432247715183655,0.12303686502737833,0.05870607868376699,-0.5812237528424914,0.6909245945626905,3,right
8.853,-0.01913143562291051,0.8953772465796099,-0.08952204426172605,-2.588882984183206,0.5224100171039039,0.0876426367532735,0.059610295863565525,-0.6099011165801201,0.6557625047060149,3,right
8.857000000000001,-0.016402295639285296,0.8946530536667023,-0.08525850234113586,-2.235498128220261,0.43259625335995894,0.13430526501331416,0.05892262905876573,-0.5881486983485209,0.6824135314843134,3,right
8.857999999999999,-0.015872142174835235,0.8948116974245848,-0.0865769010780453,-0.752209946629768,0.055607900704897836,0.33010679416836186,0.059341186946534195,-0.6012882189535258,0.666354952219594,3,right
8.857999999999999,-0.009147920237740352,0.8958671178076555,-0.08619624522609433,-0.39879601346694693,-0.034220821972220754,0.37672599743812063,0.05916451525693192,-0.5959077351137476,0.6728616537575782,3,right
8.862,0.005978770572212267,0.9018378550338316,-0.08713972086274552,-0.6667524718706122,0.03389010221201841,0.34139965017966756,0.0591730396056525,-0.59589162497539,0.6730011443301274,3,right
8.863,0.026562993463447072,0.9094962991900735,-0.09183457916519805,-0.5051381741053813,-0.007191330524747273,0.36269828388514014,0.05925093265677961,-0.5986325952559598,0.6695254698284043,3,right
8.866,0.04983127950824548,0.9222705897245755,-0.09615104468922914,-0.5708714277691049,0.009514350302567698,0.3540167669687915,0.0591495036442336,-0.5953047400230318,0.6736535105780097,3,right
8.867,0.0751420029713191,0.9421189485266793,-0.09863491795902495,-0.5718772581946269,0.009782772410298585,0.35395732636699534,0.05924070494889941,-0.5979641265136448,0.6704925835015292,3,right
8.871,0.10439520079850233,0.9598173824445856,-0.10397627098691602,-0.537249263452797,0.000954639412686511,0.3583714094016337,0.059168216068154,-0.5964005712245886,0.6720935200856809,3,right
8.872,0.13349302483747755,0.974795715836657,-0.11252803829996025,-0.5787583414975908,0.011542881322217553,0.3531143254659063,0.059226523693010444,-0.5969899485927908,0.6719133370964118,3,right
8.877,0.15736381555812284,0.9901823304603197,-0.11027701235620238,-0.5463882063472179,0.003277867647723069,0.3571677203789879,0.059179314537185355,-0.5970350039322407,0.67119350536388,3,right
8.877,0.17613835878036604,1.0039139351809148,-0.09246691246579553,-0.5638201703564736,0.007724676726213374,0.35496145029406284,0.059205911276404274,-0.5966505674522179,0.672194224154403,3,right
8.882,0.18862586379253882,1.0134380919687822,-0.06965728931677334,-0.5600338795140647,0.006794369210008187,0.35564649705258605,0.059225457202411805,-0.5972587412742234,0.671453549059241,3,right
8.883,0.19449478681926458,1.0166524022985364,-0.052374020886368486,-0.5548692459376657,0.005378518652517335,0.3557304801890873,0.059125504330989426,-0.5963678063225952,0.6715632637639152,3,right
8.887,0.19065874467292604,1.0145108303663162,-0.05047591554823208,-0.563802455913804,0.007826727870851698,0.35558087405238353,0.059330213778799226,-0.5976533779030154,0.6722322033961283,3,right
8.887,0.17566657220049464,1.0100842454072145,-0.058478083346919646,-0.5551405298004904,0.005407154108306196,0.35546112654026907,0.0590331802754127,-0.5959998647240854,0.6709103603099678,3,right
8.891,0.1555434426177132,1.0052439079932118,-0.0668050329042284,-0.5610987124962532,0.007095301336001764,0.3556814899343046,0.05934676994828294,-0.5976658182750498,0.6724380452909156,3,right
8.892999999999999,0.13603452421857742,0.9983288999155645,-0.07766471709542949,-0.5589179353181166,0.006542555518427857,0.35597813774063436,0.05916761043177188,-0.5967680529160855,0.6714757524701447,3,right
8.895,0.12154189239176408,0.9883758328735689,-0.08298975449151771,-0.557156333808762,0.005772415511288943,0.3543431586246282,0.05900686476212634,-0.5957926714648248,0.6708937298892721,3,right
8.897,0.10991120868020396,0.9759482775349207,-0.07763077441969604,-0.562386065024173,0.007838427971481949,0.35792075884544067,0.05969873819885459,-0.599689683862316,0.6738976349323456,3,right
8.901,0.09791664888281128,0.9596148004970567,-0.06704831159250577,-0.5548641336853595,0.0048274395274112685,0.3525466669597867,0.0584183801186193,-0.5925504317958744,0.6682188106884615,3,right
8.901,0.08444633171769339,0.944002805372581,-0.049844782088282774,-0.5625113884877542,0.007942852591424708,0.3583245483412225,0.06006147031896897,-0.6016859963596739,0.6755498674582288,3,right
8.906,0.06746180313386121,0.9334238313263524,-0.030386898983240148,-0.5580889928028043,0.006141796229875143,0.3549866113173261,0.058690086123895764,-0.5940724102573731,0.6694126155681145,3,right
8.907,0.04695427522941585,0.925410757673383,-0.020162526690901218,-0.5550994626977181,0.0047983396224308295,0.3520006149683871,0.05872672474115138,-0.5942582065211109,0.6696052013503679,3,right
8.911,0.023056088823228515,0.9218550806246739,-0.017100708277238523,-0.5692476406271632,0.010948534954309488,0.36492814579803556,0.06134300305563807,-0.6088298098465743,0.6812376405780869,3,right
8.912,-0.002789202799681966,0.9244338775988694,-0.012660169459371337,-0.5429571936513828,-0.00047044642725204994,0.34096088767283395,0.054913097250367436,-0.573043700993729,0.6526074826729338,3,right
8.915,-0.03081820300976716,0.9292653612426001,-0.011171755282800552,-0.5766465740210107,0.014174691696371224,0.37174510548685713,0.06557410821816645,-0.6323680314118039,0.7000934124422962,3,right
8.916,-0.04898584698688146,0.9309018847745083,-0.013306472041851905,-0.548553073106276,0.0019560659479053322,0.3460405628853051,0.05151208866105057,-0.5541229535731331,0.6374524021719117,3,right
8.92,-0.0522957778713338,0.9321229587235678,-0.014326160372942192,-0.5493975015652307,0.0023090556565862484,0.3467256518140177,-0.00751184668283914,-0.22567751350083443,0.37454935331321,3,right
8.921,-0.05962338362553646,0.9365571409627125,-0.013754971798422038,-0.6026035329677691,0.025512698474592792,0.3957855196651716,-0.021574721274931295,-0.14743126997786649,0.3119013889908441,3,right
8.921,-0.06707924605800314,0.9413363511761448,-0.01109384566146819,-0.47176806976572816,-0.031535693343547534,0.27521011419650343,-0.010912438693757014,-0.20675536851272497,0.35940070607521213,3,right
8.925,-0.06484677461635568,0.9535392793722097,-0.014016045953231039,-0.6886920231618574,0.06305056938542543,0.47512991118840836,-0.01734322004306578,-0.170975027856848,0.33075264111561686,3,right
8.926,-0.06210254663217752,0.9661074987039115,-0.01916136782366766,-0.4025881801415005,-0.061700035653202444,0.2114369055254322,-0.014727479980691599,-0.18553154485318163,0.34240293951895784,3,right
8.926,-0.061727831785448516,0.9701849004974309,-0.02075892444686369,0.7982876526229825,-0.585207033939782,-0.8953415518912343,-0.014687992780398576,-0.18574251757984228,0.3425857031788647,3,right
8.93,-0.061565782583262355,0.9792953866425587,-0.027751344203871847,1.0843998162653883,-0.7099290872689994,-1.1590139758749534,-0.016064814726507094,-0.17809866480647052,0.33643963304796887,3,right
8.931000000000001,-0.06064225643349504,0.9903654470078246,-0.039272972766784264,0.8674373078741775,-0.6153997672514213,-0.9591416709753672,-0.014414618948678536,-0.1872570851184574,0.3438080774045206,3,right
8.935,-0.06079959624897132,0.9989577891445834,-0.05424301483741066,0.99837402374399,-0.6723676322540992,-1.0796362012082756,-0.015701182760846484,-0.18012149598426375,0.3380599985271121,3,right
8.935,-0.061265079554061415,1.0067969783142297,-0.06773675790837991,0.9449820517147207,-0.6492517564843732,-1.030686661200674,-0.0150081756850366,-0.18396771854891603,0.34115420832135546,3,right
8.94,-0.05962170764572136,1.0091709719466766,-0.07379727543590944,0.944393533588489,-0.648837012405072,-1.029887237793794,-0.01516012686789615,-0.1831023298359708,0.3404918726166447,3,right
8.941,-0.057250523580481924,1.0092564657992762,-0.07915593695045298,0.9722355231157721,-0.6610424357981088,-1.0556572013260834,-0.01536150401587239,-0.18204548456374997,0.33954842117831097,3,right
8.943999999999999,-0.051640935752237375,1.0054704144566038,-0.07879078082286264,0.9386524505066085,-0.6465375299330216,-1.024930880756008,-0.015013148157346461,-0.18387433047766888,0.3411799216502649,3,right
8.945,-0.043964311522758925,0.9982671118377012,-0.07273686180532346,0.9651646701286014,-0.657660018940094,-1.0486446852391236,-0.015349097979251467,-0.18213928353455588,0.3395856922761686,3,right
8.951,-0.037262892001605256,0.9917013993465293,-0.07086152262636393,0.9503085490424876,-0.6519331539901357,-1.0361938648726974,-0.015118963108404338,-0.18331282236301555,0.3406886987913428,3,right
8.952,-0.028979421833976234,0.9820916608918284,-0.07327418569251151,0.9545175234123955,-0.652848443676226,-1.0385499721914795,-0.015205805565306712,-0.182828628186063,0.34030255699622414,3,right
8.955,-0.02277767220105606,0.9710494957468372,-0.07843279079021963,0.9574413556557462,-0.6548560889049336,-1.042458932602262,-0.015262996007280462,-0.18270896617449867,0.33990335480954575,3,right
8.956,-0.020000027775137978,0.9614944740923197,-0.08139487182727309,0.9509927977225321,-0.6520513819763872,-1.0365266826978188,-0.015084385229853045,-0.1832490860174868,0.3410290567777552,3,right
8.959,-0.017183257249249916,0.9523618878074347,-0.08503566024831677,0.9585167739399659,-0.6539713806106062,-1.0412070303440346,-0.01533970763144831,-0.18250524274472346,0.33939931109322585,3,right
8.96,-0.02023320693926029,0.9452853159951073,-0.0912648272597466,0.9510804065877337,-0.6538376550886897,-1.0395046421276581,-0.015082297572483234,-0.18321603586968363,0.3410708743587031,3,right
8.964,-0.029312376705850497,0.9411646025967513,-0.09147929864290369,0.9579044137143473,-0.652175731489119,-1.038108825612834,-0.015231188789266974,-0.1828044306395875,0.34010430027967564,3,right
8.965,-0.04003580859443806,0.9392921518932026,-0.08978314260658367,0.9525104076004928,-0.6547672637553994,-1.0413303968952232,-0.015326776165764824,-0.18263196127324172,0.3394171400111208,3,right
8.97,-0.055621551436685186,0.9410324300151411,-0.08863398230435819,0.9546673911854316,-0.6528513664800516,-1.0385838463362023,-0.0148660264957646,-0.18362289380591554,0.34261365550125417,3,right
8.971,-0.0736584858896572,0.946877754761902,-0.08569493726041749,0.9585472289987983,-0.6520810919563395,-1.038080334712792,-0.01572260473988151,-0.18177338942609672,0.3366761696382865,3,right
8.974,-0.0919639542311945,0.95486275932461,-0.08556118887649336,0.945832147896042,-0.6573124217329922,-1.0442188425426746,-0.01462542791187395,-0.1841332028369954,0.3442882219375746,3,right
8.975,-0.11035855727922786,0.9629579944969392,-0.08501024955681771,0.9681694501275532,-0.6470686115562287,-1.0316875771401715,-0.015540178019113258,-0.18216987974867882,0.3379385986925932,3,right
8.981,-0.12375890930598167,0.9711512162355068,-0.08076052037798943,0.9400380227513504,-0.6604626809160346,-1.0482877670480444,-0.015511947588663874,-0.1822424843738403,0.3381263400196425,3,right
8.982000000000001,-0.1309651624227115,0.9793095807308185,-0.07794910784454478,0.9632895718943981,-0.6491780144613769,-1.0342107520597006,-0.013782466304380401,-0.1859036395565722,0.35016700941844936,3,right
8.985,-0.12950605429431733,0.9871765455415581,-0.07684550781868327,0.9628597125340336,-0.6495719045594478,-1.0347819286620918,-0.018035975702581933,-0.17688989914996095,0.32055988377863376,3,right
8.987,-0.12099985509587985,0.9957500882753147,-0.07338036983696317,0.9181567416261763,-0.6709259390202698,-1.0612706473850393,-0.010983688383352263,-0.19183403501353063,0.36964938230861305,3,right
8.988,-0.11630762467622377,1.0009716550035865,-0.07083564823573257,1.027674661110486,-0.6182818993261578,-0.9958232520226878,-0.02028479166283178,-0.17212724936471357,0.3049038677338488,3,right
8.988999999999999,-0.11521591962315456,1.002796931539458,-0.07083606154802806,0.8462566374861461,-0.7056435144279232,-1.1045022863608653,-0.059315582432352326,-0.08947065937479307,0.03319443339734672,3,right
8.99,-0.11368474725799599,1.0059751801422236,-0.06930957262956533,1.0854678959383306,-0.5903775753391831,-0.9610733121724664,-0.0686152780699418,-0.06977184672787831,-0.03154434970251707,3,right
8.994,-0.11260268739884613,1.007926486316848,-0.0698814876659999,2.0894389801279423,-0.10652671600708319,-0.3590382747069391,-0.06156543198167913,-0.08470175914765188,0.017532183853735492,3,right
8.995,-0.10585037193941851,1.0098501844579468,-0.07165366284054922,2.328615922085218,0.008758339408506628,-0.21556080809630854,-0.06581626813782473,-0.07570456322885795,-0.012057586116962095,3,right
8.996,-0.09140522677928802,1.0133469585816477,-0.06844255623116785,2.147289562602242,-0.07864773340131918,-0.3243425744119463,-0.0640884402817269,-0.0793534607913525,-3.42491439622606e-05,3,right
8.998,-0.07267346162568525,1.0137509376658043,-0.06303202718335511,2.2566284350545383,-0.025927347808677857,-0.2587370883442523,-0.06406113186936345,-0.07942513419560329,0.0001630664917025744,3,right
8.998,-0.050597821691381564,1.0122631220171558,-0.05655115455742518,2.2122005423802937,-0.04738638816992793,-0.2854188319668922,-0.06497097350800995,-0.07748500746153969,-0.006178092195156849,3,right
9.005,-0.030267223130772253,1.010110015888471,-0.05177448120771552,2.2114448590588616,-0.04767032636394727,-0.28581990439447846,-0.06388316450861325,-0.07979441457005393,0.0013978103399081168,3,right
9.006,-0.014261173770355014,1.0048448704608453,-0.05400059303718728,2.2349505842885558,-0.03645045534317848,-0.27179046979377514,-0.0647273811595757,-0.07801737050594279,-0.0044725996133399065,3,right
9.008,-0.0010905162993850312,1.0016397369293417,-0.056748860458147074,2.2068320808641673,-0.04989597859500204,-0.28858848241754065,-0.06427775807012667,-0.07893473400516207,-0.001363662104492599,3,right
9.008,0.009109955779622788,1.0018620602130441,-0.057741916291026436,2.2286698239013782,-0.03941461390630224,-0.2755165511995302,-0.064370483018171,-0.07879822823984928,-0.0019727734637124262,3,right
9.013,0.017200003437632925,0.9988627530317924,-0.05872854742603784,2.2170818500349556,-0.045097963239122664,-0.2825342817616421,-0.06450558568796924,-0.0784387673892554,-0.0029579884638301895,3,right
9.013,0.02377517341062378,0.9956272914193537,-0.05059851794912495,2.2192892410127203,-0.04372532488471784,-0.28100351449604444,-0.06428497530406496,-0.07896439979509898,-0.0013865568578127834,3,right
9.017999999999999,0.02794184240977453,0.992843649410334,-0.041381869849472924,2.2232159792554445,-0.042362572009108014,-0.27900208110615865,-0.06448126886130348,-0.07854916155661765,-0.002752723483851996,3,right
9.019,0.02577583817469584,0.9880725401768525,-0.04228818970458631,2.2168313578666528,-0.044790255813976804,-0.28239803873087005,-0.06437047243122529,-0.07867561171727451,-0.002047653888454212,3,right
9.023,0.015051975473716447,0.9855232750692796,-0.03992762587534762,2.222679372078492,-0.04248917279994112,-0.27923567542207306,-0.06438043985120628,-0.07890179314980596,-0.00196565473098396,3,right
9.023,-0.0033277358103877674,0.9832247104137186,-0.0350613155456603,2.2193011851172724,-0.044122717370841114,-0.28126602564191866,-0.06445122478691664,-0.07838295285896427,-0.0026842882308622928,3,right
9.027999999999999,-0.033119502213827916,0.9808949208960802,-0.03455115251292011,2.219302485845779,-0.043159706301448275,-0.2806215071465934,-0.0643444277861117,-0.07900245524035619,-0.0017000221016736402,3,right
9.029,-0.07134769625387266,0.9787063133976823,-0.029692228459072812,2.2226775998914112,-0.0437314742451603,-0.2800670575230445,-0.06442714797022167,-0.0785999154377359,-0.0024150404849778468,3,right
9.033,-0.10865689323640607,0.9741138022420265,-0.020381568816638766,2.2168336537341586,-0.04326865747261745,-0.28137982094730185,-0.06443311823593596,-0.07839159214713816,-0.0025764860439924722,3,right
9.033999999999999,-0.1451430202300238,0.9673514207881044,-0.009795730352541951,2.22321382715667,-0.04368935795431912,-0.2798898421447894,-0.06428645899663307,-0.0795592020045639,-0.0010306794519921252,3,right
9.039,-0.18029712138382215,0.9582526134931999,-0.0026989816237970115,2.219289812912149,-0.043561046023964795,-0.28089378341027793,-0.06458690938160506,-0.0773333100341822,-0.004095658173500005,3,right
9.04,-0.21148395333151082,0.9524590728818487,-0.001184100153372515,2.2170847272738925,-0.0428819852983997,-0.28105111283061346,-0.06419086569657384,-0.08021342863296178,-8.86389039585656e-05,3,right
9.042,-0.24363316993456685,0.9470639105476979,0.006139698435730598,2.2286620041234655,-0.04492336631385481,-0.279203183628856,-0.064525819034399,-0.07779943979424186,-0.003464058233944413,3,right
9.043,-0.2810438468492694,0.9430492632711918,0.018677849914436336,2.2068447325633858,-0.04130558581767444,-0.28283980069387277,-0.06451011590353836,-0.07787972524886122,-0.003326235122727659,3,right
9.049,-0.3196890562779344,0.9485419710138249,0.02709388742282086,2.234936180204497,-0.0459132561337873,-0.2781226781553625,-0.06388909552478354,-0.0824431575296086,0.0029863961609993307,3,right
9.05,-0.3569800566748606,0.9563475528569861,0.03174395536552664,2.211454029779955,-0.042081885093277115,-0.282080702460484,-0.06542505820797509,-0.0712047296051651,-0.012596428173263226,3,right
9.052,-0.3905956216364354,0.9691902777580853,0.03224509804134282,2.2122072401685546,-0.04212686885904049,-0.2818985298419402,-0.062874787313576,-0.08984749268024794,0.013265888817821472,3,right
9.052999999999999,-0.4084932427604416,0.980471794920994,0.03168772506008075,2.256593729746494,-0.04962498870456618,-0.2745956227615096,-0.06623983194312791,-0.06525375842858122,-0.020855481265065316,3,right
9.056000000000001,-0.41321334189380743,0.9827075192811814,0.031291717723051754,2.1473617636674653,-0.03126486934492456,-0.29263555097500416,-0.08036018753074406,0.03795307570558618,-0.1640444410676345,3,right
9.057,-0.41449254995829854,0.9915763949864319,0.026332846741938837,2.3285044188620727,-0.061688731554462174,-0.2626990374380961,-0.08372534299485457,0.06254937025740956,-0.19816726791248063,3,right
9.058,-0.41236480302060174,0.9980268334735628,0.02356385448204286,2.0895810846272918,-0.021561490973830158,-0.30219028442624996,-0.0811741788354784,0.043902199841774986,-0.17229799031251092,3,right
9.062000000000001,-0.40863705440430986,0.9983683092295027,0.022416780326042572,1.0868112793799507,0.14695935574872357,-0.46781075134309474,-0.08271283513439778,0.055145373449105584,-0.18789928719656476,3,right
9.062999999999999,-0.3900661239511368,1.0051032438833087,0.015760361679714417,0.8479124754035998,0.18709345542410205,-0.507298670792242,-0.08208656535227597,0.05057917409488415,-0.1815525652773986,3,right
9.064,-0.35544149931973923,1.0103005503776172,0.01090212426632331,1.0290285901326497,0.15666217297993046,-0.4773657582822909,-0.08207838432359482,0.05049685524853384,-0.18146182517285173,3,right
9.067,-0.32135228796574256,1.0141902074951359,0.008750375117128464,0.9197865311826453,0.17501946683050915,-0.49540705275481584,-0.08240557291719006,0.0529201541125429,-0.18479076689558083,3,right
9.068,-0.2822503407244359,1.021685849150825,0.004816672308767453,0.9642610544188375,0.16754596968924995,-0.48809220973564355,-0.08201348851203305,0.05002277729060302,-0.18080376139724436,3,right
9.071,-0.2387849945117834,1.0272216877938913,0.0003438068589092867,0.9648248477589421,0.16744801127504927,-0.48793572291703907,-0.08231923644895404,0.05227094810523644,-0.18390888357316132,3,right
9.072000000000001,-0.20070294628686117,1.0302179977141819,-0.005954055698220093,0.9416142841634912,0.17135533384217555,-0.4918569156987224,-0.08215303406906657,0.051083981114429265,-0.1822334925646591,3,right
9.076,-0.16236893436804362,1.0321684300975642,-0.013980628066555157,0.9694352864803388,0.1666720358672805,-0.4871764737890421,-0.08219418562258636,0.05129586169040035,-0.18261899728919298,3,right
9.077,-0.12448633351901145,1.0323545499005897,-0.019837747319598496,0.9477347098971378,0.1703224404749184,-0.49079725619852566,-0.08223205410116413,0.05172565274927818,-0.18305773182937057,3,right
9.082,-0.09433452888688124,1.0333672149991997,-0.024603669427693674,0.9595442147966247,0.16834601984826425,-0.48891784651621784,-0.08216355561887129,0.051037253753394934,-0.18229594192029033,3,right
9.083,-0.07129732677714753,1.0349101298548435,-0.03605959266053013,0.956591047716997,0.16881585635078716,-0.48917661350489694,-0.08222882765466505,0.051663992732930764,-0.1830114133947065,3,right
9.087,-0.056963661486877204,1.0356933916140822,-0.05412333653098125,0.9539560148962796,0.16930465264118186,-0.4900057564368331,-0.08218113851264641,0.051316812103269493,-0.1825282912747554,3,right
9.087,-0.051740125213808524,1.040102194506021,-0.072207406274374,0.9587542789503937,0.1684415662918458,-0.4887303172732084,-0.08221274858786008,0.05126996048097336,-0.18274937198951105,3,right
9.091000000000001,-0.05095232059648727,1.0452563335261063,-0.08365748578797907,0.9541715159253756,0.16925704632842645,-0.48987201199226066,-0.08218804138519202,0.05172441111380617,-0.18272618431162713,3,right
9.092,-0.05337218129489965,1.0469737050984929,-0.08281728371155775,0.9575578497103667,0.16868848579106485,-0.48931610100318135,-0.08221352304232818,0.0509632797214378,-0.1826453377481314,3,right
9.096,-0.06099589196023083,1.047442018064559,-0.07898978693779418,0.9552187718303702,0.16899689905712256,-0.4889888956130185,-0.08218847052998815,0.05179012322283509,-0.18275302148907993,3,right
9.097000000000001,-0.07601103561624839,1.0448910680107415,-0.07880442502874044,0.957189164526304,0.16885921046337665,-0.4902939661171545,-0.0821996090802801,0.05128794390256165,-0.182656821705871,3,right
9.101,-0.09505937712877338,1.0381151312081296,-0.07636006014584673,0.9550579358564483,0.16892881466502754,-0.48821369196903536,-0.08222576396887106,0.05097615387076256,-0.18274219283851123,3,right
9.101,-0.11673917417322192,1.0287544223070082,-0.07089834253318697,0.9571794192103344,0.16887982186005612,-0.4904560099319163,-0.08213837498286372,0.05253885293166417,-0.18264407838842492,3,right
9.106,-0.14282240243648525,1.0188907891194035,-0.06158561413331022,0.9561913115726822,0.16886839013752294,-0.4891213180155335,-0.08229556980062483,0.049605113010358456,-0.18277626779691253,3,right
9.107000000000001,-0.1662618188505115,1.0113476548871456,-0.055202781990998054,0.95416198769259,0.16905572009702297,-0.4881647901290245,-0.08209479253394375,0.05338010436294814,-0.18261775239572883,3,right
9.11,-0.1863887989783236,1.0061438678969652,-0.055393306001625175,0.9611158938857657,0.16855833444210427,-0.49266828083301967,-0.08226201031994479,0.050225451748591964,-0.18274546487429644,3,right
9.111,-0.21032073680333174,1.0072200844833241,-0.05244685786793916,0.9485675818503743,0.16942287500721945,-0.48425953573768366,-0.08225909210138005,0.05032297822725446,-0.18275958120093738,3,right
9.115,-0.2343532073663713,1.0174510914285457,-0.05527894650848578,0.9646023097286177,0.1683252891020674,-0.4950691955841636,-0.08193487447533482,0.05629811914142718,-0.18245863561379932,3,right
9.116,-0.2571302451244228,1.0307974798576622,-0.06523512218215802,0.9512471250128953,0.16923715879282789,-0.4860401903138312,-0.08272995831914479,0.041597958345076215,-0.18317739122170956,3,right
9.121,-0.2777626712343566,1.046938776213144,-0.06448318114116208,0.9514878072016079,0.16923087638974738,-0.48630312793657055,-0.08141202197559443,0.06597471128815763,-0.18199134551160678,3,right
9.122,-0.288994657016931,1.057337570357892,-0.057992719081899326,0.9773501914633415,0.16742996015917327,-0.503457385447599,-0.08315052403904527,0.03382224038041162,-0.18355483567512826,3,right
9.126,-0.29160073792409424,1.0578438204184002,-0.05476338942980767,0.9139255064147201,0.17183649839747245,-0.46127379925632567,-0.0904492722645951,-0.1011231614215215,-0.19014484776801438,3,right
9.127,-0.28349888368205545,1.0671160114806701,-0.05582585397054897,1.0190505217609591,0.16453310828604362,-0.5312197006594404,-0.09218848140710029,-0.13327250872252278,-0.19170920998215163,3,right
9.127,-0.27275585551717263,1.0753956524803785,-0.06122459183573962,0.8803931449067653,0.17416952248649387,-0.43896372687788443,-0.09086954493124108,-0.10889987040844912,-0.1905228669021703,3,right
9.13,-0.268114275778629,1.0776150448198416,-0.06535815608251203,0.29821222683823245,0.21462698820652684,-0.051733550651005294,-0.09166517061285723,-0.12359871284237028,-0.19123897505516238,3,right
9.131,-0.2525371738346452,1.0953200485215444,-0.06408861797771213,0.15953738209943633,0.22427565218691975,0.04051292927110674,-0.09134177372223434,-0.11761772946274796,-0.1909458773283604,3,right
9.131,-0.22504372666381975,1.1154024338727295,-0.05363357972256575,0.2646822397055508,0.21695436752744662,-0.029419363904606116,-0.0913359425895981,-0.11753635982956845,-0.1909462600754524,3,right
9.135,-0.19280411533577374,1.1300281706844992,-0.044035892769557425,0.20126140191696862,0.22137230388452295,0.012756311025594911,-0.09150825523345196,-0.12066497568383328,-0.1910911400434841,3,right
9.135,-0.15371657851742815,1.1488452807878557,-0.045030362012685496,0.22706798316722937,0.2195814604951856,-0.004407655069577236,-0.09130125740894232,-0.1169194980059028,-0.19091868188608163,3,right
9.14,-0.1185116585014577,1.162513149544917,-0.0508037416976364,0.22743333356770812,0.21953086414206496,-0.004633426792160512,-0.0914632666034989,-0.11983384295932148,-0.19105103296593845,3,right
9.141,-0.09215795690700003,1.1679792898168793,-0.0645575393828135,0.21389571620847875,0.22052439825543474,0.004329258412183406,-0.09137631028378285,-0.11826114795024488,-0.19097838182565216,3,right
9.145,-0.07590883449981747,1.1690351015744211,-0.08511825232128922,0.23011671049369117,0.21932284781338457,-0.0063980817820255545,-0.09139262675077166,-0.11863153963958052,-0.19100493562471413,3,right
9.145,-0.07443335542628651,1.1683763864687262,-0.09254701748298699,0.21747948253386584,0.22027429824472985,0.001944913249636135,-0.09142551062817056,-0.11901775976692647,-0.1909969079286724,3,right
9.149,-0.08090380991740947,1.167441414293008,-0.08307717519956909,0.2242931311901874,0.2197692878354081,-0.0025596043731602736,-0.0913686821309113,-0.1183491378437081,-0.191010367679313,3,right
9.151,-0.08817493740443855,1.1619851432542894,-0.07301421602838472,0.22274948971076122,0.21981448688899952,-0.001479932878823627,-0.09142709728471353,-0.11896036586022854,-0.19098375485068003,3,right
9.156,-0.09953369551819799,1.1515411259235537,-0.051333597469595066,0.22090530373016315,0.22014256945639912,-0.00042544283912653177,-0.09138519190258271,-0.118559266192264,-0.19100911981146854,3,right
9.156,-0.1186618123942618,1.137698953021805,-0.015166887765909456,0.22409782315793453,0.21957645378867863,-0.002251666378378047,-0.09139580582984265,-0.1187588665699677,-0.19101930303277959,3,right
9.16,-0.14456467271078374,1.1233730596587976,-0.004151067887742586,0.22108222687787754,0.2202083549459095,-0.0006109738125675581,-0.09142784007005365,-0.11865773126374306,-0.19093092557203278,3,right
9.16,-0.18004653107398907,1.1145557303005025,-0.02226262394257782,0.2231149014444585,0.21973040402834126,-0.001671743634095028,-0.09134871835405323,-0.11877940459034825,-0.1911274682555873,3,right
9.164,-0.2272403754327387,1.1127104869873214,-0.047657603643784976,0.22225604706572782,0.21978727753830452,-0.0010981154886249935,-0.09146536737717693,-0.11857236903705887,-0.19083307033900054,3,right
9.165,-0.2843634728793458,1.1156337006094978,-0.08392327186941745,0.22213226070608005,0.2204200989281132,-0.0015557766542834278,-0.0913428562432419,-0.11882691568808522,-0.19114850934866023,3,right
9.169,-0.3452114715959018,1.121799244993416,-0.11773275971118646,0.22288815045750138,0.21894075957304956,-0.0008241000172683507,-0.09141364050181489,-0.11868007585166587,-0.19096632319307158,3,right
9.17,-0.38981335301131936,1.129109433685647,-0.11903969228037316,0.22187005081440747,0.22114027712823656,-0.001988758070897348,-0.09147067756783145,-0.11847899930288609,-0.1908054522276796,3,right
9.174,-0.40896872824120767,1.1374204058201398,-0.08997144948664094,0.222809884502036,0.2188053786393548,-0.0006502054488969525,-0.0912159599059778,-0.11926287941564055,-0.19150441173947375,3,right
9.175,-0.4113965659242653,1.1495251837413814,-0.06300372141215488,0.22226506496144566,0.22015509621292606,-0.0014227750269919933,-0.09168853561475299,-0.11781364868200792,-0.19020856780829337,3,right
9.179,-0.40249593054771143,1.162441362701824,-0.056273018429080654,0.22211912322994565,0.2212945322898753,-0.0023030235882206956,-0.09108212238059951,-0.1196810796942388,-0.19187265456176628,3,right
9.179,-0.3886988790334086,1.168006227219664,-0.05869693818671895,0.22317742557174736,0.2162754045914021,0.0012724556458176862,-0.0915881439341547,-0.11811873112106035,-0.1904834592959816,3,right
9.184,-0.3690989633505347,1.1705967373102029,-0.06226151079135368,0.22119343597637053,0.2255862476135292,-0.005344993193862439,-0.09157422850902705,-0.118154289795759,-0.19052020363930844,3,right
9.185,-0.3409465288196204,1.1742532872886988,-0.07767270852855504,0.22371470174936586,0.21363118320533292,0.0031704742925999564,-0.09061066896154646,-0.12116422093627191,-0.19317188812828368,3,right
9.189,-0.3105781083140581,1.1829281669243426,-0.10846438558119241,0.221621303495175,0.22361296847615575,-0.00394753388197854,-0.09297888441909495,-0.1137698229888364,-0.18665561922554713,3,right
9.19,-0.2821727255950225,1.2141459561483177,-0.13100387759420767,0.2217135804509747,0.22333597691286172,-0.003775748573824984,-0.08905262339678308,-0.12603240092917112,-0.19745919331904227,3,right
9.193999999999999,-0.26861380141285784,1.2403211038731055,-0.13445001518480446,0.22555647512371757,0.20432334147158163,0.009889174772437313,-0.09423092014422296,-0.10985445857119656,-0.18320996995011093,3,right
9.195,-0.2686338757450709,1.2459711070010715,-0.13386581429188132,0.21608193362309763,0.2510651435742254,-0.02368399039538684,-0.11596928543701639,-0.04194723233909269,-0.12338969316947113,3,right
9.196,-0.2609053914503948,1.2736854812534455,-0.12864944634255404,0.23179154042175842,0.17355774018495526,0.031986349629742165,-0.12114690408459983,-0.025763531070438155,-0.10914153640126936,3,right
9.199,-0.25414333193863803,1.2993859302989077,-0.11996804505716127,0.21107552302699628,0.2757975764259349,-0.04145117313927348,-0.11722145558530706,-0.03803379804090393,-0.11994402611592683,3,right
9.2,-0.2522601828951099,1.2997857533578498,-0.11868468332108174,0.12422368966812616,0.7048964690627901,-0.3497443954738715,-0.11958967074105459,-0.03063660464255091,-0.11342707174195675,3,right
9.2,-0.23533603356033098,1.3099360512888854,-0.12315566145651677,0.10351050650104177,0.8071577468400684,-0.4231978756645144,-0.11862425345196083,-0.033636516296421934,-0.116083092459603,3,right
9.203,-0.21360240216488402,1.326166901488134,-0.12408011599463686,0.1192156862743064,0.7296168288797853,-0.36750259116929607,-0.11861471991546849,-0.033700747118682844,-0.11611084646442556,3,right
9.204,-0.20183156538662117,1.3434279499022166,-0.106504199415237,0.10974479769614268,0.7763863482250827,-0.40109639119936913,-0.11911415070605959,-0.032091592800501605,-0.11473426961921945,3,right
9.208,-0.19508737952369967,1.3643871576214728,-0.07826297653603942,0.11358792887288899,0.7573753327189602,-0.38743265928213644,-0.11851468526784063,-0.034012747420454986,-0.11638613070702072,3,right
9.209,-0.19156467395468318,1.3766410338046344,-0.06460597200577288,0.11367305955699933,0.757044529203966,-0.38722084656586153,-0.11898354858475804,-0.03252712318109517,-0.11509493117510738,3,right
9.214,-0.19122906393139755,1.3846462406192632,-0.06757366298691489,0.11159522176229342,0.7671437631601752,-0.3944262409365361,-0.11872451133238147,-0.03329531699723781,-0.11580584247444847,3,right
9.215,-0.1972873199112743,1.393550589289011,-0.07677003904451524,0.11409435432657344,0.7550214115732575,-0.3857862864153939,-0.11879829547735495,-0.03319714627231864,-0.11560897183958957,3,right
9.218,-0.20853341877790432,1.4013500106201326,-0.081406916728014,0.11213224245591352,0.7644979073195741,-0.39252703086303076,-0.11883861606714675,-0.032843266141609304,-0.1154873953813319,3,right
9.219,-0.21278373975490333,1.409371445495423,-0.06624406612525388,0.11318114365010276,0.7594070405176419,-0.38889810957728554,-0.11875519842418852,-0.03338346638926229,-0.11572995789367832,3,right
9.224,-0.20166362295131768,1.4167635946676511,-0.026950170056278228,0.11301661823826295,0.7604070432778706,-0.3896746845830845,-0.11883813103141079,-0.03290155617686457,-0.11549141031698865,3,right
9.224,-0.1784367478640108,1.4220775628003606,0.004386939979640689,0.11253155695227163,0.7622073251742082,-0.3907824501249859,-0.1187645757986502,-0.03312926714107814,-0.11569362981632769,3,right
9.228,-0.15348157299601195,1.4284561037672936,-0.0053184217946300695,0.11336860330157625,0.7590961820016682,-0.38886630756281343,-0.118845722086486,-0.03328939526735698,-0.11548972986041191,3,right
9.229,-0.12923055726234872,1.4350895469545115,-0.040701130865283874,0.11247643105568349,0.7622480287423559,-0.39073968865381514,-0.1187334525384758,-0.03269506188094605,-0.11575452244737808,3,right
9.232999999999999,-0.10078634931210956,1.440451162711025,-0.0684258738866681,0.11313222252000031,0.7600096993822865,-0.38944300488227535,-0.1188834088000442,-0.03363628782627078,-0.11540758990136639,3,right
9.234,-0.06578627207929488,1.447513619663257,-0.06181148009441255,0.11300691246409957,0.7606355701429586,-0.3898958764132544,-0.11872682309016355,-0.03262292814422313,-0.11576861097878391,3,right
9.238,-0.02305508497561238,1.4515689042284308,-0.0192081859676673,0.11233521360395049,0.7621009841313351,-0.3903699116165146,-0.11881213270940019,-0.033224200242368204,-0.11557391084116779,3,right
9.238999999999999,0.022929282086621476,1.4518296186728468,0.02378659879949659,0.11394135524561422,0.7584046427280897,-0.38903616587569656,-0.11891123669408318,-0.03366384850631419,-0.11533672105696383,3,right
9.242,0.06124049893977633,1.4546456391219564,0.04021448096482323,0.11156111630092477,0.7638372740668996,-0.3909678251644225,-0.11851937458661312,-0.03161149280096136,-0.11626167050384639,3,right
9.244,0.08857970734067336,1.4604838769000263,0.02727068971448751,0.11407750695786184,0.7581541845098876,-0.38898568589466737,-0.11923851246427326,-0.035440208397929746,-0.11456631334079079,3,right
9.248,0.11114452303982433,1.4693750638672358,0.001119859447720647,0.11262197880420088,0.7614376478514305,-0.3901319416937781,-0.1183168281615628,-0.0305196185924359,-0.11673935854326523,3,right
9.249,0.12948480445627514,1.4786983398199025,-0.006405292237929186,0.11141967998957727,0.7640342184548155,-0.3909484834727017,-0.11908556527434819,-0.03462831367613911,-0.11492592917597286,3,right
9.252,0.1489311800161066,1.4845795140938773,0.008944437661551874,0.11675272780241339,0.7523711482664172,-0.38715244587912734,-0.11906749172505961,-0.034512135209454786,-0.11497044610685246,3,right
9.254,0.17316266663091784,1.4879904655968077,0.02933910822966926,0.10685576334704139,0.7740119935150029,-0.39420364968985555,-0.11759279001688538,-0.026696853926695706,-0.11844562731144306,3,right
9.257,0.20077715566290866,1.4836025471641254,0.049001805083146076,0.11956361885186301,0.7462475715829926,-0.3851633571025746,-0.1212141170797746,-0.04590897149919346,-0.1099071812509238,3,right
9.258,0.24067669269535766,1.469052112201282,0.056642497922180166,0.10895087973069917,0.7694122512860296,-0.39270475941475097,-0.11521075012039833,-0.014056890835819232,-0.12406621555954046,3,right
9.262,0.2701406886142004,1.459388090783369,0.052722084464629476,0.10925576965421613,0.768772814329416,-0.3924812918549762,-0.12312893699028801,-0.056064808725905586,-0.10538656820980022,3,right
9.263,0.27704949817594576,1.4567537458774629,0.05172832942376442,0.12944035877823326,0.7246790947520426,-0.3781813639618164,-0.15637104203316493,-0.23243810428936273,-0.02701586814962472,3,right
9.264,0.30049241205995114,1.4458837800793702,0.04429538373451074,0.07979982853877593,0.8330495346178786,-0.4133452061341918,-0.1642892962706395,-0.27443666409311573,-0.008328394564328403,3,right
9.267000000000001,0.3367548869008676,1.4308904678247047,0.03175889247102955,0.162125032795103,0.6533875457412135,-0.3550411686251263,-0.15828585650581783,-0.24259470913030529,-0.02249589443924168,3,right
9.267999999999999,0.3524729940299254,1.425233905148569,0.02882372003463008,0.0535202827589176,0.8903353325894277,-0.4319416756152116,-0.16190715555738222,-0.2618106744366204,-0.013960675584147974,3,right
9.267999999999999,0.3572972172042959,1.4223543506688312,0.030024067412031792,-0.40211060423636247,1.8850771321382642,-0.754658941886158,-0.16043269622102596,-0.2539618144403223,-0.017407755457490813,3,right
9.273,0.37067560271247796,1.4133440451665487,0.029561937487900862,-0.5107462333211263,2.121983835535639,-0.8315567178148489,-0.16041410157784594,-0.2539178889905612,-0.017512726609176056,3,right
9.274,0.3855973944946559,1.4040282270886895,0.02318781383915322,-0.4283885683654605,1.9423709402602753,-0.7732589684849787,-0.16118358551354373,-0.2579229845661737,-0.015612625635086506,3,right
9.277000000000001,0.3951945676122146,1.3945036069974028,0.00965766880338003,-0.4780130327857174,2.050741836576994,-0.8084121276817919,-0.16026115793078635,-0.25310556242543214,-0.017871968327488077,3,right
9.277000000000001,0.4040905659411862,1.3821925599442677,-0.0014567182486788658,-0.45794619023885547,2.0065345849011527,-0.7941267391010266,-0.16098061577773293,-0.2568897553324675,-0.016139392745680804,3,right
9.282,0.41086587626024007,1.371312855937939,-0.004404599156968586,-0.4573925805227118,2.006162081620765,-0.7938882497234825,-0.16058939364402733,-0.25474882620794403,-0.01699019754489988,3,right
9.283,0.41707439180643874,1.3592931699554176,-0.0007748247403203861,-0.4683582289397708,2.028925894119797,-0.8014381708232202,-0.16068643904018862,-0.25547382448166894,-0.016991779229378494,3,right
9.287,0.42285993532379795,1.3454556307033492,0.0028052960975440628,-0.45530357684457695,2.0015833101509095,-0.7924056586993397,-0.16077529402182397,-0.2555834093275917,-0.016385705068646547,3,right
9.288,0.42448594764261527,1.332765121278581,-0.0017990281557136083,-0.46534158417697014,2.023000062907184,-0.7994233031562479,-0.16061435903878435,-0.2551734914521179,-0.017251543548675585,3,right
9.292,0.4254873698794174,1.317345212249823,-0.015931539818722175,-0.4603261369115202,2.01107171603939,-0.7956901808063356,-0.16076778009844647,-0.2556335972406728,-0.01650220849108571,3,right
9.293,0.4236577249115304,1.300198175320964,-0.03383397518093457,-0.460539421978972,2.014689611494167,-0.796423778252971,-0.1606555475331659,-0.2550350388913671,-0.0167632715989103,3,right
9.296,0.41693513041659447,1.285808568771882,-0.0494767858119779,-0.46367972588971995,2.016118614406104,-0.7976449941399362,-0.16073025006492486,-0.2560878553358309,-0.017306453382167113,3,right
9.297,0.40785103664594813,1.2715571259242244,-0.05586153215992133,-0.45911622229293503,2.0128119281211108,-0.7956430087948086,-0.1606714098814576,-0.254275363077068,-0.015801602866875014,3,right
9.301,0.3923077163209717,1.2566636436054233,-0.0502445134905785,-0.4630978588860484,2.0161998625064674,-0.7974827403834667,-0.1607323989037897,-0.2568371956430717,-0.01810951781062444,3,right
9.302,0.3717370155876422,1.2415696001508807,-0.04268023199930611,-0.46157655130316166,2.012830784250288,-0.7963961609334078,-0.16067236277083635,-0.2541325820581001,-0.015637746207889824,3,right
9.306000000000001,0.3483608694252967,1.2262211368610958,-0.03770147491451885,-0.45911463250696816,2.0172981957525646,-0.7964719984672237,-0.16069919226530976,-0.25565372293955146,-0.01708405600473744,3,right
9.307,0.3178881495123801,1.2145571290149213,-0.027993841814332916,-0.4662732581064938,2.010436590582918,-0.7973848919666002,-0.16076128769249132,-0.25717136660390294,-0.018240196889411316,3,right
9.312000000000001,0.28688969286519417,1.2067277543707857,-0.011824455214519348,-0.45522760804625584,2.0198712186513736,-0.7957628777584149,-0.160553281634563,-0.25086692783270426,-0.0130327392967443,3,right
9.312999999999999,0.2598339436570647,1.2037854874912557,0.00473384064223261,-0.4670696716949416,2.009962767297596,-0.7975404459461506,-0.16092755879748527,-0.26249801686356056,-0.022715946964210178,3,right
9.316,0.2304501957819676,1.206723230186022,0.014799500226012908,-0.4601212861439036,2.0154525565965082,-0.7964367759948661,-0.1604494950780594,-0.2475762205196013,-0.010277388637955529,3,right
9.317,0.20120441767346164,1.21136498234933,0.017480968634174494,-0.45466061088818255,2.021351371854836,-0.7958646722185699,-0.16084764958969922,-0.2600290736376675,-0.020662357361573493,3,right
9.321,0.17126945275557418,1.2226945490118868,0.01466444637874207,-0.479422058713854,1.9974439872455076,-0.7989894140259475,-0.16084068059340187,-0.25971111609183195,-0.020376025722512382,3,right
9.321,0.1390948201387061,1.2398528859034947,0.007140973757030759,-0.43334905990333306,2.041436792355398,-0.7930823517333985,-0.16006880132216364,-0.23590141505973652,-0.0005949399897996685,3,right
9.326,0.11206298128950479,1.2550920927327753,-0.007901396671920188,-0.4925391254465386,1.9850238586885376,-0.8006926646883904,-0.1619616793221666,-0.29440212898751456,-0.04921702709014142,3,right
9.326,0.0885769322721649,1.274288939512167,-0.03143116583509502,-0.44311779083707015,2.0320910231041722,-0.794328665359982,-0.1588240953516269,-0.19740832384694568,0.03139698925145666,3,right
9.33,0.07562053094600511,1.2890389204611878,-0.04765238928770263,-0.4444924341267291,2.0309322149800515,-0.7945407871803446,-0.16296278556971444,-0.325345610036029,-0.0749261787772215,3,right
9.332,0.0723798330286494,1.2926165812338817,-0.05182278657703265,-0.5385915955243415,1.9408023541568462,-0.8065455857511715,-0.1803368858869499,-0.8623517138919214,-0.5212775538319487,3,right
9.332,0.06380299371802789,1.3026525633989698,-0.060823167281830876,-0.30727915190859584,2.16219921996478,-0.7769915762149218,-0.1844766313899896,-0.9902975961707551,-0.6275887305378108,3,right
9.335,0.062003527428931775,1.3163385642302465,-0.07798269211986666,-0.6907946217039213,1.7951417040102102,-0.8260066092568579,-0.1813379063011678,-0.8932944934629439,-0.5469876903964082,3,right
9.336,0.06600864873415706,1.321805099320584,-0.08946351061883467,-0.1849663453593977,2.2792938504039695,-0.7613537973105313,-0.18323034782323744,-0.9517916600978921,-0.5956147034417513,3,right
9.337,0.06568969633980978,1.3234849484485425,-0.0936667640241074,1.9384828726437462,4.311597130167565,-0.49004539389520085,-0.1824622604472834,-0.9280128301068065,-0.5757905996610615,3,right
9.34,0.07475130015512337,1.3245651832873906,-0.10812981070036812,2.444258056958158,4.795778250457493,-0.4253951795308375,-0.18244713579186267,-0.9276284635041232,-0.5755968383147615,3,right
9.341000000000001,0.09203872636760574,1.3257414444906965,-0.13159454197215992,2.0608000251931355,4.428689388851204,-0.47440740493658196,-0.18285698139609408,-0.9401765226178658,-0.5858490707902624,3,right
9.345,0.11381029265048748,1.3252156392857395,-0.15283334641441862,2.292134330261704,4.650074324266269,-0.4448523166739925,-0.18236727887067677,-0.9251599348566839,-0.5735427015966292,3,right
9.346,0.14212591049649348,1.3235431505905093,-0.17513879282289346,2.197844598372435,4.560048463310661,-0.456866457928676,-0.1827465722390857,-0.9368318988442195,-0.5831688506904231,3,right
9.351,0.1728753333788824,1.3264827278413198,-0.1936094085173851,2.196879971479704,4.558665897227349,-0.45705849134499077,-0.18254857374913508,-0.9306089179873154,-0.5778479300725712,3,right
9.352,0.20309779616729606,1.3326279657334439,-0.20006347963588403,2.2457134418461275,4.606053876437953,-0.450723283856038,-0.18257845474529028,-0.9318642655841081,-0.5793696513577148,3,right
9.356,0.22571215052047008,1.341003328417254,-0.19341130203444662,2.1871087463276515,4.5493214890737885,-0.4583049397068031,-0.18266077814703396,-0.9338372953436842,-0.580186002893722,3,right
9.357000000000001,0.24028321647402667,1.354818927710611,-0.1776006878758613,2.232929206097161,4.593452112322989,-0.4524102172464953,-0.1825326507890837,-0.930578162692717,-0.5784873988871352,3,right
9.36,0.2431424704705278,1.3685421016694659,-0.1568463223744525,2.2076650082514546,4.569819092930379,-0.45555962525784255,-0.18264790492227495,-0.9335819920664497,-0.5801788313766518,3,right
9.361,0.22812155421025598,1.3795668459977004,-0.13093836170199985,2.214745031403764,4.574834182716903,-0.4549081646841271,-0.18258959554310622,-0.9317736519287929,-0.5786686617724568,3,right
9.363999999999999,0.20024016309455217,1.390777681977175,-0.10642009251999895,2.218903297835642,4.581846621848221,-0.4539411730838946,-0.18256348802097455,-0.9320057497576598,-0.5803554710747432,3,right
9.365,0.1556276205170733,1.3992410094555687,-0.08831307260334498,2.210485319290118,4.57006954653755,-0.45555106295175407,-0.1826815543785119,-0.9332824200066452,-0.5780026482505507,3,right
9.37,0.0897855881351283,1.4078303596602848,-0.073044091784512,2.218801259250439,4.58099385811252,-0.45406263985810674,-0.1824914753051265,-0.9309452982541236,-0.5811530596518499,3,right
9.371,0.004505966688468702,1.422558014018,-0.06721386949494626,2.211617994350589,4.574145698436894,-0.45497693149836094,-0.18269663610043962,-0.9335169148580591,-0.5778613663501677,3,right
9.374,-0.09926280881136498,1.4453625777022285,-0.08509104040469348,2.2191462526939425,4.575848260626663,-0.45480438266869744,-0.18257410568236113,-0.9319044305462341,-0.5796580105353322,3,right
9.375,-0.21198175588874207,1.4748083602358975,-0.12348225264059753,2.2090898570006114,4.5787974746822755,-0.4542850725342191,-0.18248847511650623,-0.9311428668048468,-0.5817292734581048,3,right
9.379,-0.31829073391924945,1.5018659712691336,-0.16593810200070025,2.2223798193818016,4.57275978899451,-0.45527883092248006,-0.18289576814608954,-0.9355034261112388,-0.5735189486761076,3,right
9.38,-0.4054103592287178,1.5199506137796077,-0.19283804219777298,2.208531939495623,4.579500739758448,-0.4541783071500278,-0.18213477620645813,-0.9272324032137369,-0.5885916921531918,3,right
9.384,-0.47011929784321216,1.5291155568162587,-0.19026082012494275,2.216028664413134,4.575124794503322,-0.4548792862079124,-0.1831129070412829,-0.937892570297989,-0.5692707818206794,3,right
9.385,-0.514203356676765,1.530657861601724,-0.17032199776267734,2.2249882566317716,4.573736797248722,-0.45516245546848033,-0.18229633271708606,-0.9289790858257387,-0.5853890977128055,3,right
9.39,-0.5343623333719087,1.5201029868680354,-0.14548462272703674,2.1898661581415992,4.58371266274094,-0.45339646089574026,-0.1823191873027133,-0.9292779455826429,-0.5850012326611468,3,right
9.391,-0.5396405313045227,1.5007638333076487,-0.1266924284433676,2.2542605582617297,4.564509504468846,-0.45676780972143305,-0.18387263667195686,-0.9460790620555868,-0.5541034230644342,3,right
9.394,-0.5364742168105818,1.4830952447888983,-0.12175777586702402,2.171743473822314,4.589323157321834,-0.4524155028769064,-0.18005458044411088,-0.9047216654604948,-0.629993638105151,3,right
9.396,-0.514524489866778,1.460571791139273,-0.1113151361698746,2.240561175859872,4.568546974899354,-0.45606094927635216,-0.18638397763385384,-0.9733042655641906,-0.504173345430593,3,right
9.4,-0.4948280719530833,1.4421229353458633,-0.09931954364470189,2.2389664910537634,4.569346616595237,-0.4559214171444225,-0.17803681130785098,-0.8828498927476575,-0.6701338646328134,3,right
9.4,-0.48728788005749357,1.43629053554999,-0.09250042108750152,2.106875214452887,4.608177014435357,-0.44909764574437794,-0.14296320651351083,-0.5030480654263398,-1.366664408820189,3,right
9.401,-0.45945635756112846,1.4190430444367175,-0.06297594946127708,2.4312152255007344,4.51246350077435,-0.4659238561279141,-0.1346148660990938,-0.41259424812635154,-1.5326258177332197,3,right
9.404,-0.41966358108729407,1.3898166384345172,-0.01340163717948967,1.8935371415571816,4.6712243694790025,-0.43800483866631523,-0.14095051477359039,-0.4812030243706378,-1.4068253318398283,3,right
9.404,-0.4006562473211871,1.3729094684578333,0.014666051678044974,2.602714766028673,4.4618222879309535,-0.47483852749555683,-0.13711529814092455,-0.43975055372918453,-1.4826416150418704,3,right
9.405,-0.39511390128478924,1.3687062541962,0.022291717323410787,5.580174165979712,3.582968536462737,-0.6291633898455005,-0.13870090771037247,-0.4567491969919278,-1.4518986613958504,3,right
9.408,-0.38310873263698847,1.3581385050568149,0.053757753866209776,6.289396618184644,3.3735892220063888,-0.6659841698627691,-0.13867886548483668,-0.4567536807971846,-1.4512789241461563,3,right
9.408999999999999,-0.3716486147888939,1.3433299871168105,0.09301481271368538,5.751628677609796,3.532355380994926,-0.638109222102973,-0.13790720931148562,-0.4481576896842726,-1.467648579939918,3,right
9.414,-0.36954163658231254,1.338173601194817,0.11388638512927243,6.076096726226251,3.436526511518607,-0.6548341180074468,-0.13886491181940697,-0.4586323321259239,-1.4481787110240818,3,right
9.415,-0.3699457645415651,1.3377463221106995,0.14094654728989525,5.943864340078077,3.4756571207575506,-0.648183839085142,-0.13806760877062413,-0.4501987804698887,-1.4631275737464327,3,right
9.418,-0.3710027363856573,1.3400553143352119,0.16727761571916977,5.942371522472736,3.475956793031801,-0.6478178693180647,-0.13859642374126901,-0.4552776115503908,-1.455478711683872,3,right
9.419,-0.37384223516925613,1.3471899345811313,0.17797238945218413,6.011204688986339,3.4557805975771867,-0.6516704090461822,-0.13829822251221624,-0.45316391979515347,-1.4564872199483023,3,right
9.423,-0.38036502216972257,1.3560695472525197,0.18424055225558805,5.92847045023448,3.480142767081431,-0.6472587389818516,-0.13844040307466743,-0.45333527265310464,-1.459691586232196,3,right
9.424,-0.3941403738446844,1.3675826256689494,0.1881055250360461,5.99333319909264,3.460863339458273,-0.650382991650504,-0.1384285577973281,-0.45429749523282553,-1.4551219964708513,3,right
9.427999999999999,-0.4171755941619602,1.3811639620870095,0.18602667471271853,5.957534290229869,3.4718515220351547,-0.6492963616604903,-0.1382503275001915,-0.45237712566111893,-1.458619246741658,3,right
9.429,-0.44744556788975987,1.3952656055518569,0.17525115957638995,5.967188899713678,3.468277162194582,-0.6484721780141984,-0.13873955284418607,-0.4556521638765957,-1.4578166442585094,3,right
9.433,-0.4787564699325168,1.4092579742443672,0.15295369860004704,5.974331248889417,3.4670583412037153,-0.6504674253630072,-0.1378401024737128,-0.4505342932589158,-1.4553100378149302,3,right
9.434,-0.5067350107216806,1.4227391766915023,0.12098494146885944,5.960022774759247,3.470572645141633,-0.6484303513257809,-0.1391049314507784,-0.4573359910919401,-1.4605781858398672,3,right
9.44,-0.5289834862726068,1.4337572033796382,0.08658310757843674,5.975017950385124,3.466139290454245,-0.6491968305248579,-0.13778478525852889,-0.45038987017076604,-1.454402807470991,3,right
9.441,-0.5430645119708079,1.4396622578106637,0.053208671581035455,5.961896119031703,3.4713317790895593,-0.650917905886941,-0.138528648476008,-0.4541994717367357,-1.4583460888761501,3,right
9.442,-0.5457658754472734,1.4413616632707993,0.026581304390068,5.973328234719052,3.4649429026271354,-0.6460220808468373,-0.13922868267337773,-0.4581172530066837,-1.4605789299865788,3,right
9.443,-0.5409679163635108,1.4363377619348885,0.012863234060649755,5.962808714796411,3.472545110644123,-0.6536650131033901,-0.13627352286408206,-0.44213996164677605,-1.4486551192867405,3,right
9.447000000000001,-0.5331784376960663,1.4194614109052495,0.00910853659389552,5.971630906217291,3.4651467207688507,-0.6453929471091397,-0.1417282169114259,-0.4714946520858053,-1.4712764048785774,3,right
9.449,-0.5221908331654939,1.392325601409012,0.016687555311546698,5.968137724991065,3.468948285079519,-0.6502567359572982,-0.13473342946628278,-0.4338998595592525,-1.4420462225971622,3,right
9.452,-0.5105765202855757,1.361301019363186,0.03230086528947592,5.960139003722776,3.4736967759593185,-0.6541875500370551,-0.14056901540392003,-0.4652463783176658,-1.4665266724081896,3,right
9.453,-0.4957129201525303,1.3200647080217456,0.056986910571373325,5.985942897453554,3.4556296330933245,-0.6365004855785336,-0.1404173286227075,-0.46445664046890206,-1.465744220291841,3,right
9.458,-0.4806302159934214,1.271321151493125,0.09241072731825259,5.940264647305952,3.4884941183777967,-0.6694169032365109,-0.12927345501356852,-0.40452733533997837,-1.419383592405294,3,right
9.458,-0.46497005425357796,1.224463524363986,0.1309796247736671,5.9981322004120425,3.4465254310975384,-0.6271070936871748,-0.15665452629492932,-0.5517449965230703,-1.5335059952328445,3,right
9.462,-0.44000156469654517,1.1646434683285705,0.1788149432495813,5.950155856999334,3.4814656991744775,-0.6624509182842334,-0.11125913249190364,-0.30767715271542306,-1.3442198729048975,3,right
9.463,-0.42113584445681496,1.1190753701210419,0.21232688936747718,5.9509365002852075,3.480669604628965,-0.6614577384602551,-0.17113384416902866,-0.6295983445473983,-1.5939118245573232,3,right
9.467,-0.4155767732316092,1.1075825175794562,0.21963862100962095,6.043793163559208,3.413647313727102,-0.5941587651434802,-0.4224663537568496,-1.9807965859388412,-2.6418873035885557,3,right
9.468,-0.3996367423653156,1.0738377774377295,0.24312173010575444,5.816316526405664,3.57816406580186,-0.7596300825413234,-0.4823402735365224,-2.3027323748237474,-2.8915851507973347,3,right
9.468,-0.3662196101994587,1.0165090694717327,0.2753674337469415,6.193192548335392,3.305468510675299,-0.48524114576725275,-0.43694643260984944,-2.058656268669011,-2.7022788468900534,3,right
9.472000000000001,-0.34384514300656593,0.988518496605094,0.2870796300109679,5.69620837215415,3.6651242086523257,-0.847179636253188,-0.46432536416458986,-2.2058412492883543,-2.8164477142297057,3,right
9.472999999999999,-0.3369392672623605,0.9790259817449325,0.29146346033720855,3.6095840205379557,5.174875291630502,-2.3662120084228664,-0.4531837315805769,-2.146019322162389,-2.770007452267272,3,right
9.474,-0.31290247065272725,0.9519323061973093,0.297360637050731,3.1126375121043246,5.534528692583065,-2.7281780267272704,-0.45303061872914996,-2.1450352843213443,-2.7693290074922463,3,right
9.478,-0.27760597728202285,0.919742888329204,0.302157964660838,3.489413774308271,5.261853027455242,-2.453756243356653,-0.4588655306668995,-2.1766309775508965,-2.7937142413164393,3,right
9.479,-0.24899028228442377,0.8999305383986953,0.30337464562168615,3.2621306368237817,5.426309076590602,-2.6192270835175746,-0.4518748102834678,-2.138824797889117,-2.764511536485709,3,right
9.482000000000001,-0.22293065757876165,0.8856344144852623,0.2992598651507157,3.3546916118295735,5.359405635594959,-2.552004535237871,-0.45732144342329334,-2.168202475806139,-2.787246009620162,3,right
9.482000000000001,-0.20269930077820525,0.8761890910395074,0.2943977758366122,3.355820616720857,5.358438726657619,-2.550831973628924,-0.4543773217948479,-2.152563904970172,-2.775010473935607,3,right
9.486,-0.18694612550735057,0.8712324688055617,0.2877049844433063,3.3075752483562386,5.393555931143481,-2.5864449593618204,-0.4550667971466028,-2.155661017953935,-2.7777517742751456,3,right
9.487,-0.1745478636037608,0.8681367298572611,0.2789998964614795,3.365422834981058,5.351495961310275,-2.5438521772992324,-0.4558146616643327,-2.160731127837149,-2.7811003754670782,3,right
9.492,-0.16782546555170874,0.8662764771211375,0.27586686909107144,3.3202877427948088,5.384242160423343,-2.5769184431146686,-0.45450467777423237,-2.1524011145300923,-2.7753559354023745,3,right
9.493,-0.16543084724260265,0.8651602015360977,0.27517034687870434,3.344877069568483,5.366616718440624,-2.5594104261976334,-0.45573888386905936,-2.160062472661826,-2.780727092298356,3,right
9.496,-0.16356712213255192,0.8645033286217957,0.2749914636433223,3.338671789337784,5.370567409968342,-2.5626544706403327,-0.4548910130740022,-2.155513233989603,-2.7771932095899823,3,right
9.498,-0.1584326797211456,0.8615093258704213,0.27742174550618415,3.3332914471747968,5.375388765701647,-2.5687640461173418,-0.4553180947741803,-2.1559058635245787,-2.778558565874628,3,right
9.501,-0.15447168669499517,0.8567001397379648,0.2769663022168684,3.343151976078147,5.367115711299166,-2.55889675746712,-0.4551878718318396,-2.159555684139767,-2.7789654825446646,3,right
9.502,-0.15194954802253907,0.8496822429467411,0.27652286483807165,3.333713679190104,5.37485213981717,-2.5679105845198684,-0.4551796608124603,-2.1530222225633437,-2.777513958367901,3,right
9.507,-0.1485729619326005,0.8387348105773385,0.27964455626202533,3.34076005401403,5.369760954279544,-2.5627987935310275,-0.4552259896309554,-2.1601890902792444,-2.7792182173441904,3,right
9.508,-0.14937121910423562,0.8247397451941096,0.28051564311220634,3.3357166251142716,5.371729653760585,-2.5624993990798006,-0.4551399016282364,-2.155729033137759,-2.777985677812302,3,right
9.511000000000001,-0.1529209590068043,0.8071237320885785,0.2796943501391518,3.3402190269051166,5.372313111345914,-2.5682970317777984,-0.4553600088728433,-2.153467116608222,-2.778152030576358,3,right
9.512,-0.1533592782609159,0.7902336862136174,0.28072308303612215,3.3351850882400482,5.370224741957339,-2.558423134314209,-0.45487807652515583,-2.1659551484718627,-2.779434420838946,3,right
9.517000000000001,-0.15335505367698346,0.7750139463741471,0.28065439308657253,3.3402371499924923,5.372678756314325,-2.569177375585104,-0.4556853644742563,-2.142330771713489,-2.776694393426377,3,right
9.517999999999999,-0.15317759204767145,0.7554547166604045,0.2797380904916806,3.3378141087613136,5.370901038818721,-2.5626026073775914,-0.4546675959216695,-2.1727672395492035,-2.7802925154083624,3,right
9.521,-0.15152224980393614,0.7354835719083608,0.2798269584749384,3.333271137658537,5.371147350231322,-2.5587216741037624,-0.45551044021585274,-2.1473199821171995,-2.777258205292428,3,right
9.522,-0.1537240931795008,0.7166771250683315,0.27784523103612835,3.349133953987649,5.372983683585005,-2.5786321699782944,-0.45551550549627606,-2.1481600773729728,-2.777461013752853,3,right
9.526,-0.15774126136651775,0.6996704105229806,0.2733302417083071,3.3204438457847747,5.369049238884244,-2.541178625340895,-0.4538146891090588,-2.1961757313721226,-2.782845543893115,3,right
9.527000000000001,-0.16221853820348836,0.686311985772925,0.2690719942815485,3.357117099067635,5.374224045859699,-2.5893914131279905,-0.45796436999055656,-2.0779910618038437,-2.7694739823625767,3,right
9.531,-0.1706290188648059,0.6703200706566612,0.2671170200783889,3.32657194796222,5.36984827068977,-2.5490894496723175,-0.4510893701843336,-2.2739776801898817,-2.791673785092957,3,right
9.532,-0.17702846198602346,0.6592153573225505,0.2660363116631874,3.32713282065163,5.370168337438793,-2.5503727390304314,-0.46016062862355256,-2.0154870997243313,-2.7623987313096356,3,right
9.535,-0.17806834960732076,0.6571185511317865,0.2657438574950836,3.3862371721519464,5.377866450120868,-2.6265963128246232,-0.498236161704434,-0.9304969397265841,-2.639591473775951,3,right
9.536,-0.182730179471577,0.6501806433052324,0.26834050611251614,3.241289432086603,5.358693497569272,-2.4390147985922046,-0.5073177312114161,-0.6720576311078144,-2.610347886722492,3,right
9.538,-0.19690706926161178,0.6352382034961077,0.2699447536066394,3.4815252182107814,5.390563223676462,-2.7501005052875946,-0.500431574690908,-0.8679887789057352,-2.632513639448147,3,right
9.541,-0.20641647295769266,0.6243990151132948,0.2702488039423113,3.164674656840092,5.348504316392347,-2.339767321121465,-0.5045770155163638,-0.7497830035270511,-2.619129147490482,3,right
9.542,-0.2088239336947098,0.6217967612450803,0.2693179871007178,1.8339364220106051,5.172786954316598,-0.6179246705059813,-0.5029131983395161,-0.7979826818970793,-2.6246265708836454,3,right
9.542,-0.22275017175188633,0.6146506544746042,0.2607536187622871,1.5170388385672935,5.130772166779518,-0.20762485752559326,-0.5028386512190461,-0.7984268363973146,-2.6245864506876337,3,right
9.545,-0.241689747755359,0.6014325522263426,0.24790132079868127,1.7573764868149624,5.1625224515541035,-0.5186403625054778,-0.5037956466871346,-0.7735472689307997,-2.6219004706430455,3,right
9.546,-0.2592946648386162,0.5884774217436384,0.23746037324902167,1.612267497603008,5.143585330871154,-0.3311658861559958,-0.5026642034592035,-0.8034184469498421,-2.625151703997277,3,right
9.55,-0.28260326270776814,0.573935489085034,0.22983435506720593,1.6715754138611918,5.150918165328783,-0.4072602461325513,-0.5035205472214035,-0.7800379620057478,-2.6225613982318143,3,right
9.551,-0.3040042894109459,0.556764759464459,0.22401795123882853,1.671947024021188,5.151674365790219,-0.4086552225967527,-0.5031362118391525,-0.7930114615863266,-2.6241415606884413,3,right
9.555,-0.324220879416523,0.5380326509091895,0.2170035414922371,1.6414740989795384,5.146953323668093,-0.3683262901957396,-0.503041903570417,-0.7891858007581671,-2.623348526674419,3,right
9.556000000000001,-0.34890544596167977,0.5224158601448099,0.210263564713049,1.6783241716945727,5.152122123623795,-0.4163995948216518,-0.5034975828452579,-0.7874200937558865,-2.623769152697707,3,right
9.559,-0.3749495652558462,0.5088777326888538,0.20671638043721444,1.6490958663133681,5.148839873918938,-0.3793151185958583,-0.5028790102394145,-0.7912803681462004,-2.6234444548994422,3,right
9.561,-0.3996516446244934,0.4956978231421343,0.20513863997531465,1.6658711786349696,5.149184527178726,-0.3986336488403608,-0.5034009162431314,-0.787383007561733,-2.623610674290751,3,right
9.564,-0.42068471850826594,0.48591654683584845,0.20506831853532498,1.660219863759694,5.15166081987803,-0.39543513410629216,-0.5032753588677596,-0.7910564926433624,-2.6240316366533656,3,right
9.565,-0.44021934833432746,0.4775622448424904,0.20488217805477085,1.6586670119689981,5.147502712758134,-0.3883796875566251,-0.5027188178687423,-0.7865568193488395,-2.6223957392706883,3,right
9.568999999999999,-0.45857087943709446,0.47004708891057945,0.2039835543190037,1.6637551885426438,5.151325358972364,-0.3989855370259564,-0.5041189585091711,-0.7931878065703235,-2.6257213924470384,3,right
9.57,-0.4758220056718484,0.4628942301446205,0.20625967942134432,1.657042844179673,5.150465805545199,-0.39033307499622133,-0.5019994112184456,-0.784170334885435,-2.6208586963299263,3,right
9.575,-0.49869377280164534,0.45667311283535533,0.21325995417949517,1.6653283688672018,5.145718734003569,-0.39360173831315226,-0.5042647135222464,-0.7936200443593461,-2.626024449287302,3,right
9.576,-0.5262145608103201,0.4541755991683396,0.2167920902362402,1.6546852022333112,5.157662706770301,-0.39686319095666767,-0.5029466224911318,-0.7884176807465008,-2.623068086277697,3,right
9.58,-0.5533230320406793,0.4521576587612811,0.21086261783024596,1.667642709634778,5.139459106238842,-0.38821857748883726,-0.5018556530439492,-0.7826574804506297,-2.620377578114213,3,right
9.581,-0.5795992637358766,0.44881809008424733,0.19966050462693202,1.654898087971365,5.159005073072386,-0.3988167297189577,-0.5067045784500794,-0.8057781689657142,-2.6319210315442505,3,right
9.585,-0.6021395575490616,0.44730075336843916,0.18368924438864104,1.6615461483945122,5.14761757864885,-0.39176574522634267,-0.4976985240567152,-0.7632782899963354,-2.6105542897138374,3,right
9.585,-0.6210248217494589,0.4472900482464556,0.16762941930505434,1.6695019574910377,5.1380933320419135,-0.3885711552653027,-0.5092661584758087,-0.8177645667391809,-2.6379825381965536,3,right
9.589,-0.6397398721523662,0.44780819992422133,0.15931250357770432,1.638788041721008,5.180313874100948,-0.40787188490295323,-0.4996070572774202,-0.7723125813526419,-2.6150852459881806,3,right
9.59,-0.658847643997879,0.45069290695326203,0.15110273459043705,1.6947783833966739,5.101889422595795,-0.3708216078983628,-0.49987462049969433,-0.773407829115883,-2.6156962993276274,3,right
9.594,-0.6777171176434555,0.45362880293700897,0.13608429578158598,1.623231954411332,5.202634303201335,-0.4188490752608319,-0.5182738784013166,-0.8605149832135803,-2.659390997557203,3,right
9.595,-0.6927721621054231,0.4567121698308714,0.11475470326013094,1.6828176055450101,5.118510895070177,-0.37856166727843976,-0.4730421623430109,-0.6465786906506883,-2.5519994541168076,3,right
9.6,-0.7011772098057544,0.46386669754292853,0.09078647495224011,1.681425906369151,5.120811428781018,-0.379947816113426,-0.5480423832074529,-1.001248668868448,-2.7300654333655885,3,right
9.6,-0.7049337254540382,0.46788909411598856,0.07894352828051623,1.567217783326805,5.281152778862088,-0.45598144780348526,-0.4491144383980353,-0.5334509960053762,-2.495185872813047,3,right
9.604,-0.7044013135346077,0.46826244681087303,0.07811324549269386,1.8476124759654602,4.887023854791388,-0.26867184977324354,-0.0338875343688993,1.4303508157433322,-1.5093232776365513,3,right
9.604,-0.7011202041186371,0.47318811485134116,0.07194152533125364,1.3828167643321114,5.540511846376665,-0.5794022529281497,0.06504758561394,1.8981471083206396,-1.274410996088473,3,right
9.604,-0.7005762581901852,0.47571996824169954,0.06721637812291467,1.995851220956077,4.678573696680101,-0.1694898520792012,-0.009964134859271058,1.5434873624198635,-1.4525272102371063,3,right
9.609,-0.7000542694198055,0.47621526432663336,0.06731105048245616,4.569234466425025,1.060613497880916,1.5508868277757872,0.03527786356213959,1.7573932694698693,-1.345096592766594,3,right
9.611,-0.6952492347244714,0.479178497858509,0.06163002177705688,5.182317686768915,0.19872324460732999,1.9608179603681364,0.016877071539759425,1.6703449750937267,-1.3887821722199207,3,right
9.611,-0.6891233606105037,0.47509752616141304,0.05602888134541059,4.717456793550841,0.8521292666402287,1.6500270770120613,0.01659458091972291,1.6691657151003025,-1.3894852063288816,3,right
9.613,-0.6815469048093528,0.4653921584010339,0.05338865432430055,4.997875420446803,0.45808742087816434,1.8374714049124528,0.02628967920623297,1.7147040242714429,-1.3663980977485002,3,right
9.613999999999999,-0.6719069319499527,0.4547389231921176,0.049046347957672584,4.883751595110817,0.6183805140203404,1.7612113498916677,0.014667968649977792,1.6601744243205052,-1.394087733417312,3,right
9.618,-0.6606459692147537,0.4409416517488582,0.04470320504901638,4.882117915273018,0.6206378006592714,1.7601162034620443,0.023731211256817934,1.7026138161692277,-1.3724738124487983,3,right
9.619,-0.648979879883613,0.4248975755790332,0.03996173889318295,4.942099044702822,0.5366941585512243,1.8001434347039267,0.018850707156364808,1.6797127886645646,-1.3841025033201309,3,right
9.624,-0.640802145640966,0.40775019861613937,0.03603573064902206,4.870098172046198,0.6371129255981443,1.752178862383193,0.019909196138127958,1.6850792746248766,-1.3816701711170496,3,right
9.625,-0.6341484908127156,0.39197243983900465,0.03563490391284778,4.9263972136983885,0.5591023774022488,1.7895663165736169,0.021359428473244603,1.6907818649466875,-1.377966564456145,3,right
9.628,-0.6301217831635411,0.3760028103786163,0.03920072758514444,4.895813985056812,0.6009734118748372,1.7693721014986679,0.0188510802244782,1.6809074022412647,-1.3843704232412781,3,right
9.629,-0.6311054766196642,0.36065395268439293,0.04677242608619073,4.902902444793446,0.5914921008669904,1.7740006588379504,0.021285178182087368,1.6899810226475196,-1.3780411794093648,3,right
9.634,-0.6318047039243836,0.34989863106124536,0.054640720162349846,4.911298184895785,0.5806452423776534,1.7794007271569214,0.019609860454208945,1.6840006725455132,-1.3824572586975243,3,right
9.635,-0.6353633542322954,0.33934286270926695,0.061566309134607436,4.896140226655591,0.5988753140363332,1.7699579713534233,0.020220266982987997,1.6869049646530456,-1.381011858022831,3,right
9.641,-0.6418874766124204,0.328184946057866,0.07018108477460819,4.911422106678419,0.582694869040599,1.778982252594821,0.02072714405504788,1.6856977240623028,-1.3789950791368701,3,right
9.642000000000001,-0.6466808373052042,0.3185613278308462,0.07446240289599153,4.899879515643065,0.5924155897834529,1.772729454004931,0.019231765307457564,1.6868621353835689,-1.3844041729736065,3,right
9.642999999999999,-0.653928718136093,0.30868729408740353,0.072867235094197,4.905959641441395,0.5890537865180379,1.775626916164141,0.021384243312521797,1.684754836468087,-1.3765208402991171,3,right
9.642999999999999,-0.6618480108331275,0.2989839978519192,0.07221658249532667,4.905961864542263,0.5890974075419924,1.7756183211919434,0.019193594777161184,1.6874925915104761,-1.3846778358373748,3,right
9.648,-0.6677909172445623,0.29082135806196263,0.06806140050690311,4.8996804358947745,0.5883050249883821,1.7735844364347229,0.020460418644754653,1.6859158949391904,-1.3799622145022434,3,right
9.649,-0.6682532021474705,0.28409217029927203,0.0588891157743845,4.91192494181451,0.5930812139139021,1.7768211168530015,0.02132215133567606,1.6834673654275365,-1.3764439851367516,3,right
9.652999999999999,-0.6610560969781153,0.27728726880506943,0.047733797485153454,4.8953966256700205,0.5835135733563398,1.7731548261035557,0.017252779551882775,1.6927732902083976,-1.3925488686089125,3,right
9.654,-0.6520790873168352,0.2710256767026814,0.03901229996776785,4.911999695706015,0.5951401363497066,1.7763837199692984,0.02481418408527667,1.6755852049186355,-1.3626473897659044,3,right
9.658,-0.6401136922101247,0.26647583806188335,0.0406554152603186,4.902732129414927,0.587967359929243,1.7747354440039582,0.015124203191361272,1.6977463133742767,-1.400996460764855,3,right
9.658999999999999,-0.628549623881597,0.2620176742976952,0.04425947429494065,4.894875225545424,0.5815896767135057,1.7734040222095695,0.023205005676981548,1.6792032996089712,-1.3690023530941002,3,right
9.662,-0.6176406911061352,0.2576685729172007,0.04330766419246828,4.928863474614053,0.6100407879603553,1.7789678912345601,0.022962440441744496,1.6795921588593972,-1.3699233144905474,3,right
9.664,-0.6032692037867584,0.25289797365691286,0.038061510139455045,4.866208088320141,0.5567571547695132,1.7689000246030844,0.007656414432992954,1.715434963437429,-1.4306910618227402,3,right
9.668,-0.5922654089027886,0.24835578369890252,0.026671448541140466,4.946399402947483,0.6255352848050093,1.7816541124266512,0.04529435394142531,1.6274215576144757,-1.2812915266017444,3,right
9.669,-0.5785039161533696,0.2461767394224983,0.016281993980854784,4.879568976063038,0.5679625382650768,1.7710831105452987,-0.01710880706500635,1.7733619917216963,-1.5289984598437794,3,right
9.673,-0.5653440233822686,0.24462619894475007,0.009650068261251175,4.881383104713171,0.5694868409381444,1.7713765919503386,0.06519442818056409,1.5808384864412859,-1.202283100253589,3,right
9.674,-0.5619063258605209,0.24419079122883355,0.008332094393531522,5.008601710573469,0.6796303900734263,1.7913813752061412,0.4106078884516347,0.7724721457326436,0.1691766873749125,3,right
9.675,-0.5544570335491336,0.2434222525034403,0.009060062595727562,4.695997531331028,0.40884737724860803,1.7422601613237076,0.4929029616732161,0.5799114200243227,0.4959233842012172,3,right
9.677999999999999,-0.5471436476031577,0.23960254354085125,0.0025395820867181638,5.214224918239779,0.8578960733802248,1.8236547180881209,0.430511842596972,0.7259057951561483,0.24813466146998375,3,right
9.677999999999999,-0.5480424872418621,0.23743536667897544,-0.00376653251213597,4.530754362544863,0.2655474975163203,1.7163357361983074,0.4681417667694971,0.6378592825927882,0.39769091072082063,3,right
9.679,-0.5477780065808906,0.2379855533999544,-0.004909091941531484,1.6619241141841403,-2.2213380175991233,1.2659528337493962,0.4528298966300089,0.6736683350219494,0.33668596164927017,3,right
9.682,-0.5471418747985082,0.23791268769091947,-0.006869904977368179,0.9785305039983072,-2.813728017788593,1.1586757883405499,0.45261557112192297,0.6741965090838,0.3360417760937283,3,right
9.683,-0.5510860996600174,0.23798169588052576,-0.009069254531939446,1.4966398377945465,-2.3645855733185153,1.2400016994351102,0.4606433409839804,0.6554003474789206,0.3678260526804679,3,right
9.687999999999999,-0.55823364620065,0.2391257805852476,-0.0077782249502708215,1.1841272691676143,-2.635524850942681,1.1909456628250876,0.45102183788408734,0.6778802457791288,0.3294523546893886,3,right
9.689,-0.5673203848164821,0.23936909147835858,-0.004003002718588477,1.3113678846080057,-2.5251726737094007,1.2109310063938654,0.45852459704478354,0.6604307209641116,0.3597981667034708,3,right
9.691,-0.5803084395086247,0.2379342765616459,-0.003144181833957411,1.312964873472483,-2.5238585608115836,1.211152779061706,0.4544634779668514,0.6697483914629181,0.3427151291473666,3,right
9.692,-0.5956383129689515,0.23845418487454464,-0.0028441306238320787,1.2465817178979661,-2.5813210527324397,1.2007754951943546,0.45541397153133784,0.6677531068563038,0.34766491392164345,3,right
9.697000000000001,-0.6106834957845608,0.24037544669497365,-0.0007770940551439986,1.3261578325704626,-2.5124139744512206,1.2132231261161,0.4564623945586681,0.6651167610930888,0.35089025695396736,3,right
9.698,-0.625563389767909,0.2383857051352696,-0.002708511398878216,1.264083251777493,-2.566196611093314,1.2034983727629074,0.4546092608274811,0.6694507448415999,0.34352478603286374,3,right
9.702,-0.6385084772619821,0.23603259245266084,-0.0071233689197918,1.2978730713178799,-2.536834542873785,1.20883944312797,0.45638892406722503,0.6656293474632515,0.3523280472651898,3,right
9.703,-0.6496926208696785,0.23809741159889136,-0.010684691602575139,1.2894052851825617,-2.5443891727097494,1.2073897784150738,0.4551288899769438,0.6677941933723571,0.3433543877130722,3,right
9.707,-0.6591516078399351,0.24131951398461626,-0.015407731021385516,1.2818998006046909,-2.5505315228197976,1.206419693177355,0.45578033285458613,0.6674390023863499,0.3518649915814902,3,right
9.708,-0.6647414072095953,0.24419990101265548,-0.023867414546708224,1.295587188145481,-2.539110666415888,1.20831262758853,0.4556270038199786,0.6665513741985226,0.344940519068169,3,right
9.712,-0.6643390205785573,0.24787057517850858,-0.0346072561568474,1.2825079902245098,-2.5500953889570033,1.2064634556384104,0.4554391880942863,0.6677107609320487,0.34784492468638273,3,right
9.713,-0.6557062952691795,0.2520395258385469,-0.0411757938913364,1.2921954079842797,-2.5416935758050814,1.2079858265353678,0.45585962498942667,0.6673487645224481,0.35265774984033604,3,right
9.718,-0.6418168837788765,0.2535995597000859,-0.04225366958171363,1.2854480610013328,-2.5481999369720363,1.2065484611904052,0.45524881272236817,0.6660590332449311,0.33646892140702644,3,right
9.719,-0.6267894272508476,0.25159271841005637,-0.03913877963958359,1.2912125271709067,-2.5417021939773754,1.2083178596953803,0.4560230357019515,0.6692889759174354,0.36507020871274376,3,right
9.719,-0.6128000670023753,0.24927882202890117,-0.03462698207072645,1.2849252278215468,-2.5493906717156003,1.2060410777366821,0.4551883217339594,0.6647693218374828,0.32897532412592234,3,right
9.724,-0.6032579233989712,0.2467176957078901,-0.034838627765200345,1.29119723475198,-2.5415678719551837,1.2084006922506707,0.4558164143213782,0.6687022641385818,0.35883961359046657,3,right
9.725,-0.5913156047850328,0.2462712038110303,-0.03770514955980592,1.2882530065598923,-2.5454986554368872,1.2071439342994243,0.4558601810560263,0.6684564447875129,0.3582644868741094,3,right
9.728,-0.5755191077742048,0.24959322482707258,-0.04059305726511765,1.282347210201653,-2.551806340573301,1.2055321206146528,0.4545489131153821,0.6612162366387404,0.3008872983776021,3,right
9.729,-0.5637245551708177,0.2526781946878992,-0.04189367887730393,1.3026817586574913,-2.5289787194834386,1.2117213669384457,0.4576623467173393,0.6792621784941055,0.44149543374220235,3,right
9.735,-0.5485617963388245,0.25819763937506623,-0.03815374104193875,1.265965360159068,-2.570451162202577,1.2003992408685287,0.4525538255129332,0.6492202501004587,0.20856028788047395,3,right
9.735,-0.5368605560876236,0.2646964649215042,-0.036593339171854755,1.3128888114991464,-2.5173907590052154,1.2149026933832796,0.45926359364570346,0.6889064177943515,0.5157034595836044,3,right
9.738999999999999,-0.5354290873706277,0.26606152222758883,-0.03595762679731199,1.273803484196471,-2.561612005584651,1.202808164219786,0.48744209275844613,0.8554840634258514,1.8049078933470724,3,right
9.74,-0.5241677259988203,0.2749558319925762,-0.029937210503060033,1.2745186199085918,-2.5607105464475035,1.20308230680838,0.4941291751311288,0.8952096773582785,2.112001412629649,3,right
9.74,-0.5079455062754369,0.292022080720573,-0.026503031592785983,1.35017445150122,-2.4754158529958676,1.22631975635602,0.4890649054230932,0.8650855199001155,1.8791787794685462,3,right
9.743,-0.5010463067401669,0.30802734757174466,-0.02530555960206552,1.1646223637467739,-2.6847156730389834,1.1692667056690613,0.4921178713331607,0.8832553201061981,2.0195991031810143,3,right
9.744,-0.49580499881136086,0.3362243565973314,-0.02413297336280855,1.472176358089082,-2.337771380376667,1.2638483569335521,0.49086909235648285,0.8758678693040184,1.9624730335373215,3,right
9.748,-0.493187197665527,0.3582972714132794,-0.02516063084971345,1.066518200101069,-2.7953873198898687,1.139095699838737,0.4908745427728056,0.8757459209244967,1.9616443964929524,3,right
9.748,-0.49331052374704093,0.3645872827336872,-0.026386627563393886,-0.6366046844672256,-4.716501095122892,0.6154063759983877,0.4914806065167514,0.879655723444473,1.9916425580570063,3,right
9.75,-0.486394055395131,0.3910276987167271,-0.03129395729979259,-1.042302989977351,-5.174149947129955,0.49064807909941177,0.49076396447889487,0.8749661774338886,1.9557011533347128,3,right
9.753,-0.47447172836882767,0.42637500393032735,-0.03576647124008835,-0.7347201461138108,-4.827189239768244,0.5852312441595213,0.4913087263139609,0.8786276814020277,1.9837036922989035,3,right
9.753,-0.46262819719515574,0.45221251272481,-0.03046459036296265,-0.9202040442145341,-5.0364075292284305,0.5281967653993781,0.491007856006478,0.8766583609971588,1.9686100733777232,3,right
9.759,-0.4523902788019598,0.47982498241851274,-0.01625543210549624,-0.8447988182165256,-4.951371117085885,0.5513804709923322,0.49113755757579747,0.8770652938235262,1.972005999702203,3,right
9.761000000000001,-0.44755426377421004,0.5045287594992393,0.002646856431039022,-0.8436156355744339,-4.950007570160464,0.5517478681824692,0.4910488919532858,0.8777061835824758,1.9761530544728503,3,right
9.764,-0.44719042150687166,0.5245999290454963,0.023186820392724926,-0.88331507365526,-4.9948163900705165,0.5395375503440496,0.4912006914038495,0.8765982086258681,1.9689771074711186,3,right
9.765,-0.45430898322794117,0.5403806478775308,0.04324094489246692,-0.8358512612962729,-4.941264526826618,0.5541339211246348,0.4909710143450359,0.8776991095341724,1.9757844521374732,3,right
9.767000000000001,-0.47279560597680415,0.5517152051440735,0.05999875302721443,-0.8726686647749357,-4.982775139095473,0.5428132670282556,0.49117201220012946,0.8769280356537305,1.9711804949871774,3,right
9.767999999999999,-0.496289878547909,0.5601122314752797,0.07215572239404995,-0.8531026371885295,-4.960770215626565,0.5488269489966713,0.49121600900619017,0.8771721997247708,1.9730804729000737,3,right
9.772,-0.5202020165615544,0.563280127103738,0.0790338448435971,-0.8570566837169136,-4.965117079126237,0.547615908050909,0.4906673563356045,0.8775582694354702,1.9735477556657401,3,right
9.773,-0.5419822388746067,0.5651117892235535,0.08360867897821408,-0.8630664460229402,-4.9720351002142635,0.5457621448817964,0.4918985266679078,0.8765408543103412,1.971433778751097,3,right
9.777999999999999,-0.5606995242098021,0.5659476290975927,0.09140716166868768,-0.8533481328629322,-4.960961841031141,0.548755085357265,0.49005642261706833,0.8780270098768279,1.9743441963570192,3,right
9.779,-0.5771988237377939,0.5646934434163635,0.09876813285537853,-0.8619110353435417,-4.9706207322895395,0.5461218269978025,0.4920273368923833,0.8764846889992333,1.9715643402793759,3,right
9.782,-0.5918014003070133,0.5627006917928716,0.10549814352798721,-0.857253489486295,-4.965570365367929,0.5475462755578577,0.4908883167607971,0.8773759218077224,1.9731736534316444,3,right
9.783,-0.6070891790836977,0.5592619173496584,0.11364059641567345,-0.8572847000159035,-4.965139551791631,0.5475546098528608,0.48989183122903573,0.8780527832181062,1.9738467406037274,3,right
9.787,-0.6218687545096615,0.5561946459510965,0.11631658535937034,-0.8609757478996394,-4.969999151468293,0.5463927295148365,0.4942347604101564,0.8749731199228559,1.9699773194688732,3,right
9.788,-0.6371742061017351,0.5520781379150148,0.1139872954710245,-0.8556734798451827,-4.963275086903439,0.548052012974703,0.4861809306783194,0.8806893471961262,1.9771983105406121,3,right
9.791,-0.655518448553443,0.5475675042104481,0.1108039763099656,-0.8596536800519075,-4.96819597826486,0.5468110887492147,0.49652455166733356,0.8733580816388111,1.9679864586708078,3,right
9.792,-0.6720466865402714,0.5452972661093978,0.1043613005629416,-0.8602354010285309,-4.96921795323567,0.5466186977140541,0.487887405356087,0.8794736968038825,1.9756486075618693,3,right
9.797,-0.6848137405335277,0.5442426753190766,0.0924561499873197,-0.8524331884162789,-4.958803774596045,0.5490794013647389,0.4881222625448386,0.8793016060561439,1.9753690481847501,3,right
9.798,-0.6950216765068218,0.5487502713671697,0.07971436943683227,-0.8681437300459449,-4.97952221789755,0.5441333395725743,0.504592119409045,0.8676743795701607,1.961072519747546,3,right
9.802,-0.7032346492200157,0.5567123423941924,0.07133035548032832,-0.8475242562653096,-4.952410162948519,0.550622549440506,0.4641068091326379,0.8962534590244384,1.9962623219162807,3,right
9.802,-0.7110133279634252,0.5629941614745484,0.06344470813981988,-0.864925362850469,-4.975262959373225,0.5451461236523178,0.5312380102454601,0.8488740679735736,1.9379264401664318,3,right
9.808,-0.7151533853766314,0.568059353749865,0.05690251210559351,-0.864168123615823,-4.9743042632686025,0.5453856907649455,0.44268670568463514,0.9113589256083757,2.014847663627636,3,right
9.809,-0.7154484203974769,0.5695571706830198,0.055875643512612566,-0.8317505081413601,-4.9316304005752745,0.5555856133371847,0.07101722173401201,1.1736462361583766,2.3375631840360658,3,right
9.81,-0.7190746247152131,0.5733769072127612,0.05189943318034232,-0.9118399284733916,-5.037015931622601,0.5303823960906233,-0.01754822541892921,1.2361125065551364,2.414445345226116,3,right
9.811,-0.7247048950975828,0.5801282579667775,0.040689953815274744,-0.7788970982461595,-4.86208519334479,0.5722219739309449,0.04960508308175014,1.1887621697563198,2.3561705245628795,3,right
9.812000000000001,-0.7263907133088563,0.5817777632668963,0.03451439067585466,-0.9542974848026737,-5.092900408638112,0.5170154514518068,0.009101485303121253,1.2173172176427918,2.3913098167776763,3,right
9.818,-0.7266406746526588,0.5819914568987021,0.03283214989994437,-1.6904060063502973,-6.0612896276853085,0.28538614374499655,0.025570285068842253,1.2056885952081071,2.377010367189004,3,right
9.818999999999999,-0.727808549396807,0.5801208843213761,0.023980822951863958,-1.8658027464845195,-6.292145388694938,0.2301721689910038,0.025840619104705267,1.2055631405888863,2.3768287980432694,3,right
9.82,-0.7258575184826292,0.5743276115602554,0.015857568608515577,-1.7328301043555137,-6.117132702445382,0.2720301918885907,0.017126023122141076,1.211576955123106,2.3842770263272337,3,right
9.822000000000001,-0.717364038896035,0.569784998112487,0.010478192196541801,-1.8130405936791543,-6.2226364301235675,0.24679326723685494,0.027579974372059612,1.2043906998160148,2.3753699113038267,3,right
9.823,-0.7035191737017434,0.5643649676227972,0.0008185313013172077,-1.7803633895527122,-6.179830010879518,0.2570422576171348,0.019416872367205094,1.2099633190163033,2.3822890902129634,3,right
9.827,-0.6870026160023397,0.5578709280376659,-0.007325638632935886,-1.7800000098455107,-6.178970759524804,0.25722689682804173,0.0238071613972454,1.2069458753284543,2.3785504732784477,3,right
9.827,-0.66846070629542,0.5518579432131523,-0.013215355490689546,-1.7969682448752549,-6.201829699654576,0.2517886774489493,0.0229025666667311,1.2077435517281816,2.3794773752889418,3,right
9.831,-0.6468032979644833,0.5449222111799766,-0.019269761865898967,-1.7766151367868712,-6.174525752901189,0.25829049117634767,0.02146646174464705,1.2082442742110324,2.3802661185173823,3,right
9.832,-0.6225915773965791,0.5380787799612576,-0.025538745352950448,-1.7925165581073061,-6.195671968633629,0.2532449370489696,0.02394928635389037,1.2073747971521018,2.3789001857478285,3,right
9.836,-0.5979645462363214,0.5297843795308148,-0.03212814817359257,-1.78378095235664,-6.184627666905387,0.2559115401791289,0.02147905967544457,1.208035414226745,2.380075706741093,3,right
9.836,-0.5730234703774795,0.5219210129932293,-0.036382892263933125,-1.786157103218966,-6.186311906965216,0.255428735403897,0.023210967171752042,1.2076760374927638,2.3793447665919807,3,right
9.842,-0.5450464431389535,0.5140670930937888,-0.037249765309750854,-1.7877336691061225,-6.190868068806628,0.2544765333909279,0.022666591183748877,1.2080679067400681,2.379823900216669,3,right
9.842,-0.515032830629915,0.5030279347592084,-0.0364762307613527,-1.7846503012099555,-6.183767049180521,0.2560062933049588,0.02178202392240876,1.207091397164206,2.379159093987101,3,right
9.846,-0.48880960681375024,0.49455949874758753,-0.035709009286303744,-1.7876644941973072,-6.190159197870461,0.2546117763467476,0.024105269038424144,1.20910986524529,2.3804169201301573,3,right
9.846,-0.46547522682095155,0.4872491100365049,-0.03285529066963863,-1.7851750776653248,-6.1869054258881775,0.25539141354692474,0.02070948018883118,1.2060494017564756,2.3784793157757402,3,right
9.85,-0.44196487829384346,0.4792642177204255,-0.03075100145207272,-1.787543149189133,-6.185519458942767,0.2554731199332436,0.0242365080725143,1.2093773184400574,2.3806258416334343,3,right
9.851,-0.4183965217219994,0.4737438781615077,-0.030441393689441106,-1.7846092802279312,-6.191946920173346,0.254506299884393,0.022197486694790342,1.2074555132553695,2.3793860707551366,3,right
9.855,-0.3953461330171235,0.4661428457305936,-0.026841313625025214,-1.788392869799062,-6.181577669688521,0.25613558076693593,0.020646424255301877,1.205652219988486,2.3781394359349504,3,right
9.856,-0.37696581151271075,0.45981204601577086,-0.02427492898910614,-1.7844697066343223,-6.192776833571582,0.25436368331536063,0.027702372985363554,1.2133535157694069,2.383365897871612,3,right
9.861,-0.36163388830625787,0.4580623784838113,-0.023863947662023995,-1.7865623584941166,-6.186076171000522,0.2554429399323656,0.014603455418493845,1.1990817603132609,2.3736839055628796,3,right
9.862,-0.34809273869714996,0.4563957322223429,-0.02219717642889911,-1.789229773291674,-6.181438295661241,0.2560994817022738,0.031406325850558844,1.2174184484028072,2.3861319104109375,3,right
9.865,-0.33777852823284793,0.4575056288778509,-0.021553673565807556,-1.7789687042954907,-6.203599134896331,0.25277721393488184,0.017385723315510165,1.202106093174557,2.375731417704709,3,right
9.866,-0.3253856475669697,0.4609712533021099,-0.01980423667638528,-1.7977435976514442,-6.162165121391881,0.25902023428828413,0.017788183426554097,1.202501619201187,2.375997689247807,3,right
9.87,-0.3148339813346106,0.46293435007104633,-0.01649488632353259,-1.7736919381772949,-6.215444296066259,0.25098440298451974,0.0444269563880393,1.2317733485172413,2.395900872131889,3,right
9.87,-0.3076481499035704,0.4638997811337354,-0.01206932601262245,-1.7937498594542225,-6.170932867634171,0.25770256851914286,-0.021066756702246864,1.1598456070670022,2.3469885771841,3,right
9.875,-0.2988290011754845,0.4638248341048893,-0.0032193496767622823,-1.7932922709328565,-6.172256695268445,0.25748770666658294,0.08752482234304525,1.279101514664763,2.4280934648344665,3,right
9.876,-0.29510182621616016,0.4633762292945892,0.003615126495376457,-1.7547626702381574,-6.256742065261813,0.2447814515825819,-0.055702778887662265,1.1218033814062482,2.321108369083781,3,right
9.876,-0.2954445091173147,0.46332389781481,0.004919192190797202,-1.8493663668152553,-6.048945501965489,0.2760550071668187,-0.6567996626104113,0.4613985357546265,1.872093385929913,3,right
9.881,-0.2952415443645853,0.4645431367216603,0.006150591736096802,-1.6925304004848643,-6.393520158928686,0.2241858409206487,-0.8000171637634044,0.30409050025929574,1.7651047075398298,3,right
9.881,-0.29639568453116405,0.4661503819855569,0.006381937140674318,-1.899399924771254,-5.939022182140691,0.29260940890120635,-0.6914465783390302,0.42337381762696336,1.846204304812106,3,right
9.885,-0.2967386365235728,0.4663837054295259,0.005150314808293175,-2.767793524208937,-4.03147499510065,0.5796876217325945,-0.7569087935431158,0.3513910125291648,1.7973259523165797,3,right
9.887,-0.2983166399540643,0.4673431679049629,0.004392144103392068,-2.974684094069991,-3.576986087269518,0.6481207284686763,-0.7303072767289773,0.3807491233190554,1.8171493410726467,3,right
9.887,-0.302199017338565,0.4682976508779695,0.004457548275089918,-2.817825354222632,-3.9215509277178713,0.5962412426326265,-0.7298737607464734,0.3810402383676592,1.8175425824362827,3,right
9.89,-0.3064582547719913,0.46626257510434693,0.006822333818274984,-2.9124204033697128,-3.7137506485324336,0.6275108705320616,-0.7438995762434217,0.3658123774700504,1.8069958414485787,3,right
9.891,-0.31204650431883685,0.4622020361334036,0.011056195640713144,-2.8739663064908796,-3.798268533056914,0.6148388541200054,-0.7271406237352283,0.38414638063899453,1.8195447617141076,3,right
9.894,-0.3173764114229193,0.458085244434036,0.015214894738596952,-2.873346244585111,-3.799522379670952,0.6145503269893835,-0.7401293960946917,0.36972452578839354,1.8099022627234043,3,right
9.895,-0.32256650695754274,0.4537988436945131,0.01885770612500262,-2.8936371336511573,-3.7551113073561164,0.6213741107452846,-0.7332458743522408,0.3777766637929083,1.8148507354208676,3,right
9.899,-0.32963536798956083,0.4500268708864287,0.02052747261989115,-2.8693534694876583,-3.8082905263804863,0.6132331092822136,-0.7346030111094256,0.37544281873729113,1.8141704068846214,3,right
9.9,-0.3367088037692885,0.4469426590990174,0.017640026879684433,-2.8882285008611985,-3.7668996825555707,0.6195215020250902,-0.7367709532449598,0.3740947764609733,1.8121417598714267,3,right
9.904,-0.3415139940784395,0.4423099546415682,0.011016160947857439,-2.878166582612967,-3.7891462611749605,0.616289560283559,-0.7333036353536613,0.3770800484578321,1.8150579141053793,3,right
9.905,-0.3441732178252398,0.4366751537188938,0.003434987898754055,-2.880192350223413,-3.7842320345485945,0.6166551632631424,-0.7363262662696479,0.3737526598412988,1.8128033950495983,3,right
9.908999999999999,-0.3450629269938022,0.429754845929918,-0.00392858970798104,-2.883390659267655,-3.77800762814741,0.6182357045539624,-0.7347491348501725,0.37701219029884353,1.8133752380554085,3,right
9.91,-0.3463378301777871,0.4193475404480127,-0.010894535291237056,-2.878110500877875,-3.7886222093175053,0.6158486211472075,-0.7346068850186969,0.37367820395050255,1.814866202294038,3,right
9.915,-0.34886125042105887,0.40726510880063815,-0.013709089983854485,-2.8829760669491815,-3.778719161259577,0.6179683339308036,-0.7361386454539003,0.3772029394082269,1.8116568894544738,3,right
9.917,-0.3531201579764488,0.3966595041896933,-0.012231279534040523,-2.8800515767941874,-3.785150443555999,0.6170059398775117,-0.7340226408621537,0.3739753251465848,1.815438147921056,3,right
9.919,-0.36391092324192353,0.38362523241290736,-0.01047469125155832,-2.8804123901841256,-3.782900093495837,0.6161774068879833,-0.7355696486305285,0.37548558041859936,1.8130124790245308,3,right
9.92,-0.38287455282597016,0.3706622532503391,-0.007935438429780861,-2.8825107031527324,-3.781622328898008,0.619037143408038,-0.7358946128631243,0.3778900314555641,1.8116703072378888,3,right
9.923,-0.40468130464009167,0.3599173957819765,-0.006327388083149742,-2.8786803677304933,-3.785066112144694,0.6145395361579785,-0.732611154922032,0.36940037071895027,1.81892498075842,3,right
9.924,-0.4268837959435697,0.3481284256643021,-0.004478070798344273,-2.8828938950536367,-3.781108710346037,0.6193771672681244,-0.7391409043308242,0.38466527257562894,1.8051460453932358,3,right
9.929,-0.44842720440319483,0.34545092643645153,-0.001204238851841307,-2.8802535767461444,-3.7838475083631025,0.6165138644834043,-0.7305964339370454,0.3652354014148363,1.8229543667802766,3,right
9.93,-0.4631438500583247,0.3357065153506521,-0.00104810585083375,-2.8789969198667196,-3.7839681848986526,0.6143830323151205,-0.7377993141553144,0.3813870103364896,1.8080410121718777,3,right
9.934,-0.4769029393505238,0.3254733478476297,0.022261520955107274,-2.8861649795780737,-3.779773220117609,0.6242609023282426,-0.7374950598978707,0.3810536956771352,1.8085127197514068,3,right
9.935,-0.4922229192307592,0.3233684996020443,0.12055889568412201,-2.8725708640563505,-3.788214552994653,0.6058425272468855,-0.7240496869120905,0.3499771689979495,1.8367661299538045,3,right
9.939,-0.5036619291513731,0.31380012407319974,0.22908422958471303,-2.890093572701669,-3.777227079357103,0.6295151304622285,-0.7572584988686695,0.4262146092957505,1.7672293967091315,3,right
9.94,-0.5190514854470951,0.3684351363415149,0.2437640662202637,-2.8754379305964886,-3.7864599754416464,0.6097427608012289,-0.7021308409330822,0.29985698579196907,1.882552860037669,3,right
9.943,-0.5435255927595185,0.4482630250036287,0.22989892840191767,-2.8759383632497233,-3.785979655563473,0.6103132356245349,-0.774874149705016,0.4665139465535675,1.730440228250875,3,right
9.943999999999999,-0.5657328727863111,0.48284438303194593,0.20325324624471997,-2.90354213771146,-3.7691305748233654,0.647899889977527,-1.0800204365059094,1.1659788396991333,1.0918529140771764,3,right
9.945,-0.6476416661205487,0.6267078393184196,0.09565403995853591,-2.8355744055537047,-3.8108147894770332,0.5554743121107766,-1.1527838075533492,1.332656038961292,0.9397603165675449,3,right
9.949,-0.8659036131382879,0.8747762156001025,-0.01621707516479937,-2.948297569552517,-3.7416308603555506,0.7087318279793176,-1.0976225315800132,1.2062896101751779,1.0550710046565994,3,right
9.95,-1.032181052836346,1.002763523611006,-0.05696680246433561,-2.7996166227809205,-3.8328892060229123,0.5065835893911578,-1.1308652805462032,1.2824723521949033,0.9854945014968213,3,right
9.953,-1.0754069085774596,1.031356129437647,-0.08346233619524585,-2.1756769622129006,-4.215619859339301,-0.34188342407543065,-1.1174049246479711,1.2515640558025591,1.0138848060342058,3,right
9.954,-1.226289979209191,1.1261752426769396,-0.17983378830418206,-2.027017931630543,-4.306849153011525,-0.5440331002684443,-1.1170747975914244,1.250932636933019,1.014105388002393,3,right
9.955,-1.4318924185800967,1.2795447331678467,-0.37377259491334663,-2.139711548385579,-4.237696344240283,-0.39076998577565425,-1.1243612979599622,1.2674605362323523,0.999517334197667,3,right
9.958,-1.6277875840317677,1.4724273868158508,-0.6950277545769667,-2.0717554668055094,-4.279393618738838,-0.48320929326645645,-1.1156754468719026,1.247719825132856,1.0170451452397378,3,right
9.959,-1.9325036297468374,1.6920907699700753,-1.1263893424261915,-2.0993952849429895,-4.262437995634677,-0.44559827392838286,-1.1223741119318564,1.2630002507121083,1.0033066131807589,3,right
9.962,-2.2514490496467694,1.8426949781377528,-1.4855667699529658,-2.0997896979006345,-4.2621853928886315,-0.4450604989336048,-1.1189634034560363,1.2550507894853526,1.010987958672799,3,right
9.963,-2.45574298835564,1.9146467459895953,-1.5501361758048215,-2.0853088587450825,-4.271093007574878,-0.46480177608868495,-1.1192704943305007,1.2561852508019207,1.0085909963159225,3,right
9.968,-2.512918849612357,1.9371699249655532,-1.2322674453188371,-2.102629028314734,-4.260427923853965,-0.44114040679179606,-1.121091160399208,1.2596168407879131,1.007801309802552,3,right
9.968,-2.423059771780432,1.9051788568743098,-0.6467124364026576,-2.089175179998213,-4.26873297886202,-0.4595905712391795,-1.1183813727004859,1.2543147446399319,1.0097675370175163,3,right
9.972999999999999,-2.210018567272461,1.8037612403482992,-0.015933194102887308,-2.0963953168268388,-4.264254658596897,-0.44961862942755565,-1.120771917713495,1.2590698019777142,1.0077172899866564,3,right
9.974,-1.8766299050509887,1.6014526547925176,0.47933141745685104,-2.094761307634373,-4.265276893037138,-0.4519072653593471,-1.1197499920067533,1.2567219760820985,1.0098815953220015,3,right
9.978,-1.4594740407702707,1.317350885364423,0.7660554534535754,-2.0928901441298673,-4.266468630855192,-0.45458109237630734,-1.1186150943906947,1.255460838466188,1.0067812864553156,3,right
9.979,-1.0262156009757262,1.0181484466146118,0.8512771112158564,-2.0960334443214714,-4.264403106516729,-0.4498884965412967,-1.1222358508463186,1.2606965939510082,1.0117167778419116,3,right
9.982000000000001,-0.6225824349568272,0.7819922389027273,0.7399530319211798,-2.093244903329918,-4.266348677437554,-0.45440112443387737,-1.116588452910241,1.2523223430958612,1.0048688295104098,3,right
9.982999999999999,-0.2743355155862994,0.6806876246296564,0.48310972759649856,-2.0949186072211985,-4.265034357822886,-0.4512408813395664,-1.1226543695858346,1.2613540002216908,1.012072886355936,3,right
9.987,0.027690166442476863,0.7641839713624045,0.19778362323558252,-2.094341184757024,-4.265617506444954,-0.4527310073057845,-1.1190772586264317,1.2559704639431981,1.0080619803081863,3,right
