time,gFx,gFy,gFz,ax,ay,az,wx,wy,wz,subject_number,foot
17.125999999999998,-0.3088664300552961,1.101032818886761,0.01862397018273875,1.7440928338235326,0.7674605716687721,-0.4546604666768664,-0.242513925819264,0.030113372953800836,-0.15654134426395167,2,right
17.13,-0.29680465739702666,1.0981428503908355,0.031994211332549975,1.5037359893246167,0.7289449897892352,-0.419660445169853,-0.24165427480380036,0.03995889699799873,-0.17604137873756187,2,right
17.131,-0.2798772163557267,1.0941877915680074,0.03675061804300368,1.9023037470363173,0.7927181270250692,-0.47770741634223435,-0.24217357969310507,0.0340214879980488,-0.16427976267389155,2,right
17.134,-0.2673975656378912,1.0937909787288949,0.03334089794896807,1.3765840359682195,0.7086352564226661,-0.40113871375603793,-0.24195972322627518,0.03643580272240481,-0.1690663183493492,2,right
17.135,-0.2650036971085677,1.0948425972760893,0.03251951600444322,-0.8300893662080191,0.3555624190221647,-0.07976084647248043,-0.24196252150592054,0.03647287182082935,-0.1691318461011767,2,right
17.136,-0.25041809080770494,1.0971628489639698,0.04140353053428875,-1.3557922892430145,0.27149182036787817,-0.0031929917735906456,-0.242064955265884,0.0352022019918565,-0.16662532524856752,2,right
17.141,-0.2233192712031962,1.1010456704508487,0.05923102572006418,-0.9572412007026752,0.33523025189391664,-0.061241564883556365,-0.2419405783578331,0.03672335771249032,-0.16962851952366564,2,right
17.142,-0.19083187235459878,1.1052964211480014,0.06915451320178156,-1.197610246573563,0.29678551964480915,-0.026232271056901083,-0.24204032164600955,0.03553998251640069,-0.16728866597408093,2,right
17.143,-0.14793383397784532,1.113516517956786,0.05948282978471774,-1.099801544617353,0.31243625628758787,-0.040476710663809236,-0.24197748631580981,0.0361742542190258,-0.16855318089406698,2,right
17.144000000000002,-0.10429701334760091,1.1266356871031573,0.03544270160984532,-1.0984647697002887,0.31263417770025964,-0.04067482312601227,-0.2420131571925125,0.03603828455925448,-0.16825777950236234,2,right
17.149,-0.06641904551736591,1.1459172606080188,-0.00013156695059908605,-1.1496476038302386,0.3044732577313425,-0.03321393786600878,-0.2419883964111763,0.035852793739411595,-0.16793508783705544,2,right
17.15,-0.03365840331549845,1.1717426152055403,-0.023665159148174505,-1.0883638137814968,0.3142430322334099,-0.04214821717104105,-0.24201135218935674,0.036165442607160536,-0.16849963822524888,2,right
17.153,-0.006920501553365002,1.1963926273363805,-0.012342643051515553,-1.1360581962240226,0.3066447122772764,-0.03519344650781775,-0.24199664337744523,0.035875041247513034,-0.1679679589316882,2,right
17.155,0.011280193467738002,1.2155509898338037,0.016251222546671162,-1.1103234528741726,0.3107486325293386,-0.03894507825776243,-0.24198024375343752,0.03605870223808065,-0.16833224319681866,2,right
17.159000000000002,0.017096423778414704,1.2285495501718826,0.03725557884794117,-1.116349359654166,0.30975876540534286,-0.038074584855289154,-0.24205902573845775,0.03600828091891179,-0.16815141089910218,2,right
17.160999999999998,0.019332052005991408,1.2320991604694242,0.03765866492292146,-1.1227678224998394,0.3088139577109329,-0.037116995809067896,-0.2418949909971545,0.03594012216952509,-0.16820119433267217,2,right
17.164,0.027403831060092504,1.224792300910051,0.033049251275087364,-1.1116557795502127,0.3104513352318534,-0.038774515277332125,-0.24213588762511637,0.036085681811033304,-0.1682140210112297,2,right
17.164,0.03954655498123364,1.2085009039927261,0.03470718611919709,-1.1218704948566847,0.30898878258863954,-0.03723887616961407,-0.24187977077755007,0.03592239957964548,-0.16818407291818105,2,right
17.169,0.050437998926952825,1.1917874029959483,0.01294202597005489,-1.1151360151949548,0.30992957616020544,-0.03825787794821453,-0.2420266762538564,0.03602955225287428,-0.1682270784611523,2,right
17.17,0.0531508690287075,1.1853709575578257,-0.029580222415201425,-1.1183990257529859,0.30940648842370166,-0.03778302314179277,-0.24215875027114273,0.03605826390192239,-0.16813703504033417,2,right
17.175,0.040747079719001315,1.19160906127453,-0.06132950606248759,-1.1170696052058764,0.3098718848574906,-0.037905756200407086,-0.24158955868205417,0.035828579635813804,-0.1683228861704288,2,right
17.176,0.01204605609884861,1.2028771532975866,-0.07868480515561208,-1.1183168551027158,0.3090947242857295,-0.03788601846008025,-0.24264361459275377,0.03627313135716709,-0.16801596255495788,2,right
17.178,-0.02325381894192867,1.211386699486402,-0.07796717595144212,-1.1160396032174882,0.31032084207138116,-0.03797619789024649,-0.24129039104036587,0.03569836649648496,-0.1684013897740137,2,right
17.178,-0.06047183761723772,1.217249529205652,-0.05282057750216047,-1.1190198231877704,0.30892515888589006,-0.03779951310667712,-0.24242017427567325,0.03617949040099211,-0.16808340984710557,2,right
17.184,-0.09000181602152255,1.216086128959243,-0.02342835333853938,-1.1173029759683506,0.30973123580979905,-0.03790095706868725,-0.2423897260024994,0.03616087112531895,-0.16807807255861093,2,right
17.184,-0.10688231047534985,1.2067473406872669,-0.0029745198663294814,-1.1146009355661581,0.31062003194496707,-0.03816608040505101,-0.2402346191229364,0.035262738060235194,-0.16872932754825526,2,right
17.187,-0.11585296531079327,1.19755922626641,0.008497707964810242,-1.1248463171179086,0.30697975499923236,-0.03723523542416173,-0.24553185634162247,0.03747593477785645,-0.1671458540173278,2,right
17.188,-0.09831197879190146,1.1930486968264487,-0.002843773612625031,-1.1059227988217697,0.31371978181971283,-0.03895061290963058,-0.2367482179211275,0.0338060301620907,-0.16976586328972204,2,right
17.194000000000003,-0.07618939145935147,1.1937121495612744,-0.012703863627681236,-1.1303253464118248,0.3050472461123648,-0.03673258049673988,-0.24833463027939207,0.03864488007758135,-0.16631209063265612,2,right
17.195,-0.06798037973330767,1.1930324738644866,-0.02069996666677256,-1.1099031850274672,0.3122976211844827,-0.038591968568353646,-0.29696473066512363,0.05895672809105543,-0.1517871959988265,2,right
17.195,-0.03583659356746632,1.2041252737203418,-0.0682049150469621,-1.1103352941334639,0.31211550283470013,-0.03855820099182777,-0.3085534353413777,0.06378988899844434,-0.14833619415160376,2,right
17.199,0.006603733643772667,1.2315205501139967,-0.12869884547213906,-1.1498057822566177,0.29821847121385053,-0.03493807340921143,-0.29976624908698507,0.06012847151368405,-0.15095106851924572,2,right
17.2,0.035675471719971694,1.2575316300136323,-0.17742195872428634,-1.0528738337119536,0.33237260779466005,-0.04382596545200933,-0.3050663248313119,0.062335749243841374,-0.14937402436141572,2,right
17.202,0.052268967564009616,1.297669035039212,-0.2008500002008274,-1.2136116406845532,0.2757335464395784,-0.029085175622903567,-0.3029116482794699,0.06143422771384899,-0.15001961815384737,2,right
17.203,0.052825197869494564,1.330065991475819,-0.1974060070962732,-1.0015595002750093,0.35045161476035463,-0.04853499322667913,-0.3028750654805382,0.06143427550058178,-0.15001603620931075,2,right
17.204,0.04950666523351672,1.33857731391379,-0.18657252550982412,-0.11135377407657707,0.6639466527225597,-0.13016314942757087,-0.3040178146003375,0.06187952628689688,-0.14970388647453775,2,right
17.208,0.043429573599936114,1.363151076688703,-0.1380532920038346,0.10074086501549047,0.7386659382606076,-0.14961807526491,-0.30264647045525916,0.06135186135229263,-0.15007308128807678,2,right
17.209,0.03957658955401967,1.3813694870159954,-0.0799022087709886,-0.06004227866663125,0.6820449541820147,-0.13487558712639974,-0.3037180190461658,0.06175496100867941,-0.14979252483560065,2,right
17.212,0.04327461688678924,1.3871669502263289,-0.0685623037887314,0.03686990042200306,0.7161298949997283,-0.14374781661643027,-0.3031420956143257,0.06153352077208571,-0.14994769543130937,2,right
17.213,0.04257526214671041,1.4108406874882102,-0.08636792806277083,-0.0024433609600438416,0.7023788530955126,-0.1401739783307747,-0.3032575066726836,0.06161943366334163,-0.14987972595127472,2,right
17.217,0.03223754175218924,1.4338420472236948,-0.11357852595909014,-0.0032106223330046132,0.701977230659414,-0.14005928983158838,-0.303454890016029,0.0615804843071295,-0.1499282652339583,2,right
17.218,0.011990264965157113,1.4514463253482837,-0.1403677854763164,0.017689567952508707,0.7094665838437718,-0.1420197500802263,-0.30311371446854285,0.06164698065209078,-0.14984527005963466,2,right
17.223,-0.014117042376054895,1.4735325131596757,-0.16113493396422593,-0.007185866201368678,0.7006506886858914,-0.1397197463357484,-0.30345693698282805,0.061533968673193815,-0.14996946874706923,2,right
17.224,-0.04876802140851469,1.4998575840285169,-0.1672062482499825,0.01193589335574102,0.7072768822022242,-0.14143581519289042,-0.30321438281611535,0.061636994337395175,-0.14986125700747815,2,right
17.227,-0.0949102322443148,1.5264351076168,-0.15375175660817478,0.0021099266563256412,0.7041645375402871,-0.140655262108271,-0.3032854623864618,0.06166849192789535,-0.14983840922273714,2,right
17.227,-0.1417230259767272,1.5453797911482408,-0.13284842376264316,0.0034839360100228063,0.7040491869422996,-0.14057372571611038,-0.30343080061291056,0.06135012981242534,-0.15013014393932772,2,right
17.232,-0.1820084028240149,1.5567493785611832,-0.09894288479877085,0.007475873472591183,0.7061900343404373,-0.1411944192305864,-0.3030591914971503,0.0620611820724988,-0.14947528695959417,2,right
17.234,-0.21064495552079127,1.561677529918359,-0.05177770544175688,0.001717711193010348,0.7035762416898873,-0.14046341657303651,-0.3036043862030236,0.06099660042612202,-0.15045492134055102,2,right
17.237000000000002,-0.22626884765738686,1.563202743259096,-0.006157762637371302,0.006188149024452981,0.7051459159621274,-0.14087156109739718,-0.30303537207168507,0.06213653809305511,-0.1494069976336282,2,right
17.238,-0.23096738170375725,1.562862941060238,0.033654618194131986,0.005010707212686587,0.7058168719547833,-0.1411401751174075,-0.30336427221779066,0.061477945352506745,-0.15001243709933226,2,right
17.241,-0.21857604404134928,1.5597790021388491,0.06133344840745468,0.0021534445375969405,0.702328925987471,-0.14001754694958826,-0.30362082193221684,0.06089893752135427,-0.15054241662799417,2,right
17.242,-0.19714849173401638,1.5579977134369796,0.07593019274994592,0.00836999278521297,0.7082210091421263,-0.1418714932937512,-0.30246313984440465,0.06341831223610786,-0.14823345911111208,2,right
17.246,-0.17897171533692047,1.5582958749726838,0.08729793722418294,0.0010279522307874722,0.7016874129346731,-0.13982957942396607,-0.3046117965794636,0.058746877311820656,-0.15251489077125974,2,right
17.247,-0.1578376891573386,1.5588513339424908,0.10017040932611326,0.005749623989187172,0.705632603370987,-0.14105335314659506,-0.30185506087339153,0.0647460775646192,-0.14701670373787568,2,right
17.252,-0.13697411106535012,1.5612404487846625,0.11625415365761216,0.008329347394225755,0.708504613669944,-0.1419716259421114,-0.30415550779812117,0.059737424139730946,-0.1516070664379255,2,right
17.253,-0.11365369231479018,1.563852336906941,0.13805403335068314,-0.005710565991754523,0.6949586781217223,-0.13770072937967093,-0.30409036257060057,0.05987117891662986,-0.1514839723797477,2,right
17.257,-0.0821913090073765,1.5639593461427492,0.16225936150224482,0.020976309766095286,0.720312011852029,-0.1456807011043787,-0.29971612679196097,0.06942852660980844,-0.14272659666501672,2,right
17.258,-0.04803347085485486,1.560808122344841,0.1810856627720588,-0.01352512879800988,0.6876710887476825,-0.135412578395804,-0.31046961843245924,0.045939367379178524,-0.16425014709123958,2,right
17.262,-0.0036011733962782004,1.5525965308953813,0.19619703904749736,0.015377375868157274,0.7149616123688064,-0.14399396206203854,-0.2926401853130768,0.08488599449540382,-0.12856286579634515,2,right
17.262999999999998,0.028543805859770906,1.5464482703945912,0.20520749692903262,0.014442494130535815,0.7141563138228914,-0.1437477745663785,-0.31615601112517744,0.033512927933837755,-0.17563551044990527,2,right
17.264,0.038491228234233364,1.5446273469944034,0.2079406501468066,-0.04026290792282464,0.6622933084988308,-0.12742184494788555,-0.41484498574652284,-0.18220807811031337,-0.3732621910774251,2,right
17.266,0.06461419420577344,1.5375590042516523,0.2122071528150103,0.09441700879125034,0.7898688904709023,-0.16756907759238643,-0.4383567672538258,-0.23360170621781803,-0.42034456195801895,2,right
17.267,0.09952744567748543,1.5301535046460581,0.2053281627174095,-0.12897178198896295,0.5782966824703795,-0.10099559364658425,-0.4205354648141173,-0.19461061369560478,-0.3846363096765124,2,right
17.27,0.11422032456900891,1.5291897849830496,0.1933099809355492,0.16570713946801835,0.85738261648216,-0.18880836877046112,-0.4312773203128114,-0.21817001295349514,-0.4061928644249213,2,right
17.271,0.12059759157049049,1.5279790766035646,0.1904645354045958,1.4024925292051251,2.0284182468944096,-0.5573915974363255,-0.42691599003785075,-0.20852420793671364,-0.3973941020118354,2,right
17.272000000000002,0.13964553185043793,1.5240501122249452,0.18180909918374613,1.6971761848853975,2.3074918899086905,-0.645204853110974,-0.42684139501018525,-0.20847238898332482,-0.397309089140679,2,right
17.276,0.1619593770866741,1.5203140968052213,0.17127271385573078,1.4737659041069282,2.0959754286352172,-0.5786291901232479,-0.42914072573591755,-0.2134503397333115,-0.4018856551035398,2,right
17.277,0.1766055993884934,1.517144706797756,0.16503434905228198,1.6085018481764788,2.223405713955679,-0.6187821016619843,-0.4264034192059476,-0.20737332608365727,-0.39635024125786333,2,right
17.281,0.19114143865599983,1.5146516935894647,0.15106066294428733,1.5536939146348459,2.1718085677734003,-0.6024457814219447,-0.4285096786176494,-0.21227959618757059,-0.40074237185264616,2,right
17.282,0.2023329720010042,1.5116174458036156,0.1287918362604326,1.552899794453828,2.170638318276997,-0.6022138569407816,-0.42741368644602973,-0.20936330888838783,-0.3982473260063228,2,right
17.285999999999998,0.20925703339395288,1.507037647522143,0.10219911932412803,1.581664402650918,2.1982863182805596,-0.6107812702538133,-0.42760635521991314,-0.21042303446990387,-0.39900158492556864,2,right
17.287,0.21583622749789427,1.5019736277600586,0.07345458352580062,1.5472204294858147,2.165496509166253,-0.6005189650959162,-0.4279687647970939,-0.21070635932071208,-0.39943360378063253,2,right
17.29,0.22284074668468434,1.4953797737144487,0.04647184636081807,1.57403078950281,2.19052953443511,-0.6085114568945992,-0.42743995549994257,-0.20954567835223697,-0.39837219985528954,2,right
17.291,0.2282324443225946,1.4880569971979174,0.031493143050055,1.5595998589947677,2.177997542798794,-0.604200931523101,-0.42783154578542826,-0.21134619509259933,-0.39970085209987766,2,right
17.296,0.2286761857705256,1.4799599541840396,0.03896069651291619,1.562851352335381,2.1791277788054475,-0.6051872773346041,-0.4277384943167274,-0.20898480451966386,-0.39827001231885606,2,right
17.297,0.22913221072868073,1.4686434357342426,0.06458608577495331,1.566749246302353,2.1852086714982164,-0.6063275846516467,-0.42752648116941006,-0.21174017264011433,-0.3997021359023515,2,right
17.3,0.23000305299333912,1.4544320201644172,0.09743293995070255,1.5600637649107296,2.176973197936621,-0.6043521792019428,-0.4279069608012525,-0.20914122568051294,-0.3984846708835079,2,right
17.301,0.23312961256559617,1.437140088834427,0.12481058350026765,1.5662864295371928,2.182848739011989,-0.6062067799619901,-0.4276083832230565,-0.2104696301980732,-0.39903066426270944,2,right
17.305999999999997,0.24404971812342297,1.4219000976292633,0.13407589385716343,1.5622099660505677,2.1825226806332263,-0.6049605687588768,-0.4275166324523253,-0.21198041189745415,-0.39983230830134975,2,right
17.308,0.25680318594544815,1.4134758707266843,0.12729360679080787,1.5638186647750616,2.175969278183319,-0.6055115338401347,-0.4282678072282774,-0.20614039150290348,-0.3970226411072454,2,right
17.309,0.2696640072754731,1.408738501443806,0.11048707220776409,1.5641324237555136,2.188316068368606,-0.6054984859097592,-0.42677295528966724,-0.216745093522654,-0.4020299350987482,2,right
17.31,0.28936554754825594,1.4083146482772677,0.08121113545321049,1.5628058518166354,2.1742136082341554,-0.6052164700163578,-0.42873733681837567,-0.2032294323697239,-0.3956897129574323,2,right
17.314,0.3099264997938791,1.4093209010023084,0.04345227481569842,1.5642363497008218,2.1829927818953663,-0.6055777576383797,-0.42707863242255706,-0.21446755500675344,-0.40094613370151744,2,right
17.315,0.3332510866961982,1.4101202515412719,-0.0007195289901795153,1.5634050175019416,2.188599374240927,-0.6052725439256104,-0.42713882193970354,-0.2142069603593943,-0.40083261484380506,2,right
17.319000000000003,0.3629245486058339,1.4138377064398902,-0.04281364193692739,1.5632363895007075,2.1604439650205842,-0.6054707845618523,-0.4302740649573707,-0.19269385543776074,-0.39075889976874323,2,right
17.32,0.3950825261495804,1.4173082232382654,-0.07096717876169054,1.5644460490908343,2.213513411514353,-0.6053717121336875,-0.4225410383366386,-0.24549031910926966,-0.41546872092448645,2,right
17.326,0.44239906044073196,1.4253699501691224,-0.10197382624880527,1.5625731870754027,2.145061327914056,-0.6054024101230504,-0.4353746046289735,-0.15799440715149576,-0.37451928828358494,2,right
17.328,0.4749881605789558,1.4325205912349501,-0.124003283791477,1.5642657926964683,2.202339179899889,-0.6054171087669551,-0.4184430317502224,-0.27337265214898987,-0.4285266289101461,2,right
17.331,0.4843781744575164,1.435891579296566,-0.1297662250171296,1.564027635059222,2.2005870620846952,-0.6053550562010508,-0.3473557798666731,-0.7577385295976788,-0.6551683734439289,2,right
17.332,0.5209598523596954,1.4490738155755443,-0.15747698139013322,1.5613169476288435,2.0919062487830438,-0.6054914166517595,-0.3304278551201917,-0.8730751299314704,-0.7091924463325645,2,right
17.333,0.5631013721423102,1.4681790909520025,-0.19609525296637553,1.568246384992058,2.359322932196241,-0.6052445738841608,-0.3432582302773315,-0.785649804090766,-0.6682218882889497,2,right
17.335,0.5860662980792584,1.4966189332265007,-0.2297536442499286,1.5566713923493145,1.9158225191131517,-0.605621659526663,-0.3355210249871229,-0.8383729788106155,-0.6929355287725175,2,right
17.335,0.6000476010848997,1.5199978387058377,-0.2550909268152299,1.571950567937837,2.500838975855803,-0.605134512626772,-0.33867488079914043,-0.8168968369955467,-0.6828997957814418,2,right
17.339000000000002,0.6006344486353503,1.5266235260531014,-0.2621464846697704,1.6362645687749033,4.956259265003793,-0.6030665074836103,-0.33869870969450766,-0.8166812522085216,-0.6826898094254115,2,right
17.340999999999998,0.6023932579881981,1.5470141147249894,-0.27880217150085773,1.6515006144340023,5.54128657629116,-0.602577720567256,-0.33708918809440735,-0.8277551303240274,-0.6880963520305052,2,right
17.340999999999998,0.6018260445253474,1.5707289369363022,-0.30438758315663994,1.6399477734272778,5.0977512116395065,-0.6029492793057114,-0.3390082777582587,-0.8145275707323156,-0.6815918863600482,2,right
17.345,0.5884993945576024,1.5816232118501334,-0.3171180915630124,1.646981781075005,5.3652456306275145,-0.6027289727725993,-0.33752613149706234,-0.8247766772752663,-0.6866974554079359,2,right
17.346,0.5691944924299616,1.589981851852078,-0.32068386602408167,1.643937312434415,5.256434305239804,-0.6028061316651663,-0.3383319451443221,-0.8192222031777083,-0.6839656539010619,2,right
17.348,0.5457135425047797,1.5885416979884581,-0.31578304364750154,1.6442977488167847,5.254849786079843,-0.6028358405994365,-0.33809129814973193,-0.8207300045541069,-0.6844078460647057,2,right
17.349,0.5300727947770355,1.5798995266331217,-0.3066498331041999,1.645227827771972,5.311977976357275,-0.6027474881100887,-0.3380338540161957,-0.8215430604706906,-0.6856347818098346,2,right
17.352999999999998,0.5258900235476311,1.5707654070177794,-0.30057073158846925,1.6439947005623623,5.243561706016444,-0.6028451841408883,-0.33813483886991674,-0.8201293082255654,-0.6835163667953258,2,right
17.355,0.5208703477750221,1.56087843216156,-0.2886911029108652,1.6451503864910622,5.296825942023254,-0.602783347036783,-0.3381209798032095,-0.8211140330021081,-0.6857639856815613,2,right
17.36,0.5132421260625444,1.552041650055922,-0.26517393222051444,1.643920732053589,5.268155331862712,-0.6027716449328624,-0.338086724627295,-0.8206378552137545,-0.6841171687980523,2,right
17.362000000000002,0.5040837516346263,1.5431240253726968,-0.2444433531736123,1.6456269757880926,5.274588094095734,-0.6028805101134166,-0.33797930249834407,-0.8213629579310227,-0.6844435537249185,2,right
17.364,0.4860537472279782,1.5344535409518096,-0.22910778930805342,1.6431848817188786,5.282416902415207,-0.6026771821422873,-0.3384883669765771,-0.8192125125873413,-0.6860796661765274,2,right
17.365,0.4556382404685725,1.5300143374854671,-0.21532761584033733,1.646080174117186,5.268978250563135,-0.6029299919263625,-0.3373828266587195,-0.8237336102913881,-0.6821572464508588,2,right
17.369,0.41833700593404005,1.5323610330235513,-0.20423118645859667,1.6438211143829018,5.281546668314659,-0.6027267776119059,-0.3390454277878046,-0.8168977173996538,-0.6879656305953578,2,right
17.369,0.37622930089574724,1.540062183427861,-0.18592561660115864,1.6435809492407576,5.273266484559368,-0.6027321676988527,-0.3372553504464789,-0.8243060201674192,-0.6818309525911013,2,right
17.374000000000002,0.3249645419205748,1.555848333616785,-0.16172025971431608,1.6484684324888261,5.276495648059132,-0.6030867485970361,-0.33828934484958517,-0.8200268597358396,-0.6853754176440842,2,right
17.375,0.2613657621136326,1.57637461936076,-0.1394344658672651,1.6375160220827611,5.277380656280519,-0.6022690918063753,-0.3392204964162887,-0.8160692597813881,-0.6883074092580209,2,right
17.379,0.1857067341846159,1.5952441534313908,-0.12573219740885583,1.65380299275565,5.274081315747285,-0.6034909324149041,-0.33519719634308387,-0.8330413999863545,-0.6753177698566493,2,right
17.38,0.09787534137288757,1.6134445524712995,-0.126194754876964,1.6364505842545416,5.277966666924886,-0.6021876387104237,-0.3426555771198544,-0.8015838358736977,-0.6994132115916087,2,right
17.385,0.00025866587520780374,1.6269920393858093,-0.12594752890387678,1.6464612905625937,5.2751401605268295,-0.6029419660119995,-0.3330756997389479,-0.8419990687808343,-0.6684859591095229,2,right
17.386,-0.09811830856512088,1.6373517325993372,-0.11473769662871294,1.6551670955099596,5.275585601995429,-0.6035873195719506,-0.34107448967294457,-0.8082483741110638,-0.6942978555986568,2,right
17.387999999999998,-0.1971602794443366,1.6379314592715841,-0.10044215924278428,1.6171917073726116,5.278352525438558,-0.6007537636471858,-0.34086319549737026,-0.8091334160548473,-0.6935928256233785,2,right
17.389,-0.28733336874911775,1.6262168120353717,-0.09144541361478244,1.687594424233364,5.272370976469338,-0.6060115071227319,-0.3255908866378887,-0.8736102412346843,-0.6444147911700787,2,right
17.392,-0.3596015004207139,1.608191449926816,-0.0844339103062829,1.5971995357288655,5.280241061797273,-0.5992580124500224,-0.36312307092023394,-0.7151559353198425,-0.7652845607503829,2,right
17.393,-0.4263505144857956,1.5697583275442446,-0.07004778366296863,1.6726628341174758,5.273595696883374,-0.6048993059221555,-0.3008943187525352,-0.9778821215193163,-0.5648884155046536,2,right
17.397000000000002,-0.46636228621199527,1.534969866912503,-0.05591072222373878,1.6706298986687689,5.274067103420043,-0.6047393557068144,-0.382973097259005,-0.6313411281490502,-0.8291961927675429,2,right
17.399,-0.47888641285200967,1.5232653825059497,-0.049421501866903556,1.526706788761639,5.285777046948478,-0.5939999375824496,-0.7275273174480938,0.8233384198388921,-1.9387104788848746,2,right
17.399,-0.5129247753718444,1.4872661927370832,-0.03051938916915239,1.880439251341101,5.256656841370219,-0.6204110068274312,-0.8096049363354879,1.1698892882442364,-2.2029962746712726,2,right
17.403,-0.5675576000485345,1.4197834512199878,0.01715021983996987,1.293940037817948,5.305020495175471,-0.5766083335286458,-0.7473766689742305,0.9071471784410257,-2.0026263613314828,2,right
17.403,-0.5993416205537347,1.3799141257359064,0.05327535609116675,2.0675260869870113,5.241232230761325,-0.6343972284513215,-0.7849120571695798,1.0656159791202962,-2.1234965003717488,2,right
17.407,-0.6110660756409232,1.3666018718114188,0.06347650357604434,5.314675545190633,4.9738490777652515,-0.8768931483325144,-0.7696299651669543,1.0011363346717608,-2.0742574629976476,2,right
17.408,-0.6497680708107023,1.3219054291844516,0.09718418877855158,6.088255595375017,4.910123526443212,-0.9347166997554032,-0.7694359651497671,1.000231798671284,-2.0736956374705615,2,right
17.409000000000002,-0.7048514179760097,1.261992817428197,0.13472376365801275,5.501766242883015,4.958407430103904,-0.8908598386412818,-0.7774129655726936,1.0340309082218455,-2.099292641047552,2,right
17.413,-0.748021103987552,1.2164198484419273,0.143474722740819,5.855489235549561,4.929303563860417,-0.9173157694674005,-0.7678510300147315,0.9935419009057525,-2.0685913275266063,2,right
17.414,-0.7934660578864194,1.1695863438789642,0.1413701600393903,5.711569208223557,4.941151690495223,-0.9065788429035042,-0.7753086443408692,1.0250787700688488,-2.092567087959946,2,right
17.417,-0.8349547633087047,1.125666355836227,0.12422548767081648,5.709546082891139,4.941267732536713,-0.9063321031502947,-0.7712538643298518,1.008060587093349,-2.079434572092281,2,right
17.418,-0.8710163498656964,1.087581886821806,0.09888664251178622,5.784982150932511,4.935178362102014,-0.9121630300529606,-0.7722587717613254,1.0119783193949856,-2.0829147812930238,2,right
17.422,-0.9053369914579323,1.0509440153239633,0.0734965594109105,5.6946308229226545,4.942436739551825,-0.9051392611647334,-0.7731813761024922,1.0164329893235933,-2.0854647100124173,2,right
17.423,-0.9269448445917263,1.0193986089663623,0.044683129338383906,5.7649842052222535,4.936826940301982,-0.9106648604832899,-0.7715113397131501,1.008695887038543,-2.080603592336791,2,right
17.427,-0.9438730886329256,0.9950478029431917,0.029895108960546125,5.7270417836700505,4.939870714888431,-0.9077148884344692,-0.7731031230067525,1.0159632789938913,-2.085317458212992,2,right
17.428,-0.9605428610963127,0.9756489350010011,0.02744342700725649,5.735762452162548,4.938996983020247,-0.9081357382491584,-0.7719396798910527,1.01105623657087,-2.0815675038000556,2,right
17.432000000000002,-0.9719616640528775,0.9583069005322791,0.027216109215015206,5.745678833783007,4.938686042001972,-0.9096171861480242,-0.7727115245971011,1.0132999742717304,-2.084816806441392,2,right
17.433,-0.9818425060026214,0.9426427834136362,0.035453365567358994,5.7285151384985635,4.939226624880998,-0.907060249234726,-0.7721074869520423,1.0130689770975598,-2.081125861995763,2,right
17.437,-0.9916261552046237,0.9253983009874186,0.04778678208267311,5.744542706613986,4.9389785139698805,-0.9098211110237895,-0.7727307413453317,1.0122406820633167,-2.085737471558459,2,right
17.437,-0.9978557328241954,0.9077259074718219,0.0569922982987894,5.733838734798067,4.939005517134758,-0.907775385761487,-0.7721181843385759,1.0133422846810012,-2.0809882199833187,2,right
17.441,-1.001882448666426,0.8896543608504247,0.06017919475819269,5.738632468139462,4.938602732527958,-0.9081221629041836,-0.7723902387286896,1.0123605166416783,-2.08346887304174,2,right
17.442999999999998,-1.0032766024995632,0.8687921001947333,0.055451762284073086,5.738151543498869,4.94022902703859,-0.9103987161016815,-0.7730299926120525,1.0132237512728755,-2.0869115293242837,2,right
17.448,-0.9989867340826472,0.8481864942909597,0.04612639536023312,5.736616630039478,4.9367301681866085,-0.9049998549909805,-0.7708937191155607,1.0122446346362346,-2.0739803540361157,2,right
17.449,-0.9912564600330201,0.8281722733941297,0.03340918763898218,5.738292406442641,4.941999580953324,-0.9130077776457823,-0.7747353997029403,1.0135547180519122,-2.0975752781008463,2,right
17.453,-0.9764083832025725,0.8074686655134469,0.01819593893909379,5.7373204968297,4.93631644904387,-0.9045323644423147,-0.7698298167746993,1.0119867033587506,-2.0673656990311224,2,right
17.454,-0.9548936790936506,0.7906479417654796,0.002414204600056253,5.737887319784348,4.9395974224638595,-0.9094293101669338,-0.7739136671642017,1.0132485430834746,-2.0925496516401916,2,right
17.457,-0.928825173983213,0.7771107619685695,-0.008292183680957544,5.736584833627173,4.942580525419153,-0.9135184386678807,-0.7738464161971984,1.0133933907341985,-2.092005642994981,2,right
17.458,-0.9000328128363575,0.7630631232358287,-0.012238885411245942,5.739975268124981,4.92973070568085,-0.8954534167808805,-0.7659188165433662,1.0104028992469756,-2.043536564910416,2,right
17.463,-0.8726059685917822,0.7524614309476837,-0.017786758616948763,5.733794063941506,4.953545527008071,-0.9289616478612454,-0.7853514256943804,1.017539469985192,-2.1625023382434123,2,right
17.464000000000002,-0.8356332695168874,0.7427362561791261,-0.020316129106767736,5.741890329568341,4.922959719683847,-0.8859488186932185,-0.7531466505326425,1.0057653270070572,-1.9652982167514763,2,right
17.465999999999998,-0.8107828258070567,0.7357104338893174,-0.017367458622200405,5.735048139683481,4.948490901015503,-0.9218496778010583,-0.7956205078299803,1.0212852438514728,-2.2253996823154467,2,right
17.467,-0.8047357583658484,0.7338883595758581,-0.016787730680387435,5.735079367097397,4.947836890768222,-0.9208716343995225,-0.9739800846406894,1.0867122506315519,-3.317399750558596,2,right
17.468,-0.7795872343849178,0.7276665623239373,-0.012073680419298603,5.748847593585186,4.89903505138356,-0.8524572031574944,-1.0164511638938083,1.1022384683365778,-3.577501182842359,2,right
17.472,-0.7485634910113435,0.7201352353331667,-0.006248519231102933,5.715081592218006,5.018930760060748,-1.0206070565355003,-0.9842532959245908,1.0904653043178214,-3.380305371431641,2,right
17.473,-0.7225718771030938,0.7148439061212508,-0.008621744351268674,5.771127527997992,4.820164875408743,-0.7418181903426619,-1.0036732289249057,1.0975716684290155,-3.49924185152476,2,right
17.476,-0.7028593392828013,0.7113617053464469,-0.01080688934828659,5.697121494639909,5.0823188457775625,-1.1095280313807434,-0.9957641489340099,1.0946607184086101,-3.4508330728735546,2,right
17.477,-0.6975181561957176,0.7103386228021837,-0.010018697502307095,5.386996271119315,6.183377856749615,-2.6531729187558115,-0.9956760837275603,1.0946724548408955,-3.450199686497308,2,right
17.477999999999998,-0.6826868258898247,0.7076354344354154,-0.006161146444628367,5.3129528920620865,6.44556096995125,-3.0208853236173887,-0.9997745388496476,1.0960946989524523,-3.4754794715998054,2,right
17.480999999999998,-0.6650928254363612,0.706558682032483,0.0033787888415338285,5.368951254697565,6.246680820500668,-2.742068635307346,-0.9948734482090256,1.0944049920489698,-3.445214832569039,2,right
17.480999999999998,-0.6531851321790562,0.704289317323537,0.013382436136459517,5.335512244126662,6.366857583652896,-2.9103061551912255,-0.9986778401487396,1.0956969459675732,-3.46875854564955,2,right
17.486,-0.6394732382395847,0.7001073434182655,0.027121405126313548,5.348503998942775,6.31755619045246,-2.841718017139126,-0.9966191684587313,1.0949851010279201,-3.4560474040795226,2,right
17.487000000000002,-0.6297115360844876,0.7019155789184466,0.04666491062164827,5.349776715648576,6.317573428774485,-2.840991532515797,-0.9971490757731203,1.0952673900222183,-3.4590784490994446,2,right
17.49,-0.6184349461287275,0.7038445407411624,0.06474631488618651,5.341498089281755,6.3424653062015866,-2.8766295362862886,-0.9975308605015686,1.0951276777247978,-3.4620996430948106,2,right
17.491,-0.6088839878877867,0.7018696450416514,0.08250266426529622,5.350595558734137,6.312112492089512,-2.833756259673977,-0.9968680836080208,1.0953646097670315,-3.4568661008793864,2,right
17.496,-0.600000219500185,0.699085532821496,0.09746158696494012,5.344779318134765,6.33657628870618,-2.867431188958505,-0.9974052594473976,1.0949736639963157,-3.4615963519324033,2,right
17.498,-0.5862574427377523,0.6953658778130208,0.10289306304004009,5.345473648973101,6.321799350234197,-2.8487234743964267,-0.9970907100791956,1.0953265581700191,-3.458522017671969,2,right
17.5,-0.5742253352529922,0.6921777438874714,0.09877260267530014,5.349696721990031,6.3280190676629156,-2.853983372270823,-0.9973565506379806,1.0954283900592428,-3.4601392923879706,2,right
17.500999999999998,-0.5590537659402643,0.6883966247948294,0.08923804251940926,5.3425365405591485,6.3274100073864465,-2.8573737225549274,-0.9968228004152644,1.0943638635034278,-3.45900208756537,2,right
17.508,-0.5394516503824383,0.6828991084009113,0.08283862460805799,5.349142230312969,6.324709459582696,-2.850204872575353,-0.9978976570765817,1.0967430378805019,-3.4607141060258675,2,right
17.509,-0.5214167210780292,0.6766294717446923,0.07976210678459882,5.3476242028556795,6.330277664301656,-2.857981611798593,-0.9962606057449974,1.0931816765422049,-3.457954340603452,2,right
17.51,-0.5033027345118064,0.6680493035890653,0.07619829843822673,5.339503859643716,6.320618813083688,-2.850714577136398,-0.998050321098888,1.0969943827023398,-3.46116944935172,2,right
17.511,-0.48411115339103217,0.6605122532050822,0.07441351845234259,5.359996306798831,6.335830218152841,-2.8577019572759923,-0.9970167164086495,1.0947916399117372,-3.4593146787713813,2,right
17.515,-0.4653273577987014,0.6526333635357364,0.07309883878041924,5.328743049004917,6.315554506328237,-2.850665996164094,-0.9960267508095493,1.0928564512457652,-3.457110000336085,2,right
17.516,-0.4468924772372508,0.6392090121853855,0.07005134177016131,5.362310293521535,6.336283959372729,-2.8569266649629332,-1.0002311521159457,1.1012785618371996,-3.465974490990784,2,right
17.52,-0.4293259446434784,0.6248999350349945,0.068057024031727,5.342745648823998,6.324900343948919,-2.854140695424612,-0.9924404551187357,1.0856620688283276,-3.4495741784990597,2,right
17.522000000000002,-0.4127058912944331,0.6071526485565948,0.07124506735317584,5.3264074886007275,6.3132412159485485,-2.849154137603617,-1.002452242845966,1.1057174652162431,-3.4706832193422796,2,right
17.525,-0.3943443802478661,0.5864136783130928,0.07838180816548099,5.398885259598777,6.360860213122631,-2.8662085192184055,-0.99409029843843,1.0889726025199935,-3.453037631295619,2,right
17.525,-0.3767761331062454,0.5656693235060142,0.08813006171183708,5.264241516495682,6.273356407731635,-2.8357079961222498,-0.9943057894485192,1.0894228705910591,-3.453450718229898,2,right
17.53,-0.36317348564939994,0.5399276162026274,0.10092492900854863,5.437218859981201,6.3854234443031,-2.874465709089235,-1.0102960052506835,1.1213657099992558,-3.4873717587836643,2,right
17.532,-0.3494891196966893,0.5147567231542431,0.10978081634673978,5.292764471922254,6.291990265770442,-2.842280994884544,-0.9710023188860762,1.0428560653689094,-3.40404656105386,2,right
17.535,-0.3354355034948283,0.4880947292262228,0.11281093043150149,5.296750369553855,6.294322373733892,-2.842886378143472,-1.036154312269781,1.1730281696289069,-3.5422103556019113,2,right
17.535,-0.3285581749203985,0.4700986420212848,0.11472377954267948,5.571999559590786,6.473001883823155,-2.904962638596776,-0.9502145220737773,1.0013344706350704,-3.3599507525230417,2,right
17.535999999999998,-0.328309006990237,0.4678675523308967,0.11512540040972838,4.89534759064408,6.034118932333214,-2.7527719175206156,-0.5893905434785482,0.2807590095542143,-2.5945675893943028,2,right
17.54,-0.32322484265296714,0.4526139503331631,0.11850593021664793,6.017331588617342,6.76169130668031,-3.0049646744526015,-0.5034299194209664,0.10909333294167167,-2.412234376813549,2,right
17.542,-0.3170456369403907,0.43667051966353726,0.12511154644457378,4.5373943808638275,5.802077084927676,-2.672378186824455,-0.5686247964691563,0.23920355086140943,-2.550543318091859,2,right
17.545,-0.3161531211429567,0.4349759209798868,0.12413339415167027,-1.6741751960639064,1.773816166428284,-1.2761201394182438,-0.5292676283144838,0.16079418992895428,-2.4670163857550005,2,right
17.546,-0.3131756970080628,0.4234040920342868,0.11810994829863102,-3.154175414163713,0.8142285154937903,-0.9435458875945848,-0.5453316222602482,0.19260708055468156,-2.5011515926807557,2,right
17.546,-0.31200012765254626,0.4082438164746941,0.11260247153829181,-2.0321170869103033,1.5417503268121253,-1.1956948146343043,-0.5454876082689301,0.19318295260329232,-2.501423431634519,2,right
17.549,-0.3151144151699768,0.39783311986642655,0.09912594877267578,-2.7087649329580286,1.1029337114115578,-1.0436074146905232,-0.5371315328630275,0.17638128725346897,-2.4837245276927353,2,right
17.551,-0.316608830392692,0.3891038544169724,0.0783795665925525,-2.433696925233435,1.2815492816814438,-1.105504201349587,-0.5472367116478336,0.1963392571151192,-2.5052062141767326,2,right
17.554000000000002,-0.3188562809907012,0.38595377053334146,0.06069599620846869,-2.429291159218157,1.2839125428935205,-1.1063465095128024,-0.5392214494310519,0.18105074025259693,-2.4880517310335546,2,right
17.555,-0.3222005758743195,0.38335913069083694,0.04645781924339876,-2.5743715970829877,1.1905198989488526,-1.0739415726477732,-0.5437702391820005,0.18889767148506253,-2.4979634812362526,2,right
17.56,-0.32469485733982767,0.3814330169617015,0.03373983643701221,-2.400740805820427,1.3024401464323914,-1.1127693405377028,-0.5424013887669357,0.18768175852045565,-2.4947375844082336,2,right
17.56,-0.3270836935492651,0.38261933147754035,0.0228184190248829,-2.5357222692681693,1.2151973048852982,-1.0825157242913974,-0.5416058511011286,0.18488331858964172,-2.493306831471326,2,right
17.564,-0.33064344524951406,0.3862402243705113,0.010880731413917882,-2.463677114957033,1.2624869722904386,-1.0988713663796459,-0.5435440164562177,0.1887432812052146,-2.497420309502775,2,right
17.566,-0.335031634608257,0.39320686334210486,-0.001165997276017368,-2.478400618149996,1.251105280807284,-1.0950370361738124,-0.5411300596495376,0.18616638567422195,-2.4918240004135317,2,right
17.569000000000003,-0.33460023882833184,0.396548328288651,-0.00913235381131623,-2.500872895506455,1.2396883991618513,-1.0908894337144632,-0.5437146615274485,0.1862001103855561,-2.498393591894325,2,right
17.569000000000003,-0.3301481866753545,0.394381794187062,-0.011810524698969063,-2.4636039557047837,1.259986303644351,-1.0981587516948417,-0.5411419552075445,0.18871190979514926,-2.4913149376254444,2,right
17.575,-0.33171536675763336,0.3952857331498085,-0.012287095215061907,-2.4980075534643635,1.2407604367606715,-1.0913083886832524,-0.5433192645897369,0.18490574830401058,-2.4976614235401726,2,right
17.576,-0.33853446078902105,0.39569557423787216,-0.014179356990388733,-2.4770846116542202,1.2543561739182125,-1.0960186345721186,-0.5423498911547115,0.18768097932097438,-2.49460756890406,2,right
17.579,-0.344091710104207,0.3915386332971673,-0.015503590045857388,-2.480410909194113,1.246477585105465,-1.0936356904392435,-0.5409062260914541,0.18886040142456767,-2.490682845942297,2,right
17.58,-0.35118138400932714,0.3892955029032089,-0.01544338908860044,-2.493716337620404,1.2509235564572696,-1.0943822285848328,-0.5459408415027203,0.1811383950920164,-2.505131407671729,2,right
17.585,-0.3609964173857731,0.38487303243620025,-0.01759259650235387,-2.4688602403532762,1.2475388140525308,-1.0943941075615213,-0.5369784648800162,0.19620526206359012,-2.4791327385101782,2,right
17.586,-0.37342241711989976,0.3789697289273514,-0.020983960672676848,-2.4962892135983514,1.2505416120121495,-1.094171779781667,-0.5483201938776389,0.1765276507210654,-2.512161105027314,2,right
17.589000000000002,-0.38939620253649593,0.3776199640777622,-0.023036443177990088,-2.4789688967065,1.2497626555868915,-1.0946312254264416,-0.5389231938081237,0.19309670857969452,-2.4847426025316377,2,right
17.59,-0.40784632346576016,0.373791421166337,-0.027924647270522653,-2.4713309838489907,1.2443573848533944,-1.0933878676489335,-0.5391145046965953,0.19252663093919292,-2.4853434800921264,2,right
17.594,-0.42821096658212343,0.3706993831598528,-0.036852089860232834,-2.5166937007914543,1.2602633554713107,-1.0961459158729068,-0.5571503552416612,0.16115754656240072,-2.537892685631223,2,right
17.594,-0.44991557524178993,0.3694114520316012,-0.04263558279917369,-2.430415265072727,1.2321659321058505,-1.0915153771012682,-0.5129338395360112,0.23847672082601457,-2.4089889828353295,2,right
17.598,-0.473443496823961,0.36312910638248996,-0.043692032007243795,-2.5416822491289515,1.2679280939518098,-1.0973526386131494,-0.5861916882829856,0.11017442743834222,-2.6225886212428398,2,right
17.599,-0.486373885819319,0.3610398821342643,-0.044784359767662305,-2.4485984637125346,1.2382029868887914,-1.0925232265000204,-0.4895932524909544,0.2794544191728822,-2.3409234700264028,2,right
17.602999999999998,-0.4910030159505366,0.3617765361884454,-0.04502103224339357,-2.451861692881953,1.2385113373896937,-1.0924855808433875,-0.08410219006898158,0.9900397747510441,-1.1584608121061364,2,right
17.604,-0.507829528659054,0.3574368825609392,-0.03841161581547667,-2.6269069842750197,1.296810984065645,-1.1022470328047418,0.012477931167615093,1.1593457556881637,-0.8768539480772692,2,right
17.604,-0.5278828070345127,0.354348030741687,-0.029499300016670567,-2.1957971034623958,1.1541098879783092,-1.0784525491343797,-0.06074371584890058,1.0309826176540495,-1.090355759582937,2,right
17.608,-0.5462105633738417,0.3527952457554328,-0.029132776935541383,-2.910813506425897,1.3905530486350468,-1.1178543665269123,-0.016577705613792897,1.1084070141768567,-0.9615512071140918,2,right
17.609,-0.5600303109644849,0.35108260170219296,-0.03164597065985154,-1.967704116668349,1.0787112790969315,-1.0658868502424148,-0.03455962568574341,1.076892227689054,-1.0140557423866765,2,right
17.613,-0.5620629624395003,0.35046377481330376,-0.032208999667589444,1.9900388734909433,-0.23109954739425642,-0.8475201010914116,-0.0347870365011107,1.0764759998167972,-1.014583145382585,2,right
17.614,-0.5714782568648369,0.3491422560672418,-0.03971542366061652,2.9330366078918146,-0.5429790042224567,-0.7955302548782052,-0.025402273998041965,1.092952279367332,-0.9874057606301612,2,right
17.614,-0.584800801174916,0.34779761641932205,-0.0521097843397169,2.218141013527818,-0.30649506894079076,-0.8349562280979357,-0.0366518820340066,1.073207415918954,-1.020024443112181,2,right
17.62,-0.5885338611266694,0.3466364607220311,-0.06107897583374665,2.6492968227654545,-0.44918065497811754,-0.8111709461356804,-0.027877682341554428,1.0885997309922573,-0.9945174344699018,2,right
17.621,-0.5941090829128555,0.34602860850895506,-0.06784036804380653,2.4738508491743083,-0.3910162674100268,-0.8208522317556635,-0.032649403263060824,1.0802524586006241,-1.0085922474574187,2,right
17.622,-0.6017559852782646,0.3463290600732842,-0.07491788951346456,2.4714497613624435,-0.39041689272752444,-0.8209870559921917,-0.03146418492734663,1.0822709091368126,-1.0046231689397978,2,right
17.623,-0.6045533818925847,0.34388124659422326,-0.08026207694521881,2.5632973925796456,-0.4205592671207514,-0.815910371548749,-0.030383605026826632,1.0842677146446276,-1.0023545472096544,2,right
17.627,-0.605382471458608,0.33724161091873184,-0.08250617104387686,2.4532613831482974,-0.3843815969603045,-0.8219938465846901,-0.032342438941067,1.0807079894771967,-1.0069843254556954,2,right
17.628,-0.6074133831662616,0.33060162802231907,-0.08358176234045542,2.5390086333661204,-0.4126582991490878,-0.8172571048720676,-0.030474474274917313,1.0840829176922568,-1.0023998950700441,2,right
17.633,-0.6082912065817364,0.3239815579645319,-0.08637996479654714,2.492588962569617,-0.3971091426504657,-0.8198036491508176,-0.03184337070020812,1.0816838753522822,-1.0063992867876694,2,right
17.634,-0.6066713920579683,0.3123428399762995,-0.09119005741161258,2.5036317831209756,-0.40136503833801546,-0.8192414702529304,-0.03092616986381034,1.0831063192429609,-1.0021242165515467,2,right
17.637999999999998,-0.6058190822915506,0.3027675858979222,-0.09364379160815389,2.5150852078158747,-0.4041244032547448,-0.8185272923675256,-0.03165767593498496,1.0822479488677317,-1.007915040931373,2,right
17.64,-0.6078305008246436,0.29922725626334357,-0.09267333772141967,2.4948564812985863,-0.3986911613502031,-0.8197452138964083,-0.030893231653163003,1.0829554879003072,-1.0002289476904056,2,right
17.643,-0.6125776080843441,0.2912957672144828,-0.09059647060749118,2.5139720473087994,-0.4040135499868851,-0.818608977840506,-0.03164726506751599,1.082307980788349,-1.0082453911164753,2,right
17.644000000000002,-0.6185659409607771,0.2846804653568217,-0.09093019318827941,2.500615798972695,-0.39958489495131133,-0.8193450051073149,-0.03130772443765232,1.0825135296572963,-1.0038930330121127,2,right
17.647000000000002,-0.6249257567044527,0.28442750126967775,-0.09742928527900893,2.5079416369994263,-0.40386761206294935,-0.8190933001058245,-0.030538858832872866,1.0835256416618724,-0.9987552099289682,2,right
17.648,-0.632559793109962,0.2813592715175862,-0.10477928545677329,2.5045202937986075,-0.39848954978808765,-0.8189334621160508,-0.03312431852453095,1.08046291040767,-1.0189731885640714,2,right
17.652,-0.6387621807263535,0.2803040888543471,-0.11287802329824126,2.5064349067924354,-0.40545604978930716,-0.8193480680729235,-0.028470272229166843,1.0858959920892977,-0.9818868425767867,2,right
17.654,-0.6409403323996027,0.2824735756228634,-0.12793630402491685,2.504987162768071,-0.3982268406781387,-0.8188732504462859,-0.03441468417892308,1.0789751558130183,-1.0294175647324049,2,right
17.658,-0.6441743435919681,0.28193729254849303,-0.14328532975964353,2.5048861515501626,-0.4020928570289952,-0.819199313429328,-0.029464839884769913,1.0847303626249447,-0.9897707797118531,2,right
17.659000000000002,-0.64546052491007,0.2820798003536271,-0.15162480383021146,2.509445130957266,-0.40696470734452694,-0.81922426496934,-0.02954964492632947,1.0846610925246614,-0.990707900213886,2,right
17.663,-0.6405243792917245,0.2839127165020737,-0.15576803408999504,2.49709646828725,-0.3881635129074511,-0.8186958885096451,-0.039149178130718346,1.0734037895345612,-1.0667588242163921,2,right
17.664,-0.6365280511702196,0.285606607818077,-0.16240117036386967,2.518626066342907,-0.42257492450253475,-0.8197513246217281,-0.015612763631878981,1.1009704442147918,-0.8799888588095132,2,right
17.666,-0.6312967801743637,0.28216883941198867,-0.16999371397298302,2.491287127572763,-0.37849203391058706,-0.8183792952811948,-0.05462208781595388,1.055290696710733,-1.1896303970049849,2,right
17.667,-0.6266568360634829,0.27675286641587893,-0.17185696305344356,2.5139889728199676,-0.41525194113169994,-0.819531310378921,-0.0031704316120690357,1.1155389417957142,-0.7812048045615667,2,right
17.672,-0.6251234835807726,0.27449064716990645,-0.17249007591369264,2.5138471911570535,-0.4144183375551128,-0.8194744391785824,0.2128687220712673,1.3685584913769098,0.9332895056042501,2,right
17.673,-0.6193348501531686,0.2682215807146,-0.17244321028375575,2.4690028544194087,-0.3437981689497329,-0.8173627190843601,0.2643257759562563,1.4288146500151724,1.3417679773507227,2,right
17.674,-0.6127943751714374,0.2583086347734716,-0.1698892331992371,2.5786736789859876,-0.5171808311539989,-0.8225826522569513,0.22531103161576907,1.383127822341366,1.0320525808930754,2,right
17.676,-0.6042372491771641,0.2464683194765672,-0.1700062190238546,2.3969685496556394,-0.22975818831701167,-0.8139210752578461,0.248843738129702,1.4106859721616223,1.2188597483887897,2,right
17.677,-0.5970032484155054,0.2376927235117512,-0.16914367986264361,2.6366392432592196,-0.6088563283332693,-0.8253446182689166,0.23926664186158808,1.3994678901587358,1.1428770471049328,2,right
17.682000000000002,-0.5954985865547134,0.2351174107332304,-0.16945024188715113,3.64333004060222,-2.200343687658579,-0.8732578567311425,0.23913560879483642,1.3993214598621995,1.1417119298931693,2,right
17.683,-0.5876500763370045,0.22868133556210143,-0.17110478122425468,3.8831062368595064,-2.579438073699052,-0.8846726150125537,0.24415009509024782,1.4051815111597268,1.1817506332642398,2,right
17.684,-0.5779554717281392,0.22034118654249163,-0.1666746952026301,3.7012565033991462,-2.2920360063208154,-0.8760242619341583,0.2381433613307336,1.3981635012792952,1.133748425068725,2,right
17.686,-0.572421084011372,0.21403374824245355,-0.16653007006749904,3.810991794090885,-2.4653617207370724,-0.8812346357243211,0.24282049481259355,1.4036250856704762,1.1711890342900553,2,right
17.687,-0.5677093089724637,0.20997227934537951,-0.1702180132833585,3.766303689852751,-2.3948486669809057,-0.8791185481587003,0.24029731621905412,1.4006767364730133,1.1510283713769143,2,right
17.691,-0.5660027987452967,0.20993207879249345,-0.17207039725739873,3.76567717224381,-2.393865153796689,-0.8790892189228643,0.2408806346452039,1.4013736133429702,1.1553836851288168,2,right
17.691,-0.5628589906649296,0.21061111821021872,-0.17952161412522172,3.7891929925163748,-2.4307754994761357,-0.8801872168157558,0.2415313225883705,1.4020921164405653,1.1614237038531332,2,right
17.695999999999998,-0.5585463588425867,0.21249008124206614,-0.1840943929982456,3.760894898278358,-2.3866233782206554,-0.8788871250957191,0.24040451965767728,1.4008471586021645,1.150975778034376,2,right
17.697,-0.5550425303673037,0.2154076655588837,-0.18563883180992707,3.7831143324735095,-2.420915025458514,-0.8798778190442474,0.24145258392372188,1.4019831154543696,1.1611384525686619,2,right
17.7,-0.5480448340912816,0.2178361716411774,-0.19009356721665832,3.7709533454366033,-2.4025181005573093,-0.8793653325034748,0.24075483640905623,1.4012388013994912,1.1541312986730254,2,right
17.701,-0.5426827911361556,0.21903822683227678,-0.1892825125966141,3.773813793288929,-2.406680844708022,-0.879472694471204,0.24107408033807418,1.401613367254765,1.1566509397828897,2,right
17.705,-0.5412951381505124,0.22122474798362599,-0.1885651109859092,3.777260329911905,-2.411432022282254,-0.8795809357522308,0.24101504305836116,1.4014090365767338,1.158910476726816,2,right
17.706,-0.5379234262202441,0.22658205040150126,-0.18967712539997839,3.770799740071494,-2.4034738737240735,-0.8794539310303949,0.24097436719009688,1.4016702671322547,1.1523550855204616,2,right
17.71,-0.5368307650507071,0.2274852744938669,-0.18499287809582732,3.7776949976859893,-2.4104879018094856,-0.879471058039758,0.24099444835181316,1.4012330523107415,1.161811016702692,2,right
17.711,-0.5415732014690582,0.22730053240929582,-0.17777628699520504,3.772053368422745,-2.4063381800076735,-0.8795842391414392,0.24102696884834487,1.401762267619223,1.152160098488001,2,right
17.715,-0.5472658970920145,0.23300676870150455,-0.17400784515232331,3.7753300825677374,-2.407716680175974,-0.8794359043592606,0.24100893289327308,1.4014573797539511,1.1577404360184769,2,right
17.715999999999998,-0.5548121241364825,0.23581431703956396,-0.17492183844869053,3.7753382984312136,-2.4076961917473483,-0.8794336772382358,0.24087297900487942,1.4010535349296878,1.161601149265552,2,right
17.719,-0.5620504384017233,0.23655843681716154,-0.17471059721122678,3.7712160771767547,-2.4082316850352155,-0.8798018151210438,0.24131167131612796,1.402637863547201,1.143476882181477,2,right
17.72,-0.5666052982847773,0.24026128726519477,-0.17519319968561903,3.779811758615737,-2.4057041716807914,-0.8789211599331268,0.24050629066944373,1.399709300878627,1.1771481955969723,2,right
17.724,-0.5724150483505617,0.2426699423020704,-0.1771493398931294,3.7676683295455247,-2.4105487809623547,-0.8802673278694444,0.2415499350207076,1.403480834119188,1.1339930757230103,2,right
17.725,-0.5770484158609719,0.24316743311595962,-0.1724440170322103,3.7802158092442246,-2.40475679893083,-0.8788133438369676,0.240674764963176,1.4003276221980958,1.1699828733446629,2,right
17.729,-0.5846127090386126,0.24523665204600342,-0.1656687029627942,3.7730935021303615,-2.408303121900393,-0.8796595466677188,0.24068435305234742,1.400396462115502,1.1689139773308423,2,right
17.73,-0.5983784448699823,0.25097850180661785,-0.1586135761520086,3.767004809331219,-2.411446964736923,-0.8803913576013989,0.24241048181655336,1.4064761556181673,1.1007028765566107,2,right
17.735,-0.612661551019283,0.26046093559633277,-0.1516176240322651,3.7934948393705996,-2.397453370725076,-0.8771810237978275,0.2381804391088976,1.3915477233423443,1.2684225069366168,2,right
17.736,-0.6276049588823535,0.2762374633631128,-0.15087406721643015,3.7445166972687742,-2.423632646368164,-0.8831416921343033,0.24519266093288783,1.4162981362579847,0.9903510328170143,2,right
17.741,-0.6351480023557419,0.2887443284808938,-0.15084644000035674,3.8073040370171056,-2.389860129294063,-0.8754829698382119,0.23594285280733093,1.3836516088430035,1.3570937255406983,2,right
17.742,-0.6364422412988382,0.2927250032956628,-0.15103841718397815,3.75493308878685,-2.4181210903357373,-0.8818791430783406,0.197057169732181,1.2465484317477795,2.896320052289224,2,right
17.742,-0.6425009671824199,0.30591675063431817,-0.15315395799541331,3.756349933525037,-2.417374505746278,-0.8817058625286049,0.18780676532939294,1.2139011610914798,3.2630143272446848,2,right
17.744,-0.6451434426668912,0.3241569981440745,-0.15263424899309597,3.856133734739697,-2.3633183461657015,-0.8695062907083101,0.19482196879107982,1.2386551114880355,2.985013779827881,2,right
17.745,-0.6422325562968757,0.3381285715741643,-0.14908038745805335,3.6109155673088007,-2.49620291100124,-0.899493417826162,0.1905838955016318,1.22371730349824,3.1526876582236087,2,right
17.75,-0.639479513103321,0.35606711757870557,-0.14017640073973422,4.0174611952213795,-2.275845079795718,-0.8497714251419628,0.19232494590481491,1.2298142889885963,3.084438188147745,2,right
17.750999999999998,-0.6370318606474473,0.36681295509236833,-0.13338540398684662,3.4812606697606725,-2.5665151831721897,-0.915356160464726,0.19231382656923626,1.229859257302878,3.0835423025857165,2,right
17.750999999999998,-0.6355883059022573,0.36924170121064187,-0.13222800735767545,1.230528818813118,-3.7868833563006348,-1.1906432011525132,0.19145922079431388,1.2267295964783718,3.119211617385569,2,right
17.754,-0.6345426460353999,0.38170227686489194,-0.12756350407492434,0.6943651119505392,-4.077562976975367,-1.2562301325969019,0.19249378721369603,1.2304910137138845,3.076466096974111,2,right
17.755,-0.633955349203853,0.3990048108526004,-0.12667268080467986,1.1008572957294478,-3.857173326833691,-1.2065051155624351,0.19167115332479145,1.2275420501135317,3.1097926753510174,2,right
17.76,-0.631869072903674,0.41375306680633156,-0.13317350150609814,0.8556721803539101,-3.9901302060945514,-1.236493635245881,0.19216642445714277,1.2291921344661443,3.0917038117794746,2,right
17.761,-0.627413950961688,0.42968412792904614,-0.13710172318189642,0.9554887449993102,-3.9359510466687713,-1.2242972111061008,0.19193213425348113,1.2286746450773536,3.096116441590988,2,right
17.767,-0.6183653023135578,0.44517058894117834,-0.13496277938430656,0.9567687058713834,-3.935364119518237,-1.224113995308756,0.19203590188147235,1.2285098472754048,3.1003677953927764,2,right
17.768,-0.6036488650727705,0.46115443423644065,-0.12940422200304608,0.904647175788281,-3.9634802261436257,-1.2305269458240393,0.1919695114263462,1.228926298903683,3.092749201241849,2,right
17.769000000000002,-0.5883403558207598,0.4758893356149466,-0.12328981465259413,0.967119747081425,-3.9297469444586515,-1.2228483537293122,0.19199292195204876,1.2284906297912044,3.0999855061407877,2,right
17.77,-0.5709189102615577,0.4863584181650089,-0.11440339781908003,0.9184007340117503,-3.9561043049018014,-1.2288234698118756,0.19212610097349736,1.2289552222140054,3.0947897544281147,2,right
17.773,-0.5531982706061767,0.49761342446368567,-0.10383852556791862,0.9448768995058467,-3.941627629809612,-1.2256166617462405,0.19166219159111808,1.2282816143912587,3.098004429253953,2,right
17.774,-0.5387673443635752,0.5101063976858837,-0.0920653568644044,0.938344058897335,-3.945554574085344,-1.2263138296339111,0.19259128137653797,1.2293596411021737,3.0958381802925388,2,right
17.779,-0.5226695303165501,0.5212714227208276,-0.07722931378421939,0.9322644700405964,-3.9481903323370213,-1.2272329400769248,0.19123674872779434,1.2278618546951374,3.097829385552463,2,right
17.78,-0.5067628044905719,0.5333476326477397,-0.06519299374947385,0.9432377678494059,-3.943050090402597,-1.225675450705372,0.192674705703535,1.229438080389457,3.095937502330146,2,right
17.785999999999998,-0.4932798030528803,0.5451548154619212,-0.0582820498746304,0.9327890947485817,-3.948070540463718,-1.2271250861121563,0.19185332228091592,1.228559570320872,3.096666059811179,2,right
17.788,-0.4774687270676881,0.555607044690319,-0.0533225476735817,0.9403879812546216,-3.9439443068078606,-1.2261971493424157,0.19109885032810658,1.2276421484854043,3.0991007204483827,2,right
17.788,-0.45831048029040977,0.5674599705253747,-0.0492149388231901,0.9354413548637858,-3.9478234700938803,-1.2264838253623989,0.19432442573978598,1.2313955143140054,3.091402154545551,2,right
17.789,-0.43837077295796534,0.5793750263433519,-0.04418285928490634,0.9391704255390051,-3.9430664538364053,-1.2267552664868462,0.1883567276398044,1.2244816655739346,3.1051461085182273,2,right
17.794,-0.4193952043620793,0.591045309051415,-0.036113421752172026,0.9354216445205099,-3.9491790705585195,-1.2261284166520658,0.1960158544986435,1.2333494782054109,3.0876171157867094,2,right
17.794,-0.4033915014215711,0.6031150179743479,-0.027159310401406903,0.9390800440114158,-3.9428462141275773,-1.2268379665115958,0.18962381926161198,1.225949368958731,3.102203987571836,2,right
17.799,-0.3925567379835441,0.6142297119389952,-0.01823231286185278,0.9374998347941813,-3.9462159489899427,-1.2263627336132024,0.1897899143209046,1.2261357433224624,3.10199225858726,2,right
17.8,-0.38448420604215117,0.6252063924453358,-0.00929979004528789,0.933494449510579,-3.950554032695341,-1.2262763478445615,0.2019989626544213,1.2402942733995324,3.0735746696821864,2,right
17.803,-0.37746235717176846,0.6367182112252308,-0.0062246375148085654,0.9466973408313304,-3.9339146614011793,-1.2271835317166526,0.17200063770192137,1.2055084945131203,3.1432085037193485,2,right
17.803,-0.37471223716457375,0.6507328737988558,-0.008433462231393692,0.9229933926985635,-3.9643491225112637,-1.2254057140899697,0.22173440302428582,1.2631839537964025,3.027804223786493,2,right
17.808,-0.37529613230695513,0.661007767269006,-0.009194723715140223,0.9532550615211381,-3.925364611348642,-1.2277097938084789,0.15613934742257965,1.1871065943196868,3.180022201102167,2,right
17.809,-0.375109349863071,0.6636304755003297,-0.009603063408281905,0.9280624651957667,-3.957872942892581,-1.2257779339166546,-0.11924091989261094,0.8677962221589703,3.819168051643053,2,right
17.81,-0.3752685444375012,0.6727079853282464,-0.011365960584162692,0.9284708756994439,-3.9571386982254793,-1.225862345897137,-0.18483092385998345,0.7917098148475983,3.9714173430380173,2,right
17.813,-0.37816942362519057,0.68647249986671,-0.009313937170085489,0.9774048182906917,-3.8946732940986055,-1.229440133237756,-0.13510262481351004,0.8493950635644221,3.8559791762368953,2,right
17.813,-0.3817884634329834,0.6970551306824411,-0.007547245861209393,0.8574531633439898,-4.048033971570484,-1.2206085416622883,-0.16510302586670433,0.8146130068527941,3.9256001498217223,2,right
17.817999999999998,-0.3853410601476219,0.7120993329420341,-0.015216535778556911,1.0562573015145345,-3.7938011896953867,-1.2352625790309646,-0.15287585322960393,0.8287390673264841,3.8972948915644543,2,right
17.817999999999998,-0.3883500632331742,0.7229537859939776,-0.020985757022035048,0.7940360122787538,-4.129121971572363,-1.2159289376603652,-0.15274875847841396,0.8289953054151767,3.896841434576985,2,right
17.819000000000003,-0.3884509923498199,0.7262816444513875,-0.022349164904584377,-0.3072137909732755,-5.536586970930303,-1.134678288365427,-0.15908487232039825,0.8214950247431925,3.911774922836644,2,right
17.822,-0.38832059196359836,0.7379376415574748,-0.03250325761725703,-0.5695183567502704,-5.871863546958487,-1.1153125008492122,-0.15148143508164838,0.8304625884828097,3.8939007379967077,2,right
17.823,-0.38517368043205197,0.7552197395743214,-0.04293027821165546,-0.3705710798817575,-5.617747628833599,-1.1300411600726892,-0.1574250974916232,0.8235056966218794,3.9077936999228986,2,right
17.827,-0.37345894900482646,0.7682839809898975,-0.04742565201003157,-0.4906763326594459,-5.770881969301699,-1.1210816753923152,-0.15415171607430847,0.8271734104528329,3.900391407166019,2,right
17.827,-0.35993750588096995,0.7790092397247095,-0.048737751314434474,-0.44165395497232474,-5.708762034402056,-1.1248350297862177,-0.1550602106442141,0.826531906567777,3.901871437241088,2,right
17.833,-0.34641416203046105,0.7917486990891092,-0.04302743812644137,-0.4411770851852986,-5.7076212456015565,-1.1247360466580218,-0.15561619179956881,0.8251779731989612,3.9042450063303704,2,right
17.834,-0.33391894882833284,0.8046867147265935,-0.0347689971398008,-0.4666749808830265,-5.740442860127395,-1.122911536448259,-0.15450396569272712,0.8273376678841937,3.9003341295479745,2,right
17.838,-0.3293797805913191,0.8137634251020458,-0.028822850562861584,-0.4358505700303464,-5.701483146723422,-1.1253030696041102,-0.1555987865001079,0.8253747038365034,3.903935200455371,2,right
17.839000000000002,-0.3273345102401793,0.8210878067594585,-0.026032864304352962,-0.46027775350125016,-5.731281585531551,-1.12312663297641,-0.1546674362331703,0.8264486034042068,3.9017827769678166,2,right
17.842,-0.3268622800107567,0.828500108363061,-0.026825797056778476,-0.44645113471039105,-5.716061750490661,-1.1247902477162612,-0.15561317841418268,0.8266382003307359,3.902011161299586,2,right
17.843,-0.3315864247503368,0.8355167479619852,-0.02885089185612287,-0.4505611985728105,-5.718306057956417,-1.1236978295113276,-0.1543787532344811,0.8251300495409972,3.9036410223398597,2,right
17.847,-0.3347148766768002,0.838823209103957,-0.02907146606804507,-0.45304245876508953,-5.72387587360935,-1.124143692011814,-0.15599830174898102,0.8276374195616105,3.9006938623529934,2,right
17.847,-0.33799338682653723,0.838430833189298,-0.025692626704957276,-0.44712935584476454,-5.7163383714866685,-1.1245858509493032,-0.1543131620557387,0.8249164884562137,3.9039320175059338,2,right
17.852999999999998,-0.3437353115770347,0.8385337777824629,-0.019947252612748732,-0.45439298052598087,-5.721176152358725,-1.1228821838194505,-0.15522158186561513,0.826564504657678,3.9019088189479807,2,right
17.854,-0.3486873934110159,0.8373179771250415,-0.014142337564541103,-0.44674000000267533,-5.721555950431841,-1.1261151298805978,-0.15632793417530594,0.8276096231733088,3.900917334724548,2,right
17.857,-0.3577976690026119,0.8370439297217855,-0.010382308687593971,-0.45424162899461995,-5.715985335869325,-1.1215811430438283,-0.15201511659767838,0.8224208112747562,3.9064893503545117,2,right
17.858,-0.36818530344447203,0.8390549709263332,-0.007855252322845119,-0.44796958315861746,-5.7241278085358545,-1.126287148483125,-0.15991783777928945,0.8321547264504283,3.895932493814015,2,right
17.862000000000002,-0.37519639277121214,0.8395376961739687,-0.007559844254041928,-0.4507129058965752,-5.718298264209659,-1.12363306558732,-0.14979169042558682,0.8196306280173882,3.9095394741133545,2,right
17.863,-0.382977870535899,0.8394842187981408,-0.007543604952576881,-0.45493217951148757,-5.715641098315118,-1.1212081277577302,-0.15823698342458808,0.8300970466458201,3.898157103801003,2,right
17.866,-0.38992654545962124,0.8385102432699933,-0.006009009604837041,-0.44038153237293554,-5.73226895591151,-1.1315315017661733,-0.1580413178068828,0.8297737380109615,3.8985480118022315,2,right
17.867,-0.3961177174886217,0.8380262211088767,-0.004530138538740135,-0.46622412836761173,-5.699975373589595,-1.1124711002703527,-0.1418295027453907,0.809946393398838,3.919985261051838,2,right
17.872,-0.40267323656855003,0.8384584491654119,-0.0009883418374125412,-0.43354810628860063,-5.74208789458725,-1.1369080464226666,-0.18163771895850106,0.8587280004694391,3.8671925225751163,2,right
17.873,-0.4086292489034925,0.8367069716731428,-0.006397396811837909,-0.4606100587727411,-5.706655165939045,-1.116523070493169,-0.11564334091181888,0.7778317685860945,3.9547581218435695,2,right
17.875999999999998,-0.41361665005961695,0.8354743203986461,-0.013374205305172474,-0.4600675181756704,-5.707850263015202,-1.1170604930838537,-0.2026895363130442,0.8845371215131297,3.8392470836400756,2,right
17.877,-0.41488707563589833,0.8355214350049224,-0.017038930949774156,-0.4081127267099355,-5.77497754354672,-1.155957325624285,-0.5681086102446062,1.3323623573991574,3.3545576249905773,2,right
17.877,-0.414923873375476,0.8356819722194275,-0.034688987310515965,-0.5354698534767555,-5.609565039917259,-1.0603795199386583,-0.6551609646933367,1.4390701841459301,3.239028435208043,2,right
17.881,-0.41610651968607426,0.8379246823688193,-0.038574612925311585,-0.3244711111306796,-5.884025040308744,-1.2188391517536914,-0.5891590087711414,1.3581677083296677,3.3266271667221257,2,right
17.881,-0.41666430469871707,0.8400640031892047,-0.02761658113422387,-0.6026934081978123,-5.521922114157717,-1.0098385297880945,-0.6289679286517936,1.4069609333180644,3.273794103525795,2,right
17.886,-0.41611478568962623,0.8401456194361228,-0.023085507789171227,-1.7705206358796124,-4.0019823214864845,-0.13255999512424116,-0.6127715420691688,1.3871164169437322,3.295264740562642,2,right
17.887,-0.4163139535688384,0.8432429112798454,-0.008337549682111683,-2.048684666990061,-3.639856252992662,0.07643466067079471,-0.6125382203899652,1.3868126522789002,3.2956496365631303,2,right
17.887,-0.4181751916680107,0.8531769330483412,-0.0016249994901820547,-1.8378076155743093,-3.914380955999369,-0.08201304121362406,-0.6210410751778807,1.397264982515947,3.284223183420673,2,right
17.891,-0.41941748178285065,0.8675961828987073,-0.011052544010661688,-1.9649809748902323,-3.7488374833618834,0.013547827181396417,-0.6108531479922497,1.3847375077432185,3.2979398953585473,2,right
17.892,-0.41848128702938303,0.8830294232713999,-0.020238162730954537,-1.9132453583116331,-3.8161713489665767,-0.025330438020069297,-0.6187908091104439,1.3945052028185416,3.287213432830143,2,right
17.897000000000002,-0.4135781693427814,0.8956556273732454,-0.03366023176775291,-1.912517352156645,-3.817115441838922,-0.02588110215839568,-0.6145119555007128,1.3892448066445384,3.2929729473875735,2,right
17.899,-0.407442370075607,0.9015435217624936,-0.045939986680589684,-1.9396161606159872,-3.7818877044152153,-0.005498523490982547,-0.6154760660582876,1.3903923877054525,3.291862116865448,2,right
17.9,-0.4037103172946577,0.8993716591237405,-0.057872649945553425,-1.9071895510658925,-3.8239895540561095,-0.029906373388087396,-0.6166482115807991,1.3919365851360004,3.2897694689456447,2,right
17.901,-0.4020382856531526,0.8910067717378161,-0.07322432782138705,-1.9323932454641382,-3.7913413811740964,-0.01090812372510698,-0.6146196273719264,1.389265850532374,3.2933849141563645,2,right
17.905,-0.40290177327483423,0.8803048230360295,-0.08536759681210722,-1.9188525987815934,-3.8088059822497726,-0.021142199744745058,-0.6165425370462746,1.391848517840058,3.2897007885146987,2,right
17.905,-0.40221089220628814,0.868115822359601,-0.09070867431506224,-1.9219245127171796,-3.804877435223645,-0.01880830285621572,-0.6152428048618697,1.3900756384949293,3.2923279270391568,2,right
17.91,-0.4001719484841938,0.8568168523432833,-0.08253450508578658,-1.92544896586437,-3.8004297483322724,-0.016108976542642497,-0.6157815808361513,1.390734236509319,3.2916214595342383,2,right
17.910999999999998,-0.4015808198803767,0.8518865560154941,-0.06189015396448797,-1.91948855427725,-3.807736005641287,-0.020751949781755954,-0.6159036947346834,1.3912179040210013,3.2897839146347105,2,right
17.915,-0.4019346918209318,0.8500109482315173,-0.041927762727481686,-1.924843298281711,-3.8015462515070326,-0.016445366058078947,-0.6153279277991848,1.3897491765365824,3.294376356595909,2,right
17.916,-0.4000594731047292,0.8486511318343946,-0.0299046894017427,-1.9215430628874697,-3.8048836226679486,-0.019272446407885238,-0.6161179777659047,1.391855707224439,3.287616909030106,2,right
17.92,-0.40194969262776137,0.8509398264023914,-0.026735779892881763,-1.9227580094999968,-3.8040666147836735,-0.018082695282979545,-0.6153671987805935,1.3897222153584234,3.2947011769362797,2,right
17.921,-0.40814165393608326,0.8532394210503542,-0.034100600497391,-1.9227451935743705,-3.804090087808274,-0.018089842887962816,-0.6158019583194828,1.3909560946641095,3.2906067155922907,2,right
17.925,-0.41685653588078614,0.8577725312337023,-0.041150035902333085,-1.922759411071017,-3.802652516386218,-0.018592903535683956,-0.6159740297689411,1.391771346943489,3.2873459045015005,2,right
17.925,-0.424958484698686,0.8698396098585832,-0.03627760091396618,-1.9217697404487915,-3.807184032104766,-0.01816250523441815,-0.6149586113601706,1.3878819913690006,3.3019642869854247,2,right
17.93,-0.42933154784898925,0.889264023669452,-0.026988777239375976,-1.9240345385558717,-3.7993973476718796,-0.018212183678172546,-0.6168547102598665,1.3951107357900634,3.274837451474674,2,right
17.930999999999997,-0.4340270768595154,0.9181088259116426,-0.021529231249551174,-1.9211593917613212,-3.808298097575931,-0.01850549836576084,-0.6144368953711634,1.3858493413767596,3.3096467029415715,2,right
17.936,-0.43882510297961397,0.9477058284231257,-0.025869083290180797,-1.922967861862962,-3.802963596090919,-0.018225389243388075,-0.6164477022694588,1.3935718434732602,3.2805976836127773,2,right
17.936,-0.44577528865171057,0.9825267622012497,-0.03780326368085625,-1.9245883617180901,-3.7982849271390555,-0.017937725043768803,-0.6163719866012849,1.393336467524644,3.2814083656261994,2,right
17.941,-0.46024305878431593,1.0251591697271336,-0.04701926527593454,-1.9173196475875838,-3.8189908640757904,-0.019329535184124537,-0.6126287887581429,1.378723524358525,3.3366891705312574,2,right
17.942,-0.4754368959525894,1.0700811930396315,-0.04902135877667066,-1.9309686359122549,-3.7803713874320684,-0.016621248599862484,-0.6218449790654952,1.4146600713327262,3.200799211103154,2,right
17.945,-0.49169731896119756,1.1381335336561675,-0.036790983226175356,-1.9133257832550663,-3.830112875206937,-0.020186865483717835,-0.6065662663334199,1.355078538757487,3.4261106193171322,2,right
17.945,-0.5010535781631905,1.1867060350596146,-0.02279143262108517,-1.928105550972572,-3.7885201696531823,-0.017171531403469532,-0.6267123067573666,1.4336571280032215,3.1289206252216397,2,right
17.945999999999998,-0.5028947223748093,1.2003953321179128,-0.019833428499013112,-1.9277141913867544,-3.789635049090446,-0.01724827111094244,-0.711191849430153,1.7633502113127175,1.8811019513444225,2,right
17.951,-0.5183930654137172,1.2487283793858066,-0.009754699235703627,-1.8994195085319903,-3.8690893833221542,-0.023077827548013637,-0.7313216927553674,1.841899390546011,1.5838138631419647,2,right
17.952,-0.5388472345908756,1.3068507947303711,0.001568857503139585,-1.9689908029310081,-3.6737655813727907,-0.008727696319284982,-0.7160731958006442,1.782375692885166,1.8093454393451665,2,right
17.955,-0.5635069724556281,1.343504490009668,-0.0025049922139234555,-1.8536064266534975,-3.997662445436584,-0.03254378102115144,-0.7252510971875307,1.8182321952570786,1.6730919237020767,2,right
17.956,-0.5858881042732316,1.367795334782826,-0.0066332300438501175,-2.005827099033894,-3.5704082233014653,-0.0011146472173991142,-0.7215424469189305,1.803703672755438,1.7288534067414751,2,right
17.956,-0.5923185940972656,1.370216601502657,-0.009294599062585725,-2.6450558801534214,-1.776709916834718,0.130814125063137,-0.7214543112157321,1.8034135649880008,1.7291861508247077,2,right
17.96,-0.6191348006620964,1.369577655629377,-0.026155409848098124,-2.797346236942504,-1.3493820827930705,0.16224339846319058,-0.7234333578664501,1.8111129378196997,1.7003770310185633,2,right
17.961,-0.6643979570110161,1.3561557385049792,-0.05902702929069397,-2.6818195384190866,-1.673426997956125,0.13843402147350317,-0.7211090836079299,1.8020014838184952,1.7355036664493677,2,right
17.964000000000002,-0.7076348419135181,1.3157561507730708,-0.10550301553457786,-2.7515992199959856,-1.4778911843999167,0.15275980118116256,-0.7228498514518349,1.8089298748452594,1.7072069645190546,2,right
17.965,-0.7661541081895639,1.2626588403558427,-0.1572315394892637,-2.7230658992944825,-1.5575808648637723,0.14698083119785188,-0.7220190229776116,1.805454759137228,1.723932790190555,2,right
17.969,-0.8310303112386189,1.2009458755651612,-0.20359933970272553,-2.722861502443003,-1.558523082166649,0.14682870578168264,-0.7220522426233191,1.8058698262900927,1.7179781018302918,2,right
17.97,-0.8904156745144198,1.1454706918927129,-0.23233443562404282,-2.737634597277192,-1.5169107650315536,0.14992534570467086,-0.722467488620262,1.8072628251266627,1.7162001841561045,2,right
17.974,-0.946116023232502,1.108315951134646,-0.22910850524954568,-2.719671890733104,-1.5670055032838597,0.14631220928697203,-0.7220155067310852,1.805497494272069,1.7229117353974435,2,right
17.975,-0.9872934388992434,1.08314868080112,-0.2011556847545924,-2.734065173460336,-1.5276139048448152,0.14897891259297702,-0.7221566249040683,1.806468449527559,1.7127568939799849,2,right
17.98,-1.0045188469236785,1.06169527855028,-0.15331126595869493,-2.7256741238866073,-1.5494444256419657,0.1477709381008302,-0.7225208154309471,1.8069287591672563,1.725823988233896,2,right
17.98,-0.9950834915398868,1.0399725680611163,-0.0793008607027318,-2.7285065481854414,-1.5435997681317173,0.1477125745275285,-0.7216770385045742,1.8050697315246023,1.7107672781162977,2,right
17.984,-0.9595725805286051,1.013139113167063,0.015183978575901461,-2.7295913868312174,-1.5388795952051493,0.14844902659492526,-0.7227089196048234,1.807567884685608,1.7248633863056888,2,right
17.984,-0.9144406366538653,0.9844912620968778,0.12379555713491694,-2.726154889769419,-1.5485077890658574,0.14774447619713837,-0.7220449896917872,1.8058607944146425,1.7177168301416321,2,right
17.988,-0.8704981695971592,0.9609612718408248,0.2337757168551302,-2.731033196525342,-1.5379275818682236,0.14779981481985016,-0.7216154577945912,1.804944554616152,1.7094539237406465,2,right
17.989,-0.8264085906627566,0.9363578779929151,0.33068129265897317,-2.7250792276944473,-1.5475310953492543,0.1487451860443461,-0.723796667412423,1.8101266121449078,1.7411783103258882,2,right
17.993,-0.7852818522168008,0.9112341264236843,0.4081280051218279,-2.7316883691300324,-1.539582421710175,0.1468659229672017,-0.7196636200153087,1.8001746936289003,1.6836393903578661,2,right
17.994,-0.7334436032007925,0.8889975011538922,0.4590401128100165,-2.725644272337451,-1.5452463533595782,0.1490756156591866,-0.725009918009754,1.8131051477661986,1.7569471500311784,2,right
17.998,-0.6776185743959952,0.8681352022996951,0.4740287070102488,-2.7286252405033196,-1.5434079948319428,0.14769392619501742,-0.7205293482640152,1.8022451828748225,1.6959932521612975,2,right
18.0,-0.5999422577716078,0.8467311407301392,0.44970840946381474,-2.7322717005582744,-1.538803109696878,0.14672319010996937,-0.7206663937258131,1.8025956320200693,1.697426711249051,2,right
18.004,-0.4941137533072167,0.8250123431504035,0.3983346861615098,-2.718586171346036,-1.5525808339565295,0.15143670744893006,-0.7291799893884384,1.823198474379846,1.814056435649113,2,right
18.004,-0.38814259917332006,0.8052264899209329,0.3310094838558272,-2.743303221108686,-1.5288887138005038,0.14256029230593203,-0.7082259419140304,1.7724578009799643,1.5277838429339592,2,right
18.008,-0.22580460909220176,0.7757673957338613,0.26758674508863833,-2.7118597720465347,-1.5584855880503317,0.1540171827177157,-0.7429833727463838,1.8566368887916358,2.002248258610569,2,right
18.009,-0.10649108779334249,0.7517420011402627,0.23509153583614875,-2.737983952652086,-1.5341295020950465,0.14442866331553306,-0.6971298283239462,1.745580865795712,1.3765283497850627,2,right
18.012999999999998,-0.07422344731518879,0.7456177922389828,0.2348236271261249,-2.7373872329393096,-1.5344829558549598,0.14470562371466666,-0.504672833343227,1.2794225982596936,-1.2499441656863275,2,right
18.014,0.05241480143019692,0.7245971482568732,0.24813702264579188,-2.6873683876550563,-1.5814919347589527,0.16295927795005194,-0.4588091639816255,1.168351992573721,-1.875599142018009,2,right
18.014,0.21817928741548426,0.7001835321159813,0.2786428332969962,-2.8101102595286327,-1.4664979505658313,0.11806422268658569,-0.49358457169015124,1.25256226579961,-1.4012679770968008,2,right
18.018,0.35942009281320053,0.6972831096902075,0.34385263399864036,-2.606694495536928,-1.6569008407931314,0.19251305154764878,-0.47260981719713896,1.2017730178193395,-1.6873441480914781,2,right
18.019000000000002,0.46129568888868333,0.6969881408412519,0.39132203799378285,-2.874950399321612,-1.405888984718736,0.09431557401587072,-0.4811383545608062,1.2224360372286687,-1.570941416955173,2,right
18.023,0.4814913957090441,0.6991888879775287,0.40125235825853206,-4.00095711934867,-0.3522949504154772,-0.3179212262895841,-0.4812775083797165,1.222732171920322,-1.5693268758587675,2,right
18.024,0.5407737425733179,0.7129436970973388,0.43434992420876306,-4.269181860073559,-0.10135241498825315,-0.4160991940276455,-0.4767664889331131,1.2118899074735459,-1.6302943685709401,2,right
18.025,0.6084866240709134,0.7260722470602168,0.46323609827927215,-4.065831076690351,-0.2916013022758058,-0.34167750435737476,-0.4821773669522572,1.2248778968927994,-1.557280386080347,2,right
18.028,0.6189180194444531,0.7274910592090615,0.4522904997721958,-4.188475033129524,-0.17685862263087535,-0.38655922638646045,-0.4779528379260056,1.2147615881660583,-1.6141218978361433,2,right
18.029,0.6277997325121373,0.7173363521791181,0.42943732681457486,-4.138572646908462,-0.22353948712911842,-0.3682795920305905,-0.48022517930849606,1.2202158170699304,-1.5834601077101644,2,right
18.033,0.6211395386124551,0.6990729358555461,0.40503161270531973,-4.137877866606811,-0.22421352428879776,-0.3680879525758398,-0.4797542731589779,1.2189761085608417,-1.5905622858206843,2,right
18.034000000000002,0.5978954024412811,0.6799709878053264,0.388462028944777,-4.164020543528083,-0.19970632922694698,-0.3775305816471137,-0.47901846054114866,1.217512215723716,-1.5984243645667202,2,right
18.037,0.5563627789261334,0.6765157285727534,0.37204460105367637,-4.132711187143075,-0.22906829883156987,-0.3662483976276196,-0.48029061923862126,1.220045651714698,-1.5848146409969086,2,right
18.038,0.4818122604054348,0.7032987726852837,0.33695664042239576,-4.157087183358726,-0.20619312838162823,-0.37499477069868986,-0.4790280817945694,1.2176596429348214,-1.5974441751818602,2,right
18.042,0.37681744362593633,0.764050988932221,0.279085344602063,-4.143939032284619,-0.2185237472000453,-0.3702571966642825,-0.479911649275243,1.2192641830152955,-1.5890522429359808,2,right
18.043,0.23852542158963547,0.8518699393035536,0.19704435176773893,-4.146977103625013,-0.2157435872372102,-0.3715220869098811,-0.4796296360139076,1.2185762299709804,-1.592932391256921,2,right
18.048,0.08394347022996022,0.9568139533407183,0.10237421297931287,-4.150368905897135,-0.21237194999743314,-0.372274000369361,-0.4791962361858579,1.2185204028449688,-1.5920498734886834,2,right
18.049,-0.07480587072237849,1.0674933988927466,0.015887008135366712,-4.1444977972132335,-0.2182062639730769,-0.3709676350657206,-0.48034291341707896,1.2190266331664223,-1.5919349710467516,2,right
18.052,-0.23239638926812714,1.1630470081364965,-0.03899042312802749,-4.149956873867798,-0.21267981854196905,-0.37193209416680695,-0.47866859346402224,1.2183592264153198,-1.5916109300851051,2,right
18.053,-0.3765828663593309,1.2275104535263248,-0.05169120325691401,-4.146323707291234,-0.2164130742370723,-0.3714261748852108,-0.4804052842519891,1.2189542012952588,-1.5926137040080395,2,right
18.058,-0.5055981841967689,1.2548732973247927,-0.027987130750685207,-4.147986493081921,-0.2148604409547043,-0.37204247052527756,-0.4794013051267327,1.2186088915397273,-1.5920409185306037,2,right
18.059,-0.6252143672749294,1.2384901977447986,0.02292383137642343,-4.14767478898065,-0.21453162012738483,-0.37039862280108815,-0.47864268871272053,1.2185708434545286,-1.5900911795158832,2,right
18.064,-0.7334315551925612,1.1809949395327375,0.07501716155178313,-4.147473866580324,-0.2161376156092441,-0.373820598511383,-0.4821010710785998,1.219074171946695,-1.5967403982898125,2,right
18.065,-0.8211230491644752,1.0952686732473245,0.10274187902170778,-4.147560706530026,-0.2139407301124474,-0.368637896071367,-0.47568057538877234,1.2181232957274188,-1.5845019935213958,2,right
18.067,-0.8853495888069,0.9959395820377174,0.10366556822967868,-4.147750542500193,-0.21601871349689977,-0.3742659320835274,-0.48391596592249925,1.2193236153659441,-1.600338811835739,2,right
18.067,-0.9300232598134085,0.895335654617194,0.0815451253435788,-4.147642666736712,-0.2148159372972917,-0.37101507354921204,-0.4770446451196315,1.2183300708180218,-1.5870605114780196,2,right
18.070999999999998,-0.9529819195988806,0.795075167004389,0.049418421370604385,-4.1469286969697094,-0.21436135399976164,-0.3679843049976962,-0.4772419794378886,1.2183871297230335,-1.5872710500325624,2,right
18.072,-0.9581478891790809,0.7051649720380304,0.016627333471905287,-4.149252559927507,-0.21710276268408685,-0.38095286710027576,-0.49029598110600037,1.220158288159233,-1.6132332120439457,2,right
18.077,-0.9572927621774099,0.6327331302926091,-0.006173624198345812,-4.14497979102818,-0.2119831307111006,-0.3569170139438339,-0.4582021233356257,1.215778701286273,-1.5495288005448318,2,right
18.078,-0.9451858993341397,0.5647752689627161,0.006861584545212421,-4.1505214993578186,-0.21850650643088187,-0.38779948013532073,-0.5114145048153917,1.223042050160038,-1.6551708384287684,2,right
18.082,-0.9323852723471422,0.5235564681518508,0.03018086015733975,-4.145866166198088,-0.2130855836461063,-0.36200815134180436,-0.441230321727915,1.2134655595996886,-1.5157873283743115,2,right
18.083,-0.928553301300344,0.515583080067902,0.03803650223297697,-4.145938915746834,-0.2132865795760555,-0.36268331018545474,-0.14666845443524568,1.173431280137738,-0.9304288720759603,2,right
18.083,-0.9163112999975191,0.49089931332352094,0.07057585256373831,-4.155065555832554,-0.22337854897196513,-0.4119620245409483,-0.07648891743286196,1.1638688277759852,-0.7909890505119846,2,right
18.087,-0.900723272417498,0.4658280884260027,0.1078447674981331,-4.132659013479028,-0.19854115111145448,-0.2908569939253232,-0.12969308506475402,1.1710996561699791,-0.8967110516191105,2,right
18.088,-0.8839495454128652,0.48345748130602245,0.09383132493566596,-4.1698311770385414,-0.2397087270386249,-0.49165790976528045,-0.09760860419568296,1.166775683276085,-0.8329623795487037,2,right
18.090999999999998,-0.8691650233133772,0.5035041401175576,0.06955752161210854,-4.120772825858815,-0.1854311749319113,-0.22679551634374734,-0.11065600732190603,1.1684706605151396,-0.8588614641700278,2,right
18.092,-0.8645267084347217,0.5100629038444582,0.06126380837941601,-3.915033318700159,0.04243726322713687,0.8849930180383793,-0.11085199147624325,1.16860708112828,-0.8593005959512485,2,right
18.092,-0.8516615558785037,0.547526041696351,0.02342922037091397,-3.865962190034446,0.09669801892146207,1.1498636313740924,-0.10399505451093358,1.1675674416786128,-0.8456201793853095,2,right
18.098,-0.8304252022146614,0.6099148404257058,-0.03578255585290677,-3.9031171288333977,0.055536297352679544,0.9490529557460095,-0.11220057251426943,1.168729105248667,-0.8619503116368316,2,right
18.099,-0.8093314574335172,0.6714934202391841,-0.09130556936496831,-3.880825821374602,0.08042423850968895,1.070157672626984,-0.10582184165424968,1.1679519299216419,-0.8493265428816532,2,right
18.101,-0.7927579994356508,0.7328884039114656,-0.14675659152626336,-3.889679875973841,0.07018203761539424,1.0209021322102638,-0.10923933811750974,1.1681266331981772,-0.8559496753737781,2,right
18.102,-0.7888518423807009,0.7899083185695136,-0.1898984269113539,-3.890187660173885,0.07024419174378199,1.020172885018925,-0.10849796198739876,1.168524724203892,-0.8547677873316408,2,right
18.105999999999998,-0.7953897887831556,0.842260811447448,-0.21963413973265106,-3.885029840353383,0.07533591946694103,1.0460451500601398,-0.10752925307513406,1.1677812898687439,-0.8524838539362706,2,right
18.107,-0.8175765924887214,0.889310637916025,-0.2378959646683106,-3.8909204531401045,0.06908026427372385,1.0150778594426635,-0.10915366561363815,1.168489608365924,-0.8559986142330815,2,right
18.11,-0.8532344575820837,0.9296607073625999,-0.23997690038152722,-3.886778400779329,0.07419595670872273,1.0391581678561126,-0.10767191280026835,1.1682924459400021,-0.8530567720879484,2,right
18.111,-0.8872023386913308,0.9689209703059192,-0.23342842385766946,-3.888154573067288,0.07096756534500434,1.0262443409978617,-0.10858309670932939,1.1675122702435168,-0.8543339659192017,2,right
18.115,-0.913854456033667,1.0135839744404898,-0.22686199534758966,-3.8893783936457913,0.0725485329522253,1.0290676581668294,-0.10833648191799922,1.1695446803314513,-0.8550634545560636,2,right
18.116,-0.9263704468842864,1.0663363851840795,-0.22282572222130934,-3.8865646733707644,0.07206166265282823,1.032693622113229,-0.1080579142923465,1.1664249101914494,-0.8526901435972134,2,right
18.12,-0.9143573242720129,1.1206665885053744,-0.21058371133557233,-3.8894028233508737,0.07179046135327678,1.026586518054012,-0.10859142659074705,1.1697827071746256,-0.8556904861500413,2,right
18.122,-0.882416457545964,1.17791217013996,-0.18551959487064335,-3.88838319661103,0.072945758285652,1.0321790590767561,-0.108124534817394,1.1678211140287258,-0.8536415053127904,2,right
18.125999999999998,-0.8378307872996792,1.2364214894672112,-0.1482110219248694,-3.885858371714786,0.07041179308157317,1.0286966249240208,-0.10821527066736411,1.1661969569792765,-0.85285556751171,2,right
18.127,-0.7801383690089083,1.291799188460236,-0.09036402777389843,-3.8929100824107463,0.07478204844787176,1.0297267595838897,-0.10872806865289358,1.173428125203602,-0.8581040091678782,2,right
18.13,-0.7178737918503046,1.3480508360370682,-0.021834955023939104,-3.881939113816723,0.06876299061815219,1.030629747474292,-0.10756210434459623,1.1599889038266107,-0.8479431898115678,2,right
18.131,-0.6589737233214277,1.393817821811232,0.04125828371183918,-3.8937989316247696,0.07499576551821882,1.028774698223939,-0.10913673895510051,1.177255787667291,-0.8611444663064265,2,right
18.135,-0.605470568809946,1.4297449745765505,0.0815136556648336,-3.88683678523004,0.07151839387611701,1.0304444740603729,-0.10778941266269226,1.162836441628791,-0.8500578978619753,2,right
18.135,-0.5473171613407872,1.4507641215347122,0.08779207744571468,-3.8811757772808724,0.06813543377938808,1.0300249180655063,-0.10787635144416702,1.1632327910308713,-0.8504591717397901,2,right
18.141,-0.48252711923733804,1.4485287664359114,0.07561165698008222,-3.906578231119425,0.08222891091051324,1.028432192152235,-0.11031118289232779,1.1907111913447073,-0.8713301589386195,2,right
18.141,-0.41845933111420286,1.4368215865048852,0.055213712106710375,-3.859322448190341,0.0562620668370034,1.0321951143445918,-0.10425365868032407,1.1231643780387146,-0.8198848427191414,2,right
18.145,-0.34248330526400683,1.397130232286731,0.04213175366636429,-3.9200518982219346,0.08954154766230449,1.0270730592694886,-0.11432488424269086,1.2351624906165772,-0.9052398780185862,2,right
18.146,-0.293632090132698,1.3611310837568396,0.04101781001656145,-3.869333926434122,0.06178821469178367,1.0314696662688463,-0.10103094400489712,1.0874376670567432,-0.7926352873348268,2,right
18.15,-0.28301296972066975,1.3507995555703562,0.0443190917427799,-3.8707308725464,0.062489642487158735,1.0311673149247298,-0.0452692393900114,0.4673613698843188,-0.32006638793559233,2,right
18.15,-0.24704350566607505,1.310161410957725,0.0638542371286302,-3.967372226780025,0.11553885114989146,1.023273651884499,-0.03197337608279896,0.3196398427581103,-0.2074532549446812,2,right
18.15,-0.20801388817555494,1.2547609376098139,0.09478221432286585,-3.729811641837839,-0.014770835254836474,1.0429359955895388,-0.04205263169912706,0.43163348491985376,-0.2928316290051183,2,right
18.154,-0.19147804352503284,1.1955874729488882,0.13931023127362874,-4.123698560898973,0.2012491873384683,1.010242904580969,-0.03597482582035552,0.3640885167458616,-0.24133989757666321,2,right
18.156,-0.1778231278500931,1.1499250908633634,0.17703286737068596,-3.6041776659902367,-0.08365200656910052,1.0533892271787,-0.038446199635640346,0.3915721472033439,-0.26228316360852055,2,right
18.159000000000002,-0.17629441316573471,1.1378521413975733,0.18621907185182549,-1.4234076818537609,-1.2796625826366763,1.2344198521084624,-0.03848353612359785,0.39195283373486745,-0.26259768813833545,2,right
18.16,-0.17950277336199666,1.0956815105106448,0.20735993065454944,-0.9039386668127924,-1.5645102645381308,1.2775382458929514,-0.03718409314888696,0.3775594756388704,-0.25158044420270287,2,right
18.16,-0.1908929688346283,1.040182956655038,0.23309169896595497,-1.2977479992939887,-1.3485777758107234,1.2448698509957017,-0.03874007026409353,0.3947960704486895,-0.2647814591715867,2,right
18.164,-0.22084634909930073,1.0067085938707816,0.24090080468603606,-1.0602420635194902,-1.4788045058569081,1.264563242996856,-0.0375282593243636,0.38137810917574483,-0.2544930459912913,2,right
18.165,-0.2590109248922272,0.9742383467125002,0.2512574822416277,-1.1569129328638392,-1.425779667170177,1.256529030336837,-0.038181270195008624,0.3886164113531505,-0.26003598096990255,2,right
18.169,-0.30571815600409435,0.9540137718645982,0.26211732395897397,-1.1581417030665437,-1.4251703863457301,1.2565021565995802,-0.03803399798950722,0.38693680544715603,-0.25880764624048264,2,right
18.17,-0.35874207522793145,0.9470304256566346,0.26876400739254647,-1.1077486650583492,-1.4526758420019,1.2605253449420961,-0.03785590686280836,0.38508917939521903,-0.2572335353523515,2,right
18.175,-0.41011271850988645,0.9497925643804764,0.2746736921168329,-1.1680498634353027,-1.4197877935266816,1.2557482106367672,-0.038163813427391655,0.3882875531803136,-0.2599563110480992,2,right
18.176,-0.4589133112995267,0.9626060576582418,0.27946553435076416,-1.1211732732148398,-1.4453172154136888,1.2594122981932223,-0.037872628583323104,0.3853240781183431,-0.257348289651964,2,right
18.179000000000002,-0.50347937425176,0.9808013373091267,0.2822338059085513,-1.1464954793858895,-1.4315063841592282,1.2574082075038233,-0.038069067560520246,0.3872907120997041,-0.2591255104474044,2,right
18.18,-0.5406269965031806,1.0044942740138434,0.28632046500944275,-1.1403223257059238,-1.435043319124297,1.2581155756396143,-0.037986859971282524,0.38637450974072474,-0.25842966620217966,2,right
18.185,-0.5706265567141586,1.0256816818450223,0.29344015551027386,-1.1346800406749349,-1.4376511686635358,1.2579561990669699,-0.037971839331641166,0.38661018844013556,-0.2580931982859679,2,right
18.186,-0.5927190430721839,1.0439260158924872,0.29368194653749086,-1.1444556921544036,-1.433127041500369,1.2582262780866083,-0.03805132473749165,0.3865747624733249,-0.2592455496950996,2,right
18.189,-0.608473487143824,1.0616602463134432,0.2875604127146213,-1.1358397623939247,-1.436825733070375,1.2576141100249243,-0.03794335808051397,0.38674472013570915,-0.25761575390514896,2,right
18.19,-0.6205423773346618,1.0767832669528732,0.28189907972012096,-1.141316633848405,-1.4346401058416856,1.258217894635298,-0.03804441164689103,0.3864081860762738,-0.2592347472082892,2,right
18.194000000000003,-0.6283192182427619,1.0878990542385996,0.2755895585749565,-1.1380815041498782,-1.436421602038107,1.2584953957885774,-0.03798598617440288,0.3866013234617219,-0.2582982075888638,2,right
18.195999999999998,-0.6326179205313407,1.0942709219247968,0.2669029623372402,-1.1415813983997536,-1.4329847348825497,1.2562418638957038,-0.0379662449297238,0.38711080558697947,-0.2577526382347382,2,right
18.199,-0.6334053600161103,1.09968644549727,0.2572150075706532,-1.1353531157009824,-1.4398681137531666,1.261245856864197,-0.038092004741855444,0.385324202104555,-0.26047871011235413,2,right
18.2,-0.6312233823984401,1.1026838672123263,0.25053879639721927,-1.1450561430541266,-1.429373765886632,1.2537458520311606,-0.037857086641842744,0.3886162872720707,-0.2554067695865544,2,right
18.204,-0.6231985014261585,1.1008525747607132,0.2485793221801222,-1.134166463408155,-1.4408603487939193,1.2617872492933688,-0.03815587296076479,0.3843595820697576,-0.26189717383240824,2,right
18.205,-0.6097371337782773,1.0945555318747764,0.252068493443225,-1.140453448218965,-1.4342262206966487,1.2571398634949178,-0.03790802422225682,0.3879277178989621,-0.25648923086952147,2,right
18.209,-0.5928149953633027,1.0828704188043534,0.25768563808479145,-1.1470806071575521,-1.4278451165900334,1.2530380864093527,-0.037917012382621414,0.3878640245390157,-0.25666167830981373,2,right
18.21,-0.5738817232641997,1.071659682519821,0.26320705542926803,-1.1196383751368901,-1.4549154404176066,1.270869552790277,-0.03837805756355926,0.38091385593280025,-0.26685948007279114,2,right
18.214000000000002,-0.5559237715341455,1.0621738090830881,0.26605784526176307,-1.1704545165764952,-1.4047548718492031,1.2378031468716593,-0.03724437538173847,0.3979757960358391,-0.24177669718498895,2,right
18.214000000000002,-0.5292410533220109,1.0496329790246863,0.2601902350017816,-1.1051015306993401,-1.4692196963900552,1.2802745939210407,-0.039122337964560314,0.36967863762224196,-0.2833607879541069,2,right
18.219,-0.5113801318401934,1.040781616048555,0.25620229473095335,-1.1597104955475173,-1.4153743927052171,1.2448072764835714,-0.03664760524946396,0.40701624542833,-0.22852053602654143,2,right
18.22,-0.5053789027641795,1.0383271877321008,0.25393172660745894,-1.158351950122785,-1.4167662047069292,1.2457711926616528,-0.02625129530032757,0.563777579989656,0.001624394606000834,2,right
18.221,-0.4809686447538956,1.0355293458585138,0.24280753174673847,-1.0536993183160819,-1.51972598717731,1.3134105214124578,-0.023780229969038523,0.6011365269061977,0.05645110470091316,2,right
18.224,-0.4504732286142463,1.0335133045319878,0.2303584951634231,-1.310841930403574,-1.2667078183297193,1.1471399761605,-0.025653620503208477,0.5728095746869475,0.014886778211765744,2,right
18.225,-0.41302588532227325,1.032809979623828,0.21810593285117913,-0.8844666853663115,-1.686234972101467,1.4228471697462868,-0.02452056923173538,0.589886487675479,0.03995702347254092,2,right
18.227999999999998,-0.38336750285165144,1.0320315418665702,0.2114964920597981,-1.4468960309596657,-1.13285749299436,1.0591657933324146,-0.024990364368216306,0.5829639319362364,0.02974795713697209,2,right
18.229,-0.37620662163464325,1.0315158802731332,0.20883180717013505,-3.80788519921638,1.1900471314308867,-0.4671529393754601,-0.02497757849010716,0.5828081102593716,0.029624689498911255,2,right
18.23,-0.3442863485960871,1.02901981098699,0.19839842356318418,-4.370380130922563,1.7434607966371143,-0.8308760475297016,-0.024763309108049067,0.5865345328667037,0.0349421485732895,2,right
18.233,-0.30435733481448085,1.0230622267295422,0.18839360444729714,-3.9439103359994636,1.323881556846869,-0.5551217442928049,-0.025025709620036782,0.5820874871962409,0.028566793192589868,2,right
18.234,-0.28187394240993136,1.0123609626586123,0.17561234519109775,-4.201109516081871,1.5769306514691475,-0.7213820547391288,-0.024811965540200154,0.5855224637593075,0.0335427662372847,2,right
18.238,-0.25674035989689514,1.0005734092274121,0.1562409438165781,-4.096520006038368,1.4740062824092721,-0.6538781937088329,-0.02495635577239038,0.583759288802528,0.03082465179769634,2,right
18.239,-0.23664968192856578,0.9929670860486023,0.14394196135008258,-4.094910565331892,1.4724751720958609,-0.6526132467999258,-0.024854900799546283,0.583952434058981,0.03152822641008457,2,right
18.242,-0.22070382263578242,0.9874022521066712,0.13720105332299085,-4.14997140117895,1.5265707230540473,-0.6885198311790388,-0.024949588686818444,0.5848273524548391,0.0320882807716502,2,right
18.243,-0.20723715707339535,0.982624769367841,0.12754825127659347,-4.084053350748948,1.461793594613459,-0.6456014098968903,-0.024849656742770884,0.5835089485812281,0.031041995175947745,2,right
18.247,-0.1998175470993651,0.9809401285869644,0.11788552445052329,-4.135327046893282,1.5122061157648714,-0.6788784231148159,-0.024921455194045945,0.5846784785231769,0.032049927740163665,2,right
18.248,-0.19407702061514148,0.9818242726385332,0.10881693882816948,-4.1078775116984065,1.4851339032360862,-0.6613898853549043,-0.024957595059126127,0.5841530473170702,0.03127240872203813,2,right
18.253,-0.19387024660641272,0.9845579586537342,0.09765688093102876,-4.1136809223996025,1.4910565085951706,-0.6643166486265835,-0.02471207165257442,0.5836781141873393,0.03189044645991213,2,right
18.254,-0.19980979177447722,0.9883304698030857,0.09053750606334503,-4.121868183777668,1.498744352582688,-0.6710285613057487,-0.02523820090384907,0.5852912191331636,0.031252586592946746,2,right
18.258,-0.20947089761112148,0.9913083336365495,0.08777808331445729,-4.108135796139079,1.4856846248140125,-0.6604110799910704,-0.024461678169003236,0.5827583597226969,0.03201867771377014,2,right
18.259,-0.22172992066598202,0.9934085065418249,0.08423343565497135,-4.120867706886964,1.4978512802657975,-0.6700281729108053,-0.025287919349427916,0.5854819499160626,0.03123654740240349,2,right
18.264,-0.2375235949350683,0.9945541003388082,0.08225248168271533,-4.112911439395093,1.4900205039465904,-0.6648973407048009,-0.024812957995833548,0.5838711670666423,0.031633881105060366,2,right
18.264,-0.2557405635735543,0.9970569114036357,0.08107336696838517,-4.114815823839829,1.4925611872290871,-0.663556314065187,-0.0243914018349237,0.5826664949159474,0.03224674764767381,2,right
18.267,-0.2753191224823056,1.0000017023076126,0.0770634536865244,-4.11841152899056,1.4945739504617106,-0.6717579715834721,-0.026216511615995704,0.5882395452544933,0.030007112924484564,2,right
18.268,-0.29732089705171816,1.0007544211275339,0.0711700836571474,-4.111143502522188,1.4896985120544044,-0.6582925806452486,-0.022835369606474573,0.5778501067253865,0.03408062464015418,2,right
18.272000000000002,-0.31856222952688046,1.00474857326676,0.06738385556383722,-4.119246350082539,1.4952446711428644,-0.6728755979235016,-0.02717617679632102,0.5912026238769261,0.028868020444341953,2,right
18.274,-0.33956762593510936,1.011243144048691,0.06431960953605406,-4.114003975788614,1.4914892320342852,-0.6640884030183731,-0.023552483553117967,0.5800506760363373,0.03321240345614876,2,right
18.276,-0.35697074666666084,1.015422239659337,0.05869234385201862,-4.112260096285351,1.4909803917441407,-0.658303962939084,-0.02364954111475872,0.5803706946413466,0.033122888913663204,2,right
18.277,-0.3694637281642981,1.0194750607418386,0.05247366941943739,-4.1244358136823935,1.4976735428168602,-0.6865487684894265,-0.03056275574166719,0.6015748940874811,0.024747138013226744,2,right
18.282,-0.3786199323109256,1.023472558888884,0.04221786532464403,-4.1010345826470935,1.484454772648006,-0.6336410047521381,-0.013571929089263919,0.5494368201347766,0.04530043043196365,2,right
18.283,-0.3756843756279782,1.025511825996071,0.02919801632575108,-4.1312687983345056,1.5016094472529131,-0.7016938795331802,-0.04174347214184296,0.6358886739774813,0.011230949612917741,2,right
18.285999999999998,-0.3712414657661049,1.0252023456874617,0.024377786452890703,-4.105950160551569,1.4872141918658794,-0.6448349431695821,-0.004585016349935668,0.5218598749613476,0.056167391658287186,2,right
18.288,-0.3691733445596682,1.0248521585721382,0.024392903838927643,-4.106928560896822,1.4878858187315611,-0.6465511803144255,0.15138476426091238,0.04323880287887599,0.24483170434922918,2,right
18.288,-0.3560164519637637,1.0264494084234053,0.022253969105377074,-4.154250787048801,1.5144103990844306,-0.7543820032440745,0.1885440298684975,-0.07078574902878049,0.28977105060815067,2,right
18.292,-0.3374783403005917,1.0284862676438238,0.016373821022211178,-4.037587524973029,1.4488832112227539,-0.48914378919256335,0.16037161067376723,0.015661510849664727,0.2556984267722684,2,right
18.292,-0.3111930885819949,1.0293270965971284,0.001995992251761086,-4.231116920946841,1.5576168293547406,-0.9289672287854773,0.17736210400218155,-0.03647831476052094,0.2762505271287625,2,right
18.296,-0.2909645705333299,1.028544567545231,-0.008186596177470973,-3.9758386722337393,1.4141902483948883,-0.34884541700663674,0.1704517958896143,-0.01525886471965688,0.26788519290212887,2,right
18.296,-0.28646871922814776,1.029545887449896,-0.010596993480856954,-2.9049493500120414,0.8125984541829593,2.0861522506195116,0.1703484847226372,-0.014971654169065108,0.2677732614463632,2,right
18.297,-0.2684931763537658,1.0308582620314448,-0.024648041489118793,-2.6497162928709335,0.6692094102805126,2.666257774490777,0.17398114426510838,-0.026076566340878765,0.272149789065414,2,right
18.301,-0.24346451616089904,1.030312478798832,-0.04378777573570212,-2.843166850686795,0.7778968641063806,2.226426692383182,0.16963140863963685,-0.012770881372581871,0.2669051714240569,2,right
18.302,-0.22441358477486334,1.0332207873188788,-0.059048999292067514,-2.72659105442174,0.7123738941355532,2.491761097977173,0.1730164028675164,-0.023140122946144637,0.27099250400942015,2,right
18.305999999999997,-0.2005743137021691,1.0362113956266759,-0.07544162967950169,-2.773856810757497,0.7389926508123783,2.3836873291387595,0.17119896058326833,-0.01752683360895716,0.26878034195396416,2,right
18.307000000000002,-0.17556619235948545,1.0373072987924092,-0.08692179676012429,-2.774810637333128,0.7394345627191443,2.382370569902168,0.17159581857067568,-0.01886108592326054,0.26930468113197037,2,right
18.311,-0.15165747964578677,1.0397795594049803,-0.09491415790138424,-2.7496441830657155,0.7253903546655123,2.43875541193438,0.17211333536120227,-0.020248619911659008,0.26985456836014055,2,right
18.312,-0.12830872101455987,1.0394207955287325,-0.10361850499063041,-2.7795807748747188,0.7421683757278742,2.3710513809309264,0.17123486857771553,-0.017798987418440736,0.2688851984103592,2,right
18.316,-0.10790936562880282,1.0352553000719995,-0.1095276381992675,-2.7565792292285556,0.7291624178373501,2.424037504993823,0.1720530271989395,-0.020113471324693412,0.26980059317917515,2,right
18.316,-0.0920999680130572,1.0260497274662375,-0.11317386499615167,-2.7683854585884213,0.7360631182476332,2.394965749911327,0.17152727103657056,-0.018498335603325915,0.26916400135445884,2,right
18.32,-0.07805157427271961,1.0099112770698437,-0.1152689946892895,-2.7667564592398683,0.7346863342106864,2.40250670486485,0.17169552453906933,-0.019378710199665937,0.2695051142695596,2,right
18.320999999999998,-0.06487375425552902,0.9902913731767071,-0.11424261923612906,-2.7619266380985428,0.7325395850432037,2.4087824566569154,0.17183596840031612,-0.018977726598442643,0.26936057403645447,2,right
18.325,-0.059033045526812225,0.9690389835537581,-0.11060032832737818,-2.7688747905294497,0.7359912664971782,2.396734532299479,0.17150073866212134,-0.01919013353711605,0.2694241139274235,2,right
18.326,-0.05847443298005155,0.9467800721487468,-0.10608041810114677,-2.7634961264902485,0.732965259716733,2.408996235281852,0.17188149107011474,-0.01903551153482034,0.26938468548939276,2,right
18.33,-0.061629129377232354,0.9243858104641629,-0.10005118631362106,-2.7648781349218288,0.734580962452005,2.3989018395311508,0.17162455310978925,-0.01901143686354056,0.26936279266543217,2,right
18.332,-0.06962409167517042,0.9059181347274414,-0.09316145706777423,-2.76839415806866,0.7346384308948413,2.406794729518923,0.17158611728727174,-0.019552603909471427,0.269565289311252,2,right
18.336,-0.07922916819055813,0.8936489955800029,-0.08501843796552297,-2.7607988416744838,0.7332324003858977,2.400364566606772,0.17205389883750594,-0.018103889107402453,0.2690413393247484,2,right
18.337,-0.08940851385855202,0.886895930162755,-0.07499661340968611,-2.7697551165522922,0.7352142096215895,2.4052632508404654,0.17113238821730248,-0.02062464946067423,0.269947713826969,2,right
18.340999999999998,-0.09760089066547654,0.887728301903344,-0.06817000559956353,-2.7640041963879773,0.7337453146658754,2.4037449083752134,0.1723276855692723,-0.017424963052708846,0.26879840888243606,2,right
18.342,-0.10498357072014691,0.8942297263784119,-0.06493342119763942,-2.760837860096851,0.7334860999429491,2.3983564505030883,0.17132503412244476,-0.020081376947962745,0.2697522031304359,2,right
18.344,-0.11239274198704494,0.9070646120040926,-0.0641365226159809,-2.77799879661711,0.7364780365371447,2.414411907244617,0.17137066594054667,-0.020066789418311366,0.26974862779043607,2,right
18.345,-0.11564466014262012,0.9251364981831007,-0.0646563108612184,-2.745394147912212,0.730490911366617,2.3864161859977298,0.17322152223690232,-0.014813014049540715,0.26785646624672665,2,right
18.35,-0.11609381261077001,0.9409678704342319,-0.06159134075433778,-2.787539703718336,0.7383363442386163,2.421721447893632,0.16865086746955674,-0.02765910934475522,0.27248144850111017,2,right
18.35,-0.11512606050453947,0.9561650609090393,-0.05867796330525024,-2.7522384937941364,0.7317205433818295,2.3925205907438896,0.17623437969417405,-0.00637638713639908,0.26481906016072787,2,right
18.355,-0.11345545252363572,0.9661496107736598,-0.058491379564760235,-2.753370495375685,0.7320008112375658,2.3928866743570953,0.1662318873498723,-0.034447699895324826,0.27492605758886846,2,right
18.355999999999998,-0.11159157763576218,0.9672304297279403,-0.05796449545334016,-2.8202113637371893,0.7443460782276063,2.4496935121076913,0.12426708778192794,-0.15234958290714282,0.3173725905833682,2,right
18.355999999999998,-0.10572425193113885,0.971379448732212,-0.05545215375263286,-2.6556734372236566,0.7138576661538354,2.3106870368098424,0.11426788776453907,-0.18042962457618678,0.32748393043820134,2,right
18.36,-0.09768989959485336,0.9750008772517373,-0.04770637797086161,-2.9285742865862074,0.7644622080869287,2.5409274019545904,0.12184783791928419,-0.1591374579437394,0.3198168449540775,2,right
18.361,-0.09286910617782729,0.9730453696389277,-0.04117655855136761,-2.568593817015003,0.697697556699716,2.237335296737827,0.11727582833661572,-0.17197996246261005,0.3244400365102372,2,right
18.364,-0.0903102428229309,0.9736070454377858,-0.039179838668694775,-1.0576012320493704,0.4175012345002279,0.9625579001176862,0.11913850047931226,-0.16675751178020862,0.32256346727121965,2,right
18.365,-0.08825338231871814,0.9725887309363137,-0.03529169086387268,-0.6976319091543867,0.3507377939387646,0.6589984690439235,0.11915870908584589,-0.16667552373327937,0.3225263483942019,2,right
18.366,-0.0870552989641582,0.9702835810628296,-0.03327924840161558,-0.9705419192766767,0.401352944864223,0.889155227262116,0.11819250930677278,-0.1694285774946139,0.3235282330444589,2,right
18.369,-0.08815771700066438,0.972042658352313,-0.034875732857627705,-0.805924241576878,0.37082181703628725,0.7503062295232128,0.11935150847867099,-0.1661326564486807,0.32233104537131313,2,right
18.37,-0.09159667151818428,0.973318554257437,-0.036169887297873286,-0.8729600726922879,0.3832584650186496,0.8068779568938209,0.11844565971381912,-0.16869494305032187,0.3232580705864768,2,right
18.375,-0.09371718028564761,0.9743935005774224,-0.035742584392078385,-0.8737761090706084,0.3834002600758532,0.8075145033829425,0.11894461125338388,-0.1673288596456804,0.32277526063821416,2,right
18.375999999999998,-0.09564514205330632,0.9733888128331809,-0.03124922160646287,-0.8388450485332641,0.3769364496730096,0.7781143264513417,0.11880576889011012,-0.16760383726080982,0.3228452727764547,2,right
18.381,-0.09767050407210175,0.9686744975231715,-0.02227236242132666,-0.8807255382288316,0.38468867876871216,0.8133826541576256,0.11872183522142282,-0.16803842419423348,0.3230516341629153,2,right
18.381,-0.0978094826978805,0.9650373883406105,-0.011992467795334319,-0.8480430181291565,0.3786337926950368,0.7858400255781927,0.11889026840485818,-0.16732090299205027,0.32273210410652875,2,right
18.385,-0.10009870256808368,0.9579997481035992,-0.0036353561640184457,-0.8658745420289659,0.3819545679838708,0.8009198872527161,0.118724309152418,-0.16798208985678365,0.3230189193563159,2,right
18.385,-0.10195394451481665,0.9469729150388959,0.003911097623052815,-0.8613101396153275,0.381064109992813,0.7969411321034623,0.11886626300277693,-0.16758508377411424,0.3228764498510378,2,right
18.389,-0.10038273157008276,0.9385630932584952,0.00902298149141503,-0.8575354947929874,0.38043986713114575,0.7939776529449876,0.1187203917241747,-0.16763269147055224,0.3228030369235533,2,right
18.39,-0.10141376973145835,0.9307135804423203,0.01108591413446036,-0.8645258894726184,0.381643165991123,0.7996049767672386,0.11891251240324442,-0.16792074467930485,0.3231136275774739,2,right
18.394000000000002,-0.10425984849701465,0.9255525456501619,0.013774803909018408,-0.8578113025808163,0.38047217967583025,0.7941551420332507,0.11865971759630345,-0.1673959480987629,0.32261609775796113,2,right
18.395,-0.10369029252475709,0.9257701711762918,0.012522370459363752,-0.8629159263937162,0.3814196009645312,0.7984621713010258,0.11892291001766951,-0.1679730952742228,0.32315279476111125,2,right
18.399,-0.10173275715707789,0.9260296986522731,0.006177948054200461,-0.8590366149723303,0.3805619987210914,0.7947960830437704,0.11878078870968568,-0.16761171057115443,0.32283273378310384,2,right
18.4,-0.09897121069805918,0.9290922262473919,0.0008537852440047,-0.8628158247239246,0.3815785795587868,0.7988841707644296,0.11860897358503522,-0.1674384700030735,0.32260633549481577,2,right
18.404,-0.09171936403358616,0.9368354368772236,-0.0020184458367027243,-0.8583960522599908,0.3802879202333326,0.793813138456261,0.11928021551693904,-0.1684229425637186,0.32367803546469764,2,right
18.405,-0.08324980258343662,0.9452332507100853,-0.0019068568443861098,-0.8628807445738598,0.3816217200869334,0.7990275127417779,0.11804996042457865,-0.166556459432459,0.3216761279068884,2,right
18.409000000000002,-0.07577089543879426,0.9532217047063783,-0.00044205830684024717,-0.8606478509374933,0.3809175335877244,0.7963167381940088,0.1196263918341998,-0.16896215574732293,0.32424968365453655,2,right
18.410999999999998,-0.06478811768332628,0.9587153971665279,-0.00037000023405517747,-0.8569480526837242,0.37998121845740573,0.7924837090738557,0.11831164643164252,-0.1669502525825008,0.32210024820060756,2,right
18.413,-0.0495802908085332,0.9624115864402073,-0.0005312835237306757,-0.8702345881911029,0.38353993018908733,0.8068097432506531,0.11834212031609655,-0.1670184731450664,0.3221625482529733,2,right
18.414,-0.03503397883667461,0.9648538903172827,0.0012292819153048229,-0.8461191343585837,0.37703761418542797,0.7806838606246469,0.1208658145543366,-0.1708091792630277,0.32624667342085556,2,right
18.419,-0.021834099127533806,0.9664378680666427,-0.001223475623568297,-0.8769666710477921,0.38536498185139656,0.8141318727721027,0.11466893537347757,-0.16147628244387174,0.3162043907228139,2,right
18.42,-0.00429195280253857,0.9689400642086062,-0.015044011851241358,-0.851261580581764,0.378421865465876,0.7862474643397749,0.12494204886413002,-0.17695422626140384,0.33285496083433197,2,right
18.425,0.009520496942083609,0.9688162180841643,-0.0259202174492104,-0.8517738674971802,0.3785755643608897,0.7868493172451265,0.11139203905447816,-0.15653931458044013,0.310894381075706,2,right
18.425,0.013059519554698444,0.9673709486957335,-0.02829254900804607,-0.9013894813055909,0.39192666124106973,0.84052196423369,0.054508134636626945,-0.07085974549923223,0.21870461549171835,2,right
18.426,0.019473518278807788,0.9678113697064774,-0.04033555110208982,-0.7796572384117499,0.3591519506328762,0.7087800963981032,0.040957566695441504,-0.050447852942423516,0.19674725894717707,2,right
18.428,0.030215718170872617,0.965553188167301,-0.056949417700445135,-0.9814380129041479,0.41348300166387386,0.9271696691193394,0.05123128475670889,-0.06592253167199866,0.21339434288889356,2,right
18.43,0.03512791869993977,0.9629986222616916,-0.0628992128347454,-0.7152962945081104,0.34182221809403834,0.6391156515693526,0.045034632732742025,-0.05658838751967417,0.20335072983196473,2,right
18.433,0.03723159999627372,0.9622554905868514,-0.06542179091577607,0.4020907255255354,0.040978415034400285,-0.5702069813340871,0.04755632908158994,-0.06038993917518319,0.2074464310201794,2,right
18.434,0.04145443137172612,0.9558090944561366,-0.06721377787885288,0.6682493342470373,-0.030683982868197582,-0.8582903356517285,0.047591105132970365,-0.06043483106941371,0.20748382936243326,2,right
18.434,0.040000687008258776,0.9458373435479216,-0.06088434823963484,0.46645474430605266,0.023646943513726985,-0.6398624030883882,0.04627018852929172,-0.05845637097696904,0.2053700934571035,2,right
18.439,0.03170078200021118,0.9356871203456512,-0.048160299627775585,0.5881642438706125,-0.00912047480222381,-0.7716156449866207,0.047852768623346906,-0.06082877184696628,0.2079081054645075,2,right
18.439,0.01931320227641172,0.9232602019712359,-0.03299515616021091,0.538641806138727,0.004211164230948543,-0.7179999481789322,0.0466198540695767,-0.05897664231465077,0.20592152404727632,2,right
18.442999999999998,-0.0016486454882812815,0.9125384734407689,-0.020207483397827138,0.5379507909313738,0.00439760040849433,-0.7172432678629643,0.04728583084301215,-0.05998973548837505,0.20702376963652463,2,right
18.444000000000003,-0.02665801655358048,0.9058308280379372,-0.015353535277535973,0.5638947259421808,-0.002585145686287107,-0.7453755218719544,0.047131001678975125,-0.05972435069282178,0.20669901646011357,2,right
18.448,-0.05208734196648726,0.9024014386022079,-0.015828731621096236,0.5328311052819192,0.005772554678155867,-0.7116484100792916,0.04695959842079203,-0.05952170555240205,0.2065484017674834,2,right
18.449,-0.07642597237586361,0.9033036858484746,-0.01942196103374713,0.5569993932288873,-0.0007258934813204063,-0.7379546984965079,0.04725874245477979,-0.059904070073742884,0.20687717045028575,2,right
18.455,-0.09741921920619381,0.909406300786664,-0.023512055258487003,0.5439915139164053,0.0027676982844000594,-0.7237301142103137,0.04697726241240411,-0.059534517917126675,0.20654537412486584,2,right
18.456,-0.11750910925015288,0.9184235003483389,-0.019374781483355377,0.5469538379540009,0.0019739395433950027,-0.7269985870885443,0.04716918010536457,-0.059824059834723456,0.20685752691486783,2,right
18.457,-0.13321183330413883,0.9278526997321175,-0.008097016781891276,0.5503665315833394,0.0010622705016727777,-0.7308170596281378,0.04707642028715437,-0.05958333351493597,0.20647636101241737,2,right
18.458,-0.1431582836837229,0.9355077039330214,0.0023224057798108197,0.5445304214799375,0.002610207874228632,-0.7241000144042207,0.047096901273114763,-0.05984507563063852,0.20703705485591964,2,right
18.463,-0.14794951785267724,0.9409762956737151,0.013373660648524494,0.5498835307574294,0.0012092940290628798,-0.7305829395951153,0.04711223638495003,-0.05952367027008126,0.20627498852830645,2,right
18.464000000000002,-0.14570898166806012,0.9463778528893344,0.025546658839398287,0.5464441804295239,0.002085752462301079,-0.7260152461961393,0.04708731159893354,-0.05985342822997793,0.20707343940348177,2,right
18.467,-0.1387994314709159,0.9494875880402283,0.03499143033915031,0.5478311311454157,0.0017518467441858397,-0.7281899822482929,0.04711525922977009,-0.05968322522007063,0.20663409877205763,2,right
18.468,-0.12790910248723208,0.952944432418064,0.04121210082694515,0.5478205592644367,0.0017550166527547158,-0.7281846179089325,0.04707236302972374,-0.059435819949636516,0.20614665063871995,2,right
18.473,-0.11247743605033905,0.9599032180202157,0.0403634945198762,0.5474187876285346,0.001789938376857122,-0.7264998256836075,0.04715036010654234,-0.06035374988913244,0.2081017687737035,2,right
18.474,-0.09412363450033447,0.9684276918578647,0.02755526035194254,0.5474213385323301,0.001956688064537599,-0.7293589094447802,0.047025611791532244,-0.05868121762923619,0.20450837253380283,2,right
18.477,-0.07251082174583165,0.9812577870664807,0.007058233135158109,0.5481718604791899,0.0015048180032224965,-0.725910178390226,0.04718120593195631,-0.06082211101929878,0.20911489226996036,2,right
18.479,-0.04579511816158545,0.9964812025196474,-0.011841836136524576,0.5469308377938032,0.002105248520664171,-0.7291092965792544,0.047053336189707744,-0.05903756075985622,0.20527262951182879,2,right
18.482,-0.009276571857713448,1.0107043966139404,-0.029055984082658876,0.5477887549789302,0.0017203924061237512,-0.7274133352511802,0.04704937476728421,-0.05907533116004165,0.20536412966551704,2,right
18.483,0.03291553757116396,1.0239227221201643,-0.04249328956472729,0.5485872765399643,0.0013727671246928927,-0.7260151180698842,0.04731706649792049,-0.06251250984020859,0.21273035549665859,2,right
18.488,0.07255860732678099,1.033724942554257,-0.048946551729422715,0.5449236355608296,0.00293964450410203,-0.7319513307287939,0.046668317781745614,-0.05407689571278329,0.19464093787890174,2,right
18.489,0.11287477764580628,1.0395409461131981,-0.060497042508926,0.5518797268450062,-9.732543185771137e-06,-0.7211178217390791,0.04774105043619325,-0.06806012498405416,0.22462856454702318,2,right
18.491,0.13733659256537534,1.0412081061081178,-0.07076211416825756,0.5428357983783074,0.003807590706308792,-0.7349072839136344,0.04632712474091241,-0.04961682229835353,0.18507738252066744,2,right
18.492,0.1438850882413223,1.042095269405725,-0.07452637373059001,0.5504348786590807,0.0006074858314396581,-0.7234481088594251,0.04037270517026233,0.027816548687320364,0.019021981058456372,2,right
18.493,0.15572170070204336,1.045364927908158,-0.09045882868450404,0.5502365640160638,0.0006923894519990531,-0.7237657434221165,0.03895932594986489,0.04626073039145907,-0.02052715647041676,2,right
18.497,0.16229063155439058,1.048530694287646,-0.11359826108012362,0.5356415392083534,0.006821860309591506,-0.745503692755458,0.040031467022463754,0.03227654981727633,0.009458258041144425,2,right
18.497,0.155785174214173,1.0535626114168282,-0.1311144644082955,0.5715407248391006,-0.008251044923525267,-0.6921037189998601,0.03938249461057189,0.04071180316397896,-0.00863200036389554,2,right
18.502,0.1392914371571631,1.0577240625451219,-0.13799730525424492,0.5119882510221887,0.016748378073852658,-0.7806109872254641,0.039652145149498275,0.03727777725600843,-0.0012584381351517168,2,right
18.503,0.12377537241777867,1.0573641709493087,-0.1366122099668245,0.5905621756936018,-0.01623125330767215,-0.6638955148798054,0.03964396748732896,0.03723322199140777,-0.001182723861853363,2,right
18.504,0.11839009824544937,1.0569627371468333,-0.13392186507392698,0.9205285265404095,-0.15466836114985502,-0.1740974138277047,0.039522144271512676,0.03902750139207684,-0.005002352314433573,2,right
18.506,0.10353668432072924,1.0523611223594238,-0.1202524776393219,0.9991393774688356,-0.1876489193839164,-0.05740917089135521,0.03967171571686319,0.036876918530702685,-0.00041837231773231656,2,right
18.506,0.08384177392164681,1.0422747669595656,-0.09852771639302008,0.9395154738003831,-0.16264988373003536,-0.1458668490248774,0.03954956908543432,0.03855363398952523,-0.004002041787254483,2,right
18.511,0.06794662421030648,1.0296983759494556,-0.07818623421871454,0.9755109605779619,-0.17771748359709957,-0.09252697017369894,0.039632731003035826,0.03764401904814546,-0.002027571486672821,2,right
18.512,0.04866524846603707,1.0144051678920714,-0.057505112389121586,0.9608185997917376,-0.17160149061898178,-0.11421565191333635,0.03957318553357442,0.03786463002833339,-0.0025773633673038176,2,right
18.517,0.029161590322514107,1.0043628438091075,-0.042634116188568175,0.9606761552090519,-0.17149436862127948,-0.1145410918706116,0.03962982729523193,0.03808100603905428,-0.002909280255054635,2,right
18.517,0.007533492221549198,0.9989937939193957,-0.03640589198238823,0.9683180723212732,-0.1747209026143522,-0.1031493480969932,0.03956968046052706,0.037694576587982594,-0.002242668271566814,2,right
18.521,-0.013987503677986204,0.9957332722646708,-0.035247901321503,0.9590779180990541,-0.1708840380933806,-0.11677345051227939,0.03961310697123909,0.03806117161854447,-0.002899621771651652,2,right
18.522000000000002,-0.03282469692697612,0.9975952260828648,-0.0360317741263126,0.9664038527607468,-0.1738292684337135,-0.10619367783999287,0.039633813719725255,0.037799812836132,-0.0023380015396961863,2,right
18.526,-0.05007134414727783,0.9990561280597169,-0.03433423861378056,0.9622515941025815,-0.17230814443435272,-0.11185160506769867,0.03948898005298708,0.037956723522763296,-0.002914205381618463,2,right
18.527,-0.061172892918680194,1.0032170598789993,-0.029770062189059886,0.9634936135958618,-0.17255825920374812,-0.11062683276806617,0.03979994841456529,0.03785876335476407,-0.0021563072641754746,2,right
