time,gFx,gFy,gFz,ax,ay,az,wx,wy,wz
0.003,0.22,0.98,-0.09,-0.01,0.04,0.02,0.02,-0.04,0.04
0.006,0.22,0.98,-0.09,-0.01,0.04,0.02,0.03,-0.07,0.03
0.007,0.22,0.98,-0.09,-0.25,-0.09,0.01,0.03,-0.07,0.03
0.014,0.23,1.01,-0.08,-0.25,-0.09,0.01,0.03,-0.07,0.03
0.028,0.15,0.97,-0.08,-0.25,-0.09,0.01,0.03,-0.07,0.03
0.029,0.15,0.97,-0.08,-0.25,-0.09,0.01,0.02,0.05,0.01
0.029,0.15,0.97,-0.08,-0.26,-0.09,0.02,0.02,0.05,0.01
0.032,0.15,0.97,-0.08,-0.26,-0.09,0.02,0.02,0.05,0.01
0.048,0.16,0.95,-0.09,-0.26,-0.09,0.02,0.02,0.05,0.01
0.068,0.2,0.98,-0.07,-0.26,-0.09,0.02,0.02,0.05,0.01
0.069,0.2,0.98,-0.07,-0.26,-0.09,0.02,0.02,0.01,0.03
0.069,0.2,0.98,-0.07,-0.38,-0.02,0.05,0.02,0.01,0.03
0.088,0.22,0.99,-0.08,-0.38,-0.02,0.05,0.02,0.01,0.03
0.092,0.22,0.99,-0.08,-0.38,-0.02,0.05,0.02,0.01,0.03
0.108,0.23,0.98,-0.07,-0.38,-0.02,0.05,0.02,0.01,0.03
0.109,0.23,0.98,-0.07,-0.38,-0.02,0.05,0.02,-0.11,0.05
0.11,0.23,0.98,-0.07,-0.04,0.03,0.12,0.02,-0.11,0.05
0.128,0.21,0.96,-0.1,-0.04,0.03,0.12,0.02,-0.11,0.05
0.175,0.18,0.97,-0.11,-0.04,0.03,0.12,0.02,-0.11,0.05
0.176,0.18,0.97,-0.11,-0.04,0.03,0.12,0.03,0,0.03
0.178,0.18,0.97,-0.11,-0.05,0.03,0.13,0.03,0,0.03
0.18,0.18,0.97,-0.11,-0.05,0.03,0.13,0.03,0,0.03
0.182,0.18,0.98,-0.09,-0.05,0.03,0.13,0.03,0,0.03
0.214,0.22,0.97,-0.08,-0.05,0.03,0.13,0.03,0,0.03
0.215,0.22,0.97,-0.08,-0.05,0.03,0.13,0.01,-0.03,0.03
0.217,0.22,0.97,-0.08,-0.32,-0.08,-0.07,0.01,-0.03,0.03
0.218,0.23,0.98,-0.08,-0.32,-0.08,-0.07,0.01,-0.03,0.03
0.219,0.23,0.98,-0.08,-0.32,-0.08,-0.07,0.01,-0.03,0.03
0.229,0.22,0.97,-0.06,-0.32,-0.08,-0.07,0.01,-0.03,0.03
0.232,0.22,0.97,-0.06,-0.32,-0.08,-0.07,0.02,-0.05,0.04
0.233,0.22,0.97,-0.06,-0.01,-0.01,0.18,0.02,-0.05,0.04
0.252,0.2,0.98,-0.08,-0.01,-0.01,0.18,0.02,-0.05,0.04
0.275,0.21,0.98,-0.1,-0.01,-0.01,0.18,0.02,-0.05,0.04
0.276,0.21,0.98,-0.1,-0.01,-0.01,0.18,0.04,0.01,0.01
0.277,0.21,0.98,-0.1,-0.01,-0.01,0.19,0.04,0.01,0.01
0.278,0.21,0.98,-0.1,-0.01,-0.01,0.19,0.04,0.01,0.01
0.286,0.23,0.94,-0.11,-0.01,-0.01,0.19,0.04,0.01,0.01
0.308,0.19,0.97,-0.13,-0.01,-0.01,0.19,0.04,0.01,0.01
0.311,0.19,0.97,-0.13,-0.01,-0.01,0.19,0.04,-0.01,0
0.313,0.19,0.97,-0.13,-0.11,-0.07,-0.04,0.04,-0.01,0
0.326,0.15,1,-0.12,-0.11,-0.07,-0.04,0.04,-0.01,0
0.334,0.15,1,-0.12,-0.11,-0.07,-0.04,0.04,-0.01,0
0.376,0.2,0.97,-0.09,-0.11,-0.07,-0.04,0.04,-0.01,0
0.379,0.2,0.97,-0.09,-0.11,-0.07,-0.04,-0.03,-0.04,0.02
0.381,0.2,0.97,-0.09,-0.44,0.04,-0.23,-0.03,-0.04,0.02
0.383,0.24,0.96,-0.09,-0.44,0.04,-0.23,-0.03,-0.04,0.02
0.385,0.22,0.99,-0.08,-0.44,0.04,-0.23,-0.03,-0.04,0.02
0.387,0.22,0.99,-0.08,-0.44,0.04,-0.23,-0.05,-0.1,0.04
0.389,0.22,0.99,-0.08,-0.45,0.04,-0.24,-0.05,-0.1,0.04
0.406,0.22,0.99,-0.08,-0.45,0.04,-0.24,-0.05,-0.1,0.04
0.407,0.2,0.96,-0.08,-0.45,0.04,-0.24,-0.05,-0.1,0.04
0.443,0.23,0.97,-0.08,-0.45,0.04,-0.24,-0.05,-0.1,0.04
0.445,0.23,0.97,-0.08,-0.45,0.04,-0.24,-0.03,-0.16,0
0.446,0.23,0.97,-0.08,0.01,-0.06,0.09,-0.03,-0.16,0
0.447,0.31,1.02,-0.05,0.01,-0.06,0.09,-0.03,-0.16,0
0.469,0.31,1.02,-0.05,0.01,-0.06,0.09,-0.03,-0.16,0
0.47,0.42,1.01,0.01,0.01,-0.06,0.09,-0.03,-0.16,0
0.472,0.42,1.01,0.01,0.01,-0.06,0.09,0.01,-0.31,-0.07
0.472,0.42,1.01,0.01,0.97,0.23,0.53,0.01,-0.31,-0.07
0.483,0.5,0.93,0.09,0.97,0.23,0.53,0.01,-0.31,-0.07
0.503,0.45,0.93,0.05,0.97,0.23,0.53,0.01,-0.31,-0.07
0.505,0.45,0.93,0.05,0.97,0.23,0.53,0.16,-0.24,-0.38
0.505,0.45,0.93,0.05,1.1,0.2,0.6,0.16,-0.24,-0.38
0.512,0.45,0.93,0.05,1.1,0.2,0.6,0.16,-0.24,-0.38
0.533,0.31,0.97,-0.06,1.1,0.2,0.6,0.16,-0.24,-0.38
0.549,0.31,0.97,-0.06,2.35,-0.39,1.33,0.16,-0.24,-0.38
0.551,0.24,0.96,-0.13,2.35,-0.39,1.33,0.16,-0.24,-0.38
0.552,0.24,0.96,-0.13,2.35,-0.39,1.33,0.35,0,-0.77
0.568,0.17,0.96,-0.14,2.35,-0.39,1.33,0.35,0,-0.77
0.578,0.17,0.96,-0.14,2.35,-0.39,1.33,0.35,0,-0.77
0.582,0.04,0.96,-0.13,2.35,-0.39,1.33,0.35,0,-0.77
0.583,0.04,0.96,-0.13,2.35,-0.39,1.33,0.39,0.2,-0.93
0.584,0.04,0.96,-0.13,0.03,-0.25,-0.06,0.39,0.2,-0.93
0.602,-0.07,0.95,-0.13,0.03,-0.25,-0.06,0.39,0.2,-0.93
0.622,-0.11,0.96,-0.14,0.03,-0.25,-0.06,0.39,0.2,-0.93
0.623,-0.11,0.96,-0.14,0.03,-0.25,-0.06,0.37,0.28,-0.84
0.624,-0.11,0.96,-0.14,0.33,-0.27,0.07,0.37,0.28,-0.84
0.639,-0.11,0.96,-0.14,0.33,-0.27,0.07,0.37,0.28,-0.84
0.643,-0.03,0.98,-0.17,0.33,-0.27,0.07,0.37,0.28,-0.84
0.667,-0.03,0.98,-0.17,-1.55,-0.28,0.06,0.37,0.28,-0.84
0.671,0.1,0.98,-0.14,-1.55,-0.28,0.06,0.37,0.28,-0.84
0.674,0.1,0.98,-0.14,-1.55,-0.28,0.06,0.37,-0.11,-0.6
0.686,0.06,0.97,-0.11,-1.55,-0.28,0.06,0.37,-0.11,-0.6
0.694,0.06,0.97,-0.11,-1.55,-0.28,0.06,0.37,-0.11,-0.6
0.701,0.01,0.98,-0.11,-1.55,-0.28,0.06,0.37,-0.11,-0.6
0.702,0.01,0.98,-0.11,-1.55,-0.28,0.06,0.37,-0.09,-0.51
0.703,0.01,0.98,-0.11,-0.11,-0.1,0.47,0.37,-0.09,-0.51
0.721,0.02,0.98,-0.13,-0.11,-0.1,0.47,0.37,-0.09,-0.51
0.741,0.02,0.99,-0.15,-0.11,-0.1,0.47,0.37,-0.09,-0.51
0.742,0.02,0.99,-0.15,-0.11,-0.1,0.47,0.42,0.12,-0.44
0.743,0.02,0.99,-0.15,0.05,-0.08,0.62,0.42,0.12,-0.44
0.752,0.02,0.99,-0.15,0.05,-0.08,0.62,0.42,0.12,-0.44
0.786,-0.1,0.99,-0.22,0.05,-0.08,0.62,0.42,0.12,-0.44
0.787,-0.17,0.95,-0.35,0.05,-0.08,0.62,0.42,0.12,-0.44
0.788,-0.17,0.95,-0.35,0.05,-0.08,0.62,0.5,0.15,-0.35
0.788,-0.17,0.95,-0.35,-0.55,0.04,0.34,0.5,0.15,-0.35
0.799,-0.15,0.96,-0.32,-0.55,0.04,0.34,0.5,0.15,-0.35
0.812,-0.15,0.96,-0.32,-0.55,0.04,0.34,0.5,0.15,-0.35
0.82,-0.12,0.99,-0.22,-0.55,0.04,0.34,0.5,0.15,-0.35
0.82,-0.12,0.99,-0.22,-0.55,0.04,0.34,0.47,0.03,-0.21
0.821,-0.12,0.99,-0.22,-1.69,-0.08,-0.73,0.47,0.03,-0.21
0.84,-0.11,0.98,-0.2,-1.69,-0.08,-0.73,0.47,0.03,-0.21
0.884,-0.01,0.97,-0.27,-1.69,-0.08,-0.73,0.47,0.03,-0.21
0.887,-0.01,0.97,-0.27,-1.69,-0.08,-0.73,0.43,-0.19,-0.03
0.889,-0.01,0.97,-0.27,-1.64,-0.04,-0.55,0.43,-0.19,-0.03
0.891,-0.01,0.97,-0.27,-1.64,-0.04,-0.55,0.43,-0.19,-0.03
0.893,0.1,0.97,-0.27,-1.64,-0.04,-0.55,0.43,-0.19,-0.03
0.907,0.04,0.97,-0.28,-1.64,-0.04,-0.55,0.43,-0.19,-0.03
0.91,0.04,0.97,-0.28,-1.64,-0.04,-0.55,0.45,-0.2,0.09
0.911,0.04,0.97,-0.28,-0.28,0.03,0.09,0.45,-0.2,0.09
0.918,-0.01,0.98,-0.3,-0.28,0.03,0.09,0.45,-0.2,0.09
0.931,-0.01,0.98,-0.3,-0.28,0.03,0.09,0.45,-0.2,0.09
0.938,0.08,0.99,-0.31,-0.28,0.03,0.09,0.45,-0.2,0.09
0.938,0.08,0.99,-0.31,-0.28,0.03,0.09,0.41,-0.01,0.04
0.939,0.08,0.99,-0.31,0.12,0.16,-0.21,0.41,-0.01,0.04
0.959,0.12,1,-0.32,0.12,0.16,-0.21,0.41,-0.01,0.04
0.984,0.04,0.95,-0.3,0.12,0.16,-0.21,0.41,-0.01,0.04
0.987,0.04,0.95,-0.3,0.12,0.16,-0.21,0.34,-0.04,-0.05
0.988,0.04,0.95,-0.3,0.14,0.19,-0.09,0.34,-0.04,-0.05
0.994,0.04,0.95,-0.3,0.14,0.19,-0.09,0.34,-0.04,-0.05
0.998,-0.04,0.95,-0.28,0.14,0.19,-0.09,0.34,-0.04,-0.05
1.02,-0.06,0.95,-0.27,0.14,0.19,-0.09,0.34,-0.04,-0.05
1.023,-0.06,0.95,-0.27,0.14,0.19,-0.09,0.31,0.17,-0.12
1.025,-0.06,0.95,-0.27,0.2,0.07,-0.03,0.31,0.17,-0.12
1.051,-0.09,0.96,-0.28,0.2,0.07,-0.03,0.31,0.17,-0.12
1.069,-0.09,0.96,-0.28,0.2,0.07,-0.03,0.31,0.17,-0.12
1.071,-0.09,0.96,-0.28,-0.97,-0.01,0.28,0.31,0.17,-0.12
1.072,-0.09,0.96,-0.29,-0.97,-0.01,0.28,0.31,0.17,-0.12
1.072,-0.09,0.96,-0.29,-0.97,-0.01,0.28,0.36,0.16,-0.06
1.078,-0.05,0.94,-0.29,-0.97,-0.01,0.28,0.36,0.16,-0.06
1.096,-0.12,0.94,-0.33,-0.97,-0.01,0.28,0.36,0.16,-0.06
1.098,-0.12,0.94,-0.33,-0.97,-0.01,0.28,0.45,0.27,0.08
1.098,-0.12,0.94,-0.33,-1.02,0.04,0.43,0.45,0.27,0.08
1.111,-0.12,0.94,-0.33,-1.02,0.04,0.43,0.45,0.27,0.08
1.116,-0.12,0.96,-0.37,-1.02,0.04,0.43,0.45,0.27,0.08
1.136,-0.03,0.98,-0.37,-1.02,0.04,0.43,0.45,0.27,0.08
1.139,-0.03,0.98,-0.37,-1.02,0.04,0.43,0.53,0.57,0.27
1.141,-0.03,0.98,-0.37,-1.33,0.05,0.13,0.53,0.57,0.27
1.162,-0.1,0.95,-0.4,-1.33,0.05,0.13,0.53,0.57,0.27
1.171,-0.1,0.95,-0.4,-1.33,0.05,0.13,0.53,0.57,0.27
1.187,-0.14,0.95,-0.41,-1.33,0.05,0.13,0.53,0.57,0.27
1.189,-0.14,0.95,-0.41,-1.33,0.05,0.13,0.57,0.84,0.44
1.189,-0.14,0.95,-0.41,-1.52,0.27,-0.26,0.57,0.84,0.44
1.197,-0.07,0.99,-0.41,-1.52,0.27,-0.26,0.57,0.84,0.44
1.215,0.02,1.01,-0.42,-1.52,0.27,-0.26,0.57,0.84,0.44
1.216,0.02,1.01,-0.42,-1.52,0.27,-0.26,0.59,0.87,0.62
1.217,0.02,1.01,-0.42,-1.83,0.37,-0.08,0.59,0.87,0.62
1.232,0.02,1.01,-0.42,-1.83,0.37,-0.08,0.59,0.87,0.62
1.234,-0.03,1.06,-0.42,-1.83,0.37,-0.08,0.59,0.87,0.62
1.263,-0.06,1.12,-0.37,-1.83,0.37,-0.08,0.59,0.87,0.62
1.265,-0.06,1.12,-0.37,-1.83,0.37,-0.08,0.6,0.93,0.83
1.266,-0.06,1.12,-0.37,-1.61,1.05,-0.12,0.6,0.93,0.83
1.293,0.04,1.15,-0.27,-1.61,1.05,-0.12,0.6,0.93,0.83
1.301,0.04,1.15,-0.27,-1.61,1.05,-0.12,0.6,0.93,0.83
1.302,0.04,1.16,-0.23,-1.61,1.05,-0.12,0.6,0.93,0.83
1.303,0.04,1.16,-0.23,-1.61,1.05,-0.12,0.62,0.97,1.06
1.304,0.04,1.16,-0.23,-1.78,2.41,1.21,0.62,0.97,1.06
1.313,0.02,1.17,-0.25,-1.78,2.41,1.21,0.62,0.97,1.06
1.333,-0.13,1.36,-0.36,-1.78,2.41,1.21,0.62,0.97,1.06
1.333,-0.13,1.36,-0.36,-1.78,2.41,1.21,0.65,0.8,1.39
1.334,-0.13,1.36,-0.36,-2.34,2.59,1.34,0.65,0.8,1.39
1.351,-0.13,1.36,-0.36,-2.34,2.59,1.34,0.65,0.8,1.39
1.353,-0.07,1.42,-0.25,-2.34,2.59,1.34,0.65,0.8,1.39
1.372,0.04,1.19,-0.16,-2.34,2.59,1.34,0.65,0.8,1.39
1.372,0.04,1.19,-0.16,-2.34,2.59,1.34,0.67,0.73,1.64
1.373,0.04,1.19,-0.16,-3.6,4.5,1.53,0.67,0.73,1.64
1.392,-0.18,1.21,-0.18,-3.6,4.5,1.53,0.67,0.73,1.64
1.411,-0.18,1.21,-0.18,-3.6,4.5,1.53,0.67,0.73,1.64
1.413,-0.2,1.26,-0.29,-3.6,4.5,1.53,0.67,0.73,1.64
1.413,-0.2,1.26,-0.29,-3.6,4.5,1.53,0.83,1.84,1.53
1.414,-0.2,1.26,-0.29,-4.86,3.84,2.28,0.83,1.84,1.53
1.432,-0.09,1.32,-0.41,-4.86,3.84,2.28,0.83,1.84,1.53
1.454,0.09,1.37,-0.39,-4.86,3.84,2.28,0.83,1.84,1.53
1.455,0.09,1.37,-0.39,-4.86,3.84,2.28,0.96,3.06,1.13
1.456,0.09,1.37,-0.39,-5.63,4.11,2.03,0.96,3.06,1.13
1.487,0.09,1.37,-0.39,-5.63,4.11,2.03,0.96,3.06,1.13
1.489,0.29,1.35,-0.26,-5.63,4.11,2.03,0.96,3.06,1.13
1.492,0.37,1.34,-0.43,-5.63,4.11,2.03,0.96,3.06,1.13
1.494,0.37,1.34,-0.43,-5.63,4.11,2.03,1.08,2.76,1.63
1.496,0.37,1.34,-0.43,-4.42,5.71,0.38,1.08,2.76,1.63
1.512,0.4,1.17,-0.5,-4.42,5.71,0.38,1.08,2.76,1.63
1.532,0.4,1.17,-0.5,-4.42,5.71,0.38,1.08,2.76,1.63
1.536,0.38,0.91,-0.46,-4.42,5.71,0.38,1.08,2.76,1.63
1.538,0.38,0.91,-0.46,-4.42,5.71,0.38,0.91,2.44,1.75
1.539,0.38,0.91,-0.46,-2.43,4.15,-0.98,0.91,2.44,1.75
1.563,0.19,0.73,-0.28,-2.43,4.15,-0.98,0.91,2.44,1.75
1.575,0.07,0.61,-0.27,-2.43,4.15,-0.98,0.91,2.44,1.75
1.577,0.07,0.61,-0.27,-2.43,4.15,-0.98,0.66,1.8,0.95
1.578,0.07,0.61,-0.27,-2.88,4.4,-1.24,0.66,1.8,0.95
1.597,0,0.62,0.04,-2.88,4.4,-1.24,0.66,1.8,0.95
1.6,0,0.62,0.04,-2.88,4.4,-1.24,0.66,1.8,0.95
1.611,0.05,0.62,0.01,-2.88,4.4,-1.24,0.66,1.8,0.95
1.612,0.05,0.62,0.01,-2.88,4.4,-1.24,-0.04,0.88,-0.21
1.613,0.05,0.62,0.01,-5.74,-0.42,1.35,-0.04,0.88,-0.21
1.631,0.1,0.5,-0.21,-5.74,-0.42,1.35,-0.04,0.88,-0.21
1.658,0.05,0.42,-0.22,-5.74,-0.42,1.35,-0.04,0.88,-0.21
1.66,0.05,0.42,-0.22,-5.5,-2.15,1.47,-0.04,0.88,-0.21
1.661,0.05,0.42,-0.22,-5.5,-2.15,1.47,-0.86,-0.32,-1.15
1.662,0.05,0.42,-0.22,-5.5,-2.15,1.47,-0.86,-0.32,-1.15
1.669,0.19,0.57,-0.36,-5.5,-2.15,1.47,-0.86,-0.32,-1.15
1.69,0.19,0.57,-0.36,-4.55,-2.73,1.54,-0.86,-0.32,-1.15
1.691,0.34,0.75,-0.35,-4.55,-2.73,1.54,-0.86,-0.32,-1.15
1.692,0.34,0.75,-0.35,-4.55,-2.73,1.54,-1.24,-2.07,-2.16
1.708,0.43,0.75,-0.32,-4.55,-2.73,1.54,-1.24,-2.07,-2.16
1.71,0.43,0.75,-0.32,-4.55,-2.73,1.54,-1.24,-2.07,-2.16
1.73,0.34,0.63,-0.34,-4.55,-2.73,1.54,-1.24,-2.07,-2.16
1.733,0.34,0.63,-0.34,-4.55,-2.73,1.54,-1.6,-2.77,-2.7
1.736,0.34,0.63,-0.34,-0.83,-1.62,-0.47,-1.6,-2.77,-2.7
1.749,0.22,0.62,-0.39,-0.83,-1.62,-0.47,-1.6,-2.77,-2.7
1.789,0.25,0.77,-0.53,-0.83,-1.62,-0.47,-1.6,-2.77,-2.7
1.792,0.25,0.77,-0.53,-0.83,-1.62,-0.47,-1.87,-2.47,-3.31
1.794,0.25,0.77,-0.53,0.07,-2.41,-1.5,-1.87,-2.47,-3.31
1.796,0.25,0.77,-0.53,0.07,-2.41,-1.5,-1.87,-2.47,-3.31
1.797,0.41,0.91,-0.56,0.07,-2.41,-1.5,-1.87,-2.47,-3.31
1.807,0.53,0.99,-0.54,0.07,-2.41,-1.5,-1.87,-2.47,-3.31
1.808,0.53,0.99,-0.54,0.07,-2.41,-1.5,-2.03,-2.39,-3.91
1.808,0.53,0.99,-0.54,1.69,-2.82,-2.03,-2.03,-2.39,-3.91
1.837,0.48,1.02,-0.51,1.69,-2.82,-2.03,-2.03,-2.39,-3.91
1.84,0.48,1.02,-0.51,1.69,-2.82,-2.03,-2.03,-2.39,-3.91
1.865,0.46,1.09,-0.58,1.69,-2.82,-2.03,-2.03,-2.39,-3.91
1.868,0.46,1.09,-0.58,1.69,-2.82,-2.03,-2.03,-1.46,-4.52
1.869,0.46,1.09,-0.58,5.38,-0.01,-3.87,-2.03,-1.46,-4.52
1.87,0.6,1.13,-0.62,5.38,-0.01,-3.87,-2.03,-1.46,-4.52
1.887,0.77,1.14,-0.58,5.38,-0.01,-3.87,-2.03,-1.46,-4.52
1.888,0.77,1.14,-0.58,5.38,-0.01,-3.87,-1.72,-0.17,-4.87
1.889,0.77,1.14,-0.58,8.41,1.68,-4.98,-1.72,-0.17,-4.87
1.89,0.77,1.14,-0.58,8.41,1.68,-4.98,-1.72,-0.17,-4.87
1.906,0.71,1.21,-0.52,8.41,1.68,-4.98,-1.72,-0.17,-4.87
1.951,0.43,1.24,-0.48,8.41,1.68,-4.98,-1.72,-0.17,-4.87
1.954,0.43,1.24,-0.48,8.41,1.68,-4.98,-1.11,1.33,-4.39
1.956,0.43,1.24,-0.48,9.79,2.17,-5.11,-1.11,1.33,-4.39
1.957,0.25,1.11,-0.44,9.79,2.17,-5.11,-1.11,1.33,-4.39
1.958,0.25,1.11,-0.44,9.79,2.17,-5.11,-1.11,1.33,-4.39
1.969,0.19,0.95,-0.4,9.79,2.17,-5.11,-1.11,1.33,-4.39
1.97,0.19,0.95,-0.4,9.79,2.17,-5.11,-0.35,1.43,-2.49
1.971,0.19,0.95,-0.4,9.03,3.15,-3.83,-0.35,1.43,-2.49
1.984,0.26,0.84,-0.33,9.03,3.15,-3.83,-0.35,1.43,-2.49
2.005,0.26,0.84,-0.33,7.61,0.34,-2.76,-0.35,1.43,-2.49
2.007,0.58,0.93,-0.41,7.61,0.34,-2.76,-0.35,1.43,-2.49
2.007,0.58,0.93,-0.41,7.61,0.34,-2.76,0.65,-1.01,0.29
2.011,0.58,0.93,-0.41,7.61,0.34,-2.76,0.65,-1.01,0.29
2.026,-1.43,2.12,1.94,7.61,0.34,-2.76,0.65,-1.01,0.29
2.066,-2.12,1.98,-0.79,7.61,0.34,-2.76,0.65,-1.01,0.29
2.07,-2.12,1.98,-0.79,7.61,0.34,-2.76,0.94,-1.16,1.54
2.072,-2.12,1.98,-0.79,7.02,0.13,-2.59,0.94,-1.16,1.54
2.074,-0.12,0.3,-1.22,7.02,0.13,-2.59,0.94,-1.16,1.54
2.076,-0.12,0.3,-1.22,7.02,0.13,-2.59,0.94,-1.16,1.54
2.091,2.2,1.25,0.15,7.02,0.13,-2.59,0.94,-1.16,1.54
2.092,2.2,1.25,0.15,7.02,0.13,-2.59,1.51,-4.04,1.26
2.093,2.2,1.25,0.15,-8.4,5.45,0.88,1.51,-4.04,1.26
2.103,1.48,1.72,-0.49,-8.4,5.45,0.88,1.51,-4.04,1.26
2.123,-0.69,0.7,-0.56,-8.4,5.45,0.88,1.51,-4.04,1.26
2.125,-0.69,0.7,-0.56,-8.4,5.45,0.88,1.39,-2.33,2.01
2.127,-0.69,0.7,-0.56,12.52,2.85,-1.61,1.39,-2.33,2.01
2.147,-0.69,0.7,-0.56,12.52,2.85,-1.61,1.39,-2.33,2.01
2.149,-0.28,0.82,-0.71,12.52,2.85,-1.61,1.39,-2.33,2.01
2.183,-0.55,1.07,-0.19,12.52,2.85,-1.61,1.39,-2.33,2.01
2.186,-0.55,1.07,-0.19,12.52,2.85,-1.61,0.81,2.27,0.25
2.188,-0.55,1.07,-0.19,12.07,2.82,-1.07,0.81,2.27,0.25
2.19,-0.75,0.86,-0.01,12.07,2.82,-1.07,0.81,2.27,0.25
2.191,-0.75,0.86,-0.01,12.07,2.82,-1.07,0.81,2.27,0.25
2.202,-0.63,0.81,-0.15,12.07,2.82,-1.07,0.81,2.27,0.25
2.203,-0.63,0.81,-0.15,12.07,2.82,-1.07,0.31,1.38,0.55
2.204,-0.63,0.81,-0.15,-3.14,-0.23,-0.91,0.31,1.38,0.55
2.222,-0.46,0.88,-0.3,-3.14,-0.23,-0.91,0.31,1.38,0.55
2.243,-0.01,0.95,-0.23,-3.14,-0.23,-0.91,0.31,1.38,0.55
2.244,-0.01,0.95,-0.23,-3.14,-0.23,-0.91,0.49,0.2,1.24
2.245,-0.01,0.95,-0.23,-1.98,-0.63,0.09,0.49,0.2,1.24
2.265,-0.01,0.95,-0.23,-1.98,-0.63,0.09,0.49,0.2,1.24
2.267,0.05,0.99,-0.14,-1.98,-0.63,0.09,0.49,0.2,1.24
2.281,-0.21,0.96,-0.15,-1.98,-0.63,0.09,0.49,0.2,1.24
2.282,-0.21,0.96,-0.15,-1.98,-0.63,0.09,0.51,1.19,1.3
2.283,-0.21,0.96,-0.15,-2.53,-0.64,0.33,0.51,1.19,1.3
2.301,-0.33,0.94,-0.26,-2.53,-0.64,0.33,0.51,1.19,1.3
2.312,-0.33,0.94,-0.26,-2.53,-0.64,0.33,0.51,1.19,1.3
2.321,-0.13,0.95,-0.32,-2.53,-0.64,0.33,0.51,1.19,1.3
2.322,-0.13,0.95,-0.32,-2.53,-0.64,0.33,0.56,0.92,1.27
2.322,-0.13,0.95,-0.32,-1.06,0.22,0.93,0.56,0.92,1.27
2.341,0.05,0.95,-0.32,-1.06,0.22,0.93,0.56,0.92,1.27
2.362,0.11,0.97,-0.28,-1.06,0.22,0.93,0.56,0.92,1.27
2.364,0.11,0.97,-0.28,-1.06,0.22,0.93,0.55,0.16,1.36
2.365,0.11,0.97,-0.28,0.08,0.18,-0.05,0.55,0.16,1.36
2.371,0.11,0.97,-0.28,0.08,0.18,-0.05,0.55,0.16,1.36
2.385,0.07,1.01,-0.29,0.08,0.18,-0.05,0.55,0.16,1.36
2.4,0.02,1.04,-0.34,0.08,0.18,-0.05,0.55,0.16,1.36
2.401,0.02,1.04,-0.34,0.08,0.18,-0.05,0.55,0.49,1.21
2.402,0.02,1.04,-0.34,-0.41,0.25,0.14,0.55,0.49,1.21
2.419,0.11,1.05,-0.42,-0.41,0.25,0.14,0.55,0.49,1.21
2.43,0.11,1.05,-0.42,-0.41,0.25,0.14,0.55,0.49,1.21
2.44,0.17,1.04,-0.41,-0.41,0.25,0.14,0.55,0.49,1.21
2.443,0.17,1.04,-0.41,-0.41,0.25,0.14,0.52,0.58,1.11
2.445,0.17,1.04,-0.41,-0.28,1.08,-0.11,0.52,0.58,1.11
2.47,0.01,1.04,-0.31,-0.28,1.08,-0.11,0.52,0.58,1.11
2.511,-0.23,1.07,-0.25,-0.28,1.08,-0.11,0.52,0.58,1.11
2.515,-0.23,1.07,-0.25,-0.28,1.08,-0.11,0.44,1.08,0.99
2.522,-0.23,1.07,-0.25,-1.55,1.33,0.25,0.44,1.08,0.99
2.524,-0.23,1.07,-0.25,-1.55,1.33,0.25,0.44,1.08,0.99
2.526,-0.35,1.15,-0.23,-1.55,1.33,0.25,0.44,1.08,0.99
2.527,-0.28,1.27,-0.2,-1.55,1.33,0.25,0.44,1.08,0.99
2.528,-0.28,1.27,-0.2,-1.55,1.33,0.25,0.47,1.26,1.34
2.528,-0.28,1.27,-0.2,-2.16,1.46,0.32,0.47,1.26,1.34
2.539,-0.08,1.27,-0.11,-2.16,1.46,0.32,0.47,1.26,1.34
2.556,-0.08,1.27,-0.11,-2.16,1.46,0.32,0.47,1.26,1.34
2.56,-0.08,1.27,-0.11,-5.05,3.43,1.83,0.47,1.26,1.34
2.583,0.14,1.25,-0.05,-5.05,3.43,1.83,0.47,1.26,1.34
2.585,0.14,1.25,-0.05,-5.05,3.43,1.83,0.56,0.64,2.12
2.586,0.12,1.27,-0.07,-5.05,3.43,1.83,0.56,0.64,2.12
2.6,0.1,1.5,-0.27,-5.05,3.43,1.83,0.56,0.64,2.12
2.603,0.1,1.5,-0.27,-5.05,3.43,1.83,0.65,0.89,2.46
2.604,0.1,1.5,-0.27,-2.51,4.83,2.36,0.65,0.89,2.46
2.611,0.1,1.5,-0.27,-2.51,4.83,2.36,0.65,0.89,2.46
2.618,-0.18,2.07,-0.14,-2.51,4.83,2.36,0.65,0.89,2.46
2.638,-0.85,1.56,-0.25,-2.51,4.83,2.36,0.65,0.89,2.46
2.641,-0.85,1.56,-0.25,-2.51,4.83,2.36,0.54,2.63,2.11
2.643,-0.85,1.56,-0.25,-3.49,5.16,2.06,0.54,2.63,2.11
2.665,-1.42,0.86,-0.8,-3.49,5.16,2.06,0.54,2.63,2.11
2.669,-1.42,0.86,-0.8,-3.49,5.16,2.06,0.54,2.63,2.11
2.677,-0.67,1.55,-0.54,-3.49,5.16,2.06,0.54,2.63,2.11
2.679,-0.67,1.55,-0.54,-3.49,5.16,2.06,0.54,3.68,1.37
2.681,-0.67,1.55,-0.54,-13.3,6.93,-1.1,0.54,3.68,1.37
2.696,0.94,2.04,-0.58,-13.3,6.93,-1.1,0.54,3.68,1.37
2.716,1.09,1.36,-0.91,-13.3,6.93,-1.1,0.54,3.68,1.37
2.72,1.09,1.36,-0.91,-13.3,6.93,-1.1,0.57,0.12,3.29
2.722,1.09,1.36,-0.91,-1.78,9.13,-3.63,0.57,0.12,3.29
2.731,1.09,1.36,-0.91,-1.78,9.13,-3.63,0.57,0.12,3.29
2.736,0.5,0.82,-0.35,-1.78,9.13,-3.63,0.57,0.12,3.29
2.756,0.15,0.47,-0.26,-1.78,9.13,-3.63,0.57,0.12,3.29
2.759,0.15,0.47,-0.26,-1.78,9.13,-3.63,0.33,-0.34,2.53
2.761,0.15,0.47,-0.26,-2.37,9.66,-3.4,0.33,-0.34,2.53
2.782,0.15,0.25,-0.56,-2.37,9.66,-3.4,0.33,-0.34,2.53
2.789,0.15,0.25,-0.56,-2.37,9.66,-3.4,0.33,-0.34,2.53
2.825,0.1,0.35,-0.32,-2.37,9.66,-3.4,0.33,-0.34,2.53
2.828,0.1,0.35,-0.32,-2.37,9.66,-3.4,-0.07,0.27,0.12
2.831,0.1,0.35,-0.32,-4.18,-1.47,-0.65,-0.07,0.27,0.12
2.833,0.18,0.51,-0.14,-4.18,-1.47,-0.65,-0.07,0.27,0.12
2.835,0.21,0.48,-0.3,-4.18,-1.47,-0.65,-0.07,0.27,0.12
2.837,0.21,0.48,-0.3,-4.18,-1.47,-0.65,-0.72,-0.69,-0.92
2.838,0.21,0.48,-0.3,-4.79,-2.39,0.64,-0.72,-0.69,-0.92
2.86,0.21,0.48,-0.3,-4.79,-2.39,0.64,-0.72,-0.69,-0.92
2.863,0.07,0.38,-0.3,-4.79,-2.39,0.64,-0.72,-0.69,-0.92
2.874,0.14,0.39,-0.21,-4.79,-2.39,0.64,-0.72,-0.69,-0.92
2.876,0.14,0.39,-0.21,-4.79,-2.39,0.64,-1.21,-1.36,-2.1
2.877,0.14,0.39,-0.21,-3.97,-2.98,0.62,-1.21,-1.36,-2.1
2.894,0.33,0.42,-0.19,-3.97,-2.98,0.62,-1.21,-1.36,-2.1
2.909,0.33,0.42,-0.19,-3.97,-2.98,0.62,-1.21,-1.36,-2.1
2.914,0.37,0.45,-0.21,-3.97,-2.98,0.62,-1.21,-1.36,-2.1
2.918,0.37,0.45,-0.21,-3.97,-2.98,0.62,-1.55,-2.01,-3.24
2.92,0.37,0.45,-0.21,-2.51,-4.21,0.71,-1.55,-2.01,-3.24
2.934,0.34,0.49,-0.27,-2.51,-4.21,0.71,-1.55,-2.01,-3.24
2.97,0.33,0.57,-0.33,-2.51,-4.21,0.71,-1.55,-2.01,-3.24
2.973,0.33,0.57,-0.33,-2.51,-4.21,0.71,-1.7,-1.97,-4.02
2.975,0.33,0.57,-0.33,0.69,-3.89,0.08,-1.7,-1.97,-4.02
2.977,0.33,0.57,-0.33,0.69,-3.89,0.08,-1.7,-1.97,-4.02
2.978,0.36,0.69,-0.35,0.69,-3.89,0.08,-1.7,-1.97,-4.02
3.005,0.49,0.84,-0.4,0.69,-3.89,0.08,-1.7,-1.97,-4.02
3.009,0.49,0.84,-0.4,0.69,-3.89,0.08,-1.91,-2.2,-4.77
3.011,0.49,0.84,-0.4,2.58,-4.33,-0.45,-1.91,-2.2,-4.77
3.013,0.72,1.06,-0.5,2.58,-4.33,-0.45,-1.91,-2.2,-4.77
3.037,0.72,1.06,-0.5,2.58,-4.33,-0.45,-1.91,-2.2,-4.77
3.038,0.98,1.3,-0.51,2.58,-4.33,-0.45,-1.91,-2.2,-4.77
3.039,0.98,1.3,-0.51,2.58,-4.33,-0.45,-2.12,-2.36,-5.24
3.04,0.98,1.3,-0.51,6.33,-0.89,-2.64,-2.12,-2.36,-5.24
3.059,0.99,1.43,-0.65,6.33,-0.89,-2.64,-2.12,-2.36,-5.24
3.071,0.83,1.49,-0.65,6.33,-0.89,-2.64,-2.12,-2.36,-5.24
3.072,0.83,1.49,-0.65,6.33,-0.89,-2.64,-2.01,-1.03,-5.13
3.072,0.83,1.49,-0.65,12.05,4.75,-5.19,-2.01,-1.03,-5.13
3.088,0.83,1.49,-0.65,12.05,4.75,-5.19,-2.01,-1.03,-5.13
3.091,0.49,1.45,-0.71,12.05,4.75,-5.19,-2.01,-1.03,-5.13
3.112,0.32,1.19,-0.6,12.05,4.75,-5.19,-2.01,-1.03,-5.13
3.115,0.32,1.19,-0.6,12.05,4.75,-5.19,-1.16,0.26,-3.96
3.118,0.32,1.19,-0.6,13.2,5.2,-5.46,-1.16,0.26,-3.96
3.134,0.61,0.92,-0.5,13.2,5.2,-5.46,-1.16,0.26,-3.96
3.151,0.61,0.92,-0.5,13.2,5.2,-5.46,-1.16,0.26,-3.96
3.155,1.07,0.78,-0.63,13.2,5.2,-5.46,-1.16,0.26,-3.96
3.157,1.07,0.78,-0.63,13.2,5.2,-5.46,0.18,-0.83,-0.79
3.159,1.07,0.78,-0.63,8.77,3.09,-5.45,0.18,-0.83,-0.79
3.181,-0.37,1.93,1.46,8.77,3.09,-5.45,0.18,-0.83,-0.79
3.19,-2.52,2.43,-0.18,8.77,3.09,-5.45,0.18,-0.83,-0.79
3.191,-2.52,2.43,-0.18,8.77,3.09,-5.45,0.8,0.19,1.5
3.192,-2.52,2.43,-0.18,-2.27,7.9,2.81,0.8,0.19,1.5
3.223,-2.52,2.43,-0.18,-2.27,7.9,2.81,0.8,0.19,1.5
3.226,-1.43,0.1,-1.49,-2.27,7.9,2.81,0.8,0.19,1.5
3.235,0.41,0.56,-0.61,-2.27,7.9,2.81,0.8,0.19,1.5
3.237,0.41,0.56,-0.61,-2.27,7.9,2.81,1.49,-1.72,0.64
3.238,0.41,0.56,-0.61,-2.39,7.73,3.04,1.49,-1.72,0.64
3.258,2.19,2.16,-0.01,-2.39,7.73,3.04,1.49,-1.72,0.64
3.288,2.19,2.16,-0.01,-2.39,7.73,3.04,1.49,-1.72,0.64
3.29,0.98,1.1,-0.13,-2.39,7.73,3.04,1.49,-1.72,0.64
3.29,0.98,1.1,-0.13,-2.39,7.73,3.04,1.44,-4.15,2.77
3.291,0.98,1.1,-0.13,6.43,-0.12,-5.84,1.44,-4.15,2.77
3.292,0.32,0.47,-0.82,6.43,-0.12,-5.84,1.44,-4.15,2.77
3.308,-0.7,1.11,-0.62,6.43,-0.12,-5.84,1.44,-4.15,2.77
3.31,-0.7,1.11,-0.62,6.43,-0.12,-5.84,1.22,2.1,0.71
3.31,-0.7,1.11,-0.62,4.1,-0.58,-3.39,1.22,2.1,0.71
3.328,-0.7,1.11,-0.62,4.1,-0.58,-3.39,1.22,2.1,0.71
3.35,-1.42,1.09,-0.18,4.1,-0.58,-3.39,1.22,2.1,0.71
3.354,-0.25,0.81,-0.06,4.1,-0.58,-3.39,1.22,2.1,0.71
3.356,-0.25,0.81,-0.06,4.1,-0.58,-3.39,0.57,2.08,0.13
3.357,-0.25,0.81,-0.06,3.83,-0.54,-2.96,0.57,2.08,0.13
3.368,-0.19,0.77,-0.09,3.83,-0.54,-2.96,0.57,2.08,0.13
3.387,-0.43,0.89,-0.27,3.83,-0.54,-2.96,0.57,2.08,0.13
3.389,-0.43,0.89,-0.27,3.83,-0.54,-2.96,0.5,-0.42,1.14
3.389,-0.43,0.89,-0.27,3.83,-0.54,-2.96,0.5,-0.42,1.14
3.39,-0.43,0.89,-0.27,-4.52,-0.59,1.23,0.5,-0.42,1.14
3.408,-0.2,0.95,-0.33,-4.52,-0.59,1.23,0.5,-0.42,1.14
3.428,-0.19,0.96,-0.22,-4.52,-0.59,1.23,0.5,-0.42,1.14
3.43,-0.19,0.96,-0.22,-4.52,-0.59,1.23,0.75,1.19,1.26
3.432,-0.19,0.96,-0.22,-1.68,-0.14,-0.04,0.75,1.19,1.26
3.457,-0.24,0.96,-0.2,-1.68,-0.14,-0.04,0.75,1.19,1.26
3.462,-0.24,0.96,-0.2,-1.68,-0.14,-0.04,0.75,1.19,1.26
3.49,-0.08,0.97,-0.3,-1.68,-0.14,-0.04,0.75,1.19,1.26
3.492,-0.08,0.97,-0.3,-2.23,-0.09,0.25,0.75,1.19,1.26
3.493,-0.08,0.97,-0.3,-2.23,-0.09,0.25,0.71,0.87,1.34
3.494,0.12,0.97,-0.4,-2.23,-0.09,0.25,0.71,0.87,1.34
3.506,0.19,0.98,-0.39,-2.23,-0.09,0.25,0.71,0.87,1.34
3.507,0.19,0.98,-0.39,-2.23,-0.09,0.25,0.68,-0.03,1.43
3.508,0.19,0.98,-0.39,-0.71,0.25,0.24,0.68,-0.03,1.43
3.508,0.19,0.98,-0.39,-0.71,0.25,0.24,0.68,-0.03,1.43
3.526,0.16,1.04,-0.37,-0.71,0.25,0.24,0.68,-0.03,1.43
3.55,0.16,1.04,-0.37,0.95,0.94,-0.35,0.68,-0.03,1.43
3.552,0.1,1.06,-0.38,0.95,0.94,-0.35,0.68,-0.03,1.43
3.553,0.1,1.06,-0.38,0.95,0.94,-0.35,0.6,0.48,1.11
3.588,0.11,1.04,-0.41,0.95,0.94,-0.35,0.6,0.48,1.11
3.59,0.11,1.04,-0.41,0.95,0.94,-0.35,0.6,0.48,1.11
3.591,0.05,1.04,-0.38,0.95,0.94,-0.35,0.6,0.48,1.11
3.592,0.05,1.04,-0.38,0.95,0.94,-0.35,0.48,0.71,0.9
3.594,0.05,1.04,-0.38,0.52,1.01,-0.19,0.48,0.71,0.9
3.604,-0.18,1.03,-0.29,0.52,1.01,-0.19,0.48,0.71,0.9
3.624,-0.39,1.01,-0.25,0.52,1.01,-0.19,0.48,0.71,0.9
3.625,-0.39,1.01,-0.25,0.52,1.01,-0.19,0.43,1.13,0.92
3.625,-0.39,1.01,-0.25,-1.49,1.18,0.09,0.43,1.13,0.92
3.628,-0.39,1.01,-0.25,-1.49,1.18,0.09,0.43,1.13,0.92
3.644,-0.4,1.12,-0.26,-1.49,1.18,0.09,0.43,1.13,0.92
3.664,-0.4,1.12,-0.26,-5.39,2.42,1.45,0.43,1.13,0.92
3.667,-0.23,1.31,-0.19,-5.39,2.42,1.45,0.43,1.13,0.92
3.667,-0.23,1.31,-0.19,-5.39,2.42,1.45,0.58,1.33,1.52
3.683,-0.1,1.38,-0.07,-5.39,2.42,1.45,0.58,1.33,1.52
3.687,-0.1,1.38,-0.07,-5.39,2.42,1.45,0.58,1.33,1.52
3.704,0.01,1.25,-0.03,-5.39,2.42,1.45,0.58,1.33,1.52
3.707,0.01,1.25,-0.03,-5.39,2.42,1.45,0.72,1.04,2.3
3.71,0.01,1.25,-0.03,-6.22,2.71,1.57,0.72,1.04,2.3
3.723,0.13,1.24,-0.12,-6.22,2.71,1.57,0.72,1.04,2.3
3.744,0.07,1.69,-0.25,-6.22,2.71,1.57,0.72,1.04,2.3
3.747,0.07,1.69,-0.25,-6.22,2.71,1.57,0.82,1.13,2.71
3.748,0.07,1.69,-0.25,-3.76,4.53,3.18,0.82,1.13,2.71
3.75,0.07,1.69,-0.25,-3.76,4.53,3.18,0.82,1.13,2.71
3.776,-0.18,2.08,-0.23,-3.76,4.53,3.18,0.82,1.13,2.71
3.787,-0.18,2.08,-0.23,-8.59,9.53,0.28,0.82,1.13,2.71
3.788,-1.02,1.53,-0.52,-8.59,9.53,0.28,0.82,1.13,2.71
3.788,-1.02,1.53,-0.52,-8.59,9.53,0.28,0.79,3.28,2.17
3.815,-1.61,1.2,-1.06,-8.59,9.53,0.28,0.79,3.28,2.17
3.82,-1.61,1.2,-1.06,-8.59,9.53,0.28,0.79,3.28,2.17
3.823,-0.44,1.99,-0.48,-8.59,9.53,0.28,0.79,3.28,2.17
3.825,-0.44,1.99,-0.48,-8.59,9.53,0.28,0.65,4.31,1.52
3.827,-0.44,1.99,-0.48,-9.44,9.77,-0.44,0.65,4.31,1.52
3.842,1.18,1.8,-0.61,-9.44,9.77,-0.44,0.65,4.31,1.52
3.863,1.14,1.05,-0.66,-9.44,9.77,-0.44,0.65,4.31,1.52
3.865,1.14,1.05,-0.66,-9.44,9.77,-0.44,0.63,-0.09,3.54
3.866,1.14,1.05,-0.66,-9.42,9.57,-3.91,0.63,-0.09,3.54
3.867,1.14,1.05,-0.66,-9.42,9.57,-3.91,0.63,-0.09,3.54
3.887,0.47,0.57,-0.11,-9.42,9.57,-3.91,0.63,-0.09,3.54
3.902,0.42,0.16,-0.27,-9.42,9.57,-3.91,0.63,-0.09,3.54
3.904,0.42,0.16,-0.27,-9.42,9.57,-3.91,0.43,-0.18,1.75
3.905,0.42,0.16,-0.27,-0.32,-0.38,-0.14,0.43,-0.18,1.75
3.921,0.3,0.26,-0.22,-0.32,-0.38,-0.14,0.43,-0.18,1.75
3.927,0.3,0.26,-0.22,-0.32,-0.38,-0.14,0.43,-0.18,1.75
3.942,0.1,0.48,0.18,-0.32,-0.38,-0.14,0.43,-0.18,1.75
3.944,0.1,0.48,0.18,-0.32,-0.38,-0.14,0.12,0.95,-0.81
3.945,0.1,0.48,0.18,-0.23,-0.58,-0.37,0.12,0.95,-0.81
3.967,0.15,0.43,-0.06,-0.23,-0.58,-0.37,0.12,0.95,-0.81
4.009,0.03,0.22,-0.12,-0.23,-0.58,-0.37,0.12,0.95,-0.81
4.012,0.03,0.22,-0.12,-0.23,-0.58,-0.37,-0.39,0.32,-1.73
4.013,0.03,0.22,-0.12,-4.6,-3.04,2.48,-0.39,0.32,-1.73
4.014,0.03,0.22,-0.12,-4.6,-3.04,2.48,-0.39,0.32,-1.73
4.016,0.11,0.24,-0.04,-4.6,-3.04,2.48,-0.39,0.32,-1.73
4.022,0.33,0.43,-0.11,-4.6,-3.04,2.48,-0.39,0.32,-1.73
4.025,0.33,0.43,-0.11,-4.6,-3.04,2.48,-0.65,-1.49,-2.96
4.028,0.33,0.43,-0.11,-3.77,-4.63,2.07,-0.65,-1.49,-2.96
4.039,0.43,0.54,-0.12,-3.77,-4.63,2.07,-0.65,-1.49,-2.96
4.063,0.43,0.54,-0.12,-3.77,-4.63,2.07,-0.65,-1.49,-2.96
4.066,0.37,0.55,-0.07,-3.77,-4.63,2.07,-0.65,-1.49,-2.96
4.067,0.37,0.55,-0.07,-3.77,-4.63,2.07,-0.97,-2.15,-3.83
4.07,0.37,0.55,-0.07,-2.27,-5.35,2.11,-0.97,-2.15,-3.83
4.08,0.33,0.52,-0.1,-2.27,-5.35,2.11,-0.97,-2.15,-3.83
4.11,0.46,0.61,-0.23,-2.27,-5.35,2.11,-0.97,-2.15,-3.83
4.114,0.46,0.61,-0.23,-2.27,-5.35,2.11,-1.32,-2.01,-4.5
4.116,0.46,0.61,-0.23,1.63,-3.62,1.81,-1.32,-2.01,-4.5
4.119,0.46,0.61,-0.23,1.63,-3.62,1.81,-1.32,-2.01,-4.5
4.121,0.71,0.83,-0.31,1.63,-3.62,1.81,-1.32,-2.01,-4.5
4.153,0.93,1.07,-0.37,1.63,-3.62,1.81,-1.32,-2.01,-4.5
4.157,0.93,1.07,-0.37,1.63,-3.62,1.81,-1.79,-2.01,-5.25
4.158,0.93,1.07,-0.37,6.77,-1.03,-0.79,-1.79,-2.01,-5.25
4.161,0.95,1.26,-0.65,6.77,-1.03,-0.79,-1.79,-2.01,-5.25
4.187,0.95,1.26,-0.65,6.77,-1.03,-0.79,-1.79,-2.01,-5.25
4.19,0.94,1.56,-0.71,6.77,-1.03,-0.79,-1.79,-2.01,-5.25
4.194,0.94,1.56,-0.71,6.77,-1.03,-0.79,-2.08,-1.38,-5.72
4.195,0.94,1.56,-0.71,8.81,-0.94,-1.58,-2.08,-1.38,-5.72
4.199,1.07,1.79,-0.7,8.81,-0.94,-1.58,-2.08,-1.38,-5.72
4.218,0.57,1.46,-0.68,8.81,-0.94,-1.58,-2.08,-1.38,-5.72
4.22,0.57,1.46,-0.68,8.81,-0.94,-1.58,-1.82,-0.58,-5.06
4.221,0.57,1.46,-0.68,13.18,6.3,-5.94,-1.82,-0.58,-5.06
4.227,0.57,1.46,-0.68,13.18,6.3,-5.94,-1.82,-0.58,-5.06
4.237,0.13,1.2,-0.63,13.18,6.3,-5.94,-1.82,-0.58,-5.06
4.259,0.84,0.85,-0.57,13.18,6.3,-5.94,-1.82,-0.58,-5.06
4.261,0.84,0.85,-0.57,13.18,6.3,-5.94,-0.47,-1.01,-2.27
4.262,0.84,0.85,-0.57,9.19,2.97,-5.59,-0.47,-1.01,-2.27
4.285,1.21,0.9,-0.64,9.19,2.97,-5.59,-0.47,-1.01,-2.27
4.287,1.21,0.9,-0.64,9.19,2.97,-5.59,-0.47,-1.01,-2.27
4.299,-1.65,2.28,1.82,9.19,2.97,-5.59,-0.47,-1.01,-2.27
4.3,-1.65,2.28,1.82,9.19,2.97,-5.59,0.74,-1.87,1.55
4.301,-1.65,2.28,1.82,8.56,2.7,-5.54,0.74,-1.87,1.55
4.317,-2.51,1.24,-1.54,8.56,2.7,-5.54,0.74,-1.87,1.55
4.338,-0.94,-0.08,-1.24,8.56,2.7,-5.54,0.74,-1.87,1.55
4.342,-0.94,-0.08,-1.24,8.56,2.7,-5.54,1.47,-0.37,0.34
4.344,-0.94,-0.08,-1.24,-6.1,5.58,-0.09,1.47,-0.37,0.34
4.369,-0.94,-0.08,-1.24,-6.1,5.58,-0.09,1.47,-0.37,0.34
4.372,2.61,1.95,0.15,-6.1,5.58,-0.09,1.47,-0.37,0.34
4.378,2.5,1.83,0.11,-6.1,5.58,-0.09,1.47,-0.37,0.34
4.38,2.5,1.83,0.11,-6.1,5.58,-0.09,1.44,-4.27,2.84
4.381,2.5,1.83,0.11,16.02,2.92,-2.12,1.44,-4.27,2.84
4.409,-0.19,0.24,-0.84,16.02,2.92,-2.12,1.44,-4.27,2.84
4.41,-0.19,0.24,-0.84,16.02,2.92,-2.12,1.44,-4.27,2.84
4.421,-0.19,0.24,-0.84,15.3,2.85,-1.5,1.44,-4.27,2.84
4.423,-0.81,0.87,-0.98,15.3,2.85,-1.5,1.44,-4.27,2.84
4.424,-0.81,0.87,-0.98,15.3,2.85,-1.5,1.3,1.5,1.03
4.436,-1.39,1.25,-0.33,15.3,2.85,-1.5,1.3,1.5,1.03
4.462,-0.38,0.85,0.04,15.3,2.85,-1.5,1.3,1.5,1.03
4.465,-0.38,0.85,0.04,15.3,2.85,-1.5,0.49,2.21,-0.03
4.467,-0.38,0.85,0.04,-6.13,-1.47,-4.9,0.49,2.21,-0.03
4.47,-0.38,0.85,0.04,-6.13,-1.47,-4.9,0.49,2.21,-0.03
4.474,-0.11,0.69,0.03,-6.13,-1.47,-4.9,0.49,2.21,-0.03
4.498,-0.47,0.88,-0.28,-6.13,-1.47,-4.9,0.49,2.21,-0.03
4.5,-0.47,0.88,-0.28,-6.13,-1.47,-4.9,0.33,-0.37,1.13
4.501,-0.47,0.88,-0.28,-1.82,-1.31,1.51,0.33,-0.37,1.13
4.513,-0.19,1.03,-0.33,-1.82,-1.31,1.51,0.33,-0.37,1.13
4.526,-0.19,1.03,-0.33,-1.82,-1.31,1.51,0.33,-0.37,1.13
4.534,-0.03,1,-0.17,-1.82,-1.31,1.51,0.33,-0.37,1.13
4.537,-0.03,1,-0.17,-1.82,-1.31,1.51,0.66,1.07,1.34
4.54,-0.03,1,-0.17,-2.37,-1.28,1.76,0.66,1.07,1.34
4.554,-0.16,0.94,-0.2,-2.37,-1.28,1.76,0.66,1.07,1.34
4.589,-0.26,0.92,-0.26,-2.37,-1.28,1.76,0.66,1.07,1.34
4.593,-0.26,0.92,-0.26,-2.37,-1.28,1.76,0.64,1.19,1.35
4.595,-0.26,0.92,-0.26,-1.08,0.57,0.44,0.64,1.19,1.35
4.597,-0.26,0.92,-0.26,-1.08,0.57,0.44,0.64,1.19,1.35
4.598,-0.07,0.94,-0.33,-1.08,0.57,0.44,0.64,1.19,1.35
4.612,0.14,0.95,-0.33,-1.08,0.57,0.44,0.64,1.19,1.35
4.613,0.14,0.95,-0.33,-1.08,0.57,0.44,0.65,0.18,1.44
4.614,0.14,0.95,-0.33,-0.97,0.13,-0.07,0.65,0.18,1.44
4.635,0.16,1.01,-0.34,-0.97,0.13,-0.07,0.65,0.18,1.44
4.646,0.16,1.01,-0.34,-0.97,0.13,-0.07,0.65,0.18,1.44
4.657,0.16,1.01,-0.34,-1.45,0.23,0.15,0.65,0.18,1.44
4.659,0.11,1.07,-0.38,-1.45,0.23,0.15,0.65,0.18,1.44
4.66,0.11,1.07,-0.38,-1.45,0.23,0.15,0.65,0.26,1.33
4.68,0.13,1.06,-0.42,-1.45,0.23,0.15,0.65,0.26,1.33
4.691,0.15,1.05,-0.39,-1.45,0.23,0.15,0.65,0.26,1.33
4.692,0.15,1.05,-0.39,-1.45,0.23,0.15,0.55,0.63,1.12
4.692,0.15,1.05,-0.39,0.05,1.39,-0.39,0.55,0.63,1.12
4.706,0.15,1.05,-0.39,0.05,1.39,-0.39,0.55,0.63,1.12
4.71,-0.02,1.06,-0.28,0.05,1.39,-0.39,0.55,0.63,1.12
4.732,-0.33,1.07,-0.21,0.05,1.39,-0.39,0.55,0.63,1.12
4.735,-0.33,1.07,-0.21,0.05,1.39,-0.39,0.49,1.21,1.01
4.738,-0.33,1.07,-0.21,-2.42,1.63,0.54,0.49,1.21,1.01
4.774,-0.43,1.2,-0.18,-2.42,1.63,0.54,0.49,1.21,1.01
4.778,-0.43,1.2,-0.18,-2.42,1.63,0.54,0.49,1.21,1.01
4.779,-0.3,1.39,-0.1,-2.42,1.63,0.54,0.49,1.21,1.01
4.779,-0.3,1.39,-0.1,-3.09,1.81,0.61,0.49,1.21,1.01
4.78,-0.3,1.39,-0.1,-3.09,1.81,0.61,0.57,1.38,1.56
4.814,-0.17,1.44,-0.01,-3.09,1.81,0.61,0.57,1.38,1.56
4.816,-0.1,1.34,0.03,-3.09,1.81,0.61,0.57,1.38,1.56
4.818,-0.1,1.34,0.03,-3.09,1.81,0.61,0.7,0.93,2.52
4.82,-0.1,1.34,0.03,-6.24,4.89,2.64,0.7,0.93,2.52
4.825,-0.1,1.34,0.03,-6.24,4.89,2.64,0.7,0.93,2.52
4.829,-0.01,1.38,-0.11,-6.24,4.89,2.64,0.7,0.93,2.52
4.871,-0.02,1.97,-0.15,-6.24,4.89,2.64,0.7,0.93,2.52
4.874,-0.02,1.97,-0.15,-6.24,4.89,2.64,0.84,1.25,3.02
4.877,-0.02,1.97,-0.15,-4.79,7.49,2.83,0.84,1.25,3.02
4.877,-0.51,2.17,-0.35,-4.79,7.49,2.83,0.84,1.25,3.02
4.918,-0.51,2.17,-0.35,-4.79,7.49,2.83,0.84,1.25,3.02
4.921,-1.6,1.28,-1.08,-4.79,7.49,2.83,0.84,1.25,3.02
4.923,-1.6,1.28,-1.08,-4.79,7.49,2.83,0.79,3.73,2.23
4.925,-1.6,1.28,-1.08,-5.86,7.9,2.3,0.79,3.73,2.23
4.927,-1.42,1.51,-0.95,-5.86,7.9,2.3,0.79,3.73,2.23
4.929,0.58,2.1,-0.57,-5.86,7.9,2.3,0.79,3.73,2.23
4.931,0.58,2.1,-0.57,-5.86,7.9,2.3,0.56,3.04,2
4.933,0.58,2.1,-0.57,-17.57,9.16,-5.18,0.56,3.04,2
4.946,0.58,2.1,-0.57,-17.57,9.16,-5.18,0.56,3.04,2
4.948,1.63,1.39,-0.85,-17.57,9.16,-5.18,0.56,3.04,2
4.97,1.63,1.39,-0.85,2.95,7.65,-2.49,0.56,3.04,2
4.973,0.81,0.74,-0.28,2.95,7.65,-2.49,0.56,3.04,2
4.974,0.81,0.74,-0.28,2.95,7.65,-2.49,0.47,-1.21,3.72
4.995,0.45,0.21,-0.03,2.95,7.65,-2.49,0.47,-1.21,3.72
5.005,0.45,0.21,-0.03,2.95,7.65,-2.49,0.47,-1.21,3.72
5.007,0.58,0.07,-0.49,2.95,7.65,-2.49,0.47,-1.21,3.72
5.008,0.58,0.07,-0.49,2.95,7.65,-2.49,0.08,0.03,0.76
5.009,0.58,0.07,-0.49,2.72,7.74,-2.44,0.08,0.03,0.76
5.028,0.16,0.39,0.15,2.72,7.74,-2.44,0.08,0.03,0.76
5.048,0.07,0.49,0.06,2.72,7.74,-2.44,0.08,0.03,0.76
5.05,0.07,0.49,0.06,2.72,7.74,-2.44,-0.31,1.16,-1.31
5.051,0.07,0.49,0.06,-2.98,-4.24,1.48,-0.31,1.16,-1.31
5.077,0.07,0.49,0.06,-2.98,-4.24,1.48,-0.31,1.16,-1.31
5.079,-0.04,0.29,-0.18,-2.98,-4.24,1.48,-0.31,1.16,-1.31
5.107,-0.01,0.17,-0.07,-2.98,-4.24,1.48,-0.31,1.16,-1.31
5.109,-0.01,0.17,-0.07,-2.98,-4.24,1.48,-0.68,-0.02,-2.29
5.11,-0.01,0.17,-0.07,-6.11,-3.89,1.85,-0.68,-0.02,-2.29
5.111,0.27,0.33,-0.04,-6.11,-3.89,1.85,-0.68,-0.02,-2.29
5.125,0.27,0.33,-0.04,-6.11,-3.89,1.85,-0.68,-0.02,-2.29
5.126,0.46,0.51,-0.09,-6.11,-3.89,1.85,-0.68,-0.02,-2.29
5.127,0.46,0.51,-0.09,-6.11,-3.89,1.85,-0.91,-2.2,-3.44
5.127,0.46,0.51,-0.09,-4.79,-4.66,2.03,-0.91,-2.2,-3.44
5.145,0.47,0.55,-0.03,-4.79,-4.66,2.03,-0.91,-2.2,-3.44
5.164,0.47,0.49,-0.06,-4.79,-4.66,2.03,-0.91,-2.2,-3.44
5.165,0.47,0.49,-0.06,-4.79,-4.66,2.03,-1.27,-2.31,-4.26
5.166,0.47,0.49,-0.06,0.68,-4,2.09,-1.27,-2.31,-4.26
5.185,0.47,0.49,-0.06,0.68,-4,2.09,-1.27,-2.31,-4.26
5.186,0.55,0.48,-0.13,0.68,-4,2.09,-1.27,-2.31,-4.26
5.204,0.63,0.58,-0.2,0.68,-4,2.09,-1.27,-2.31,-4.26
5.205,0.63,0.58,-0.2,0.68,-4,2.09,-1.63,-1.73,-5.1
5.206,0.63,0.58,-0.2,4.07,-4,0.86,-1.63,-1.73,-5.1
5.224,0.91,0.85,-0.47,4.07,-4,0.86,-1.63,-1.73,-5.1
5.245,1.13,1.27,-0.59,4.07,-4,0.86,-1.63,-1.73,-5.1
5.247,1.13,1.27,-0.59,4.07,-4,0.86,-1.93,-1.38,-5.86
5.248,1.13,1.27,-0.59,6.2,-4.13,0.17,-1.93,-1.38,-5.86
5.249,1.13,1.27,-0.59,6.2,-4.13,0.17,-1.93,-1.38,-5.86
5.269,1.08,1.69,-0.68,6.2,-4.13,0.17,-1.93,-1.38,-5.86
5.291,1.09,1.86,-0.72,6.2,-4.13,0.17,-1.93,-1.38,-5.86
5.293,1.09,1.86,-0.72,6.2,-4.13,0.17,-1.96,-0.66,-6.02
5.294,1.09,1.86,-0.72,12.92,3.54,-4.85,-1.96,-0.66,-6.02
5.304,0.52,1.68,-0.61,12.92,3.54,-4.85,-1.96,-0.66,-6.02
5.306,0.52,1.68,-0.61,12.92,3.54,-4.85,-1.96,-0.66,-6.02
5.326,0.52,1.68,-0.61,9.08,7.25,-5.89,-1.96,-0.66,-6.02
5.329,-0.09,1.26,-0.62,9.08,7.25,-5.89,-1.96,-0.66,-6.02
5.331,-0.09,1.26,-0.62,9.08,7.25,-5.89,-1.3,-0.13,-4.37
5.344,0.5,0.78,-0.59,9.08,7.25,-5.89,-1.3,-0.13,-4.37
5.372,1.43,0.67,-0.72,9.08,7.25,-5.89,-1.3,-0.13,-4.37
5.376,1.43,0.67,-0.72,9.08,7.25,-5.89,0.16,-2.84,-0.24
5.377,1.43,0.67,-0.72,9.03,7.17,-6.21,0.16,-2.84,-0.24
5.378,1.43,0.67,-0.72,9.03,7.17,-6.21,0.16,-2.84,-0.24
5.382,-0.63,2.14,2.16,9.03,7.17,-6.21,0.16,-2.84,-0.24
5.402,-2.46,2.1,-1.36,9.03,7.17,-6.21,0.16,-2.84,-0.24
5.403,-2.46,2.1,-1.36,9.03,7.17,-6.21,1.03,-0.75,1.92
5.404,-2.46,2.1,-1.36,7.51,2.86,3.08,1.03,-0.75,1.92
5.423,-1.63,-0.16,-0.82,7.51,2.86,3.08,1.03,-0.75,1.92
5.426,-1.63,-0.16,-0.82,7.51,2.86,3.08,1.03,-0.75,1.92
5.443,0.42,0.58,-0.37,7.51,2.86,3.08,1.03,-0.75,1.92
5.445,0.42,0.58,-0.37,7.51,2.86,3.08,1.6,-0.89,0.64
5.447,0.42,0.58,-0.37,-8.79,-0.62,-7.42,1.6,-0.89,0.64
5.478,2.07,2.08,-0.24,-8.79,-0.62,-7.42,1.6,-0.89,0.64
5.482,1.24,1.21,0,-8.79,-0.62,-7.42,1.6,-0.89,0.64
5.484,1.24,1.21,0,-8.79,-0.62,-7.42,1.4,-3.67,2.81
5.486,1.24,1.21,0,-9.49,-0.86,-7.2,1.4,-3.67,2.81
5.488,1.24,1.21,0,-9.49,-0.86,-7.2,1.4,-3.67,2.81
5.505,0.2,0.58,-0.73,-9.49,-0.86,-7.2,1.4,-3.67,2.81
5.521,-0.51,1.06,-0.78,-9.49,-0.86,-7.2,1.4,-3.67,2.81
5.524,-0.51,1.06,-0.78,-9.49,-0.86,-7.2,1.31,1.31,0.65
5.525,-0.51,1.06,-0.78,13.41,3.48,-1.45,1.31,1.31,0.65
5.54,-1.01,1.17,-0.46,13.41,3.48,-1.45,1.31,1.31,0.65
5.544,-1.01,1.17,-0.46,13.41,3.48,-1.45,1.31,1.31,0.65
5.563,-0.37,0.82,-0.02,13.41,3.48,-1.45,1.31,1.31,0.65
5.565,-0.37,0.82,-0.02,13.41,3.48,-1.45,0.59,2.17,-0.06
5.567,-0.37,0.82,-0.02,-4.29,0.83,-1.97,0.59,2.17,-0.06
5.602,-0.33,0.74,-0.01,-4.29,0.83,-1.97,0.59,2.17,-0.06
5.603,-0.41,0.95,-0.28,-4.29,0.83,-1.97,0.59,2.17,-0.06
5.603,-0.41,0.95,-0.28,-4.29,0.83,-1.97,0.29,-0.12,0.8
5.604,-0.41,0.95,-0.28,-4.5,0.79,-1.84,0.29,-0.12,0.8
5.605,-0.41,0.95,-0.28,-4.5,0.79,-1.84,0.29,-0.12,0.8
5.62,-0.07,1.02,-0.33,-4.5,0.79,-1.84,0.29,-0.12,0.8
5.64,-0.01,0.98,-0.22,-4.5,0.79,-1.84,0.29,-0.12,0.8
5.642,-0.01,0.98,-0.22,-4.5,0.79,-1.84,0.49,1.05,1.03
5.645,-0.01,0.98,-0.22,-1.41,-0.34,0.45,0.49,1.05,1.03
5.666,-0.21,0.96,-0.14,-1.41,-0.34,0.45,0.49,1.05,1.03
5.67,-0.21,0.96,-0.14,-1.41,-0.34,0.45,0.49,1.05,1.03
5.679,-0.44,0.93,-0.16,-1.41,-0.34,0.45,0.49,1.05,1.03
5.681,-0.44,0.93,-0.16,-1.41,-0.34,0.45,0.44,1.73,1
5.682,-0.44,0.93,-0.16,-1.44,0.18,1.02,0.44,1.73,1
5.699,-0.44,0.91,-0.3,-1.44,0.18,1.02,0.44,1.73,1
5.72,-0.44,0.91,-0.3,-1.91,0.22,1.21,0.44,1.73,1
5.722,-0.08,0.91,-0.33,-1.91,0.22,1.21,0.44,1.73,1
5.724,-0.08,0.91,-0.33,-1.91,0.22,1.21,0.54,0.46,1.23
5.725,-0.08,0.91,-0.33,-1.91,0.22,1.21,0.54,0.46,1.23
5.739,0.15,0.97,-0.25,-1.91,0.22,1.21,0.54,0.46,1.23
5.758,0.04,1,-0.21,-1.91,0.22,1.21,0.54,0.46,1.23
5.76,0.04,1,-0.21,-1.91,0.22,1.21,0.58,0,1.37
5.76,0.04,1,-0.21,-1.4,0.02,0.24,0.58,0,1.37
5.78,-0.05,1.01,-0.28,-1.4,0.02,0.24,0.58,0,1.37
5.799,-0.05,1.01,-0.28,-1.4,0.02,0.24,0.58,0,1.37
5.801,0.06,1.03,-0.4,-1.4,0.02,0.24,0.58,0,1.37
5.802,0.06,1.03,-0.4,-1.4,0.02,0.24,0.69,0.45,1.31
5.802,0.06,1.03,-0.4,-0.56,0.95,0.44,0.69,0.45,1.31
5.818,0.22,1.04,-0.4,-0.56,0.95,0.44,0.69,0.45,1.31
5.838,0.17,1.08,-0.37,-0.56,0.95,0.44,0.69,0.45,1.31
5.841,0.17,1.08,-0.37,-1.07,1.08,0.64,0.69,0.45,1.31
5.842,0.17,1.08,-0.37,-1.07,1.08,0.64,0.67,0.48,1.32
5.844,0.17,1.08,-0.37,-1.07,1.08,0.64,0.67,0.48,1.32
5.857,-0.15,1.09,-0.32,-1.07,1.08,0.64,0.67,0.48,1.32
5.877,-0.15,1.09,-0.32,-1.11,1.77,0.12,0.67,0.48,1.32
5.903,-0.35,1.16,-0.29,-1.11,1.77,0.12,0.67,0.48,1.32
5.904,-0.35,1.16,-0.29,-1.11,1.77,0.12,0.61,1.41,1.33
5.905,-0.31,1.35,-0.2,-1.11,1.77,0.12,0.61,1.41,1.33
5.906,-0.31,1.35,-0.2,-1.11,1.77,0.12,0.61,1.41,1.33
5.916,-0.12,1.42,-0.02,-1.11,1.77,0.12,0.61,1.41,1.33
5.917,-0.12,1.42,-0.02,-1.11,1.77,0.12,0.62,1.58,1.91
5.917,-0.12,1.42,-0.02,-5.23,4.3,2.02,0.62,1.58,1.91
5.937,0.1,1.34,0.07,-5.23,4.3,2.02,0.62,1.58,1.91
5.956,0.08,1.62,-0.12,-5.23,4.3,2.02,0.62,1.58,1.91
5.957,0.08,1.62,-0.12,-5.23,4.3,2.02,0.68,1.1,2.66
5.958,0.08,1.62,-0.12,-6.16,4.66,2.07,0.68,1.1,2.66
5.964,0.08,1.62,-0.12,-6.16,4.66,2.07,0.68,1.1,2.66
5.981,-0.04,2.16,-0.09,-6.16,4.66,2.07,0.68,1.1,2.66
6.021,-0.82,2.02,-0.31,-6.16,4.66,2.07,0.68,1.1,2.66
6.024,-0.82,2.02,-0.31,-6.16,4.66,2.07,0.61,2.31,2.67
6.026,-0.82,2.02,-0.31,-4.26,8.94,3,0.61,2.31,2.67
6.028,-1.63,1.27,-0.94,-4.26,8.94,3,0.61,2.31,2.67
6.03,-1.63,1.27,-0.94,-4.26,8.94,3,0.61,2.31,2.67
6.039,-1.19,1.42,-0.89,-4.26,8.94,3,0.61,2.31,2.67
6.042,-1.19,1.42,-0.89,-4.26,8.94,3,0.55,3.89,1.77
6.044,-1.19,1.42,-0.89,-17.31,7.88,-4.07,0.55,3.89,1.77
6.056,0.64,1.94,-0.48,-17.31,7.88,-4.07,0.55,3.89,1.77
6.091,1.4,1.34,-0.64,-17.31,7.88,-4.07,0.55,3.89,1.77
6.095,1.4,1.34,-0.64,-17.31,7.88,-4.07,0.41,0.03,3
6.097,1.4,1.34,-0.64,-17.85,8.49,-3.89,0.41,0.03,3
6.098,1.4,1.34,-0.64,-17.85,8.49,-3.89,0.41,0.03,3
6.099,0.66,0.78,-0.53,-17.85,8.49,-3.89,0.41,0.03,3
6.129,0.66,0.78,-0.53,2.26,6.89,-2.03,0.41,0.03,3
6.131,0.29,0.36,-0.04,2.26,6.89,-2.03,0.41,0.03,3
6.131,0.29,0.36,-0.04,2.26,6.89,-2.03,0.22,-0.7,2.42
6.134,0.55,0.08,-0.56,2.26,6.89,-2.03,0.22,-0.7,2.42
6.144,0.55,0.08,-0.56,2.26,6.89,-2.03,0.22,-0.7,2.42
6.172,0.32,0.32,-0.27,2.26,6.89,-2.03,0.22,-0.7,2.42
6.176,0.32,0.32,-0.27,2.26,6.89,-2.03,-0.02,0.96,-0.06
6.177,0.32,0.32,-0.27,-2.83,-3.88,0.28,-0.02,0.96,-0.06
6.178,0.21,0.47,0.13,-2.83,-3.88,0.28,-0.02,0.96,-0.06
6.208,0.16,0.35,-0.22,-2.83,-3.88,0.28,-0.02,0.96,-0.06
6.211,0.16,0.35,-0.22,-2.83,-3.88,0.28,-0.53,0.8,-1.26
6.212,0.16,0.35,-0.22,-2.56,-4.19,-0.06,-0.53,0.8,-1.26
6.214,0.16,0.35,-0.22,-2.56,-4.19,-0.06,-0.53,0.8,-1.26
6.216,-0.06,0.22,-0.17,-2.56,-4.19,-0.06,-0.53,0.8,-1.26
6.232,-0.04,0.25,-0.02,-2.56,-4.19,-0.06,-0.53,0.8,-1.26
6.234,-0.04,0.25,-0.02,-2.56,-4.19,-0.06,-0.77,-0.38,-2.6
6.234,-0.04,0.25,-0.02,-4.49,-3.87,1.77,-0.77,-0.38,-2.6
6.271,0.26,0.41,-0.16,-4.49,-3.87,1.77,-0.77,-0.38,-2.6
6.276,0.26,0.41,-0.16,-4.49,-3.87,1.77,-0.77,-0.38,-2.6
6.277,0.26,0.41,-0.16,-1.91,-4.1,1.72,-0.77,-0.38,-2.6
6.278,0.44,0.54,-0.12,-1.91,-4.1,1.72,-0.77,-0.38,-2.6
6.278,0.44,0.54,-0.12,-1.91,-4.1,1.72,-1,-2.33,-3.77
6.296,0.46,0.56,-0.03,-1.91,-4.1,1.72,-1,-2.33,-3.77
6.311,0.51,0.57,-0.18,-1.91,-4.1,1.72,-1,-2.33,-3.77
6.312,0.51,0.57,-0.18,-1.91,-4.1,1.72,-1.31,-2.64,-4.48
6.313,0.51,0.57,-0.18,-0.14,-4.72,1.59,-1.31,-2.64,-4.48
6.323,0.51,0.57,-0.18,-0.14,-4.72,1.59,-1.31,-2.64,-4.48
6.33,0.63,0.72,-0.29,-0.14,-4.72,1.59,-1.31,-2.64,-4.48
6.351,0.86,0.94,-0.33,-0.14,-4.72,1.59,-1.31,-2.64,-4.48
6.353,0.86,0.94,-0.33,-0.14,-4.72,1.59,-1.7,-2.09,-5.46
6.354,0.86,0.94,-0.33,4.93,-2.97,0.43,-1.7,-2.09,-5.46
6.378,1.04,1.17,-0.53,4.93,-2.97,0.43,-1.7,-2.09,-5.46
6.384,1.04,1.17,-0.53,4.93,-2.97,0.43,-1.7,-2.09,-5.46
6.411,1,1.53,-0.7,4.93,-2.97,0.43,-1.7,-2.09,-5.46
6.413,1,1.53,-0.7,4.93,-2.97,0.43,-1.92,-1.17,-6.17
6.414,1,1.53,-0.7,11.28,2.92,-3.67,-1.92,-1.17,-6.17
6.415,1.08,1.81,-0.78,11.28,2.92,-3.67,-1.92,-1.17,-6.17
6.43,0.79,1.56,-0.61,11.28,2.92,-3.67,-1.92,-1.17,-6.17
6.432,0.79,1.56,-0.61,11.28,2.92,-3.67,-1.58,-0.3,-5.62
6.432,0.79,1.56,-0.61,13.02,3.41,-4.17,-1.58,-0.3,-5.62
6.443,0.79,1.56,-0.61,13.02,3.41,-4.17,-1.58,-0.3,-5.62
6.449,0.21,1.18,-0.63,13.02,3.41,-4.17,-1.58,-0.3,-5.62
6.493,0.34,0.78,-0.75,13.02,3.41,-4.17,-1.58,-0.3,-5.62
6.497,0.34,0.78,-0.75,13.02,3.41,-4.17,-0.53,-0.67,-2.76
6.498,0.34,0.78,-0.75,11.11,6.67,-5.85,-0.53,-0.67,-2.76
6.499,1.21,0.59,-0.74,11.11,6.67,-5.85,-0.53,-0.67,-2.76
6.523,1.21,0.59,-0.74,11.11,6.67,-5.85,-0.53,-0.67,-2.76
6.527,-0.07,2.01,1.58,11.11,6.67,-5.85,-0.53,-0.67,-2.76
6.53,-0.07,2.01,1.58,11.11,6.67,-5.85,0.81,-2.86,1.54
6.532,-0.07,2.01,1.58,8.56,2.55,0.82,0.81,-2.86,1.54
6.533,-2.52,2.52,-0.51,8.56,2.55,0.82,0.81,-2.86,1.54
6.548,-1.51,0,-1.19,8.56,2.55,0.82,0.81,-2.86,1.54
6.551,-1.51,0,-1.19,8.56,2.55,0.82,1.23,0.43,0.57
6.552,-1.51,0,-1.19,8.21,2.47,1.27,1.23,0.43,0.57
6.578,-1.51,0,-1.19,8.21,2.47,1.27,1.23,0.43,0.57
6.581,0.86,0.54,-0.27,8.21,2.47,1.27,1.23,0.43,0.57
6.607,2.35,2.29,-0.03,8.21,2.47,1.27,1.23,0.43,0.57
6.608,2.35,2.29,-0.03,8.21,2.47,1.27,1.57,-3.23,2
6.609,2.35,2.29,-0.03,-7.41,1.24,-5.21,1.57,-3.23,2
6.609,0.37,0.96,-0.28,-7.41,1.24,-5.21,1.57,-3.23,2
6.622,0.37,0.96,-0.28,-7.41,1.24,-5.21,1.57,-3.23,2
6.627,0.18,0.5,-0.78,-7.41,1.24,-5.21,1.57,-3.23,2
6.628,0.18,0.5,-0.78,-7.41,1.24,-5.21,1.36,-0.86,1.73
6.628,0.18,0.5,-0.78,11.66,3.33,-1.95,1.36,-0.86,1.73
6.647,-0.66,1.11,-0.6,11.66,3.33,-1.95,1.36,-0.86,1.73
6.668,-1.22,1.03,-0.15,11.66,3.33,-1.95,1.36,-0.86,1.73
6.67,-1.22,1.03,-0.15,11.66,3.33,-1.95,0.89,2.63,0.06
6.671,-1.22,1.03,-0.15,11.24,3.34,-1.4,0.89,2.63,0.06
6.682,-1.22,1.03,-0.15,11.24,3.34,-1.4,0.89,2.63,0.06
6.688,-0.36,0.77,-0.15,11.24,3.34,-1.4,0.89,2.63,0.06
6.706,-0.24,0.81,-0.23,11.24,3.34,-1.4,0.89,2.63,0.06
6.708,-0.24,0.81,-0.23,11.24,3.34,-1.4,0.48,0.36,0.78
6.708,-0.24,0.81,-0.23,-5.74,0.59,-0.59,0.48,0.36,0.78
6.727,-0.15,1.02,-0.31,-5.74,0.59,-0.59,0.48,0.36,0.78
6.744,-0.15,1.02,-0.31,-5.74,0.59,-0.59,0.48,0.36,0.78
6.747,-0.04,1.02,-0.32,-5.74,0.59,-0.59,0.48,0.36,0.78
6.749,-0.04,1.02,-0.32,-5.74,0.59,-0.59,0.61,0.21,1.22
6.751,-0.04,1.02,-0.32,-0.3,0.34,-0.17,0.61,0.21,1.22
6.766,-0.07,0.96,-0.25,-0.3,0.34,-0.17,0.61,0.21,1.22
6.786,-0.15,0.97,-0.26,-0.3,0.34,-0.17,0.61,0.21,1.22
6.787,-0.15,0.97,-0.26,-0.3,0.34,-0.17,0.59,1.04,1.01
6.788,-0.15,0.97,-0.26,-0.76,0.36,0.07,0.59,1.04,1.01
6.815,-0.15,0.97,-0.26,-0.76,0.36,0.07,0.59,1.04,1.01
6.817,-0.15,0.97,-0.34,-0.76,0.36,0.07,0.59,1.04,1.01
6.824,-0.04,0.94,-0.37,-0.76,0.36,0.07,0.59,1.04,1.01
6.826,-0.04,0.94,-0.37,-0.76,0.36,0.07,0.52,0.62,1.01
6.828,-0.04,0.94,-0.37,-0.94,0.56,0.25,0.52,0.62,1.01
6.844,0.06,0.98,-0.34,-0.94,0.56,0.25,0.52,0.62,1.01
6.862,0.06,0.98,-0.34,-0.94,0.56,0.25,0.52,0.62,1.01
6.864,0,1,-0.33,-0.94,0.56,0.25,0.52,0.62,1.01
6.866,0,1,-0.33,-0.94,0.56,0.25,0.49,0.49,0.94
6.867,0,1,-0.33,-0.05,0.71,-0.19,0.49,0.49,0.94
6.886,-0.03,1.01,-0.34,-0.05,0.71,-0.19,0.49,0.49,0.94
6.917,0.01,1.02,-0.35,-0.05,0.71,-0.19,0.49,0.49,0.94
6.918,0.01,1.02,-0.35,-0.05,0.71,-0.19,0.46,0.6,0.83
6.919,0.01,1.02,-0.35,-0.41,0.76,-0.04,0.46,0.6,0.83
6.924,0.01,1.02,-0.35,-0.41,0.76,-0.04,0.46,0.6,0.83
6.926,0.05,1.04,-0.31,-0.41,0.76,-0.04,0.46,0.6,0.83
6.943,-0.05,1.02,-0.26,-0.41,0.76,-0.04,0.46,0.6,0.83
6.944,-0.05,1.02,-0.26,-0.41,0.76,-0.04,0.42,0.66,0.86
6.945,-0.05,1.02,-0.26,-0.78,1.33,0.2,0.42,0.66,0.86
6.964,-0.33,0.97,-0.31,-0.78,1.33,0.2,0.42,0.66,0.86
6.992,-0.33,0.97,-0.31,-0.78,1.33,0.2,0.42,0.66,0.86
6.996,-0.49,0.98,-0.4,-0.78,1.33,0.2,0.42,0.66,0.86
6.998,-0.49,0.98,-0.4,-0.78,1.33,0.2,0.46,1.33,1.17
6.999,-0.49,0.98,-0.4,-4.2,1.07,0.43,0.46,1.33,1.17
7.023,-0.34,1.13,-0.32,-4.2,1.07,0.43,0.46,1.33,1.17
7.025,-0.13,1.3,-0.16,-4.2,1.07,0.43,0.46,1.33,1.17
7.026,-0.13,1.3,-0.16,-4.2,1.07,0.43,0.59,1.56,1.77
7.026,-0.13,1.3,-0.16,-4.93,1.26,0.51,0.59,1.56,1.77
7.042,-0.13,1.3,-0.16,-4.93,1.26,0.51,0.59,1.56,1.77
7.044,0.04,1.26,0,-4.93,1.26,0.51,0.59,1.56,1.77
7.063,0.23,1.23,0.09,-4.93,1.26,0.51,0.59,1.56,1.77
7.065,0.23,1.23,0.09,-4.93,1.26,0.51,0.69,1.23,2.37
7.066,0.23,1.23,0.09,-4.42,3.89,2.19,0.69,1.23,2.37
7.086,0.19,1.37,-0.06,-4.42,3.89,2.19,0.69,1.23,2.37
7.102,-0.23,1.97,-0.18,-4.42,3.89,2.19,0.69,1.23,2.37
7.103,-0.23,1.97,-0.18,-4.42,3.89,2.19,0.69,1.55,2.58
7.104,-0.23,1.97,-0.18,-4.42,3.89,2.19,0.69,1.55,2.58
7.105,-0.23,1.97,-0.18,-3.35,7.09,3.2,0.69,1.55,2.58
7.121,-0.77,2.02,-0.13,-3.35,7.09,3.2,0.69,1.55,2.58
7.141,-1.27,1.32,-0.56,-3.35,7.09,3.2,0.69,1.55,2.58
7.144,-1.27,1.32,-0.56,-3.35,7.09,3.2,0.59,3.4,2.18
7.147,-1.27,1.32,-0.56,-4.4,7.43,2.72,0.59,3.4,2.18
7.161,-1.08,1.58,-1,-4.4,7.43,2.72,0.59,3.4,2.18
7.162,-1.08,1.58,-1,-4.4,7.43,2.72,0.59,3.4,2.18
7.181,0.51,1.96,-0.53,-4.4,7.43,2.72,0.59,3.4,2.18
7.183,0.51,1.96,-0.53,-4.4,7.43,2.72,0.47,2.14,2.25
7.184,0.51,1.96,-0.53,-15.85,8.99,-2.62,0.47,2.14,2.25
7.205,1.3,1.36,-0.82,-15.85,8.99,-2.62,0.47,2.14,2.25
7.222,0.79,0.89,-0.79,-15.85,8.99,-2.62,0.47,2.14,2.25
7.224,0.79,0.89,-0.79,-15.85,8.99,-2.62,0.3,-1.29,3.55
7.225,0.79,0.89,-0.79,2.05,7.43,-3.64,0.3,-1.29,3.55
7.227,0.79,0.89,-0.79,2.05,7.43,-3.64,0.3,-1.29,3.55
7.24,0.35,0.53,-0.14,2.05,7.43,-3.64,0.3,-1.29,3.55
7.26,0.47,0.14,-0.51,2.05,7.43,-3.64,0.3,-1.29,3.55
7.263,0.47,0.14,-0.51,2.05,7.43,-3.64,-0.21,-0.54,1.47
7.265,0.47,0.14,-0.51,1.73,7.66,-3.5,-0.21,-0.54,1.47
7.294,0.39,0.22,-0.54,1.73,7.66,-3.5,-0.21,-0.54,1.47
7.297,0.39,0.22,-0.54,1.73,7.66,-3.5,-0.21,-0.54,1.47
7.301,0.39,0.22,-0.54,-2.67,-3.39,-0.63,-0.21,-0.54,1.47
7.302,0.17,0.41,0.1,-2.67,-3.39,-0.63,-0.21,-0.54,1.47
7.303,0.17,0.41,0.1,-2.67,-3.39,-0.63,-0.69,0.32,-0.67
7.322,0.19,0.36,-0.18,-2.67,-3.39,-0.63,-0.69,0.32,-0.67
7.34,0.11,0.27,-0.28,-2.67,-3.39,-0.63,-0.69,0.32,-0.67
7.344,0.11,0.27,-0.28,-2.67,-3.39,-0.63,-1.32,0.31,-1.65
7.346,0.11,0.27,-0.28,-4.6,-3.44,1.65,-1.32,0.31,-1.65
7.348,0.11,0.27,-0.28,-4.6,-3.44,1.65,-1.32,0.31,-1.65
7.358,0.1,0.32,-0.18,-4.6,-3.44,1.65,-1.32,0.31,-1.65
7.389,0.24,0.45,-0.21,-4.6,-3.44,1.65,-1.32,0.31,-1.65
7.393,0.24,0.45,-0.21,-4.6,-3.44,1.65,-1.51,-0.93,-2.92
7.394,0.24,0.45,-0.21,-3.61,-4.19,1.4,-1.51,-0.93,-2.92
7.398,0.34,0.47,-0.24,-3.61,-4.19,1.4,-1.51,-0.93,-2.92
7.401,0.34,0.47,-0.24,-3.61,-4.19,1.4,-1.51,-0.93,-2.92
7.418,0.33,0.43,-0.18,-3.61,-4.19,1.4,-1.51,-0.93,-2.92
7.419,0.33,0.43,-0.18,-3.61,-4.19,1.4,-1.59,-2.02,-3.71
7.42,0.33,0.43,-0.18,-1.52,-4.27,0.33,-1.59,-2.02,-3.71
7.438,0.31,0.46,-0.22,-1.52,-4.27,0.33,-1.59,-2.02,-3.71
7.459,0.31,0.46,-0.22,1.47,-4,-0.27,-1.59,-2.02,-3.71
7.462,0.44,0.61,-0.34,1.47,-4,-0.27,-1.59,-2.02,-3.71
7.464,0.44,0.61,-0.34,1.47,-4,-0.27,-1.6,-2.44,-4.34
7.467,0.44,0.61,-0.34,1.47,-4,-0.27,-1.6,-2.44,-4.34
7.489,0.75,0.83,-0.41,1.47,-4,-0.27,-1.6,-2.44,-4.34
7.497,1.04,1.01,-0.51,1.47,-4,-0.27,-1.6,-2.44,-4.34
7.498,1.04,1.01,-0.51,1.47,-4,-0.27,-1.86,-2.49,-5.14
7.499,1.04,1.01,-0.51,3.44,-4.28,-0.83,-1.86,-2.49,-5.14
7.524,1.04,1.16,-0.68,3.44,-4.28,-0.83,-1.86,-2.49,-5.14
7.527,1.04,1.16,-0.68,3.44,-4.28,-0.83,-1.86,-2.49,-5.14
7.536,1.05,1.44,-0.74,3.44,-4.28,-0.83,-1.86,-2.49,-5.14
7.539,1.05,1.44,-0.74,3.44,-4.28,-0.83,-2.13,-1.17,-5.57
7.541,1.05,1.44,-0.74,11.04,0.76,-4.35,-2.13,-1.17,-5.57
7.567,1.07,1.57,-0.79,11.04,0.76,-4.35,-2.13,-1.17,-5.57
7.597,0.36,1.27,-0.72,11.04,0.76,-4.35,-2.13,-1.17,-5.57
7.598,0.36,1.27,-0.72,11.04,0.76,-4.35,-1.69,0.59,-4.85
7.599,0.36,1.27,-0.72,11.41,5.31,-6.92,-1.69,0.59,-4.85
7.599,0.36,1.27,-0.72,11.41,5.31,-6.92,-1.69,0.59,-4.85
7.6,0.06,1.13,-0.64,11.41,5.31,-6.92,-1.69,0.59,-4.85
7.615,0.84,0.94,-0.42,11.41,5.31,-6.92,-1.69,0.59,-4.85
7.617,0.84,0.94,-0.42,11.41,5.31,-6.92,-0.26,-0.01,-2.17
7.618,0.84,0.94,-0.42,11.94,5.53,-6.89,-0.26,-0.01,-2.17
7.637,1.18,0.97,-0.57,11.94,5.53,-6.89,-0.26,-0.01,-2.17
7.641,1.18,0.97,-0.57,11.94,5.53,-6.89,-0.26,-0.01,-2.17
7.658,-1.75,2.61,2.41,11.94,5.53,-6.89,-0.26,-0.01,-2.17
7.662,-1.75,2.61,2.41,11.94,5.53,-6.89,0.72,-1.12,1.54
7.664,-1.75,2.61,2.41,9.98,1.22,-4.68,0.72,-1.12,1.54
7.676,-2.62,1.4,-1.28,9.98,1.22,-4.68,0.72,-1.12,1.54
7.709,-1.07,-0.41,-1.34,9.98,1.22,-4.68,0.72,-1.12,1.54
7.712,-1.07,-0.41,-1.34,9.98,1.22,-4.68,1.32,0.29,0.11
7.713,-1.07,-0.41,-1.34,-14.42,3.03,0.44,1.32,0.29,0.11
7.716,-1.07,-0.41,-1.34,-14.42,3.03,0.44,1.32,0.29,0.11
7.718,0.99,1.15,-0.24,-14.42,3.03,0.44,1.32,0.29,0.11
7.746,2.23,2.03,-0.01,-14.42,3.03,0.44,1.32,0.29,0.11
7.747,2.23,2.03,-0.01,-14.42,3.03,0.44,1.64,-4.77,2.6
7.748,2.23,2.03,-0.01,-14.86,2.74,0.44,1.64,-4.77,2.6
7.754,0.69,0.85,-0.36,-14.86,2.74,0.44,1.64,-4.77,2.6
7.76,0.69,0.85,-0.36,-14.86,2.74,0.44,1.64,-4.77,2.6
7.781,0.69,0.85,-0.36,14.99,4.01,-0.48,1.64,-4.77,2.6
7.783,0.33,0.72,-0.85,14.99,4.01,-0.48,1.64,-4.77,2.6
7.784,0.33,0.72,-0.85,14.99,4.01,-0.48,1.29,-0.82,1.38
7.806,-1.04,1.24,-0.67,14.99,4.01,-0.48,1.29,-0.82,1.38
7.812,-1.4,0.94,-0.16,14.99,4.01,-0.48,1.29,-0.82,1.38
7.813,-1.4,0.94,-0.16,14.99,4.01,-0.48,0.84,3.35,-0.21
7.814,-1.4,0.94,-0.16,-4.8,0.4,-3.33,0.84,3.35,-0.21
7.82,-1.4,0.94,-0.16,-4.8,0.4,-3.33,0.84,3.35,-0.21
7.832,-0.14,0.68,-0.02,-4.8,0.4,-3.33,0.84,3.35,-0.21
7.852,-0.17,0.84,-0.14,-4.8,0.4,-3.33,0.84,3.35,-0.21
7.857,-0.17,0.84,-0.14,-4.8,0.4,-3.33,0.31,-0.14,0.81
7.859,-0.17,0.84,-0.14,-5,0.36,-3.17,0.31,-0.14,0.81
7.881,-0.07,1.05,-0.29,-5,0.36,-3.17,0.31,-0.14,0.81
7.883,-0.07,1.05,-0.29,-5,0.36,-3.17,0.31,-0.14,0.81
7.911,0.08,1.01,-0.28,-5,0.36,-3.17,0.31,-0.14,0.81
7.913,0.08,1.01,-0.28,-5,0.36,-3.17,0.54,0.14,1.21
7.914,0.08,1.01,-0.28,0.22,-0.74,1,0.54,0.14,1.21
7.914,-0.19,0.96,-0.24,0.22,-0.74,1,0.54,0.14,1.21
7.931,-0.37,0.94,-0.19,0.22,-0.74,1,0.54,0.14,1.21
7.933,-0.37,0.94,-0.19,0.22,-0.74,1,0.54,1.92,1
7.933,-0.37,0.94,-0.19,-0.62,0.36,0.46,0.54,1.92,1
7.94,-0.37,0.94,-0.19,-0.62,0.36,0.46,0.54,1.92,1
7.952,-0.35,0.91,-0.2,-0.62,0.36,0.46,0.54,1.92,1
7.991,-0.08,0.92,-0.3,-0.62,0.36,0.46,0.54,1.92,1
7.993,-0.08,0.92,-0.3,-0.62,0.36,0.46,0.55,0.76,1.13
7.995,-0.08,0.92,-0.3,-1.09,0.39,0.67,0.55,0.76,1.13
7.997,0.12,0.98,-0.31,-1.09,0.39,0.67,0.55,0.76,1.13
8,0.12,0.98,-0.31,-1.09,0.39,0.67,0.55,0.76,1.13
8.017,0.11,1.03,-0.27,-1.09,0.39,0.67,0.55,0.76,1.13
8.019,0.11,1.03,-0.27,-1.09,0.39,0.67,0.62,-0.04,1.25
8.02,0.11,1.03,-0.27,-0.98,0.14,0.5,0.62,-0.04,1.25
8.029,0.01,1.01,-0.29,-0.98,0.14,0.5,0.62,-0.04,1.25
8.05,-0.03,1.02,-0.35,-0.98,0.14,0.5,0.62,-0.04,1.25
8.052,-0.03,1.02,-0.35,-0.98,0.14,0.5,0.67,0.62,1.1
8.053,-0.03,1.02,-0.35,-0.16,1.03,0.43,0.67,0.62,1.1
8.062,-0.03,1.02,-0.35,-0.16,1.03,0.43,0.67,0.62,1.1
8.069,0.08,1.06,-0.37,-0.16,1.03,0.43,0.67,0.62,1.1
8.092,0.02,1.05,-0.28,-0.16,1.03,0.43,0.67,0.62,1.1
8.095,0.02,1.05,-0.28,-0.16,1.03,0.43,0.7,0.87,1.11
8.097,0.02,1.05,-0.28,-0.66,1.14,0.64,0.7,0.87,1.11
8.119,-0.21,1.03,-0.25,-0.66,1.14,0.64,0.7,0.87,1.11
8.121,-0.21,1.03,-0.25,-0.66,1.14,0.64,0.7,0.87,1.11
8.129,-0.36,1.16,-0.24,-0.66,1.14,0.64,0.7,0.87,1.11
8.131,-0.36,1.16,-0.24,-0.66,1.14,0.64,0.76,1.54,1.32
8.132,-0.36,1.16,-0.24,-1.97,1.55,0.86,0.76,1.54,1.32
8.148,-0.23,1.34,-0.17,-1.97,1.55,0.86,0.76,1.54,1.32
8.169,0.09,1.34,-0.11,-1.97,1.55,0.86,0.76,1.54,1.32
8.172,0.09,1.34,-0.11,-1.97,1.55,0.86,0.78,1.13,2.02
8.174,0.09,1.34,-0.11,-4.02,4.06,2.22,0.78,1.13,2.02
8.198,0.09,1.34,-0.11,-4.02,4.06,2.22,0.78,1.13,2.02
8.199,0.19,1.29,-0.14,-4.02,4.06,2.22,0.78,1.13,2.02
8.223,0.09,1.49,-0.38,-4.02,4.06,2.22,0.78,1.13,2.02
8.224,0.09,1.49,-0.38,-4.02,4.06,2.22,0.78,0.66,2.61
8.225,0.09,1.49,-0.38,-4.9,4.41,2.36,0.78,0.66,2.61
8.227,-0.09,2.17,-0.18,-4.9,4.41,2.36,0.78,0.66,2.61
8.242,-0.09,2.17,-0.18,-4.9,4.41,2.36,0.78,0.66,2.61
8.247,-0.67,2.03,-0.04,-4.9,4.41,2.36,0.78,0.66,2.61
8.248,-0.67,2.03,-0.04,-4.9,4.41,2.36,0.67,2.46,2.43
8.248,-0.67,2.03,-0.04,-3.75,8.33,1.62,0.67,2.46,2.43
8.267,-1.25,1.16,-0.52,-3.75,8.33,1.62,0.67,2.46,2.43
8.29,-1.22,1.25,-0.88,-3.75,8.33,1.62,0.67,2.46,2.43
8.293,-1.22,1.25,-0.88,-3.75,8.33,1.62,0.68,4.79,1.59
8.295,-1.22,1.25,-0.88,-15.48,6.98,-1.56,0.68,4.79,1.59
8.299,-1.22,1.25,-0.88,-15.48,6.98,-1.56,0.68,4.79,1.59
8.312,0.25,2.16,-0.28,-15.48,6.98,-1.56,0.68,4.79,1.59
8.327,0.25,2.16,-0.28,-16.12,7.46,-1.78,0.68,4.79,1.59
8.329,1.13,1.52,-0.51,-16.12,7.46,-1.78,0.68,4.79,1.59
8.33,1.13,1.52,-0.51,-16.12,7.46,-1.78,0.34,1.57,2.5
8.347,0.62,0.84,-0.86,-16.12,7.46,-1.78,0.34,1.57,2.5
8.36,0.62,0.84,-0.86,-16.12,7.46,-1.78,0.34,1.57,2.5
8.367,0.31,0.6,-0.37,-16.12,7.46,-1.78,0.34,1.57,2.5
8.37,0.31,0.6,-0.37,-16.12,7.46,-1.78,0.34,-0.51,2.6
8.373,0.31,0.6,-0.37,0.05,8.25,-2.18,0.34,-0.51,2.6
8.392,0.53,0.15,-0.22,0.05,8.25,-2.18,0.34,-0.51,2.6
8.405,0.64,0.14,-0.5,0.05,8.25,-2.18,0.34,-0.51,2.6
8.407,0.64,0.14,-0.5,0.05,8.25,-2.18,-0.06,-0.15,0.24
8.407,0.64,0.14,-0.5,-1.68,-3.5,-0.33,-0.06,-0.15,0.24
8.421,0.64,0.14,-0.5,-1.68,-3.5,-0.33,-0.06,-0.15,0.24
8.426,0.39,0.41,0.09,-1.68,-3.5,-0.33,-0.06,-0.15,0.24
8.444,0.4,0.42,-0.02,-1.68,-3.5,-0.33,-0.06,-0.15,0.24
8.448,0.4,0.42,-0.02,-1.68,-3.5,-0.33,-0.6,-0.22,-1.4
8.45,0.4,0.42,-0.02,-1.26,-3.86,-0.42,-0.6,-0.22,-1.4
8.467,0.14,0.24,-0.2,-1.26,-3.86,-0.42,-0.6,-0.22,-1.4
8.498,0.14,0.24,-0.2,-1.26,-3.86,-0.42,-0.6,-0.22,-1.4
8.5,-0.14,0.19,-0.11,-1.26,-3.86,-0.42,-0.6,-0.22,-1.4
8.5,-0.14,0.19,-0.11,-1.26,-3.86,-0.42,-0.99,-0.15,-2.57
8.501,-0.14,0.19,-0.11,-2.24,-3.87,2.39,-0.99,-0.15,-2.57
8.504,-0.09,0.3,-0.13,-2.24,-3.87,2.39,-0.99,-0.15,-2.57
8.532,0.21,0.46,-0.24,-2.24,-3.87,2.39,-0.99,-0.15,-2.57
8.534,0.21,0.46,-0.24,-2.24,-3.87,2.39,-1.18,-1.71,-3.9
8.535,0.21,0.46,-0.24,-3.91,-5.07,1.21,-1.18,-1.71,-3.9
8.544,0.21,0.46,-0.24,-3.91,-5.07,1.21,-1.18,-1.71,-3.9
8.547,0.34,0.58,-0.18,-3.91,-5.07,1.21,-1.18,-1.71,-3.9
8.563,0.52,0.64,-0.21,-3.91,-5.07,1.21,-1.18,-1.71,-3.9
8.565,0.52,0.64,-0.21,-3.91,-5.07,1.21,-1.36,-3.03,-4.32
8.567,0.52,0.64,-0.21,-2.09,-5.63,1.08,-1.36,-3.03,-4.32
8.591,0.73,0.72,-0.3,-2.09,-5.63,1.08,-1.36,-3.03,-4.32
8.598,0.73,0.72,-0.3,-2.09,-5.63,1.08,-1.36,-3.03,-4.32
8.603,0.84,0.86,-0.3,-2.09,-5.63,1.08,-1.36,-3.03,-4.32
8.604,0.84,0.86,-0.3,-2.09,-5.63,1.08,-1.72,-2.61,-4.9
8.605,0.84,0.86,-0.3,5.03,-2.72,-0.09,-1.72,-2.61,-4.9
8.624,0.9,1.05,-0.57,5.03,-2.72,-0.09,-1.72,-2.61,-4.9
8.642,0.85,1.27,-0.61,5.03,-2.72,-0.09,-1.72,-2.61,-4.9
8.645,0.85,1.27,-0.61,5.03,-2.72,-0.09,-2.09,-1.08,-5.65
8.646,0.85,1.27,-0.61,10.24,1.36,-3.37,-2.09,-1.08,-5.65
8.659,0.85,1.27,-0.61,10.24,1.36,-3.37,-2.09,-1.08,-5.65
8.663,0.95,1.52,-0.65,10.24,1.36,-3.37,-2.09,-1.08,-5.65
8.683,0.78,1.57,-0.67,10.24,1.36,-3.37,-2.09,-1.08,-5.65
8.686,0.78,1.57,-0.67,10.24,1.36,-3.37,-1.9,0.57,-5.42
8.688,0.78,1.57,-0.67,11.89,1.83,-3.89,-1.9,0.57,-5.42
8.708,0.15,1.42,-0.54,11.89,1.83,-3.89,-1.9,0.57,-5.42
8.718,0.15,1.42,-0.54,11.89,1.83,-3.89,-1.9,0.57,-5.42
8.721,0.16,1.11,-0.45,11.89,1.83,-3.89,-1.9,0.57,-5.42
8.722,0.16,1.11,-0.45,11.89,1.83,-3.89,-0.78,0.16,-3.4
8.723,0.16,1.11,-0.45,10.52,6.61,-5.27,-0.78,0.16,-3.4
8.742,1.27,0.76,-0.54,10.52,6.61,-5.27,-0.78,0.16,-3.4
8.761,0.11,1.83,1.41,10.52,6.61,-5.27,-0.78,0.16,-3.4
8.764,0.11,1.83,1.41,10.52,6.61,-5.27,0.43,-2.36,0.78
8.766,0.11,1.83,1.41,9.06,3.8,1.84,0.43,-2.36,0.78
8.795,0.11,1.83,1.41,9.06,3.8,1.84,0.43,-2.36,0.78
8.798,-2.39,2.27,-0.31,9.06,3.8,1.84,0.43,-2.36,0.78
8.801,-1.7,0.28,-1.73,9.06,3.8,1.84,0.43,-2.36,0.78
8.803,-1.7,0.28,-1.73,9.06,3.8,1.84,1.16,0.21,0.76
8.804,-1.7,0.28,-1.73,8.65,3.65,2.21,1.16,0.21,0.76
8.825,0.56,0.9,-0.07,8.65,3.65,2.21,1.16,0.21,0.76
8.839,0.56,0.9,-0.07,8.65,3.65,2.21,1.16,0.21,0.76
8.842,2.61,1.97,-0.1,8.65,3.65,2.21,1.16,0.21,0.76
8.844,2.61,1.97,-0.1,8.65,3.65,2.21,1.64,-3.47,2.34
8.845,2.61,1.97,-0.1,-8.44,2.53,-5.82,1.64,-3.47,2.34
8.86,0.59,0.63,-0.17,-8.44,2.53,-5.82,1.64,-3.47,2.34
8.881,-0.35,0.53,-0.82,-8.44,2.53,-5.82,1.64,-3.47,2.34
8.884,-0.35,0.53,-0.82,-8.44,2.53,-5.82,1.39,-0.95,1.83
8.887,-0.35,0.53,-0.82,11.58,1.33,-2.06,1.39,-0.95,1.83
8.915,-0.35,0.53,-0.82,11.58,1.33,-2.06,1.39,-0.95,1.83
8.917,-0.36,1.3,-0.72,11.58,1.33,-2.06,1.39,-0.95,1.83
8.948,-0.79,1.19,-0.19,11.58,1.33,-2.06,1.39,-0.95,1.83
8.953,-0.79,1.19,-0.19,11.58,1.33,-2.06,0.92,2.7,0.02
8.956,-0.79,1.19,-0.19,11.19,1.37,-1.48,0.92,2.7,0.02
8.959,-0.44,0.72,0.03,11.19,1.37,-1.48,0.92,2.7,0.02
8.961,-0.44,0.72,0.03,11.19,1.37,-1.48,0.92,2.7,0.02
8.963,-0.5,0.71,-0.15,11.19,1.37,-1.48,0.92,2.7,0.02
8.965,-0.5,0.71,-0.15,11.19,1.37,-1.48,0.37,0.54,0.65
8.967,-0.5,0.71,-0.15,-3.5,1.55,-0.63,0.37,0.54,0.65
8.979,-0.48,0.94,-0.37,-3.5,1.55,-0.63,0.37,0.54,0.65
9.011,0.09,1.03,-0.27,-3.5,1.55,-0.63,0.37,0.54,0.65
9.013,0.09,1.03,-0.27,-3.5,1.55,-0.63,0.59,0.32,1.19
9.015,0.09,1.03,-0.27,-1.63,-0.17,-0.14,0.59,0.32,1.19
9.018,0.09,1.03,-0.27,-1.63,-0.17,-0.14,0.59,0.32,1.19
9.018,0.13,1.03,-0.13,-1.63,-0.17,-0.14,0.59,0.32,1.19
9.052,-0.26,0.99,-0.21,-1.63,-0.17,-0.14,0.59,0.32,1.19
9.056,-0.26,0.99,-0.21,-1.63,-0.17,-0.14,0.56,1.4,1.2
9.058,-0.26,0.99,-0.21,-2.16,-0.16,0.11,0.56,1.4,1.2
9.06,-0.36,0.92,-0.33,-2.16,-0.16,0.11,0.56,1.4,1.2
9.089,-0.09,0.94,-0.37,-2.16,-0.16,0.11,0.56,1.4,1.2
9.091,-0.09,0.94,-0.37,-2.16,-0.16,0.11,0.59,0.82,1.16
9.092,-0.09,0.94,-0.37,-1.31,0.72,0.72,0.59,0.82,1.16
9.093,-0.09,0.94,-0.37,-1.31,0.72,0.72,0.59,0.82,1.16
9.097,0.21,1,-0.32,-1.31,0.72,0.72,0.59,0.82,1.16
9.116,0.15,1.05,-0.28,-1.31,0.72,0.72,0.59,0.82,1.16
9.118,0.15,1.05,-0.28,-1.31,0.72,0.72,0.54,0.16,1.18
9.118,0.15,1.05,-0.28,0.72,0.92,-0.06,0.54,0.16,1.18
9.135,-0.01,1.03,-0.33,0.72,0.92,-0.06,0.54,0.16,1.18
9.137,-0.01,1.03,-0.33,0.72,0.92,-0.06,0.54,0.16,1.18
9.155,-0.01,1.02,-0.36,0.72,0.92,-0.06,0.54,0.16,1.18
9.158,-0.01,1.02,-0.36,0.72,0.92,-0.06,0.52,0.64,1
9.16,-0.01,1.02,-0.36,0.28,0.98,0.11,0.52,0.64,1
9.178,0.09,1.05,-0.34,0.28,0.98,0.11,0.52,0.64,1
9.198,0.09,1.07,-0.29,0.28,0.98,0.11,0.52,0.64,1
9.201,0.09,1.07,-0.29,0.28,0.98,0.11,0.49,0.77,0.98
9.202,0.09,1.07,-0.29,-0.77,1.44,0.05,0.49,0.77,0.98
9.204,0.09,1.07,-0.29,-0.77,1.44,0.05,0.49,0.77,0.98
9.224,-0.17,1.02,-0.24,-0.77,1.44,0.05,0.49,0.77,0.98
9.235,-0.48,0.99,-0.32,-0.77,1.44,0.05,0.49,0.77,0.98
9.236,-0.48,0.99,-0.32,-0.77,1.44,0.05,0.47,1.33,1.12
9.237,-0.48,0.99,-0.32,-3.33,1.44,0.72,0.47,1.33,1.12
9.254,-0.47,1.17,-0.36,-3.33,1.44,0.72,0.47,1.33,1.12
9.26,-0.47,1.17,-0.36,-3.33,1.44,0.72,0.47,1.33,1.12
9.277,-0.28,1.36,-0.15,-3.33,1.44,0.72,0.47,1.33,1.12
9.28,-0.28,1.36,-0.15,-3.33,1.44,0.72,0.58,1.45,1.76
9.281,-0.28,1.36,-0.15,-4.05,1.63,0.79,0.58,1.45,1.76
9.304,0.03,1.29,0.08,-4.05,1.63,0.79,0.58,1.45,1.76
9.326,0.17,1.3,0.05,-4.05,1.63,0.79,0.58,1.45,1.76
9.327,0.17,1.3,0.05,-4.05,1.63,0.79,0.67,0.94,2.54
9.328,0.17,1.3,0.05,-5.5,4.35,2.24,0.67,0.94,2.54
9.329,0.17,1.3,0.05,-5.5,4.35,2.24,0.67,0.94,2.54
9.334,0.11,1.69,-0.24,-5.5,4.35,2.24,0.67,0.94,2.54
9.353,-0.1,2.29,-0.11,-5.5,4.35,2.24,0.67,0.94,2.54
9.354,-0.1,2.29,-0.11,-5.5,4.35,2.24,0.62,1.46,2.78
9.355,-0.1,2.29,-0.11,-3.56,9.45,2.61,0.62,1.46,2.78
9.373,-1.02,1.63,-0.33,-3.56,9.45,2.61,0.62,1.46,2.78
9.396,-1.02,1.63,-0.33,-3.56,9.45,2.61,0.62,1.46,2.78
9.398,-1.69,0.99,-1.07,-3.56,9.45,2.61,0.62,1.46,2.78
9.399,-1.69,0.99,-1.07,-3.56,9.45,2.61,0.56,4.14,1.85
9.4,-1.69,0.99,-1.07,-4.58,9.7,1.96,0.56,4.14,1.85
9.422,-0.82,1.85,-0.66,-4.58,9.7,1.96,0.56,4.14,1.85
9.432,0.94,2.06,-0.61,-4.58,9.7,1.96,0.56,4.14,1.85
9.434,0.94,2.06,-0.61,-4.58,9.7,1.96,0.36,2.14,2.3
9.434,0.94,2.06,-0.61,-17.3,7.5,-4.07,0.36,2.14,2.3
9.436,0.94,2.06,-0.61,-17.3,7.5,-4.07,0.36,2.14,2.3
9.453,1.19,1.21,-0.91,-17.3,7.5,-4.07,0.36,2.14,2.3
9.473,0.48,0.78,-0.48,-17.3,7.5,-4.07,0.36,2.14,2.3
9.474,0.48,0.78,-0.48,-17.3,7.5,-4.07,0.31,-1.26,3.53
9.475,0.48,0.78,-0.48,1.93,6.9,-3.43,0.31,-1.26,3.53
9.493,0.34,0.36,-0.02,1.93,6.9,-3.43,0.31,-1.26,3.53
9.497,0.34,0.36,-0.02,1.93,6.9,-3.43,0.31,-1.26,3.53
9.519,0.51,0.13,-0.58,1.93,6.9,-3.43,0.31,-1.26,3.53
9.521,0.51,0.13,-0.58,1.93,6.9,-3.43,-0.13,-0.23,1.06
9.522,0.51,0.13,-0.58,1.67,7.04,-3.34,-0.13,-0.23,1.06
9.531,0.23,0.35,-0.02,1.67,7.04,-3.34,-0.13,-0.23,1.06
9.551,0.25,0.46,0.08,1.67,7.04,-3.34,-0.13,-0.23,1.06
9.553,0.25,0.46,0.08,1.67,7.04,-3.34,-0.51,0.27,-0.81
9.554,0.25,0.46,0.08,-3.07,-3.67,0.93,-0.51,0.27,-0.81
9.556,0.25,0.46,0.08,-3.07,-3.67,0.93,-0.51,0.27,-0.81
9.572,0.28,0.33,-0.21,-3.07,-3.67,0.93,-0.51,0.27,-0.81
9.591,0.11,0.18,-0.16,-3.07,-3.67,0.93,-0.51,0.27,-0.81
9.592,0.11,0.18,-0.16,-3.07,-3.67,0.93,-1,-0.09,-1.79
9.593,0.11,0.18,-0.16,-3.95,-3.74,1.76,-1,-0.09,-1.79
9.61,0.1,0.22,-0.06,-3.95,-3.74,1.76,-1,-0.09,-1.79
9.616,0.1,0.22,-0.06,-3.95,-3.74,1.76,-1,-0.09,-1.79
9.629,0.29,0.38,-0.18,-3.95,-3.74,1.76,-1,-0.09,-1.79
9.631,0.29,0.38,-0.18,-3.95,-3.74,1.76,-1.18,-1.37,-3.36
9.631,0.29,0.38,-0.18,-2.79,-4.52,1.68,-1.18,-1.37,-3.36
9.649,0.4,0.51,-0.14,-2.79,-4.52,1.68,-1.18,-1.37,-3.36
9.67,0.41,0.57,-0.06,-2.79,-4.52,1.68,-1.18,-1.37,-3.36
9.672,0.41,0.57,-0.06,-2.79,-4.52,1.68,-1.31,-2.31,-4.14
9.674,0.41,0.57,-0.06,-0.78,-4.81,1.31,-1.31,-2.31,-4.14
9.7,0.41,0.57,-0.06,-0.78,-4.81,1.31,-1.31,-2.31,-4.14
9.702,0.63,0.62,-0.17,-0.78,-4.81,1.31,-1.31,-2.31,-4.14
9.73,0.79,0.73,-0.18,-0.78,-4.81,1.31,-1.31,-2.31,-4.14
9.732,0.79,0.73,-0.18,-0.78,-4.81,1.31,-1.65,-2.27,-4.83
9.733,0.79,0.73,-0.18,4.46,-2.71,0.88,-1.65,-2.27,-4.83
9.734,0.85,0.84,-0.43,4.46,-2.71,0.88,-1.65,-2.27,-4.83
9.738,0.85,0.84,-0.43,4.46,-2.71,0.88,-1.65,-2.27,-4.83
9.75,0.79,1.04,-0.75,4.46,-2.71,0.88,-1.65,-2.27,-4.83
9.752,0.79,1.04,-0.75,4.46,-2.71,0.88,-2,-1.69,-5.58
9.753,0.79,1.04,-0.75,6.5,-2.9,0.19,-2,-1.69,-5.58
9.769,0.8,1.42,-0.67,6.5,-2.9,0.19,-2,-1.69,-5.58
9.798,1.25,1.64,-0.83,6.5,-2.9,0.19,-2,-1.69,-5.58
9.799,1.25,1.64,-0.83,6.5,-2.9,0.19,-2.12,-1.75,-5.27
9.8,1.25,1.64,-0.83,10.28,1.79,-5.31,-2.12,-1.75,-5.27
9.801,1.25,1.64,-0.83,10.28,1.79,-5.31,-2.12,-1.75,-5.27
9.808,1,1.28,-0.7,10.28,1.79,-5.31,-2.12,-1.75,-5.27
9.828,0.45,1.11,-0.77,10.28,1.79,-5.31,-2.12,-1.75,-5.27
9.829,0.45,1.11,-0.77,10.28,1.79,-5.31,-1.51,-1.2,-3.69
9.829,0.45,1.11,-0.77,12.24,4.49,-7.31,-1.51,-1.2,-3.69
9.847,0.71,1.18,-0.52,12.24,4.49,-7.31,-1.51,-1.2,-3.69
9.856,0.71,1.18,-0.52,12.24,4.49,-7.31,-1.51,-1.2,-3.69
9.868,0.94,0.85,-0.61,12.24,4.49,-7.31,-1.51,-1.2,-3.69
9.87,0.94,0.85,-0.61,12.24,4.49,-7.31,-0.02,-1.18,-0.98
9.872,0.94,0.85,-0.61,12.36,4.55,-7.36,-0.02,-1.18,-0.98
9.887,-0.61,2.04,1.71,12.36,4.55,-7.36,-0.02,-1.18,-0.98
9.906,-2.56,2.16,-1.16,12.36,4.55,-7.36,-0.02,-1.18,-0.98
9.908,-2.56,2.16,-1.16,12.36,4.55,-7.36,0.74,0.31,0.98
9.909,-2.56,2.16,-1.16,6.48,4.52,2.26,0.74,0.31,0.98
9.916,-2.56,2.16,-1.16,6.48,4.52,2.26,0.74,0.31,0.98
9.927,-2.03,0.33,-1.39,6.48,4.52,2.26,0.74,0.31,0.98
9.947,1.42,0.79,0.49,6.48,4.52,2.26,0.74,0.31,0.98
9.949,1.42,0.79,0.49,6.48,4.52,2.26,1.89,-2.47,0.7
9.95,1.42,0.79,0.49,-7.37,1.88,-5.86,1.89,-2.47,0.7
9.966,3.3,1.46,-0.53,-7.37,1.88,-5.86,1.89,-2.47,0.7
9.998,3.3,1.46,-0.53,-7.37,1.88,-5.86,1.89,-2.47,0.7
10,-0.04,0.89,-0.34,-7.37,1.88,-5.86,1.89,-2.47,0.7
10.001,-0.04,0.89,-0.34,-7.37,1.88,-5.86,1.62,-3.67,2.79
10.001,-0.04,0.89,-0.34,-8.08,1.63,-5.57,1.62,-3.67,2.79
10.008,-0.62,0.93,-1,-8.08,1.63,-5.57,1.62,-3.67,2.79
10.027,-0.71,1.2,-0.52,-8.08,1.63,-5.57,1.62,-3.67,2.79
10.028,-0.71,1.2,-0.52,-8.08,1.63,-5.57,1.19,2.5,-0.03
10.029,-0.71,1.2,-0.52,10.6,1.65,-4.23,1.19,2.5,-0.03
10.035,-0.71,1.2,-0.52,10.6,1.65,-4.23,1.19,2.5,-0.03
10.045,-0.92,0.81,-0.03,10.6,1.65,-4.23,1.19,2.5,-0.03
10.065,-0.33,0.7,-0.01,10.6,1.65,-4.23,1.19,2.5,-0.03
10.069,-0.33,0.7,-0.01,10.6,1.65,-4.23,0.39,1.71,0.37
10.071,-0.33,0.7,-0.01,-4.63,-0.21,0.3,0.39,1.71,0.37
10.084,-0.4,0.95,-0.17,-4.63,-0.21,0.3,0.39,1.71,0.37
10.116,-0.4,0.95,-0.17,-4.63,-0.21,0.3,0.39,1.71,0.37
10.118,-0.13,1.04,-0.23,-4.63,-0.21,0.3,0.39,1.71,0.37
10.119,-0.13,1.04,-0.23,-4.63,-0.21,0.3,0.49,0.1,1.17
10.119,-0.13,1.04,-0.23,-4.97,-0.23,0.48,0.49,0.1,1.17
10.124,0.06,0.96,-0.2,-4.97,-0.23,0.48,0.49,0.1,1.17
10.145,-0.18,0.94,-0.2,-4.97,-0.23,0.48,0.49,0.1,1.17
10.147,-0.18,0.94,-0.2,-4.97,-0.23,0.48,0.64,0.77,1.21
10.148,-0.18,0.94,-0.2,-0.61,0.56,0.57,0.64,0.77,1.21
10.155,-0.18,0.94,-0.2,-0.61,0.56,0.57,0.64,0.77,1.21
10.164,-0.34,0.95,-0.28,-0.61,0.56,0.57,0.64,0.77,1.21
10.184,-0.14,0.96,-0.28,-0.61,0.56,0.57,0.64,0.77,1.21
10.185,-0.14,0.96,-0.28,-0.61,0.56,0.57,0.66,0.89,1.17
10.187,-0.14,0.96,-0.28,-1.7,0.23,0.35,0.66,0.89,1.17
10.211,0.08,0.96,-0.26,-1.7,0.23,0.35,0.66,0.89,1.17
10.217,0.08,0.96,-0.26,-1.7,0.23,0.35,0.66,0.89,1.17
10.222,0.11,1.01,-0.33,-1.7,0.23,0.35,0.66,0.89,1.17
10.223,0.11,1.01,-0.33,-1.7,0.23,0.35,0.65,0.2,1.27
10.224,0.11,1.01,-0.33,-2.14,0.29,0.58,0.65,0.2,1.27
10.242,0.15,1.07,-0.41,-2.14,0.29,0.58,0.65,0.2,1.27
10.263,0.31,1.11,-0.4,-2.14,0.29,0.58,0.65,0.2,1.27
10.266,0.31,1.11,-0.4,-2.14,0.29,0.58,0.63,0.15,1.09
10.268,0.31,1.11,-0.4,0.68,0.99,-0.01,0.63,0.15,1.09
10.275,0.31,1.11,-0.4,0.68,0.99,-0.01,0.63,0.15,1.09
10.283,0.31,1.1,-0.35,0.68,0.99,-0.01,0.63,0.15,1.09
10.316,0.03,1.06,-0.28,0.68,0.99,-0.01,0.63,0.15,1.09
10.318,0.03,1.06,-0.28,0.68,0.99,-0.01,0.5,0.6,0.73
10.319,0.03,1.06,-0.28,1.35,1.78,0.05,0.5,0.6,0.73
10.322,-0.33,1,-0.16,1.35,1.78,0.05,0.5,0.6,0.73
10.351,-0.33,1,-0.16,1.35,1.78,0.05,0.5,0.6,0.73
10.353,-0.55,0.92,-0.15,1.35,1.78,0.05,0.5,0.6,0.73
10.355,-0.55,0.92,-0.15,1.35,1.78,0.05,0.5,1.36,0.69
10.356,-0.55,0.92,-0.15,0.91,1.84,0.17,0.5,1.36,0.69
10.361,-0.43,1.09,-0.23,0.91,1.84,0.17,0.5,1.36,0.69
10.381,-0.43,1.09,-0.23,-6.08,1.18,1.92,0.5,1.36,0.69
10.383,-0.24,1.39,-0.17,-6.08,1.18,1.92,0.5,1.36,0.69
10.384,-0.24,1.39,-0.17,-6.08,1.18,1.92,0.67,0.95,1.58
10.405,-0.24,1.39,-0.17,-6.08,1.18,1.92,0.67,0.95,1.58
10.407,-0.15,1.3,-0.08,-6.08,1.18,1.92,0.67,0.95,1.58
10.439,-0.06,1.13,-0.14,-6.08,1.18,1.92,0.67,0.95,1.58
10.441,-0.06,1.13,-0.14,-6.08,1.18,1.92,0.8,0.55,2.49
10.442,-0.06,1.13,-0.14,-4.1,4.13,2.57,0.8,0.55,2.49
10.443,0.1,1.26,-0.29,-4.1,4.13,2.57,0.8,0.55,2.49
10.455,0.1,1.26,-0.29,-4.1,4.13,2.57,0.8,0.55,2.49
10.46,0.18,1.85,-0.18,-4.1,4.13,2.57,0.8,0.55,2.49
10.461,0.18,1.85,-0.18,-4.1,4.13,2.57,0.8,0.87,2.89
10.462,0.18,1.85,-0.18,-5.08,4.53,2.68,0.8,0.87,2.89
10.49,-0.01,2.03,-0.05,-5.08,4.53,2.68,0.8,0.87,2.89
10.518,-0.01,2.03,-0.05,-3.85,9.17,1.88,0.8,0.87,2.89
10.522,-1.03,1.45,-0.47,-3.85,9.17,1.88,0.8,0.87,2.89
10.523,-1.03,1.45,-0.47,-3.85,9.17,1.88,0.79,3.45,2.19
10.524,-1.03,1.45,-0.47,-3.85,9.17,1.88,0.79,3.45,2.19
10.525,-1.56,1.18,-1.01,-3.85,9.17,1.88,0.79,3.45,2.19
10.538,-0.27,2,-0.41,-3.85,9.17,1.88,0.79,3.45,2.19
10.54,-0.27,2,-0.41,-3.85,9.17,1.88,0.73,4.38,1.43
10.541,-0.27,2,-0.41,-14.83,7.74,-3.2,0.73,4.38,1.43
10.559,1.27,1.89,-0.38,-14.83,7.74,-3.2,0.73,4.38,1.43
10.575,1.27,1.89,-0.38,-14.83,7.74,-3.2,0.73,4.38,1.43
10.582,1.12,1.05,-0.71,-14.83,7.74,-3.2,0.73,4.38,1.43
10.587,1.12,1.05,-0.71,-14.83,7.74,-3.2,0.55,0.48,3.3
10.589,1.12,1.05,-0.71,-15.53,8.44,-3.1,0.55,0.48,3.3
10.599,0.41,0.64,-0.51,-15.53,8.44,-3.1,0.55,0.48,3.3
10.621,0.27,0.23,-0.01,-15.53,8.44,-3.1,0.55,0.48,3.3
10.623,0.27,0.23,-0.01,-15.53,8.44,-3.1,0.38,0.2,1.88
10.624,0.27,0.23,-0.01,2.44,5.44,-2.1,0.38,0.2,1.88
10.651,0.27,0.23,-0.01,2.44,5.44,-2.1,0.38,0.2,1.88
10.653,0.42,0.13,-0.59,2.44,5.44,-2.1,0.38,0.2,1.88
10.658,0.23,0.41,0.12,2.44,5.44,-2.1,0.38,0.2,1.88
10.659,0.23,0.41,0.12,-3.59,-3.77,1.45,0.38,0.2,1.88
10.661,0.23,0.41,0.12,-3.59,-3.77,1.45,0.2,0.57,-0.52
10.688,0.25,0.48,0.19,-3.59,-3.77,1.45,0.2,0.57,-0.52
10.702,0.25,0.48,0.19,-3.59,-3.77,1.45,0.2,0.57,-0.52
10.703,0.21,0.36,-0.1,-3.59,-3.77,1.45,0.2,0.57,-0.52
10.704,0.21,0.36,-0.1,-3.59,-3.77,1.45,-0.3,-0.05,-1.53
10.704,0.21,0.36,-0.1,-3.13,-4.13,1.36,-0.3,-0.05,-1.53
10.716,0.07,0.24,-0.07,-3.13,-4.13,1.36,-0.3,-0.05,-1.53
10.737,0.08,0.3,-0.05,-3.13,-4.13,1.36,-0.3,-0.05,-1.53
10.74,0.08,0.3,-0.05,-3.13,-4.13,1.36,-0.63,-0.76,-2.76
10.741,0.08,0.3,-0.05,-3.53,-3.73,2.93,-0.63,-0.76,-2.76
10.754,0.08,0.3,-0.05,-3.53,-3.73,2.93,-0.63,-0.76,-2.76
10.758,0.27,0.45,-0.11,-3.53,-3.73,2.93,-0.63,-0.76,-2.76
10.777,0.37,0.5,-0.04,-3.53,-3.73,2.93,-0.63,-0.76,-2.76
10.78,0.37,0.5,-0.04,-3.53,-3.73,2.93,-0.99,-2.18,-3.77
10.782,0.37,0.5,-0.04,-1.43,-3.94,2.24,-0.99,-2.18,-3.77
10.803,0.51,0.51,-0.05,-1.43,-3.94,2.24,-0.99,-2.18,-3.77
10.845,0.51,0.51,-0.05,-1.43,-3.94,2.24,-0.99,-2.18,-3.77
10.846,0.65,0.62,-0.15,-1.43,-3.94,2.24,-0.99,-2.18,-3.77
10.847,0.65,0.62,-0.15,-1.43,-3.94,2.24,-1.44,-2.31,-4.57
10.848,0.65,0.62,-0.15,0.33,-4.55,1.99,-1.44,-2.31,-4.57
10.848,0.75,0.77,-0.17,0.33,-4.55,1.99,-1.44,-2.31,-4.57
10.854,0.86,0.88,-0.39,0.33,-4.55,1.99,-1.44,-2.31,-4.57
10.855,0.86,0.88,-0.39,0.33,-4.55,1.99,-1.81,-1.36,-5.49
10.855,0.86,0.88,-0.39,6.13,-2.74,0.88,-1.81,-1.36,-5.49
10.873,0.86,0.88,-0.39,6.13,-2.74,0.88,-1.81,-1.36,-5.49
10.874,0.86,1.12,-0.66,6.13,-2.74,0.88,-1.81,-1.36,-5.49
10.894,0.94,1.61,-0.62,6.13,-2.74,0.88,-1.81,-1.36,-5.49
10.895,0.94,1.61,-0.62,6.13,-2.74,0.88,-1.97,-0.9,-5.9
10.895,0.94,1.61,-0.62,10.59,2.91,-4.05,-1.97,-0.9,-5.9
10.913,1.19,1.82,-0.76,10.59,2.91,-4.05,-1.97,-0.9,-5.9
10.933,1.19,1.82,-0.76,10.59,2.91,-4.05,-1.97,-0.9,-5.9
10.934,0.65,1.33,-0.58,10.59,2.91,-4.05,-1.97,-0.9,-5.9
10.935,0.65,1.33,-0.58,10.59,2.91,-4.05,-1.72,-0.85,-5
10.935,0.65,1.33,-0.58,12.14,3.32,-4.66,-1.72,-0.85,-5
10.957,0.32,1.14,-0.7,12.14,3.32,-4.66,-1.72,-0.85,-5
10.974,0.81,0.89,-0.53,12.14,3.32,-4.66,-1.72,-0.85,-5
10.977,0.81,0.89,-0.53,12.14,3.32,-4.66,-0.46,-1.42,-2.11
10.979,0.81,0.89,-0.53,11.02,5.71,-6.09,-0.46,-1.42,-2.11
11,0.81,0.89,-0.53,11.02,5.71,-6.09,-0.46,-1.42,-2.11
11.002,1.09,0.95,-0.59,11.02,5.71,-6.09,-0.46,-1.42,-2.11
11.039,-1.66,2.5,2.25,11.02,5.71,-6.09,-0.46,-1.42,-2.11
11.041,-1.66,2.5,2.25,11.02,5.71,-6.09,0.65,-1.96,1.52
11.043,-1.66,2.5,2.25,4.22,5.59,4.08,0.65,-1.96,1.52
11.044,-2.46,1.37,-1.51,4.22,5.59,4.08,0.65,-1.96,1.52
11.052,-1.04,-0.13,-1.28,4.22,5.59,4.08,0.65,-1.96,1.52
11.055,-1.04,-0.13,-1.28,4.22,5.59,4.08,1.45,-0.18,0.09
11.057,-1.04,-0.13,-1.28,4.12,5.52,4.48,1.45,-0.18,0.09
11.058,-1.04,-0.13,-1.28,4.12,5.52,4.48,1.45,-0.18,0.09
11.073,1.89,1.67,0.21,4.12,5.52,4.48,1.45,-0.18,0.09
11.097,2.39,1.69,-0.12,4.12,5.52,4.48,1.45,-0.18,0.09
11.099,2.39,1.69,-0.12,4.12,5.52,4.48,1.59,-4.28,2.86
11.1,2.39,1.69,-0.12,-2.72,0.58,-7.47,1.59,-4.28,2.86
11.132,-0.07,0.38,-0.57,-2.72,0.58,-7.47,1.59,-4.28,2.86
11.134,-0.07,0.38,-0.57,-2.72,0.58,-7.47,1.59,-4.28,2.86
11.136,-0.35,0.84,-0.9,-2.72,0.58,-7.47,1.59,-4.28,2.86
11.137,-0.35,0.84,-0.9,-2.72,0.58,-7.47,1.42,0.31,1.15
11.137,-0.35,0.84,-0.9,8.4,0.47,-3.65,1.42,0.31,1.15
11.151,-0.88,1.38,-0.54,8.4,0.47,-3.65,1.42,0.31,1.15
11.173,-0.69,0.95,-0.05,8.4,0.47,-3.65,1.42,0.31,1.15
11.176,-0.69,0.95,-0.05,8.4,0.47,-3.65,0.71,2.75,-0.06
11.178,-0.69,0.95,-0.05,8.08,0.52,-3.15,0.71,2.75,-0.06
11.18,-0.69,0.95,-0.05,8.08,0.52,-3.15,0.71,2.75,-0.06
11.201,-0.11,0.67,0,8.08,0.52,-3.15,0.71,2.75,-0.06
11.211,-0.37,0.88,-0.24,8.08,0.52,-3.15,0.71,2.75,-0.06
11.212,-0.37,0.88,-0.24,8.08,0.52,-3.15,0.31,0.02,0.87
11.213,-0.37,0.88,-0.24,-4.12,0.78,0.25,0.31,0.02,0.87
11.23,-0.14,1.07,-0.29,-4.12,0.78,0.25,0.31,0.02,0.87
11.233,-0.14,1.07,-0.29,-4.12,0.78,0.25,0.31,0.02,0.87
11.25,0.06,1,-0.21,-4.12,0.78,0.25,0.31,0.02,0.87
11.251,0.06,1,-0.21,-4.12,0.78,0.25,0.52,0.68,1.13
11.252,0.06,1,-0.21,-0.53,0.65,-0.03,0.52,0.68,1.13
11.27,-0.18,0.96,-0.16,-0.53,0.65,-0.03,0.52,0.68,1.13
11.291,-0.41,0.94,-0.23,-0.53,0.65,-0.03,0.52,0.68,1.13
11.293,-0.41,0.94,-0.23,-0.53,0.65,-0.03,0.52,1.59,1.06
11.295,-0.41,0.94,-0.23,-1.05,0.66,0.19,0.52,1.59,1.06
11.297,-0.41,0.94,-0.23,-1.05,0.66,0.19,0.52,1.59,1.06
11.321,-0.26,0.93,-0.29,-1.05,0.66,0.19,0.52,1.59,1.06
11.35,0.05,0.96,-0.3,-1.05,0.66,0.19,0.52,1.59,1.06
11.351,0.05,0.96,-0.3,-1.05,0.66,0.19,0.56,0.53,1.19
11.352,0.05,0.96,-0.3,-2.76,0.29,0.58,0.56,0.53,1.19
11.353,0.21,1.01,-0.29,-2.76,0.29,0.58,0.56,0.53,1.19
11.354,0.21,1.01,-0.29,-2.76,0.29,0.58,0.56,0.53,1.19
11.368,0.11,1.03,-0.3,-2.76,0.29,0.58,0.56,0.53,1.19
11.37,0.11,1.03,-0.3,-2.76,0.29,0.58,0.59,0.18,1.24
11.371,0.11,1.03,-0.3,0.72,0.92,0.13,0.59,0.18,1.24
11.388,0.03,1.03,-0.33,0.72,0.92,0.13,0.59,0.18,1.24
11.419,0.06,1.04,-0.38,0.72,0.92,0.13,0.59,0.18,1.24
11.42,0.06,1.04,-0.38,0.72,0.92,0.13,0.6,0.72,1.07
11.421,0.06,1.04,-0.38,0.26,1.01,0.32,0.6,0.72,1.07
11.421,0.06,1.04,-0.38,0.26,1.01,0.32,0.6,0.72,1.07
11.427,0.1,1.04,-0.34,0.26,1.01,0.32,0.6,0.72,1.07
11.448,-0.08,1.02,-0.22,0.26,1.01,0.32,0.6,0.72,1.07
11.449,-0.08,1.02,-0.22,0.26,1.01,0.32,0.54,1.04,1.05
11.45,-0.08,1.02,-0.22,-0.81,1.47,-0.11,0.54,1.04,1.05
11.468,-0.34,1.04,-0.23,-0.81,1.47,-0.11,0.54,1.04,1.05
11.472,-0.34,1.04,-0.23,-0.81,1.47,-0.11,0.54,1.04,1.05
11.487,-0.37,1.18,-0.26,-0.81,1.47,-0.11,0.54,1.04,1.05
11.489,-0.37,1.18,-0.26,-0.81,1.47,-0.11,0.55,1.4,1.36
11.491,-0.37,1.18,-0.26,-4.6,2.04,1.08,0.55,1.4,1.36
11.518,-0.21,1.37,-0.15,-4.6,2.04,1.08,0.55,1.4,1.36
11.527,-0.01,1.32,0.01,-4.6,2.04,1.08,0.55,1.4,1.36
11.528,-0.01,1.32,0.01,-4.6,2.04,1.08,0.65,0.92,2.11
11.529,-0.01,1.32,0.01,-5.34,2.29,1.19,0.65,0.92,2.11
11.553,-0.01,1.32,0.01,-5.34,2.29,1.19,0.65,0.92,2.11
11.555,0.07,1.31,-0.01,-5.34,2.29,1.19,0.65,0.92,2.11
11.566,-0.02,1.61,-0.25,-5.34,2.29,1.19,0.65,0.92,2.11
11.568,-0.02,1.61,-0.25,-5.34,2.29,1.19,0.73,0.84,2.75
11.568,-0.02,1.61,-0.25,-4.17,5.11,3.08,0.73,0.84,2.75
11.588,-0.05,2.2,-0.09,-4.17,5.11,3.08,0.73,0.84,2.75
11.593,-0.05,2.2,-0.09,-4.17,5.11,3.08,0.73,0.84,2.75
11.618,-0.8,1.88,-0.26,-4.17,5.11,3.08,0.73,0.84,2.75
11.619,-0.8,1.88,-0.26,-4.17,5.11,3.08,0.68,2.46,2.6
11.62,-0.8,1.88,-0.26,-7.5,10.97,1.42,0.68,2.46,2.6
11.626,-1.4,1.13,-0.96,-7.5,10.97,1.42,0.68,2.46,2.6
11.651,-0.94,1.61,-0.75,-7.5,10.97,1.42,0.68,2.46,2.6
11.654,-0.94,1.61,-0.75,-7.5,10.97,1.42,0.64,4.28,1.56
11.655,-0.94,1.61,-0.75,-8.33,11.17,0.71,0.64,4.28,1.56
11.657,-0.94,1.61,-0.75,-8.33,11.17,0.71,0.64,4.28,1.56
11.665,0.75,1.98,-0.43,-8.33,11.17,0.71,0.64,4.28,1.56
11.686,1.43,1.24,-0.89,-8.33,11.17,0.71,0.64,4.28,1.56
11.689,1.43,1.24,-0.89,-8.33,11.17,0.71,0.36,0.56,2.95
11.691,1.43,1.24,-0.89,-11.39,8.58,-4.27,0.36,0.56,2.95
11.719,0.67,0.79,-0.62,-11.39,8.58,-4.27,0.36,0.56,2.95
11.72,0.67,0.79,-0.62,-11.39,8.58,-4.27,0.36,0.56,2.95
11.724,0.31,0.34,-0.01,-11.39,8.58,-4.27,0.36,0.56,2.95
11.725,0.31,0.34,-0.01,-11.39,8.58,-4.27,0.13,-0.69,2.41
11.725,0.31,0.34,-0.01,1.12,1.51,-1.97,0.13,-0.69,2.41
11.752,0.5,-0.01,-0.52,1.12,1.51,-1.97,0.13,-0.69,2.41
11.765,0.5,-0.01,-0.52,1.09,1.4,-2.16,0.13,-0.69,2.41
11.767,0.24,0.2,-0.21,1.09,1.4,-2.16,0.13,-0.69,2.41
11.768,0.24,0.2,-0.21,1.09,1.4,-2.16,-0.15,0.67,-0.24
11.772,0.24,0.2,-0.21,1.09,1.4,-2.16,-0.15,0.67,-0.24
11.784,0.14,0.39,0.16,1.09,1.4,-2.16,-0.15,0.67,-0.24
11.819,0.18,0.32,-0.22,1.09,1.4,-2.16,-0.15,0.67,-0.24
11.823,0.18,0.32,-0.22,1.09,1.4,-2.16,-0.63,0.28,-1.36
11.825,0.18,0.32,-0.22,-3.51,-4.76,0.67,-0.63,0.28,-1.36
11.829,0.06,0.22,-0.19,-3.51,-4.76,0.67,-0.63,0.28,-1.36
11.855,0.06,0.22,-0.19,-3.51,-4.76,0.67,-0.63,0.28,-1.36
11.857,0.08,0.28,-0.08,-3.51,-4.76,0.67,-0.63,0.28,-1.36
11.858,0.08,0.28,-0.08,-3.51,-4.76,0.67,-0.82,-0.96,-2.37
11.858,0.08,0.28,-0.08,-4.52,-4.55,0.91,-0.82,-0.96,-2.37
11.862,0.26,0.4,-0.12,-4.52,-4.55,0.91,-0.82,-0.96,-2.37
11.896,0.39,0.49,-0.17,-4.52,-4.55,0.91,-0.82,-0.96,-2.37
11.899,0.39,0.49,-0.17,-4.52,-4.55,0.91,-1.01,-2.38,-3.49
11.9,0.39,0.49,-0.17,-3.17,-5.25,1.05,-1.01,-2.38,-3.49
11.901,0.39,0.49,-0.17,-3.17,-5.25,1.05,-1.01,-2.38,-3.49
11.905,0.39,0.54,-0.09,-3.17,-5.25,1.05,-1.01,-2.38,-3.49
11.923,0.5,0.6,-0.17,-3.17,-5.25,1.05,-1.01,-2.38,-3.49
11.925,0.5,0.6,-0.17,-3.17,-5.25,1.05,-1.24,-2.68,-4.13
11.926,0.5,0.6,-0.17,0.78,-3.89,1.37,-1.24,-2.68,-4.13
11.94,0.64,0.73,-0.22,0.78,-3.89,1.37,-1.24,-2.68,-4.13
11.951,0.64,0.73,-0.22,0.78,-3.89,1.37,-1.24,-2.68,-4.13
11.961,0.79,0.91,-0.33,0.78,-3.89,1.37,-1.24,-2.68,-4.13
11.962,0.79,0.91,-0.33,0.78,-3.89,1.37,-1.65,-2.28,-4.87
11.962,0.79,0.91,-0.33,5.5,-1.65,-0.19,-1.65,-2.28,-4.87
11.997,0.94,1.13,-0.57,5.5,-1.65,-0.19,-1.65,-2.28,-4.87
12,0.94,1.13,-0.57,7.48,-1.71,-0.92,-1.65,-2.28,-4.87
12.001,0.97,1.38,-0.62,7.48,-1.71,-0.92,-1.65,-2.28,-4.87
12.002,0.97,1.38,-0.62,7.48,-1.71,-0.92,-2.05,-1.43,-5.58
12.012,0.97,1.38,-0.62,7.48,-1.71,-0.92,-2.05,-1.43,-5.58
12.031,1.23,1.56,-0.66,7.48,-1.71,-0.92,-2.05,-1.43,-5.58
12.04,1.08,1.32,-0.69,7.48,-1.71,-0.92,-2.05,-1.43,-5.58
12.042,1.08,1.32,-0.69,7.48,-1.71,-0.92,-1.96,-0.17,-5.24
12.044,1.08,1.32,-0.69,13.05,4.53,-5.23,-1.96,-0.17,-5.24
12.06,0.3,1.26,-0.61,13.05,4.53,-5.23,-1.96,-0.17,-5.24
12.072,0.3,1.26,-0.61,13.05,4.53,-5.23,-1.96,-0.17,-5.24
12.083,0.04,1.26,-0.47,13.05,4.53,-5.23,-1.96,-0.17,-5.24
12.087,0.04,1.26,-0.47,13.05,4.53,-5.23,-0.8,0.55,-3.47
12.089,0.04,1.26,-0.47,8.45,4.17,-5.1,-0.8,0.55,-3.47
12.101,0.92,0.78,-0.58,8.45,4.17,-5.1,-0.8,0.55,-3.47
12.145,0.25,1.52,0.98,8.45,4.17,-5.1,-0.8,0.55,-3.47
12.148,0.25,1.52,0.98,8.45,4.17,-5.1,0.4,-1.89,0.53
12.15,0.25,1.52,0.98,8.19,4.03,-5.17,0.4,-1.89,0.53
12.152,0.25,1.52,0.98,8.19,4.03,-5.17,0.4,-1.89,0.53
12.155,-2.3,2.31,0.21,8.19,4.03,-5.17,0.4,-1.89,0.53
12.158,-2.04,0.4,-1.96,8.19,4.03,-5.17,0.4,-1.89,0.53
12.159,-2.04,0.4,-1.96,8.19,4.03,-5.17,1.13,-0.32,0.77
12.16,-2.04,0.4,-1.96,-0.39,6.34,2.94,1.13,-0.32,0.77
12.178,0.26,0.6,0.01,-0.39,6.34,2.94,1.13,-0.32,0.77
12.191,0.26,0.6,0.01,-0.39,6.34,2.94,1.13,-0.32,0.77
12.213,0.26,0.6,0.01,7.34,1.11,-5.91,1.13,-0.32,0.77
12.214,3.24,2.06,-0.21,7.34,1.11,-5.91,1.13,-0.32,0.77
12.215,3.24,2.06,-0.21,7.34,1.11,-5.91,1.69,-4.18,2.21
12.217,0.83,0.8,-0.19,7.34,1.11,-5.91,1.69,-4.18,2.21
12.238,-0.43,0.5,-0.87,7.34,1.11,-5.91,1.69,-4.18,2.21
12.239,-0.43,0.5,-0.87,7.34,1.11,-5.91,1.37,-1.13,1.9
12.24,-0.43,0.5,-0.87,6.61,0.99,-5.44,1.37,-1.13,1.9
12.251,-0.43,0.5,-0.87,6.61,0.99,-5.44,1.37,-1.13,1.9
12.258,-0.43,1.27,-0.81,6.61,0.99,-5.44,1.37,-1.13,1.9
12.278,-0.86,1.2,-0.21,6.61,0.99,-5.44,1.37,-1.13,1.9
12.28,-0.86,1.2,-0.21,6.61,0.99,-5.44,0.88,3.14,-0.11
12.282,-0.86,1.2,-0.21,1.53,-0.57,-3.9,0.88,3.14,-0.11
12.302,-0.28,0.75,-0.01,1.53,-0.57,-3.9,0.88,3.14,-0.11
12.311,-0.28,0.75,-0.01,1.53,-0.57,-3.9,0.88,3.14,-0.11
12.323,-0.4,0.72,-0.07,1.53,-0.57,-3.9,0.88,3.14,-0.11
12.325,-0.4,0.72,-0.07,1.53,-0.57,-3.9,0.22,0.6,0.58
12.327,-0.4,0.72,-0.07,-3.58,-0.24,1.3,0.22,0.6,0.58
12.336,-0.48,0.96,-0.29,-3.58,-0.24,1.3,0.22,0.6,0.58
12.355,-0.07,0.99,-0.26,-3.58,-0.24,1.3,0.22,0.6,0.58
12.357,-0.07,0.99,-0.26,-3.58,-0.24,1.3,0.47,0.3,1.04
12.359,-0.07,0.99,-0.26,-3.91,-0.24,1.45,0.47,0.3,1.04
12.371,-0.07,0.99,-0.26,-3.91,-0.24,1.45,0.47,0.3,1.04
12.376,-0.03,0.97,-0.14,-3.91,-0.24,1.45,0.47,0.3,1.04
12.395,-0.26,0.98,-0.18,-3.91,-0.24,1.45,0.47,0.3,1.04
12.397,-0.26,0.98,-0.18,-3.91,-0.24,1.45,0.57,1.38,1.13
12.398,-0.26,0.98,-0.18,-1.29,0.57,0.46,0.57,1.38,1.13
12.427,-0.35,0.94,-0.28,-1.29,0.57,0.46,0.57,1.38,1.13
12.446,-0.35,0.94,-0.28,-1.29,0.57,0.46,0.57,1.38,1.13
12.448,-0.16,0.9,-0.3,-1.29,0.57,0.46,0.57,1.38,1.13
12.449,-0.16,0.9,-0.3,-1.29,0.57,0.46,0.67,0.76,1.27
12.45,-0.16,0.9,-0.3,-2.42,0.3,0.46,0.67,0.76,1.27
12.455,0.1,0.95,-0.35,-2.42,0.3,0.46,0.67,0.76,1.27
12.474,0.22,1.03,-0.3,-2.42,0.3,0.46,0.67,0.76,1.27
12.476,0.22,1.03,-0.3,-2.42,0.3,0.46,0.69,-0.11,1.42
12.477,0.22,1.03,-0.3,-2.85,0.39,0.69,0.69,-0.11,1.42
12.492,0.22,1.03,-0.3,-2.85,0.39,0.69,0.69,-0.11,1.42
12.495,0.15,1.05,-0.35,-2.85,0.39,0.69,0.69,-0.11,1.42
12.519,0.11,1.03,-0.39,-2.85,0.39,0.69,0.69,-0.11,1.42
12.52,0.11,1.03,-0.39,-2.85,0.39,0.69,0.69,0.38,1.23
12.521,0.11,1.03,-0.39,0.69,1.16,0.1,0.69,0.38,1.23
12.557,0.12,1.05,-0.39,0.69,1.16,0.1,0.69,0.38,1.23
12.56,0.12,1.05,-0.39,0.69,1.16,0.1,0.69,0.38,1.23
12.562,0.07,1.08,-0.31,0.69,1.16,0.1,0.69,0.38,1.23
12.564,0.07,1.08,-0.31,0.69,1.16,0.1,0.62,0.73,1.09
12.566,0.07,1.08,-0.31,-0.3,1.69,-0.02,0.62,0.73,1.09
12.573,-0.14,1.06,-0.23,-0.3,1.69,-0.02,0.62,0.73,1.09
12.596,-0.14,1.06,-0.23,-0.85,1.82,0.11,0.62,0.73,1.09
12.623,-0.33,1.1,-0.25,-0.85,1.82,0.11,0.62,0.73,1.09
12.624,-0.33,1.1,-0.25,-0.85,1.82,0.11,0.59,1.16,1.18
12.624,-0.33,1.1,-0.25,-0.85,1.82,0.11,0.59,1.16,1.18
12.624,-0.26,1.3,-0.24,-0.85,1.82,0.11,0.59,1.16,1.18
12.638,-0.15,1.33,-0.13,-0.85,1.82,0.11,0.59,1.16,1.18
12.639,-0.15,1.33,-0.13,-0.85,1.82,0.11,0.64,1.31,1.82
12.639,-0.15,1.33,-0.13,-4.94,3,1.4,0.64,1.31,1.82
12.652,0.02,1.2,-0.09,-4.94,3,1.4,0.64,1.31,1.82
12.669,0.02,1.2,-0.09,-4.94,3,1.4,0.64,1.31,1.82
12.671,0.14,1.28,-0.14,-4.94,3,1.4,0.64,1.31,1.82
12.672,0.14,1.28,-0.14,-4.94,3,1.4,0.7,1.02,2.51
12.672,0.14,1.28,-0.14,-3.42,4.47,2.66,0.7,1.02,2.51
12.692,0.09,1.89,-0.19,-3.42,4.47,2.66,0.7,1.02,2.51
12.719,-0.35,2.3,-0.04,-3.42,4.47,2.66,0.7,1.02,2.51
12.72,-0.35,2.3,-0.04,-3.42,4.47,2.66,0.66,2,2.56
12.721,-0.35,2.3,-0.04,-4.43,4.89,2.5,0.66,2,2.56
12.73,-0.35,2.3,-0.04,-4.43,4.89,2.5,0.66,2,2.56
12.731,-1.27,1.48,-0.5,-4.43,4.89,2.5,0.66,2,2.56
12.761,-1.59,1.22,-1.1,-4.43,4.89,2.5,0.66,2,2.56
12.764,-1.59,1.22,-1.1,-4.43,4.89,2.5,0.7,4.45,1.73
12.765,-1.59,1.22,-1.1,-10.39,11.25,0.59,0.7,4.45,1.73
12.772,-0.38,2.04,-0.51,-10.39,11.25,0.59,0.7,4.45,1.73
12.79,-0.38,2.04,-0.51,-10.39,11.25,0.59,0.7,4.45,1.73
12.793,1.15,1.74,-0.64,-10.39,11.25,0.59,0.7,4.45,1.73
12.795,1.15,1.74,-0.64,-10.39,11.25,0.59,0.48,1.65,2.43
12.796,1.15,1.74,-0.64,-8.79,9.49,-4.51,0.48,1.65,2.43
12.82,1.05,0.99,-0.7,-8.79,9.49,-4.51,0.48,1.65,2.43
12.83,0.54,0.69,-0.39,-8.79,9.49,-4.51,0.48,1.65,2.43
12.831,0.54,0.69,-0.39,-8.79,9.49,-4.51,0.44,-0.99,2.91
12.832,0.54,0.69,-0.39,-9.25,10.11,-4.07,0.44,-0.99,2.91
12.853,0.54,0.69,-0.39,-9.25,10.11,-4.07,0.44,-0.99,2.91
12.854,0.52,0.22,-0.03,-9.25,10.11,-4.07,0.44,-0.99,2.91
12.871,0.54,0.15,-0.52,-9.25,10.11,-4.07,0.44,-0.99,2.91
12.873,0.54,0.15,-0.52,-9.25,10.11,-4.07,0.15,0.53,0.36
12.873,0.54,0.15,-0.52,0.2,0.13,-0.54,0.15,0.53,0.36
12.891,0.18,0.47,0.11,0.2,0.13,-0.54,0.15,0.53,0.36
12.93,0.18,0.47,0.11,0.2,0.13,-0.54,0.15,0.53,0.36
12.934,0.15,0.5,0.07,0.2,0.13,-0.54,0.15,0.53,0.36
12.937,0.15,0.5,0.07,0.2,0.13,-0.54,-0.19,0.75,-1.16
12.938,0.15,0.5,0.07,-3.61,-2.74,1.77,-0.19,0.75,-1.16
12.939,0.07,0.31,-0.14,-3.61,-2.74,1.77,-0.19,0.75,-1.16
12.963,0,0.19,-0.04,-3.61,-2.74,1.77,-0.19,0.75,-1.16
12.966,0,0.19,-0.04,-3.61,-2.74,1.77,-0.62,-0.41,-2.1
12.968,0,0.19,-0.04,-2.96,-3.26,1.68,-0.62,-0.41,-2.1
12.973,0.11,0.3,-0.01,-2.96,-3.26,1.68,-0.62,-0.41,-2.1
12.975,0.11,0.3,-0.01,-2.96,-3.26,1.68,-0.62,-0.41,-2.1
12.988,0.33,0.46,-0.11,-2.96,-3.26,1.68,-0.62,-0.41,-2.1
12.989,0.33,0.46,-0.11,-2.96,-3.26,1.68,-0.94,-2.08,-3.56
12.99,0.33,0.46,-0.11,-3.87,-5.05,2.29,-0.94,-2.08,-3.56
13.011,0.54,0.56,-0.13,-3.87,-5.05,2.29,-0.94,-2.08,-3.56
13.029,0.76,0.57,-0.06,-3.87,-5.05,2.29,-0.94,-2.08,-3.56
13.03,0.76,0.57,-0.06,-3.87,-5.05,2.29,-1.32,-2.54,-4.39
13.031,0.76,0.57,-0.06,2.52,-3.18,1.79,-1.32,-2.54,-4.39
13.032,0.76,0.57,-0.06,2.52,-3.18,1.79,-1.32,-2.54,-4.39
13.047,0.81,0.47,0.01,2.52,-3.18,1.79,-1.32,-2.54,-4.39
13.069,0.81,0.47,0.01,4.42,-3.67,1.28,-1.32,-2.54,-4.39
13.073,0.84,0.53,-0.14,4.42,-3.67,1.28,-1.32,-2.54,-4.39
13.076,0.84,0.53,-0.14,4.42,-3.67,1.28,-1.72,-1.27,-5.35
13.09,0.91,0.89,-0.47,4.42,-3.67,1.28,-1.72,-1.27,-5.35
13.093,0.91,0.89,-0.47,4.42,-3.67,1.28,-1.72,-1.27,-5.35
13.123,0.85,1.3,-0.67,4.42,-3.67,1.28,-1.72,-1.27,-5.35
13.126,0.85,1.3,-0.67,4.42,-3.67,1.28,-1.8,-0.39,-6.12
13.128,0.85,1.3,-0.67,9.48,-2.78,-0.34,-1.8,-0.39,-6.12
13.133,1.01,1.94,-0.87,9.48,-2.78,-0.34,-1.8,-0.39,-6.12
13.147,0.72,1.89,-0.61,9.48,-2.78,-0.34,-1.8,-0.39,-6.12
13.149,0.72,1.89,-0.61,9.48,-2.78,-0.34,-1.77,-0.94,-5.75
13.151,0.72,1.89,-0.61,11.41,8.08,-5.97,-1.77,-0.94,-5.75
13.153,0.72,1.89,-0.61,11.41,8.08,-5.97,-1.77,-0.94,-5.75
13.167,0,1.25,-0.72,11.41,8.08,-5.97,-1.77,-0.94,-5.75
13.188,0,1.25,-0.72,12.32,8.35,-6.55,-1.77,-0.94,-5.75
13.192,0.61,0.84,-0.74,12.32,8.35,-6.55,-1.77,-0.94,-5.75
13.193,0.61,0.84,-0.74,12.32,8.35,-6.55,-0.91,-2.63,-3.13
13.222,1.93,0.76,-0.71,12.32,8.35,-6.55,-0.91,-2.63,-3.13
13.225,1.93,0.76,-0.71,12.32,8.35,-6.55,-0.91,-2.63,-3.13
13.227,-0.72,2.17,2.07,12.32,8.35,-6.55,-0.91,-2.63,-3.13
13.229,-0.72,2.17,2.07,12.32,8.35,-6.55,0.52,-3.24,1.08
13.231,-0.72,2.17,2.07,11.67,0.75,-6.8,0.52,-3.24,1.08
13.258,-2.52,1.62,-2.08,11.67,0.75,-6.8,0.52,-3.24,1.08
13.265,-1.76,0.49,-1.22,11.67,0.75,-6.8,0.52,-3.24,1.08
13.266,-1.76,0.49,-1.22,11.67,0.75,-6.8,1.68,0.36,0.03
13.267,-1.76,0.49,-1.22,-12.8,5.35,-3.04,1.68,0.36,0.03
13.27,-1.76,0.49,-1.22,-12.8,5.35,-3.04,1.68,0.36,0.03
13.285,3.18,1.96,0.44,-12.8,5.35,-3.04,1.68,0.36,0.03
13.323,2.7,1.04,-0.16,-12.8,5.35,-3.04,1.68,0.36,0.03
13.327,2.7,1.04,-0.16,-12.8,5.35,-3.04,1.55,-2.94,2.91
13.331,2.7,1.04,-0.16,-13.46,4.97,-2.82,1.55,-2.94,2.91
13.334,-0.64,0.29,-0.69,-13.46,4.97,-2.82,1.55,-2.94,2.91
13.336,-0.64,0.29,-0.69,-13.46,4.97,-2.82,1.55,-2.94,2.91
13.35,-1.57,1.21,-1.05,-13.46,4.97,-2.82,1.55,-2.94,2.91
13.352,-1.57,1.21,-1.05,-13.46,4.97,-2.82,1.31,1.88,0.57
13.353,-1.57,1.21,-1.05,19.38,1.74,0.5,1.31,1.88,0.57
13.363,-1.61,1.07,-0.26,19.38,1.74,0.5,1.31,1.88,0.57
13.385,-0.26,0.53,-0.14,19.38,1.74,0.5,1.31,1.88,0.57
13.388,-0.26,0.53,-0.14,19.38,1.74,0.5,0.47,1.49,0.2
13.39,-0.26,0.53,-0.14,-9.04,0.15,-2.57,0.47,1.49,0.2
13.391,-0.26,0.53,-0.14,-9.04,0.15,-2.57,0.47,1.49,0.2
13.427,0.14,0.73,-0.06,-9.04,0.15,-2.57,0.47,1.49,0.2
13.43,-0.05,1.24,-0.12,-9.04,0.15,-2.57,0.47,1.49,0.2
13.432,-0.05,1.24,-0.12,-9.04,0.15,-2.57,0.33,0.03,1.5
13.434,-0.05,1.24,-0.12,-9.42,0.06,-2.4,0.33,0.03,1.5
13.47,-0.14,1.16,-0.14,-9.42,0.06,-2.4,0.33,0.03,1.5
13.473,-0.14,1.16,-0.14,-9.42,0.06,-2.4,0.33,0.03,1.5
13.474,-0.24,0.82,-0.27,-9.42,0.06,-2.4,0.33,0.03,1.5
13.475,-0.24,0.82,-0.27,-9.42,0.06,-2.4,0.59,1.33,1.31
13.477,-0.24,0.82,-0.27,1.06,1.1,1.55,0.59,1.33,1.31
13.482,-0.12,0.87,-0.36,1.06,1.1,1.55,0.59,1.33,1.31
13.519,-0.12,0.87,-0.36,-0.32,-0.22,-0.1,0.59,1.33,1.31
13.521,0.05,1.03,-0.27,-0.32,-0.22,-0.1,0.59,1.33,1.31
13.522,0.05,1.03,-0.27,-0.32,-0.22,-0.1,0.59,0.7,1.22
13.523,0.05,1.03,-0.27,-0.32,-0.22,-0.1,0.59,0.7,1.22
13.524,0.07,1.02,-0.28,-0.32,-0.22,-0.1,0.59,0.7,1.22
13.544,0,0.98,-0.3,-0.32,-0.22,-0.1,0.59,0.7,1.22
13.546,0,0.98,-0.3,-0.32,-0.22,-0.1,0.5,0.62,1.1
13.546,0,0.98,-0.3,-0.77,-0.18,0.09,0.5,0.62,1.1
13.561,0.02,1.02,-0.34,-0.77,-0.18,0.09,0.5,0.62,1.1
13.568,0.02,1.02,-0.34,-0.77,-0.18,0.09,0.5,0.62,1.1
13.581,0.1,1.03,-0.33,-0.77,-0.18,0.09,0.5,0.62,1.1
13.583,0.1,1.03,-0.33,-0.77,-0.18,0.09,0.46,0.73,0.94
13.584,0.1,1.03,-0.33,0.12,0.85,0.17,0.46,0.73,0.94
13.619,0.12,0.99,-0.29,0.12,0.85,0.17,0.46,0.73,0.94
13.622,0.09,1.03,-0.25,0.12,0.85,0.17,0.46,0.73,0.94
13.623,0.09,1.03,-0.25,0.12,0.85,0.17,0.37,0.44,0.89
13.623,0.09,1.03,-0.25,0.43,0.98,0.47,0.37,0.44,0.89
13.628,0.09,1.03,-0.25,0.43,0.98,0.47,0.37,0.44,0.89
13.642,-0.08,1.05,-0.2,0.43,0.98,0.47,0.37,0.44,0.89
13.659,-0.29,1.01,-0.26,0.43,0.98,0.47,0.37,0.44,0.89
13.661,-0.29,1.01,-0.26,0.43,0.98,0.47,0.35,0.65,0.98
13.661,-0.29,1.01,-0.26,0,1.03,0.56,0.35,0.65,0.98
13.68,-0.37,0.97,-0.38,0,1.03,0.56,0.35,0.65,0.98
13.689,-0.37,0.97,-0.38,0,1.03,0.56,0.35,0.65,0.98
13.7,-0.34,1.04,-0.38,0,1.03,0.56,0.35,0.65,0.98
13.702,-0.34,1.04,-0.38,0,1.03,0.56,0.44,1.11,1.43
13.704,-0.34,1.04,-0.38,-3.99,1.09,0.74,0.44,1.11,1.43
13.722,-0.3,1.24,-0.21,-3.99,1.09,0.74,0.44,1.11,1.43
13.75,-0.1,1.35,0.06,-3.99,1.09,0.74,0.44,1.11,1.43
13.752,-0.1,1.35,0.06,-3.99,1.09,0.74,0.59,1.51,1.99
13.753,-0.1,1.35,0.06,-4.79,3.24,1.81,0.59,1.51,1.99
13.754,-0.1,1.35,0.06,-4.79,3.24,1.81,0.59,1.51,1.99
13.758,0.13,1.33,0.19,-4.79,3.24,1.81,0.59,1.51,1.99
13.78,0.18,1.54,-0.05,-4.79,3.24,1.81,0.59,1.51,1.99
13.783,0.18,1.54,-0.05,-4.79,3.24,1.81,0.61,0.98,2.62
13.785,0.18,1.54,-0.05,-5.7,3.56,1.87,0.61,0.98,2.62
13.799,0.03,2,-0.07,-5.7,3.56,1.87,0.61,0.98,2.62
13.827,0.03,2,-0.07,-5.7,3.56,1.87,0.61,0.98,2.62
13.831,-0.59,1.79,-0.14,-5.7,3.56,1.87,0.61,0.98,2.62
13.833,-0.59,1.79,-0.14,-5.7,3.56,1.87,0.45,1.68,2.62
13.834,-0.59,1.79,-0.14,-3.2,7.92,3.66,0.45,1.68,2.62
13.856,-1.56,1.39,-0.77,-3.2,7.92,3.66,0.45,1.68,2.62
13.86,-1.34,1.4,-1.01,-3.2,7.92,3.66,0.45,1.68,2.62
13.861,-1.34,1.4,-1.01,-3.2,7.92,3.66,0.45,3.32,1.76
13.862,-1.34,1.4,-1.01,-16.38,7.26,-3.27,0.45,3.32,1.76
13.872,-1.34,1.4,-1.01,-16.38,7.26,-3.27,0.45,3.32,1.76
13.877,0.53,1.84,-0.38,-16.38,7.26,-3.27,0.45,3.32,1.76
13.897,1.3,1.46,-0.62,-16.38,7.26,-3.27,0.45,3.32,1.76
13.9,1.3,1.46,-0.62,-16.38,7.26,-3.27,0.35,0.18,2.92
13.902,1.3,1.46,-0.62,-16.96,7.8,-3.15,0.35,0.18,2.92
13.923,0.7,1.01,-0.74,-16.96,7.8,-3.15,0.35,0.18,2.92
13.961,0.7,1.01,-0.74,-16.96,7.8,-3.15,0.35,0.18,2.92
13.963,0.37,0.71,-0.26,-16.96,7.8,-3.15,0.35,0.18,2.92
13.964,0.37,0.71,-0.26,-16.96,7.8,-3.15,0.35,-0.61,2.58
13.966,0.37,0.71,-0.26,2.01,7.42,-2.31,0.35,-0.61,2.58
13.966,0.39,0.25,-0.26,2.01,7.42,-2.31,0.35,-0.61,2.58
13.976,0.36,0.16,-0.56,2.01,7.42,-2.31,0.35,-0.61,2.58
13.978,0.36,0.16,-0.56,2.01,7.42,-2.31,-0.03,1.1,0.32
13.979,0.36,0.16,-0.56,-2.78,-2.84,-0.43,-0.03,1.1,0.32
13.988,0.36,0.16,-0.56,-2.78,-2.84,-0.43,-0.03,1.1,0.32
13.997,0.27,0.42,0,-2.78,-2.84,-0.43,-0.03,1.1,0.32
14.016,0.29,0.46,-0.03,-2.78,-2.84,-0.43,-0.03,1.1,0.32
14.019,0.29,0.46,-0.03,-2.78,-2.84,-0.43,-0.49,0.53,-0.92
14.02,0.29,0.46,-0.03,-2.56,-3.07,-0.68,-0.49,0.53,-0.92
14.05,0.12,0.32,-0.32,-2.56,-3.07,-0.68,-0.49,0.53,-0.92
14.052,0.12,0.32,-0.32,-2.56,-3.07,-0.68,-0.49,0.53,-0.92
14.055,-0.02,0.22,-0.23,-2.56,-3.07,-0.68,-0.49,0.53,-0.92
14.056,-0.02,0.22,-0.23,-2.56,-3.07,-0.68,-0.91,-0.45,-1.84
14.057,-0.02,0.22,-0.23,-3.35,-3.32,1.54,-0.91,-0.45,-1.84
14.075,0.03,0.29,-0.1,-3.35,-3.32,1.54,-0.91,-0.45,-1.84
14.095,0.26,0.47,-0.29,-3.35,-3.32,1.54,-0.91,-0.45,-1.84
14.096,0.26,0.47,-0.29,-3.35,-3.32,1.54,-1.24,-2.17,-3.43
14.097,0.26,0.47,-0.29,-3.38,-4.76,0.67,-1.24,-2.17,-3.43
14.114,0.26,0.47,-0.29,-3.38,-4.76,0.67,-1.24,-2.17,-3.43
14.116,0.38,0.6,-0.26,-3.38,-4.76,0.67,-1.24,-2.17,-3.43
14.149,0.53,0.67,-0.21,-3.38,-4.76,0.67,-1.24,-2.17,-3.43
14.15,0.53,0.67,-0.21,-3.38,-4.76,0.67,-1.46,-3.2,-4.09
14.151,0.53,0.67,-0.21,-1.67,-5.38,0.61,-1.46,-3.2,-4.09
14.154,0.73,0.71,-0.34,-1.67,-5.38,0.61,-1.46,-3.2,-4.09
14.17,0.73,0.71,-0.34,-1.67,-5.38,0.61,-1.46,-3.2,-4.09
14.174,0.87,0.83,-0.34,-1.67,-5.38,0.61,-1.46,-3.2,-4.09
14.176,0.87,0.83,-0.34,-1.67,-5.38,0.61,-1.8,-2.63,-4.62
14.178,0.87,0.83,-0.34,4.62,-2.52,-0.42,-1.8,-2.63,-4.62
14.193,0.93,0.92,-0.48,4.62,-2.52,-0.42,-1.8,-2.63,-4.62
14.216,0.82,1.04,-0.65,4.62,-2.52,-0.42,-1.8,-2.63,-4.62
14.219,0.82,1.04,-0.65,4.62,-2.52,-0.42,-2.03,-1.09,-5.45
14.22,0.82,1.04,-0.65,9.67,-0.01,-3.27,-2.03,-1.09,-5.45
14.227,0.82,1.04,-0.65,9.67,-0.01,-3.27,-2.03,-1.09,-5.45
14.233,0.87,1.37,-0.74,9.67,-0.01,-3.27,-2.03,-1.09,-5.45
14.257,1.02,1.53,-0.73,9.67,-0.01,-3.27,-2.03,-1.09,-5.45
14.26,1.02,1.53,-0.73,9.67,-0.01,-3.27,-1.66,-0.08,-5.4
14.261,1.02,1.53,-0.73,11.4,0.35,-3.79,-1.66,-0.08,-5.4
14.272,0.68,1.34,-0.61,11.4,0.35,-3.79,-1.66,-0.08,-5.4
14.287,0.68,1.34,-0.61,11.4,0.35,-3.79,-1.66,-0.08,-5.4
14.291,0.41,1.13,-0.56,11.4,0.35,-3.79,-1.66,-0.08,-5.4
14.292,0.41,1.13,-0.56,11.4,0.35,-3.79,-0.9,0.22,-3.85
14.293,0.41,1.13,-0.56,12.32,5.52,-5.94,-0.9,0.22,-3.85
14.325,0.63,0.86,-0.48,12.32,5.52,-5.94,-0.9,0.22,-3.85
14.332,0.76,0.67,-0.55,12.32,5.52,-5.94,-0.9,0.22,-3.85
14.335,0.76,0.67,-0.55,12.32,5.52,-5.94,0.28,-1.07,-0.47
14.336,0.76,0.67,-0.55,9.86,0.45,-4.4,0.28,-1.07,-0.47
14.364,0.76,0.67,-0.55,9.86,0.45,-4.4,0.28,-1.07,-0.47
14.373,-0.3,1.91,1.39,9.86,0.45,-4.4,0.28,-1.07,-0.47
14.375,-2.73,2.75,0.19,9.86,0.45,-4.4,0.28,-1.07,-0.47
14.377,-2.73,2.75,0.19,9.86,0.45,-4.4,0.89,-1.02,1.86
14.378,-2.73,2.75,0.19,9.12,0.2,-4.18,0.89,-1.02,1.86
14.391,-1.36,-0.02,-1.71,9.12,0.2,-4.18,0.89,-1.02,1.86
14.426,-1.36,-0.02,-1.71,9.12,0.2,-4.18,0.89,-1.02,1.86
14.43,0.74,0.24,-0.47,9.12,0.2,-4.18,0.89,-1.02,1.86
14.432,0.74,0.24,-0.47,9.12,0.2,-4.18,1.5,-2.77,0.39
14.434,0.74,0.24,-0.47,-10.95,6.61,0.76,1.5,-2.77,0.39
14.437,2.67,2.45,-0.08,-10.95,6.61,0.76,1.5,-2.77,0.39
14.458,0.79,1.18,-0.1,-10.95,6.61,0.76,1.5,-2.77,0.39
14.462,0.79,1.18,-0.1,-10.95,6.61,0.76,1.34,-4.26,2.7
14.463,0.79,1.18,-0.1,16.09,3.74,-0.97,1.34,-4.26,2.7
14.467,0.79,1.18,-0.1,16.09,3.74,-0.97,1.34,-4.26,2.7
14.471,0,0.32,-0.79,16.09,3.74,-0.97,1.34,-4.26,2.7
14.49,-0.52,1.11,-0.76,16.09,3.74,-0.97,1.34,-4.26,2.7
14.491,-0.52,1.11,-0.76,16.09,3.74,-0.97,1.21,2.35,0.54
14.492,-0.52,1.11,-0.76,15.49,3.7,-0.34,1.21,2.35,0.54
14.512,-1.42,1.19,-0.27,15.49,3.7,-0.34,1.21,2.35,0.54
14.545,-1.42,1.19,-0.27,15.49,3.7,-0.34,1.21,2.35,0.54
14.547,-0.34,0.78,0,15.49,3.7,-0.34,1.21,2.35,0.54
14.549,-0.34,0.78,0,15.49,3.7,-0.34,0.48,2.18,0.13
14.55,-0.34,0.78,0,-4.71,-0.34,-3.77,0.48,2.18,0.13
14.551,-0.14,0.73,-0.08,-4.71,-0.34,-3.77,0.48,2.18,0.13
14.57,-0.14,0.73,-0.08,-1.16,-0.84,1.13,0.48,2.18,0.13
14.572,-0.27,0.97,-0.25,-1.16,-0.84,1.13,0.48,2.18,0.13
14.573,-0.27,0.97,-0.25,-1.16,-0.84,1.13,0.32,-0.44,1.16
14.59,-0.27,0.97,-0.25,-1.16,-0.84,1.13,0.32,-0.44,1.16
14.596,-0.03,1.03,-0.2,-1.16,-0.84,1.13,0.32,-0.44,1.16
14.615,-0.13,0.97,-0.19,-1.16,-0.84,1.13,0.32,-0.44,1.16
14.617,-0.13,0.97,-0.19,-1.16,-0.84,1.13,0.59,1.2,1.27
14.618,-0.13,0.97,-0.19,-1.7,-0.82,1.36,0.59,1.2,1.27
14.627,-0.3,0.94,-0.22,-1.7,-0.82,1.36,0.59,1.2,1.27
14.646,-0.3,0.94,-0.22,-1.7,-0.82,1.36,0.59,1.2,1.27
14.648,-0.24,0.92,-0.28,-1.7,-0.82,1.36,0.59,1.2,1.27
14.649,-0.24,0.92,-0.28,-1.7,-0.82,1.36,0.65,1.26,1.33
14.649,-0.24,0.92,-0.28,-1.35,0.71,0.7,0.65,1.26,1.33
14.667,0.05,0.94,-0.31,-1.35,0.71,0.7,0.65,1.26,1.33
14.687,0.26,0.99,-0.32,-1.35,0.71,0.7,0.65,1.26,1.33
14.689,0.26,0.99,-0.32,-1.35,0.71,0.7,0.62,-0.05,1.51
14.69,0.26,0.99,-0.32,-0.09,0.48,-0.04,0.62,-0.05,1.51
14.706,0.26,0.99,-0.32,-0.09,0.48,-0.04,0.62,-0.05,1.51
14.707,0.28,1.07,-0.34,-0.09,0.48,-0.04,0.62,-0.05,1.51
14.742,0.16,1.1,-0.39,-0.09,0.48,-0.04,0.62,-0.05,1.51
14.745,0.16,1.1,-0.39,-0.09,0.48,-0.04,0.62,0.31,1.31
14.749,0.16,1.1,-0.39,-0.57,0.57,0.17,0.62,0.31,1.31
14.751,0.14,1.08,-0.39,-0.57,0.57,0.17,0.62,0.31,1.31
14.774,0.14,1.08,-0.39,-0.57,0.57,0.17,0.62,0.31,1.31
14.775,0.12,1.06,-0.28,-0.57,0.57,0.17,0.62,0.31,1.31
14.776,0.12,1.06,-0.28,-0.57,0.57,0.17,0.53,0.87,1.01
14.778,0.12,1.06,-0.28,0.6,1.95,-0.4,0.53,0.87,1.01
14.788,-0.11,1.04,-0.17,0.6,1.95,-0.4,0.53,0.87,1.01
14.805,-0.36,1,-0.19,0.6,1.95,-0.4,0.53,0.87,1.01
14.806,-0.36,1,-0.19,0.6,1.95,-0.4,0.53,1.14,1.01
14.807,-0.36,1,-0.19,-2.9,1.57,1.27,0.53,1.14,1.01
14.833,-0.36,1,-0.19,-2.9,1.57,1.27,0.53,1.14,1.01
14.836,-0.3,1.17,-0.26,-2.9,1.57,1.27,0.53,1.14,1.01
14.846,-0.19,1.4,-0.17,-2.9,1.57,1.27,0.53,1.14,1.01
14.847,-0.19,1.4,-0.17,-2.9,1.57,1.27,0.59,0.89,1.71
14.848,-0.19,1.4,-0.17,-3.54,1.76,1.38,0.59,0.89,1.71
14.865,-0.12,1.33,-0.06,-3.54,1.76,1.38,0.59,0.89,1.71
14.884,0.01,1.17,-0.08,-3.54,1.76,1.38,0.59,0.89,1.71
14.886,0.01,1.17,-0.08,-3.54,1.76,1.38,0.67,0.57,2.52
14.887,0.01,1.17,-0.08,-5.16,4.68,1.98,0.67,0.57,2.52
14.887,0.01,1.17,-0.08,-5.16,4.68,1.98,0.67,0.57,2.52
14.908,-0.05,1.55,-0.24,-5.16,4.68,1.98,0.67,0.57,2.52
14.927,-0.05,1.55,-0.24,-4.32,7.62,2.01,0.67,0.57,2.52
14.93,-0.02,1.96,-0.17,-4.32,7.62,2.01,0.67,0.57,2.52
14.932,-0.02,1.96,-0.17,-4.32,7.62,2.01,0.73,0.98,2.88
14.959,-0.65,2,-0.35,-4.32,7.62,2.01,0.73,0.98,2.88
14.96,-0.65,2,-0.35,-4.32,7.62,2.01,0.73,0.98,2.88
14.964,-1.46,1.37,-0.93,-4.32,7.62,2.01,0.73,0.98,2.88
14.964,-1.46,1.37,-0.93,-4.32,7.62,2.01,0.81,3.58,2.15
14.966,-1.46,1.37,-0.93,-5.35,7.99,1.55,0.81,3.58,2.15
14.986,-0.77,1.43,-0.67,-5.35,7.99,1.55,0.81,3.58,2.15
15.005,0.89,2.01,-0.29,-5.35,7.99,1.55,0.81,3.58,2.15
15.007,0.89,2.01,-0.29,-5.35,7.99,1.55,0.44,3.41,1.71
15.008,0.89,2.01,-0.29,-15.21,8.62,-3.77,0.44,3.41,1.71
15.01,0.89,2.01,-0.29,-15.21,8.62,-3.77,0.44,3.41,1.71
15.026,1.31,1.37,-0.68,-15.21,8.62,-3.77,0.44,3.41,1.71
15.058,0.71,0.81,-0.49,-15.21,8.62,-3.77,0.44,3.41,1.71
15.06,0.71,0.81,-0.49,-15.21,8.62,-3.77,0.39,0.21,2.86
15.061,0.71,0.81,-0.49,2.9,7.26,-2.06,0.39,0.21,2.86
15.063,0.41,0.37,0.03,2.9,7.26,-2.06,0.39,0.21,2.86
15.066,0.41,0.37,0.03,2.9,7.26,-2.06,0.39,0.21,2.86
15.088,0.44,-0.03,-0.4,2.9,7.26,-2.06,0.39,0.21,2.86
15.09,0.44,-0.03,-0.4,2.9,7.26,-2.06,0.16,0.83,0.69
15.091,0.44,-0.03,-0.4,2.6,7.34,-2.21,0.16,0.83,0.69
15.102,0.26,0.23,-0.28,2.6,7.34,-2.21,0.16,0.83,0.69
15.144,0.06,0.51,0.12,2.6,7.34,-2.21,0.16,0.83,0.69
15.148,0.06,0.51,0.12,2.6,7.34,-2.21,0.06,0.71,-1.15
15.15,0.06,0.51,0.12,-2.98,-4.7,0.24,0.06,0.71,-1.15
15.151,0.06,0.51,0.12,-2.98,-4.7,0.24,0.06,0.71,-1.15
15.153,0.04,0.43,-0.22,-2.98,-4.7,0.24,0.06,0.71,-1.15
15.17,0.1,0.28,-0.04,-2.98,-4.7,0.24,0.06,0.71,-1.15
15.171,0.1,0.28,-0.04,-5.25,-3.06,2.01,0.06,0.71,-1.15
15.172,0.1,0.28,-0.04,-5.25,-3.06,2.01,-0.32,-1.01,-1.99
15.181,0.14,0.35,0.05,-5.25,-3.06,2.01,-0.32,-1.01,-1.99
15.184,0.14,0.35,0.05,-5.25,-3.06,2.01,-0.32,-1.01,-1.99
15.201,0.35,0.51,-0.11,-5.25,-3.06,2.01,-0.32,-1.01,-1.99
15.202,0.35,0.51,-0.11,-5.25,-3.06,2.01,-0.66,-2.62,-3.29
15.202,0.35,0.51,-0.11,-3.93,-3.75,2.33,-0.66,-2.62,-3.29
15.22,0.49,0.59,-0.03,-3.93,-3.75,2.33,-0.66,-2.62,-3.29
15.241,0.55,0.55,-0.04,-3.93,-3.75,2.33,-0.66,-2.62,-3.29
15.245,0.55,0.55,-0.04,-3.93,-3.75,2.33,-1.04,-2.72,-4.05
15.246,0.55,0.55,-0.04,0.24,-3.65,2.54,-1.04,-2.72,-4.05
15.248,0.55,0.55,-0.04,0.24,-3.65,2.54,-1.04,-2.72,-4.05
15.26,0.63,0.54,-0.17,0.24,-3.65,2.54,-1.04,-2.72,-4.05
15.28,0.76,0.65,-0.2,0.24,-3.65,2.54,-1.04,-2.72,-4.05
15.284,0.76,0.65,-0.2,0.24,-3.65,2.54,-1.36,-1.93,-4.76
15.286,0.76,0.65,-0.2,5.12,-3.16,1.16,-1.36,-1.93,-4.76
15.299,0.91,0.84,-0.4,5.12,-3.16,1.16,-1.36,-1.93,-4.76
15.329,0.91,0.84,-0.4,5.12,-3.16,1.16,-1.36,-1.93,-4.76
15.336,0.91,0.84,-0.4,7.07,-3.29,0.56,-1.36,-1.93,-4.76
15.337,0.83,1.09,-0.63,7.07,-3.29,0.56,-1.36,-1.93,-4.76
15.338,0.83,1.09,-0.63,7.07,-3.29,0.56,-1.7,-1.08,-5.53
15.37,0.75,1.45,-0.62,7.07,-3.29,0.56,-1.7,-1.08,-5.53
15.375,1.21,1.72,-0.57,7.07,-3.29,0.56,-1.7,-1.08,-5.53
15.378,1.21,1.72,-0.57,7.07,-3.29,0.56,-1.84,-0.92,-5.37
15.379,1.21,1.72,-0.57,10.59,2.26,-4.09,-1.84,-0.92,-5.37
15.381,1.21,1.72,-0.57,10.59,2.26,-4.09,-1.84,-0.92,-5.37
15.382,1.04,1.34,-0.44,10.59,2.26,-4.09,-1.84,-0.92,-5.37
15.399,0.45,1.12,-0.58,10.59,2.26,-4.09,-1.84,-0.92,-5.37
15.402,0.45,1.12,-0.58,10.59,2.26,-4.09,-1.33,-0.68,-3.76
15.404,0.45,1.12,-0.58,12.42,5.23,-4.39,-1.33,-0.68,-3.76
15.425,0.61,1.05,-0.48,12.42,5.23,-4.39,-1.33,-0.68,-3.76
15.428,0.61,1.05,-0.48,12.42,5.23,-4.39,-1.33,-0.68,-3.76
15.438,0.96,1.19,-0.59,12.42,5.23,-4.39,-1.33,-0.68,-3.76
15.44,0.96,1.19,-0.59,12.42,5.23,-4.39,-0.07,-1.7,-0.58
15.441,0.96,1.19,-0.59,12.44,5.22,-4.59,-0.07,-1.7,-0.58
15.465,-1.11,2.26,1.73,12.44,5.22,-4.59,-0.07,-1.7,-0.58
15.478,-1.71,1.25,-1.75,12.44,5.22,-4.59,-0.07,-1.7,-0.58
15.48,-1.71,1.25,-1.75,12.44,5.22,-4.59,0.59,-0.55,0.9
15.481,-1.71,1.25,-1.75,4.75,6.04,2.85,0.59,-0.55,0.9
15.484,-1.71,1.25,-1.75,4.75,6.04,2.85,0.59,-0.55,0.9
15.498,-0.72,0.74,-0.93,4.75,6.04,2.85,0.59,-0.55,0.9
15.517,1.58,1.63,0.65,4.75,6.04,2.85,0.59,-0.55,0.9
15.52,1.58,1.63,0.65,4.75,6.04,2.85,1.35,-1.72,0.98
15.523,1.58,1.63,0.65,0.21,3.02,-5.61,1.35,-1.72,0.98
15.547,1.31,0.99,-0.41,0.21,3.02,-5.61,1.35,-1.72,0.98
15.549,1.31,0.99,-0.41,0.21,3.02,-5.61,1.35,-1.72,0.98
15.559,-0.61,0.46,-0.28,0.21,3.02,-5.61,1.35,-1.72,0.98
15.56,-0.61,0.46,-0.28,0.21,3.02,-5.61,1.21,-1.08,2
15.562,-0.61,0.46,-0.28,-0.43,2.82,-5.21,1.21,-1.08,2
15.577,-0.39,0.98,-0.75,-0.43,2.82,-5.21,1.21,-1.08,2
15.596,-0.37,1.26,-0.39,-0.43,2.82,-5.21,1.21,-1.08,2
15.609,-0.37,1.26,-0.39,-0.43,2.82,-5.21,1.01,1.72,0.32
15.612,-0.37,1.26,-0.39,3.04,-1.01,-2.73,1.01,1.72,0.32
15.612,-0.37,1.26,-0.39,3.04,-1.01,-2.73,1.01,1.72,0.32
15.617,-0.45,0.94,-0.16,3.04,-1.01,-2.73,1.01,1.72,0.32
15.635,-0.32,0.75,-0.18,3.04,-1.01,-2.73,1.01,1.72,0.32
15.637,-0.32,0.75,-0.18,3.04,-1.01,-2.73,0.42,0.88,0.56
15.638,-0.32,0.75,-0.18,-1.93,0.68,-0.19,0.42,0.88,0.56
15.654,-0.53,0.9,-0.23,-1.93,0.68,-0.19,0.42,0.88,0.56
15.663,-0.53,0.9,-0.23,-1.93,0.68,-0.19,0.42,0.88,0.56
15.674,-0.28,1.03,-0.26,-1.93,0.68,-0.19,0.42,0.88,0.56
15.675,-0.28,1.03,-0.26,-1.93,0.68,-0.19,0.41,0.7,0.96
15.675,-0.28,1.03,-0.26,-2.29,0.64,0,0.41,0.7,0.96
15.695,0.1,0.97,-0.19,-2.29,0.64,0,0.41,0.7,0.96
15.716,0.1,0.97,-0.19,-1.34,0.44,0.34,0.41,0.7,0.96
15.719,-0.02,0.98,-0.14,-1.34,0.44,0.34,0.41,0.7,0.96
15.721,-0.02,0.98,-0.14,-1.34,0.44,0.34,0.42,0.81,1.12
15.741,-0.02,0.98,-0.14,-1.34,0.44,0.34,0.42,0.81,1.12
15.743,-0.28,0.99,-0.28,-1.34,0.44,0.34,0.42,0.81,1.12
15.754,-0.29,0.93,-0.39,-1.34,0.44,0.34,0.42,0.81,1.12
15.755,-0.29,0.93,-0.39,-1.34,0.44,0.34,0.48,0.82,1.06
15.755,-0.29,0.93,-0.39,-1.38,0.44,0.12,0.48,0.82,1.06
15.785,-0.11,0.92,-0.3,-1.38,0.44,0.12,0.48,0.82,1.06
15.787,-0.11,0.92,-0.3,-1.38,0.44,0.12,0.48,0.82,1.06
15.794,0.03,0.96,-0.22,-1.38,0.44,0.12,0.48,0.82,1.06
15.796,0.03,0.96,-0.22,-1.38,0.44,0.12,0.46,0.52,1.1
15.797,0.03,0.96,-0.22,-1.8,0.47,0.29,0.46,0.52,1.1
15.813,-0.04,1.01,-0.27,-1.8,0.47,0.29,0.46,0.52,1.1
15.833,-0.02,1,-0.33,-1.8,0.47,0.29,0.46,0.52,1.1
15.835,-0.02,1,-0.33,-1.8,0.47,0.29,0.46,0.42,1.12
15.836,-0.02,1,-0.33,-0.72,0.53,0.48,0.46,0.42,1.12
15.859,-0.02,1,-0.33,-0.72,0.53,0.48,0.46,0.42,1.12
15.861,0.1,0.99,-0.32,-0.72,0.53,0.48,0.46,0.42,1.12
15.887,0.13,1.03,-0.32,-0.72,0.53,0.48,0.46,0.42,1.12
15.888,0.13,1.03,-0.32,-0.72,0.53,0.48,0.5,0.49,1.11
15.889,0.13,1.03,-0.32,-0.09,1.02,0.09,0.5,0.49,1.11
15.892,0.01,1.05,-0.29,-0.09,1.02,0.09,0.5,0.49,1.11
15.903,0.01,1.05,-0.29,-0.09,1.02,0.09,0.5,0.49,1.11
15.912,-0.21,0.98,-0.27,-0.09,1.02,0.09,0.5,0.49,1.11
15.914,-0.21,0.98,-0.27,-0.09,1.02,0.09,0.52,1.06,1.1
15.914,-0.21,0.98,-0.27,-0.6,1.12,0.22,0.52,1.06,1.1
15.931,-0.35,1.05,-0.31,-0.6,1.12,0.22,0.52,1.06,1.1
15.958,-0.26,1.27,-0.23,-0.6,1.12,0.22,0.52,1.06,1.1
15.962,-0.26,1.27,-0.23,-0.6,1.12,0.22,0.54,1.43,1.48
15.964,-0.26,1.27,-0.23,-3.74,1.42,0.64,0.54,1.43,1.48
15.966,-0.26,1.27,-0.23,-3.74,1.42,0.64,0.54,1.43,1.48
16,-0.11,1.33,-0.15,-3.74,1.42,0.64,0.54,1.43,1.48
16.001,0.08,1.26,-0.04,-3.74,1.42,0.64,0.54,1.43,1.48
16.002,0.08,1.26,-0.04,-3.74,1.42,0.64,0.61,0.95,2.16
16.003,0.08,1.26,-0.04,-3.65,4.17,2.18,0.61,0.95,2.16
16.011,0.17,1.29,-0.03,-3.65,4.17,2.18,0.61,0.95,2.16
16.023,0.17,1.29,-0.03,-3.65,4.17,2.18,0.61,0.95,2.16
16.03,0.04,1.53,-0.25,-3.65,4.17,2.18,0.61,0.95,2.16
16.032,0.04,1.53,-0.25,-3.65,4.17,2.18,0.65,0.81,2.62
16.033,0.04,1.53,-0.25,-4.54,4.52,2.25,0.65,0.81,2.62
16.051,-0.2,2.02,-0.12,-4.54,4.52,2.25,0.65,0.81,2.62
16.077,-0.75,1.87,-0.17,-4.54,4.52,2.25,0.65,0.81,2.62
16.079,-0.75,1.87,-0.17,-4.54,4.52,2.25,0.59,2.21,2.53
16.08,-0.75,1.87,-0.17,-4.57,8.08,2.1,0.59,2.21,2.53
16.083,-0.75,1.87,-0.17,-4.57,8.08,2.1,0.59,2.21,2.53
16.106,-1.2,1.32,-0.7,-4.57,8.08,2.1,0.59,2.21,2.53
16.109,-1.14,1.39,-0.91,-4.57,8.08,2.1,0.59,2.21,2.53
16.11,-1.14,1.39,-0.91,-4.57,8.08,2.1,0.6,3.85,1.79
16.111,-1.14,1.39,-0.91,-15.46,7.57,-2.99,0.6,3.85,1.79
16.131,0.39,1.9,-0.45,-15.46,7.57,-2.99,0.6,3.85,1.79
16.161,0.39,1.9,-0.45,-15.46,7.57,-2.99,0.6,3.85,1.79
16.162,1.37,1.39,-0.75,-15.46,7.57,-2.99,0.6,3.85,1.79
16.163,1.37,1.39,-0.75,-15.46,7.57,-2.99,0.29,0.4,2.81
16.164,1.37,1.39,-0.75,-16.01,8.11,-2.94,0.29,0.4,2.81
16.168,0.83,0.9,-0.74,-16.01,8.11,-2.94,0.29,0.4,2.81
16.203,0.38,0.53,-0.07,-16.01,8.11,-2.94,0.29,0.4,2.81
16.207,0.38,0.53,-0.07,-16.01,8.11,-2.94,0.15,-1.07,2.74
16.209,0.38,0.53,-0.07,1.93,7.41,-3.09,0.15,-1.07,2.74
16.211,0.38,0.53,-0.07,1.93,7.41,-3.09,0.15,-1.07,2.74
16.212,0.56,0.12,-0.45,1.93,7.41,-3.09,0.15,-1.07,2.74
16.228,0.36,0.24,-0.38,1.93,7.41,-3.09,0.15,-1.07,2.74
16.231,0.36,0.24,-0.38,1.93,7.41,-3.09,-0.17,0.37,0.18
16.233,0.36,0.24,-0.38,-2.31,-3.34,0.13,-0.17,0.37,0.18
16.26,0.07,0.46,0.22,-2.31,-3.34,0.13,-0.17,0.37,0.18
16.297,0.07,0.46,0.22,-2.01,-3.68,-0.17,-0.17,0.37,0.18
16.299,0.07,0.46,0.22,-2.01,-3.68,-0.17,-0.17,0.37,0.18
16.3,0.18,0.44,-0.11,-2.01,-3.68,-0.17,-0.17,0.37,0.18
16.301,0.18,0.44,-0.11,-2.01,-3.68,-0.17,-0.77,0.43,-1.26
16.303,0.15,0.29,-0.2,-2.01,-3.68,-0.17,-0.77,0.43,-1.26
16.308,0.1,0.27,-0.03,-2.01,-3.68,-0.17,-0.77,0.43,-1.26
16.31,0.1,0.27,-0.03,-2.01,-3.68,-0.17,-1.09,-0.61,-2.38
16.312,0.1,0.27,-0.03,-4.19,-3.26,2.32,-1.09,-0.61,-2.38
16.324,0.1,0.27,-0.03,-4.19,-3.26,2.32,-1.09,-0.61,-2.38
16.327,0.25,0.4,-0.15,-4.19,-3.26,2.32,-1.09,-0.61,-2.38
16.348,0.4,0.48,-0.18,-4.19,-3.26,2.32,-1.09,-0.61,-2.38
16.349,0.4,0.48,-0.18,-4.19,-3.26,2.32,-1.26,-1.94,-3.52
16.35,0.4,0.48,-0.18,-1.75,-4.13,1.4,-1.26,-1.94,-3.52
16.372,0.4,0.51,-0.05,-1.75,-4.13,1.4,-1.26,-1.94,-3.52
16.382,0.4,0.51,-0.05,-1.75,-4.13,1.4,-1.26,-1.94,-3.52
16.386,0.54,0.56,-0.18,-1.75,-4.13,1.4,-1.26,-1.94,-3.52
16.387,0.54,0.56,-0.18,-1.75,-4.13,1.4,-1.51,-2.32,-4.24
16.387,0.54,0.56,-0.18,-0.13,-4.77,1.2,-1.51,-2.32,-4.24
16.406,0.69,0.62,-0.19,-0.13,-4.77,1.2,-1.51,-2.32,-4.24
16.428,0.83,0.74,-0.34,-0.13,-4.77,1.2,-1.51,-2.32,-4.24
16.432,0.83,0.74,-0.34,-0.13,-4.77,1.2,-1.77,-1.95,-5.03
16.437,0.83,0.74,-0.34,4.57,-3.46,0.53,-1.77,-1.95,-5.03
16.455,0.83,0.74,-0.34,4.57,-3.46,0.53,-1.77,-1.95,-5.03
16.458,0.95,0.95,-0.56,4.57,-3.46,0.53,-1.77,-1.95,-5.03
16.465,0.86,1.24,-0.65,4.57,-3.46,0.53,-1.77,-1.95,-5.03
16.466,0.86,1.24,-0.65,4.57,-3.46,0.53,-1.99,-1.21,-5.59
16.467,0.86,1.24,-0.65,9.8,0.53,-3.87,-1.99,-1.21,-5.59
16.486,1.03,1.6,-0.84,9.8,0.53,-3.87,-1.99,-1.21,-5.59
16.502,1.03,1.6,-0.84,9.8,0.53,-3.87,-1.99,-1.21,-5.59
16.504,1,1.52,-0.75,9.8,0.53,-3.87,-1.99,-1.21,-5.59
16.505,1,1.52,-0.75,9.8,0.53,-3.87,-1.78,-0.71,-5.11
16.505,1,1.52,-0.75,11.43,0.87,-4.48,-1.78,-0.71,-5.11
16.543,0.57,1.24,-0.61,11.43,0.87,-4.48,-1.78,-0.71,-5.11
16.549,0.57,1.24,-0.61,12.16,5.87,-6.73,-1.78,-0.71,-5.11
16.554,0.56,1.18,-0.47,12.16,5.87,-6.73,-1.78,-0.71,-5.11
16.557,0.56,1.18,-0.47,12.16,5.87,-6.73,-0.79,-0.11,-3.19
16.575,0.56,1.18,-0.47,12.16,5.87,-6.73,-0.79,-0.11,-3.19
16.577,0.76,0.8,-0.6,12.16,5.87,-6.73,-0.79,-0.11,-3.19
16.583,-0.33,1.63,1.07,12.16,5.87,-6.73,-0.79,-0.11,-3.19
16.583,-0.33,1.63,1.07,12.16,5.87,-6.73,0.36,-0.76,0.27
16.584,-0.33,1.63,1.07,6.71,3.3,0.43,0.36,-0.76,0.27
16.605,-2.63,2.17,-0.07,6.71,3.3,0.43,0.36,-0.76,0.27
16.621,-2.63,2.17,-0.07,6.71,3.3,0.43,0.36,-0.76,0.27
16.623,-1.9,0.46,-1.86,6.71,3.3,0.43,0.36,-0.76,0.27
16.624,-1.9,0.46,-1.86,6.71,3.3,0.43,1.12,-0.04,0.52
16.624,-1.9,0.46,-1.86,6.43,3.21,0.79,1.12,-0.04,0.52
16.657,0.9,0.98,0.38,6.43,3.21,0.79,1.12,-0.04,0.52
16.662,3.53,1.81,-0.14,6.43,3.21,0.79,1.12,-0.04,0.52
16.662,3.53,1.81,-0.14,6.43,3.21,0.79,1.65,-5.3,2.39
16.663,3.53,1.81,-0.14,-9.17,2.97,-4.2,1.65,-5.3,2.39
16.681,3.53,1.81,-0.14,-9.17,2.97,-4.2,1.65,-5.3,2.39
16.682,0.34,0.53,-0.47,-9.17,2.97,-4.2,1.65,-5.3,2.39
16.701,-0.95,0.59,-0.91,-9.17,2.97,-4.2,1.65,-5.3,2.39
16.702,-0.95,0.59,-0.91,-9.17,2.97,-4.2,1.53,-0.86,1.61
16.702,-0.95,0.59,-0.91,11.5,0.67,-3.58,1.53,-0.86,1.61
16.722,-0.38,1.34,-0.73,11.5,0.67,-3.58,1.53,-0.86,1.61
16.749,-0.38,1.34,-0.73,11.5,0.67,-3.58,1.53,-0.86,1.61
16.753,-0.44,1.22,0.01,11.5,0.67,-3.58,1.53,-0.86,1.61
16.755,-0.44,1.22,0.01,11.5,0.67,-3.58,0.82,3,-0.17
16.756,-0.44,1.22,0.01,11.17,0.72,-3.02,0.82,3,-0.17
16.796,-0.35,0.73,0.04,11.17,0.72,-3.02,0.82,3,-0.17
16.8,-0.65,0.72,-0.15,11.17,0.72,-3.02,0.82,3,-0.17
16.802,-0.65,0.72,-0.15,11.17,0.72,-3.02,0.28,0.68,0.61
16.804,-0.65,0.72,-0.15,-2.41,1.81,-0.15,0.28,0.68,0.61
16.806,-0.5,0.97,-0.41,-2.41,1.81,-0.15,0.28,0.68,0.61
16.808,-0.5,0.97,-0.41,-2.41,1.81,-0.15,0.28,0.68,0.61
16.82,0.14,1.03,-0.22,-2.41,1.81,-0.15,0.28,0.68,0.61
16.822,0.14,1.03,-0.22,-2.41,1.81,-0.15,0.56,0.29,1.07
16.823,0.14,1.03,-0.22,-2.23,-0.04,-0.28,0.56,0.29,1.07
16.845,0.21,1,-0.13,-2.23,-0.04,-0.28,0.56,0.29,1.07
16.86,-0.27,0.98,-0.13,-2.23,-0.04,-0.28,0.56,0.29,1.07
16.862,-0.27,0.98,-0.13,-2.23,-0.04,-0.28,0.49,1.25,1.12
16.863,-0.27,0.98,-0.13,-2.7,-0.03,-0.06,0.49,1.25,1.12
16.864,-0.27,0.98,-0.13,-2.7,-0.03,-0.06,0.49,1.25,1.12
16.879,-0.56,0.93,-0.28,-2.7,-0.03,-0.06,0.49,1.25,1.12
16.901,-0.24,0.89,-0.33,-2.7,-0.03,-0.06,0.49,1.25,1.12
16.904,-0.24,0.89,-0.33,-2.7,-0.03,-0.06,0.58,1.03,1.13
16.906,-0.24,0.89,-0.33,-1.93,0.64,0.92,0.58,1.03,1.13
16.921,0.15,0.94,-0.28,-1.93,0.64,0.92,0.58,1.03,1.13
16.926,0.15,0.94,-0.28,-1.93,0.64,0.92,0.58,1.03,1.13
16.939,0.23,1.05,-0.27,-1.93,0.64,0.92,0.58,1.03,1.13
16.942,0.23,1.05,-0.27,-1.93,0.64,0.92,0.59,-0.16,1.35
16.944,0.23,1.05,-0.27,0.11,0.6,0.05,0.59,-0.16,1.35
16.967,0.1,1.06,-0.32,0.11,0.6,0.05,0.59,-0.16,1.35
17.002,0.04,1.03,-0.37,0.11,0.6,0.05,0.59,-0.16,1.35
17.005,0.04,1.03,-0.37,0.11,0.6,0.05,0.61,0.42,1.16
17.006,0.04,1.03,-0.37,-0.34,0.69,0.25,0.61,0.42,1.16
17.008,0.04,1.03,-0.37,-0.34,0.69,0.25,0.61,0.42,1.16
17.01,0.1,1.04,-0.35,-0.34,0.69,0.25,0.61,0.42,1.16
17.018,0.02,1.03,-0.29,-0.34,0.69,0.25,0.61,0.42,1.16
17.021,0.02,1.03,-0.29,-0.34,0.69,0.25,0.57,0.85,1.05
17.022,0.02,1.03,-0.29,-0.48,1.58,-0.1,0.57,0.85,1.05
17.038,-0.23,0.99,-0.26,-0.48,1.58,-0.1,0.57,0.85,1.05
17.049,-0.23,0.99,-0.26,-0.48,1.58,-0.1,0.57,0.85,1.05
17.088,-0.34,1.05,-0.24,-0.48,1.58,-0.1,0.57,0.85,1.05
17.09,-0.34,1.05,-0.24,-0.48,1.58,-0.1,0.6,1.44,1.22
17.091,-0.34,1.05,-0.24,-3.61,1.52,0.79,0.6,1.44,1.22
17.092,-0.23,1.28,-0.18,-3.61,1.52,0.79,0.6,1.44,1.22
17.097,-0.1,1.41,-0.08,-3.61,1.52,0.79,0.6,1.44,1.22
17.099,-0.1,1.41,-0.08,-3.61,1.52,0.79,0.69,1.28,1.81
17.1,-0.1,1.41,-0.08,-4.31,1.74,0.9,0.69,1.28,1.81
17.102,-0.1,1.41,-0.08,-4.31,1.74,0.9,0.69,1.28,1.81
17.117,0.11,1.27,-0.01,-4.31,1.74,0.9,0.69,1.28,1.81
17.136,0.11,1.27,-0.12,-4.31,1.74,0.9,0.69,1.28,1.81
17.139,0.11,1.27,-0.12,-4.31,1.74,0.9,0.76,0.68,2.54
17.141,0.11,1.27,-0.12,-4.04,4.95,2.72,0.76,0.68,2.54
17.161,0.01,1.64,-0.39,-4.04,4.95,2.72,0.76,0.68,2.54
17.163,0.01,1.64,-0.39,-4.04,4.95,2.72,0.76,0.68,2.54
17.189,-0.05,2.18,-0.13,-4.04,4.95,2.72,0.76,0.68,2.54
17.191,-0.05,2.18,-0.13,-4.04,4.95,2.72,0.71,1.3,2.7
17.191,-0.05,2.18,-0.13,-4.07,9,1.48,0.71,1.3,2.7
17.195,-0.73,1.7,-0.33,-4.07,9,1.48,0.71,1.3,2.7
17.215,-1.32,1.11,-0.99,-4.07,9,1.48,0.71,1.3,2.7
17.216,-1.32,1.11,-0.99,-4.07,9,1.48,0.76,4.2,1.89
17.216,-1.32,1.11,-0.99,-5.09,9.3,0.87,0.76,4.2,1.89
17.22,-1.32,1.11,-0.99,-5.09,9.3,0.87,0.76,4.2,1.89
17.235,-1.06,1.69,-0.7,-5.09,9.3,0.87,0.76,4.2,1.89
17.257,-1.06,1.69,-0.7,-15.98,7.73,-4.11,0.76,4.2,1.89
17.26,0.57,1.86,-0.34,-15.98,7.73,-4.11,0.76,4.2,1.89
17.261,0.57,1.86,-0.34,-15.98,7.73,-4.11,0.42,3.07,1.73
17.29,1.12,1.11,-0.82,-15.98,7.73,-4.11,0.42,3.07,1.73
17.294,1.12,1.11,-0.82,-15.98,7.73,-4.11,0.42,3.07,1.73
17.296,0.58,0.8,-0.64,-15.98,7.73,-4.11,0.42,3.07,1.73
17.298,0.58,0.8,-0.64,-15.98,7.73,-4.11,0.2,-0.88,3.17
17.3,0.58,0.8,-0.64,0.83,6.02,-3.08,0.2,-0.88,3.17
17.314,0.42,0.46,-0.16,0.83,6.02,-3.08,0.2,-0.88,3.17
17.334,0.66,0.08,-0.39,0.83,6.02,-3.08,0.2,-0.88,3.17
17.337,0.66,0.08,-0.39,0.83,6.02,-3.08,-0.26,-0.68,1
17.338,0.66,0.08,-0.39,0.65,6.15,-2.91,-0.26,-0.68,1
17.358,0.66,0.08,-0.39,0.65,6.15,-2.91,-0.26,-0.68,1
17.359,0.55,0.31,-0.29,0.65,6.15,-2.91,-0.26,-0.68,1
17.374,0.26,0.49,0.06,0.65,6.15,-2.91,-0.26,-0.68,1
17.375,0.26,0.49,0.06,0.65,6.15,-2.91,-0.57,-0.06,-0.88
17.376,0.26,0.49,0.06,-1.23,-3.63,0.1,-0.57,-0.06,-0.88
17.393,0.15,0.36,-0.15,-1.23,-3.63,0.1,-0.57,-0.06,-0.88
17.401,0.15,0.36,-0.15,-1.23,-3.63,0.1,-0.57,-0.06,-0.88
17.413,0,0.24,-0.16,-1.23,-3.63,0.1,-0.57,-0.06,-0.88
17.416,0,0.24,-0.16,-1.23,-3.63,0.1,-0.89,-0.38,-1.64
17.418,0,0.24,-0.16,-4.64,-3.3,1.86,-0.89,-0.38,-1.64
17.433,-0.01,0.3,-0.11,-4.64,-3.3,1.86,-0.89,-0.38,-1.64
17.461,0.21,0.41,-0.15,-4.64,-3.3,1.86,-0.89,-0.38,-1.64
17.462,0.21,0.41,-0.15,-4.64,-3.3,1.86,-1.14,-1.7,-2.99
17.462,0.21,0.41,-0.15,-3.54,-4,1.87,-1.14,-1.7,-2.99
17.463,0.21,0.41,-0.15,-3.54,-4,1.87,-1.14,-1.7,-2.99
17.472,0.36,0.48,-0.15,-3.54,-4,1.87,-1.14,-1.7,-2.99
17.507,0.48,0.52,-0.15,-3.54,-4,1.87,-1.14,-1.7,-2.99
17.511,0.48,0.52,-0.15,-3.54,-4,1.87,-1.44,-2.69,-3.98
17.513,0.48,0.52,-0.15,-1.5,-4.38,1.31,-1.44,-2.69,-3.98
17.515,0.71,0.59,-0.22,-1.5,-4.38,1.31,-1.44,-2.69,-3.98
17.52,0.71,0.59,-0.22,-1.5,-4.38,1.31,-1.44,-2.69,-3.98
17.532,0.84,0.71,-0.22,-1.5,-4.38,1.31,-1.44,-2.69,-3.98
17.533,0.84,0.71,-0.22,-1.5,-4.38,1.31,-1.73,-2.33,-4.72
17.533,0.84,0.71,-0.22,5.09,-2.89,0.37,-1.73,-2.33,-4.72
17.555,0.9,0.83,-0.4,5.09,-2.89,0.37,-1.73,-2.33,-4.72
17.598,0.81,0.99,-0.68,5.09,-2.89,0.37,-1.73,-2.33,-4.72
17.601,0.81,0.99,-0.68,5.09,-2.89,0.37,-1.94,-0.98,-5.61
17.603,0.81,0.99,-0.68,7.05,-3.1,-0.29,-1.94,-0.98,-5.61
17.605,0.81,0.99,-0.68,7.05,-3.1,-0.29,-1.94,-0.98,-5.61
17.607,0.79,1.4,-0.7,7.05,-3.1,-0.29,-1.94,-0.98,-5.61
17.612,1.13,1.79,-0.75,7.05,-3.1,-0.29,-1.94,-0.98,-5.61
17.615,1.13,1.79,-0.75,7.05,-3.1,-0.29,-1.86,-0.23,-5.75
17.616,1.13,1.79,-0.75,10.48,1.68,-4.75,-1.86,-0.23,-5.75
17.63,0.79,1.47,-0.61,10.48,1.68,-4.75,-1.86,-0.23,-5.75
17.641,0.79,1.47,-0.61,10.48,1.68,-4.75,-1.86,-0.23,-5.75
17.662,0.24,1.17,-0.53,10.48,1.68,-4.75,-1.86,-0.23,-5.75
17.663,0.24,1.17,-0.53,10.48,1.68,-4.75,-1.14,0.38,-4.35
17.664,0.24,1.17,-0.53,10.61,6.02,-5.41,-1.14,0.38,-4.35
17.67,0.37,0.88,-0.58,10.61,6.02,-5.41,-1.14,0.38,-4.35
17.699,1.18,0.69,-0.7,10.61,6.02,-5.41,-1.14,0.38,-4.35
17.701,1.18,0.69,-0.7,10.61,6.02,-5.41,0.24,-1.38,-0.73
17.702,1.18,0.69,-0.7,10.71,6.03,-5.45,0.24,-1.38,-0.73
17.703,1.18,0.69,-0.7,10.71,6.03,-5.45,0.24,-1.38,-0.73
17.71,-0.91,2.22,2.24,10.71,6.03,-5.45,0.24,-1.38,-0.73
17.73,-2.52,1.94,-1.22,10.71,6.03,-5.45,0.24,-1.38,-0.73
17.731,-2.52,1.94,-1.22,5.21,3.69,4,0.24,-1.38,-0.73
17.733,-2.52,1.94,-1.22,5.21,3.69,4,0.89,-1.12,1.54
17.767,-1.16,-0.18,-1.48,5.21,3.69,4,0.89,-1.12,1.54
17.771,-1.16,-0.18,-1.48,5.21,3.69,4,0.89,-1.12,1.54
17.773,1.66,1.38,0.01,5.21,3.69,4,0.89,-1.12,1.54
17.775,1.66,1.38,0.01,5.21,3.69,4,1.54,-2.95,0.85
17.777,1.66,1.38,0.01,-3.63,1.46,-7.67,1.54,-2.95,0.85
17.805,2.77,2.24,0.09,-3.63,1.46,-7.67,1.54,-2.95,0.85
17.81,0.1,0.31,-0.46,-3.63,1.46,-7.67,1.54,-2.95,0.85
17.811,0.1,0.31,-0.46,-3.63,1.46,-7.67,1.28,-2.94,2.71
17.813,0.1,0.31,-0.46,-4.37,1.23,-7.4,1.28,-2.94,2.71
17.82,0.1,0.31,-0.46,-4.37,1.23,-7.4,1.28,-2.94,2.71
17.828,-0.36,0.53,-1.01,-4.37,1.23,-7.4,1.28,-2.94,2.71
17.861,-0.77,1.39,-0.54,-4.37,1.23,-7.4,1.28,-2.94,2.71
17.864,-0.77,1.39,-0.54,-4.37,1.23,-7.4,1.17,3.12,0.16
17.866,-0.77,1.39,-0.54,9.97,1.09,-2.4,1.17,3.12,0.16
17.871,-0.75,1.18,-0.12,9.97,1.09,-2.4,1.17,3.12,0.16
17.9,-0.75,1.18,-0.12,9.97,1.09,-2.4,1.17,3.12,0.16
17.903,-0.19,0.73,0.01,9.97,1.09,-2.4,1.17,3.12,0.16
17.905,-0.19,0.73,0.01,9.97,1.09,-2.4,0.32,1.61,0.22
17.906,-0.19,0.73,0.01,-3.95,1.78,0.17,0.32,1.61,0.22
17.908,-0.51,0.72,-0.1,-3.95,1.78,0.17,0.32,1.61,0.22
17.927,-0.46,0.95,-0.33,-3.95,1.78,0.17,0.32,1.61,0.22
17.93,-0.46,0.95,-0.33,-3.95,1.78,0.17,0.4,-0.28,1.01
17.931,-0.46,0.95,-0.33,-4.21,1.73,0.3,0.4,-0.28,1.01
17.94,-0.46,0.95,-0.33,-4.21,1.73,0.3,0.4,-0.28,1.01
17.972,0.04,1,-0.29,-4.21,1.73,0.3,0.4,-0.28,1.01
17.975,0.13,0.99,-0.17,-4.21,1.73,0.3,0.4,-0.28,1.01
17.977,0.13,0.99,-0.17,-4.21,1.73,0.3,0.6,0.64,1.22
17.977,0.13,0.99,-0.17,-2.15,-0.31,0.33,0.6,0.64,1.22
17.987,-0.21,0.99,-0.16,-2.15,-0.31,0.33,0.6,0.64,1.22
18.013,-0.21,0.99,-0.16,-2.15,-0.31,0.33,0.6,0.64,1.22
18.015,-0.44,0.92,-0.3,-2.15,-0.31,0.33,0.6,0.64,1.22
18.016,-0.44,0.92,-0.3,-2.15,-0.31,0.33,0.61,1.09,1.17
18.017,-0.44,0.92,-0.3,-1.33,0.47,0.84,0.61,1.09,1.17
18.026,-0.23,0.89,-0.34,-1.33,0.47,0.84,0.61,1.09,1.17
18.058,0.13,0.96,-0.32,-1.33,0.47,0.84,0.61,1.09,1.17
18.06,0.13,0.96,-0.32,-1.33,0.47,0.84,0.66,0.04,1.3
18.061,0.13,0.96,-0.32,-1.76,0.53,1.05,0.66,0.04,1.3
18.062,0.13,0.96,-0.32,-1.76,0.53,1.05,0.66,0.04,1.3
18.066,0.22,1.04,-0.28,-1.76,0.53,1.05,0.66,0.04,1.3
18.089,0.09,1.05,-0.35,-1.76,0.53,1.05,0.66,0.04,1.3
18.09,0.09,1.05,-0.35,-1.76,0.53,1.05,0.64,-0.14,1.32
18.091,0.09,1.05,-0.35,-0.11,0.59,0.3,0.64,-0.14,1.32
18.104,0.04,1.04,-0.41,-0.11,0.59,0.3,0.64,-0.14,1.32
18.119,0.04,1.04,-0.41,-0.11,0.59,0.3,0.64,-0.14,1.32
18.124,0.04,1.04,-0.36,-0.11,0.59,0.3,0.64,-0.14,1.32
18.127,0.04,1.04,-0.36,-0.11,0.59,0.3,0.64,0.67,1.18
18.129,0.04,1.04,-0.36,-0.45,1.5,-0.1,0.64,0.67,1.18
18.165,-0.1,1,-0.34,-0.45,1.5,-0.1,0.64,0.67,1.18
18.168,-0.25,1.05,-0.28,-0.45,1.5,-0.1,0.64,0.67,1.18
18.17,-0.25,1.05,-0.28,-0.45,1.5,-0.1,0.63,1.3,1.23
18.171,-0.25,1.05,-0.28,-1.04,1.62,0.04,0.63,1.3,1.23
18.2,-0.25,1.05,-0.28,-1.04,1.62,0.04,0.63,1.3,1.23
18.207,-0.33,1.17,-0.22,-1.04,1.62,0.04,0.63,1.3,1.23
18.209,-0.21,1.31,-0.15,-1.04,1.62,0.04,0.63,1.3,1.23
18.21,-0.21,1.31,-0.15,-1.04,1.62,0.04,0.72,1.52,1.73
18.211,-0.21,1.31,-0.15,-4.52,2.11,1.06,0.72,1.52,1.73
18.223,0.01,1.38,0,-4.52,2.11,1.06,0.72,1.52,1.73
18.24,0.01,1.38,0,-4.52,2.11,1.06,0.72,1.52,1.73
18.27,0.01,1.38,0,-3.3,5.03,3.53,0.72,1.52,1.73
18.274,0.18,1.34,0.04,-3.3,5.03,3.53,0.72,1.52,1.73
18.276,0.18,1.34,0.04,-3.3,5.03,3.53,0.83,1.01,2.52
18.277,0.13,1.55,-0.19,-3.3,5.03,3.53,0.83,1.01,2.52
18.313,0,2.15,-0.13,-3.3,5.03,3.53,0.83,1.01,2.52
18.314,0,2.15,-0.13,-3.3,5.03,3.53,0.86,1.21,2.87
18.315,0,2.15,-0.13,-4.3,5.5,3.56,0.86,1.21,2.87
18.315,0,2.15,-0.13,-4.3,5.5,3.56,0.86,1.21,2.87
18.316,-0.73,2.08,-0.31,-4.3,5.5,3.56,0.86,1.21,2.87
18.322,-1.44,1.33,-0.97,-4.3,5.5,3.56,0.86,1.21,2.87
18.323,-1.44,1.33,-0.97,-4.3,5.5,3.56,0.94,4.01,2.16
18.324,-1.44,1.33,-0.97,-7.3,11.61,1.35,0.94,4.01,2.16
18.342,-1.13,1.48,-0.8,-7.3,11.61,1.35,0.94,4.01,2.16
18.36,-1.13,1.48,-0.8,-7.3,11.61,1.35,0.94,4.01,2.16
18.365,0.72,2.05,-0.27,-7.3,11.61,1.35,0.94,4.01,2.16
18.367,0.72,2.05,-0.27,-7.3,11.61,1.35,0.63,3.84,1.58
18.368,0.72,2.05,-0.27,-12.07,8.89,-3.91,0.63,3.84,1.58
18.394,1.48,1.25,-0.65,-12.07,8.89,-3.91,0.63,3.84,1.58
18.401,0.92,0.73,-0.8,-12.07,8.89,-3.91,0.63,3.84,1.58
18.403,0.92,0.73,-0.8,-12.07,8.89,-3.91,0.49,0.05,3.02
18.404,0.92,0.73,-0.8,-12.64,9.55,-3.72,0.49,0.05,3.02
18.419,0.92,0.73,-0.8,-12.64,9.55,-3.72,0.49,0.05,3.02
18.422,0.52,0.34,0.1,-12.64,9.55,-3.72,0.49,0.05,3.02
18.441,0.62,-0.05,-0.35,-12.64,9.55,-3.72,0.49,0.05,3.02
18.444,0.62,-0.05,-0.35,-12.64,9.55,-3.72,0.29,0.44,0.74
18.445,0.62,-0.05,-0.35,2.65,1.46,-1.47,0.29,0.44,0.74
18.468,0.22,0.23,-0.05,2.65,1.46,-1.47,0.29,0.44,0.74
18.501,0.22,0.23,-0.05,2.65,1.46,-1.47,0.29,0.44,0.74
18.505,-0.11,0.51,0.19,2.65,1.46,-1.47,0.29,0.44,0.74
18.508,-0.11,0.51,0.19,2.65,1.46,-1.47,-0.02,1.2,-1.5
18.51,-0.11,0.51,0.19,-4.18,-4.18,1.87,-0.02,1.2,-1.5
18.513,-0.11,0.41,-0.2,-4.18,-4.18,1.87,-0.02,1.2,-1.5
18.519,-0.01,0.22,0.06,-4.18,-4.18,1.87,-0.02,1.2,-1.5
18.522,-0.01,0.22,0.06,-4.18,-4.18,1.87,-0.49,-0.73,-2.39
18.523,-0.01,0.22,0.06,-3.41,-4.74,1.88,-0.49,-0.73,-2.39
18.539,-0.01,0.22,0.06,-3.41,-4.74,1.88,-0.49,-0.73,-2.39
18.541,0.23,0.34,0.05,-3.41,-4.74,1.88,-0.49,-0.73,-2.39
18.568,0.44,0.53,-0.06,-3.41,-4.74,1.88,-0.49,-0.73,-2.39
18.572,0.44,0.53,-0.06,-3.41,-4.74,1.88,-0.85,-2.84,-3.47
18.574,0.44,0.53,-0.06,-4.03,-4.59,2.59,-0.85,-2.84,-3.47
18.591,0.51,0.58,-0.03,-4.03,-4.59,2.59,-0.85,-2.84,-3.47
18.6,0.51,0.58,-0.03,-4.03,-4.59,2.59,-0.85,-2.84,-3.47
18.601,0.58,0.56,-0.04,-4.03,-4.59,2.59,-0.85,-2.84,-3.47
18.602,0.58,0.56,-0.04,-4.03,-4.59,2.59,-1.23,-2.77,-4.22
18.603,0.58,0.56,-0.04,2.24,-2.96,2.39,-1.23,-2.77,-4.22
18.618,0.68,0.55,-0.09,2.24,-2.96,2.39,-1.23,-2.77,-4.22
18.639,0.77,0.59,-0.17,2.24,-2.96,2.39,-1.23,-2.77,-4.22
18.64,0.77,0.59,-0.17,2.24,-2.96,2.39,-1.63,-1.79,-4.99
18.641,0.77,0.59,-0.17,4.08,-3.43,1.93,-1.63,-1.79,-4.99
18.659,0.77,0.59,-0.17,4.08,-3.43,1.93,-1.63,-1.79,-4.99
18.66,0.94,0.79,-0.51,4.08,-3.43,1.93,-1.63,-1.79,-4.99
18.678,0.95,1.24,-0.7,4.08,-3.43,1.93,-1.63,-1.79,-4.99
18.68,0.95,1.24,-0.7,4.08,-3.43,1.93,-1.9,-1.01,-5.66
18.681,0.95,1.24,-0.7,8.81,-2.68,-0.79,-1.9,-1.01,-5.66
18.697,0.82,1.66,-0.64,8.81,-2.68,-0.79,-1.9,-1.01,-5.66
18.717,1.01,1.71,-0.7,8.81,-2.68,-0.79,-1.9,-1.01,-5.66
18.721,1.01,1.71,-0.7,11.85,6.32,-5.63,-1.9,-1.01,-5.66
18.723,1.01,1.71,-0.7,11.85,6.32,-5.63,-2.05,-0.74,-5.52
