time,gFx,gFy,gFz,ax,ay,az,wx,wy,wz
0.007,-0.31,1,0.01,0.19,0.1,0.26,-0.02,0.07,0.02
0.008,-0.31,1,0.01,0.19,0.1,0.26,0.05,-0.05,-0.09
0.009,-0.31,1,0.01,0.22,0.1,0.27,0.05,-0.05,-0.09
0.026,-0.26,0.98,-0.02,0.22,0.1,0.27,0.05,-0.05,-0.09
0.041,-0.26,0.98,-0.02,0.22,0.1,0.27,0.05,-0.05,-0.09
0.045,-0.21,0.97,-0.02,0.22,0.1,0.27,0.05,-0.05,-0.09
0.046,-0.21,0.97,-0.02,0.22,0.1,0.27,0.01,0.03,-0.02
0.046,-0.21,0.97,-0.02,-0.31,-0.02,-0.1,0.01,0.03,-0.02
0.065,-0.18,1,0.01,-0.31,-0.02,-0.1,0.01,0.03,-0.02
0.085,-0.17,1,0,-0.31,-0.02,-0.1,0.01,0.03,-0.02
0.086,-0.17,1,0,-0.31,-0.02,-0.1,-0.01,-0.07,0.05
0.086,-0.17,1,0,0.15,0.05,-0.01,-0.01,-0.07,0.05
0.099,-0.17,1,0,0.15,0.05,-0.01,-0.01,-0.07,0.05
0.105,-0.22,0.99,0,0.15,0.05,-0.01,-0.01,-0.07,0.05
0.138,-0.22,0.99,0.01,0.15,0.05,-0.01,-0.01,-0.07,0.05
0.141,-0.22,0.99,0.01,0.15,0.05,-0.01,-0.01,-0.01,0
0.143,-0.22,0.99,0.01,0.15,0.05,-0.01,-0.01,-0.01,0
0.161,-0.19,0.97,-0.01,0.15,0.05,-0.01,-0.01,-0.01,0
0.162,-0.19,0.97,-0.01,0.15,0.05,-0.01,-0.01,-0.01,0
0.17,-0.19,0.99,-0.01,0.15,0.05,-0.01,-0.01,-0.01,0
0.173,-0.19,0.99,-0.01,0.15,0.05,-0.01,0,-0.02,0
0.174,-0.19,0.99,-0.01,-0.08,-0.03,0.02,0,-0.02,0
0.184,-0.21,1,-0.01,-0.08,-0.03,0.02,0,-0.02,0
0.213,-0.22,0.98,0,-0.08,-0.03,0.02,0,-0.02,0
0.214,-0.22,0.98,0,-0.08,-0.03,0.02,-0.02,0.03,0
0.215,-0.22,0.98,0,-0.04,0,-0.06,-0.02,0.03,0
0.222,-0.22,0.98,0,-0.04,0,-0.06,-0.02,0.03,0
0.225,-0.2,0.98,0.03,-0.04,0,-0.06,-0.02,0.03,0
0.244,-0.19,0.99,0.02,-0.04,0,-0.06,-0.02,0.03,0
0.245,-0.19,0.99,0.02,-0.04,0,-0.06,-0.02,0.02,0
0.246,-0.19,0.99,0.02,-0.04,0,-0.07,-0.02,0.02,0
0.263,-0.2,0.99,0.01,-0.04,0,-0.07,-0.02,0.02,0
0.28,-0.2,0.99,0.01,-0.04,0,-0.07,-0.02,0.02,0
0.283,-0.2,0.98,0.01,-0.04,0,-0.07,-0.02,0.02,0
0.285,-0.2,0.98,0.01,-0.04,0,-0.07,0.01,-0.02,0
0.287,-0.2,0.98,0.01,0.04,-0.01,0.22,0.01,-0.02,0
0.318,-0.21,0.99,-0.01,0.04,-0.01,0.22,0.01,-0.02,0
0.324,-0.21,0.99,-0.01,0.04,-0.01,0.22,0.01,-0.02,0
0.325,-0.21,0.99,-0.01,0.04,-0.01,0.22,0.03,-0.01,0
0.326,-0.21,0.99,-0.01,-0.06,-0.04,0.01,0.03,-0.01,0
0.344,-0.21,0.99,-0.01,-0.06,-0.04,0.01,0.03,-0.01,0
0.346,-0.2,0.99,0,-0.06,-0.04,0.01,0.03,-0.01,0
0.362,-0.2,0.99,0,-0.06,-0.04,0.01,0.03,-0.01,0
0.363,-0.2,0.99,0,-0.06,-0.04,0.01,0.02,-0.03,0
0.364,-0.2,0.99,0,-0.06,-0.04,0.01,0.02,-0.03,0
0.382,-0.2,0.99,0,-0.06,-0.04,0.01,0.02,-0.03,0
0.4,-0.2,0.99,0,-0.06,-0.04,0.01,0.02,-0.03,0
0.402,-0.19,1,-0.02,-0.06,-0.04,0.01,0.02,-0.03,0
0.403,-0.19,1,-0.02,-0.06,-0.04,0.01,0.01,-0.02,0
0.405,-0.19,1,-0.02,0.02,0.01,0.01,0.01,-0.02,0
0.431,-0.17,0.99,0,0.02,0.01,0.01,0.01,-0.02,0
0.451,-0.2,0.99,-0.01,0.02,0.01,0.01,0.01,-0.02,0
0.452,-0.2,0.99,-0.01,0.02,0.01,0.01,0,0,-0.02
0.453,-0.2,0.99,-0.01,0.12,0.03,-0.06,0,0,-0.02
0.459,-0.2,0.99,-0.01,0.12,0.03,-0.06,0,0,-0.02
0.46,-0.23,0.99,0.01,0.12,0.03,-0.06,0,0,-0.02
0.482,-0.22,1,0.02,0.12,0.03,-0.06,0,0,-0.02
0.484,-0.22,1,0.02,0.12,0.03,-0.06,-0.02,0.11,-0.06
0.485,-0.22,1,0.02,0.13,0.03,-0.05,-0.02,0.11,-0.06
0.501,-0.23,0.99,0.03,0.13,0.03,-0.05,-0.02,0.11,-0.06
0.52,-0.23,0.99,0.03,0.13,0.03,-0.05,-0.02,0.11,-0.06
0.523,-0.26,0.97,0.03,0.13,0.03,-0.05,-0.02,0.11,-0.06
0.524,-0.26,0.97,0.03,0.13,0.03,-0.05,-0.01,0.15,-0.03
0.525,-0.26,0.97,0.03,-0.25,0.02,0.25,-0.01,0.15,-0.03
0.555,-0.25,0.95,0.06,-0.25,0.02,0.25,-0.01,0.15,-0.03
0.567,-0.25,0.95,0.06,-0.31,-0.21,0.59,-0.01,0.15,-0.03
0.569,-0.19,0.99,0.07,-0.31,-0.21,0.59,-0.01,0.15,-0.03
0.57,-0.19,0.99,0.07,-0.31,-0.21,0.59,0.03,0.13,0.06
0.58,-0.19,0.99,0.07,-0.31,-0.21,0.59,0.03,0.13,0.06
0.583,-0.18,1,0.01,-0.31,-0.21,0.59,0.03,0.13,0.06
0.6,-0.2,0.98,0.01,-0.31,-0.21,0.59,0.03,0.13,0.06
0.602,-0.2,0.98,0.01,-0.31,-0.21,0.59,0.11,0.34,0.11
0.603,-0.2,0.98,0.01,-0.34,-0.21,0.65,0.11,0.34,0.11
0.623,-0.24,0.86,-0.02,-0.34,-0.21,0.65,0.11,0.34,0.11
0.644,-0.24,0.86,-0.02,-0.34,-0.21,0.65,0.11,0.34,0.11
0.645,-0.15,1.04,-0.1,-0.34,-0.21,0.65,0.11,0.34,0.11
0.646,-0.15,1.04,-0.1,-0.34,-0.21,0.65,0.12,0.63,0.13
0.647,-0.15,1.04,-0.1,-0.15,-0.42,0.19,0.12,0.63,0.13
0.658,-0.18,1.12,-0.07,-0.15,-0.42,0.19,0.12,0.63,0.13
0.68,-0.22,1,-0.07,-0.15,-0.42,0.19,0.12,0.63,0.13
0.681,-0.22,1,-0.07,-0.15,-0.42,0.19,0.02,0.81,0.1
0.682,-0.22,1,-0.07,0.02,0.61,-0.49,0.02,0.81,0.1
0.699,-0.22,1,-0.07,0.02,0.61,-0.49,0.02,0.81,0.1
0.7,-0.27,0.98,-0.01,0.02,0.61,-0.49,0.02,0.81,0.1
0.718,-0.25,0.98,0.03,0.02,0.61,-0.49,0.02,0.81,0.1
0.72,-0.25,0.98,0.03,0.02,0.61,-0.49,-0.03,1.01,0.17
0.721,-0.25,0.98,0.03,-0.06,0.59,-0.42,-0.03,1.01,0.17
0.737,-0.14,0.99,0.07,-0.06,0.59,-0.42,-0.03,1.01,0.17
0.76,-0.14,0.99,0.07,-0.53,-0.13,0.72,-0.03,1.01,0.17
0.762,-0.15,0.98,0.05,-0.53,-0.13,0.72,-0.03,1.01,0.17
0.764,-0.15,0.98,0.05,-0.53,-0.13,0.72,0.12,0.7,0.28
0.765,-0.15,0.98,0.05,-0.53,-0.13,0.72,0.12,0.7,0.28
0.778,-0.19,0.97,0.07,-0.53,-0.13,0.72,0.12,0.7,0.28
0.798,-0.15,0.98,0.05,-0.53,-0.13,0.72,0.12,0.7,0.28
0.801,-0.15,0.98,0.05,-0.53,-0.13,0.72,0.36,0.45,0.26
0.803,-0.15,0.98,0.05,-0.07,-0.17,1.16,0.36,0.45,0.26
0.818,-0.11,0.98,-0.05,-0.07,-0.17,1.16,0.36,0.45,0.26
0.822,-0.11,0.98,-0.05,-0.07,-0.17,1.16,0.36,0.45,0.26
0.86,-0.1,0.98,-0.11,-0.07,-0.17,1.16,0.36,0.45,0.26
0.863,-0.1,0.98,-0.11,-0.07,-0.17,1.16,0.53,0.29,0.21
0.864,-0.1,0.98,-0.11,-0.15,-0.17,1.36,0.53,0.29,0.21
0.865,-0.16,0.99,-0.14,-0.15,-0.17,1.36,0.53,0.29,0.21
0.878,-0.16,0.96,-0.15,-0.15,-0.17,1.36,0.53,0.29,0.21
0.879,-0.16,0.96,-0.15,-0.15,-0.17,1.36,0.51,0.32,0.16
0.88,-0.16,0.96,-0.15,0.17,-0.09,0.01,0.51,0.32,0.16
0.88,-0.16,0.96,-0.15,0.17,-0.09,0.01,0.51,0.32,0.16
0.895,-0.1,0.99,-0.14,0.17,-0.09,0.01,0.51,0.32,0.16
0.915,-0.18,1,-0.06,0.17,-0.09,0.01,0.51,0.32,0.16
0.916,-0.18,1,-0.06,0.17,-0.09,0.01,0.45,0.24,0.15
0.917,-0.18,1,-0.06,-0.15,-0.1,0.02,0.45,0.24,0.15
0.938,-0.27,0.97,-0.1,-0.15,-0.1,0.02,0.45,0.24,0.15
0.941,-0.27,0.97,-0.1,-0.15,-0.1,0.02,0.45,0.24,0.15
0.955,-0.26,1,-0.02,-0.15,-0.1,0.02,0.45,0.24,0.15
0.958,-0.26,1,-0.02,-0.15,-0.1,0.02,0.51,-0.03,0.18
0.96,-0.26,1,-0.02,-0.21,-0.08,0.21,0.51,-0.03,0.18
0.976,-0.21,1.01,-0.02,-0.21,-0.08,0.21,0.51,-0.03,0.18
0.996,-0.06,0.97,-0.12,-0.21,-0.08,0.21,0.51,-0.03,0.18
1,-0.06,0.97,-0.12,-0.21,-0.08,0.21,0.62,-0.44,0.31
1.002,-0.06,0.97,-0.12,-1.27,0.06,1.13,0.62,-0.44,0.31
1.004,-0.06,0.97,-0.12,-1.27,0.06,1.13,0.62,-0.44,0.31
1.015,0.1,1,-0.35,-1.27,0.06,1.13,0.62,-0.44,0.31
1.037,0.07,1.01,-0.46,-1.27,0.06,1.13,0.62,-0.44,0.31
1.042,0.07,1.01,-0.46,-1.27,0.06,1.13,0.69,-0.48,0.22
1.043,0.07,1.01,-0.46,1.45,0.1,-1.2,0.69,-0.48,0.22
1.054,-0.04,0.97,-0.35,1.45,0.1,-1.2,0.69,-0.48,0.22
1.058,-0.04,0.97,-0.35,1.45,0.1,-1.2,0.69,-0.48,0.22
1.075,-0.07,0.97,-0.24,1.45,0.1,-1.2,0.69,-0.48,0.22
1.078,-0.07,0.97,-0.24,1.45,0.1,-1.2,0.43,-0.1,0.01
1.08,-0.07,0.97,-0.24,1.43,0.13,-1.02,0.43,-0.1,0.01
1.093,-0.04,1,-0.15,1.43,0.13,-1.02,0.43,-0.1,0.01
1.113,-0.06,0.99,-0.18,1.43,0.13,-1.02,0.43,-0.1,0.01
1.115,-0.06,0.99,-0.18,1.43,0.13,-1.02,0.26,0.28,-0.06
1.115,-0.06,0.99,-0.18,0.57,-0.01,-0.3,0.26,0.28,-0.06
1.117,-0.06,0.99,-0.18,0.57,-0.01,-0.3,0.26,0.28,-0.06
1.137,-0.24,0.97,-0.23,0.57,-0.01,-0.3,0.26,0.28,-0.06
1.153,-0.28,0.96,-0.28,0.57,-0.01,-0.3,0.26,0.28,-0.06
1.154,-0.28,0.96,-0.28,0.57,-0.01,-0.3,0.32,0.45,-0.12
1.155,-0.28,0.96,-0.28,-0.84,-0.01,-0.01,0.32,0.45,-0.12
1.173,-0.2,0.96,-0.17,-0.84,-0.01,-0.01,0.32,0.45,-0.12
1.178,-0.2,0.96,-0.17,-0.84,-0.01,-0.01,0.32,0.45,-0.12
1.194,-0.2,0.96,-0.17,-0.84,0.02,0.11,0.32,0.45,-0.12
1.197,-0.08,0.98,-0.18,-0.84,0.02,0.11,0.32,0.45,-0.12
1.198,-0.08,0.98,-0.18,-0.84,0.02,0.11,0.33,-0.01,0.03
1.213,-0.07,1.03,-0.29,-0.84,0.02,0.11,0.33,-0.01,0.03
1.244,-0.07,1.03,-0.29,-0.09,0.19,0.46,0.33,-0.01,0.03
1.247,-0.13,0.98,-0.33,-0.09,0.19,0.46,0.33,-0.01,0.03
1.249,-0.13,0.98,-0.33,-0.09,0.19,0.46,0.35,0.03,0.1
1.25,-0.13,0.98,-0.33,-0.09,0.19,0.46,0.35,0.03,0.1
1.252,-0.03,0.93,-0.27,-0.09,0.19,0.46,0.35,0.03,0.1
1.278,0.37,0.95,-0.24,-0.09,0.19,0.46,0.35,0.03,0.1
1.283,0.37,0.95,-0.24,-0.09,0.19,0.46,0.32,-0.07,-0.04
1.286,0.37,0.95,-0.24,1.74,-0.12,-0.09,0.32,-0.07,-0.04
1.293,0.63,1.02,-0.37,1.74,-0.12,-0.09,0.32,-0.07,-0.04
1.297,0.63,1.02,-0.37,1.74,-0.12,-0.09,0.32,-0.07,-0.04
1.311,0.28,1.05,-0.39,1.74,-0.12,-0.09,0.32,-0.07,-0.04
1.313,0.28,1.05,-0.39,1.74,-0.12,-0.09,0.42,-0.48,-0.59
1.313,0.28,1.05,-0.39,1.98,-0.04,0.05,0.42,-0.48,-0.59
1.335,-0.2,0.98,-0.36,1.98,-0.04,0.05,0.42,-0.48,-0.59
1.354,-0.21,1.05,-0.38,1.98,-0.04,0.05,0.42,-0.48,-0.59
1.357,-0.21,1.05,-0.38,1.98,-0.04,0.05,0.36,-0.32,-1.47
1.358,-0.21,1.05,-0.38,4.14,0.69,-0.76,0.36,-0.32,-1.47
1.359,-0.21,1.05,-0.38,4.14,0.69,-0.76,0.36,-0.32,-1.47
1.369,-0.05,1.14,-0.45,4.14,0.69,-0.76,0.36,-0.32,-1.47
1.39,-0.16,1.31,-0.34,4.14,0.69,-0.76,0.36,-0.32,-1.47
1.392,-0.16,1.31,-0.34,4.14,0.69,-0.76,0.28,-0.8,-1.67
1.394,-0.16,1.31,-0.34,1.07,2.27,-0.87,0.28,-0.8,-1.67
1.41,-0.21,1.28,-0.15,1.07,2.27,-0.87,0.28,-0.8,-1.67
1.417,-0.21,1.28,-0.15,1.07,2.27,-0.87,0.28,-0.8,-1.67
1.446,0.04,1.25,-0.11,1.07,2.27,-0.87,0.28,-0.8,-1.67
1.452,0.04,1.25,-0.11,1.07,2.27,-0.87,0.12,-1.05,-1.77
1.452,0.04,1.25,-0.11,1.79,2.44,-0.93,0.12,-1.05,-1.77
1.453,0.17,1.4,-0.21,1.79,2.44,-0.93,0.12,-1.05,-1.77
1.476,0.12,1.58,-0.17,1.79,2.44,-0.93,0.12,-1.05,-1.77
1.481,0.12,1.58,-0.17,1.79,2.44,-0.93,0.07,-1.14,-2.12
1.483,0.12,1.58,-0.17,3.98,4.11,1.21,0.07,-1.14,-2.12
1.484,0.12,1.58,-0.17,3.98,4.11,1.21,0.07,-1.14,-2.12
1.489,0.32,2.02,-0.31,3.98,4.11,1.21,0.07,-1.14,-2.12
1.522,0.82,1.88,-0.28,3.98,4.11,1.21,0.07,-1.14,-2.12
1.524,0.82,1.88,-0.28,3.98,4.11,1.21,0,-1.35,-2.55
1.526,0.82,1.88,-0.28,8.94,9.46,0.01,0,-1.35,-2.55
1.533,1.03,1.61,-0.3,8.94,9.46,0.01,0,-1.35,-2.55
1.542,1.03,1.61,-0.3,8.94,9.46,0.01,0,-1.35,-2.55
1.548,0.86,1.61,-0.72,8.94,9.46,0.01,0,-1.35,-2.55
1.549,0.86,1.61,-0.72,8.94,9.46,0.01,0.1,-1.49,-2.63
1.549,0.86,1.61,-0.72,9.75,9.85,-0.27,0.1,-1.49,-2.63
1.568,-0.21,1.52,-0.45,9.75,9.85,-0.27,0.1,-1.49,-2.63
1.588,-1.13,1.08,-0.16,9.75,9.85,-0.27,0.1,-1.49,-2.63
1.592,-1.13,1.08,-0.16,9.75,9.85,-0.27,0.25,0.46,-3.67
1.594,-1.13,1.08,-0.16,11.99,8.24,-2.35,0.25,0.46,-3.67
1.597,-1.13,1.08,-0.16,11.99,8.24,-2.35,0.25,0.46,-3.67
1.61,-0.97,0.99,-0.53,11.99,8.24,-2.35,0.25,0.46,-3.67
1.629,-0.66,0.95,-0.45,11.99,8.24,-2.35,0.25,0.46,-3.67
1.632,-0.66,0.95,-0.45,11.99,8.24,-2.35,0.45,0.72,-2.62
1.633,-0.66,0.95,-0.45,-1.83,3.29,-0.94,0.45,0.72,-2.62
1.65,-0.44,0.56,-0.11,-1.83,3.29,-0.94,0.45,0.72,-2.62
1.669,-0.44,0.56,-0.11,-1.83,3.29,-0.94,0.45,0.72,-2.62
1.671,-0.44,0.38,-0.57,-1.83,3.29,-0.94,0.45,0.72,-2.62
1.672,-0.44,0.38,-0.57,-1.83,3.29,-0.94,0.15,-1.13,-0.22
1.673,-0.44,0.38,-0.57,-1.63,3.31,-1.21,0.15,-1.13,-0.22
1.686,-0.19,0.26,0.03,-1.63,3.31,-1.21,0.15,-1.13,-0.22
1.705,0.12,0.14,0.25,-1.63,3.31,-1.21,0.15,-1.13,-0.22
1.706,0.12,0.14,0.25,-1.63,3.31,-1.21,-0.34,-1.97,1.25
1.707,0.12,0.14,0.25,3.66,-2.98,-0.26,-0.34,-1.97,1.25
1.723,0.12,0.14,0.25,3.66,-2.98,-0.26,-0.34,-1.97,1.25
1.729,0.21,0.13,-0.14,3.66,-2.98,-0.26,-0.34,-1.97,1.25
1.751,0,0.25,-0.1,3.66,-2.98,-0.26,-0.34,-1.97,1.25
1.753,0,0.25,-0.1,3.66,-2.98,-0.26,-0.3,-0.68,2.54
1.754,0,0.25,-0.1,7.43,-5.81,1.58,-0.3,-0.68,2.54
1.764,-0.32,0.38,-0.16,7.43,-5.81,1.58,-0.3,-0.68,2.54
1.776,-0.32,0.38,-0.16,7.43,-5.81,1.58,-0.3,-0.68,2.54
1.786,-0.49,0.43,-0.19,7.43,-5.81,1.58,-0.3,-0.68,2.54
1.788,-0.49,0.43,-0.19,7.43,-5.81,1.58,-0.31,1.87,3.22
1.789,-0.49,0.43,-0.19,6.2,-6.46,1.87,-0.31,1.87,3.22
1.806,-0.5,0.42,-0.17,6.2,-6.46,1.87,-0.31,1.87,3.22
1.83,-0.44,0.44,-0.14,6.2,-6.46,1.87,-0.31,1.87,3.22
1.832,-0.44,0.44,-0.14,6.2,-6.46,1.87,-0.61,2.31,4.31
1.833,-0.44,0.44,-0.14,-0.79,-4.79,0.33,-0.61,2.31,4.31
1.836,-0.44,0.44,-0.14,-0.79,-4.79,0.33,-0.61,2.31,4.31
1.86,-0.4,0.57,-0.14,-0.79,-4.79,0.33,-0.61,2.31,4.31
1.865,-0.51,0.85,-0.29,-0.79,-4.79,0.33,-0.61,2.31,4.31
1.866,-0.51,0.85,-0.29,-0.79,-4.79,0.33,-0.77,1.68,5.15
1.868,-0.51,0.85,-0.29,-2.82,-3.29,0.06,-0.77,1.68,5.15
1.883,-0.64,0.95,-0.44,-2.82,-3.29,0.06,-0.77,1.68,5.15
1.896,-0.64,0.95,-0.44,-2.82,-3.29,0.06,-0.77,1.68,5.15
1.905,-0.57,1.04,-0.44,-2.82,-3.29,0.06,-0.77,1.68,5.15
1.907,-0.57,1.04,-0.44,-2.82,-3.29,0.06,-0.85,1.59,5.44
1.908,-0.57,1.04,-0.44,-4.89,-3.4,-0.23,-0.85,1.59,5.44
1.924,-0.61,1.44,-0.64,-4.89,-3.4,-0.23,-0.85,1.59,5.44
1.946,-0.64,1.57,-0.6,-4.89,-3.4,-0.23,-0.85,1.59,5.44
1.948,-0.64,1.57,-0.6,-4.89,-3.4,-0.23,-0.81,1.57,5.37
1.949,-0.64,1.57,-0.6,-8.41,2.03,-3.68,-0.81,1.57,5.37
1.955,-0.64,1.57,-0.6,-8.41,2.03,-3.68,-0.81,1.57,5.37
1.963,-0.63,1.71,-0.35,-8.41,2.03,-3.68,-0.81,1.57,5.37
1.985,-0.79,1.52,-0.59,-8.41,2.03,-3.68,-0.81,1.57,5.37
1.987,-0.79,1.52,-0.59,-8.41,2.03,-3.68,-0.33,1.55,4.42
1.988,-0.79,1.52,-0.59,-10.6,6.92,-3.98,-0.33,1.55,4.42
2.003,-0.86,1.27,-0.73,-10.6,6.92,-3.98,-0.33,1.55,4.42
2.017,-0.86,1.27,-0.73,-10.6,6.92,-3.98,-0.33,1.55,4.42
2.023,-0.92,1.14,-0.49,-10.6,6.92,-3.98,-0.33,1.55,4.42
2.026,-0.92,1.14,-0.49,-10.6,6.92,-3.98,0.29,0.71,1.65
2.027,-0.92,1.14,-0.49,-11,7.09,-3.94,0.29,0.71,1.65
2.048,-0.65,1.13,-0.63,-11,7.09,-3.94,0.29,0.71,1.65
2.071,1.55,1.34,1.54,-11,7.09,-3.94,0.29,0.71,1.65
2.073,1.55,1.34,1.54,-11,7.09,-3.94,0.45,-0.48,-0.92
2.074,1.55,1.34,1.54,-11.68,2.79,-4.65,0.45,-0.48,-0.92
2.079,1.55,1.34,1.54,-11.68,2.79,-4.65,0.45,-0.48,-0.92
2.082,2.59,2.68,-1.1,-11.68,2.79,-4.65,0.45,-0.48,-0.92
2.101,-1.39,3.24,0.51,-11.68,2.79,-4.65,0.45,-0.48,-0.92
2.102,-1.39,3.24,0.51,-11.68,2.79,-4.65,1.59,2.05,-1.06
2.103,-1.39,3.24,0.51,5.37,14.65,4.72,1.59,2.05,-1.06
2.12,-3.53,-0.45,-1.08,5.37,14.65,4.72,1.59,2.05,-1.06
2.139,-3.53,-0.45,-1.08,5.37,14.65,4.72,1.59,2.05,-1.06
2.14,-1.15,-0.81,-1.28,5.37,14.65,4.72,1.59,2.05,-1.06
2.161,-1.15,-0.81,-1.28,6.67,14.03,4.95,1.59,2.05,-1.06
2.163,-1.15,-0.81,-1.28,6.67,14.03,4.95,1.7,2.62,-4.34
2.164,1.36,0.73,-1.84,6.67,14.03,4.95,1.7,2.62,-4.34
2.18,2.35,2.3,0.74,6.67,14.03,4.95,1.7,2.62,-4.34
2.181,2.35,2.3,0.74,6.67,14.03,4.95,0.49,-2.51,1.39
2.182,2.35,2.3,0.74,-13.24,-11.09,-11.29,0.49,-2.51,1.39
2.197,2.35,2.3,0.74,-13.24,-11.09,-11.29,0.49,-2.51,1.39
2.2,0.87,1.2,0.09,-13.24,-11.09,-11.29,0.49,-2.51,1.39
2.221,0.25,0.35,-0.31,-13.24,-11.09,-11.29,0.49,-2.51,1.39
2.224,0.25,0.35,-0.31,-13.24,-11.09,-11.29,-0.22,-1.12,-0.56
2.226,0.25,0.35,-0.31,9.11,3.1,4.07,-0.22,-1.12,-0.56
2.248,0.06,0.68,-0.63,9.11,3.1,4.07,-0.22,-1.12,-0.56
2.27,0.06,0.68,-0.63,9.11,3.1,4.07,-0.22,-1.12,-0.56
2.272,-0.45,1.04,-0.05,9.11,3.1,4.07,-0.22,-1.12,-0.56
2.273,-0.45,1.04,-0.05,9.11,3.1,4.07,0.2,0.39,-2.44
2.274,-0.45,1.04,-0.05,9.83,2.89,4.06,0.2,0.39,-2.44
2.279,-0.14,1.05,-0.12,9.83,2.89,4.06,0.2,0.39,-2.44
2.298,0.35,1.01,-0.23,9.83,2.89,4.06,0.2,0.39,-2.44
2.299,0.35,1.01,-0.23,9.83,2.89,4.06,0.18,-0.87,-1.54
2.3,0.35,1.01,-0.23,-2.55,-0.68,-0.13,0.18,-0.87,-1.54
2.314,0.35,1.01,-0.23,-2.55,-0.68,-0.13,0.18,-0.87,-1.54
2.318,0.18,0.95,-0.31,-2.55,-0.68,-0.13,0.18,-0.87,-1.54
2.341,-0.18,0.92,-0.24,-2.55,-0.68,-0.13,0.18,-0.87,-1.54
2.343,-0.18,0.92,-0.24,-2.55,-0.68,-0.13,0.22,-0.54,-1.31
2.344,-0.18,0.92,-0.24,0.89,-0.31,0.01,0.22,-0.54,-1.31
2.364,-0.28,0.92,-0.26,0.89,-0.31,0.01,0.22,-0.54,-1.31
2.374,-0.28,0.92,-0.26,0.89,-0.31,0.01,0.22,-0.54,-1.31
2.379,-0.22,1.02,-0.3,0.89,-0.31,0.01,0.22,-0.54,-1.31
2.384,-0.22,1.02,-0.3,0.89,-0.31,0.01,0.23,-0.28,-1.49
2.386,-0.22,1.02,-0.3,1.46,-0.27,0.09,0.23,-0.28,-1.49
2.397,-0.07,1.11,-0.34,1.46,-0.27,0.09,0.23,-0.28,-1.49
2.417,-0.02,1.09,-0.25,1.46,-0.27,0.09,0.23,-0.28,-1.49
2.419,-0.02,1.09,-0.25,1.46,-0.27,0.09,0.25,-0.7,-1.12
2.42,-0.02,1.09,-0.25,-1.01,0.31,-0.19,0.25,-0.7,-1.12
2.443,-0.02,1.09,-0.25,-1.01,0.31,-0.19,0.25,-0.7,-1.12
2.446,0.05,1.08,-0.22,-1.01,0.31,-0.19,0.25,-0.7,-1.12
2.458,0.22,1.11,-0.25,-1.01,0.31,-0.19,0.25,-0.7,-1.12
2.46,0.22,1.11,-0.25,-1.01,0.31,-0.19,0.17,-0.8,-1.15
2.461,0.22,1.11,-0.25,2.17,1.12,0.39,0.17,-0.8,-1.15
2.48,0.3,1.08,-0.24,2.17,1.12,0.39,0.17,-0.8,-1.15
2.495,0.3,1.08,-0.24,2.17,1.12,0.39,0.17,-0.8,-1.15
2.499,0.23,1.11,-0.28,2.17,1.12,0.39,0.17,-0.8,-1.15
2.5,0.23,1.11,-0.28,2.17,1.12,0.39,0.13,-0.73,-1.7
2.501,0.23,1.11,-0.28,2.84,1.22,0.38,0.13,-0.73,-1.7
2.515,0.18,1.34,-0.24,2.84,1.22,0.38,0.13,-0.73,-1.7
2.541,0.27,1.47,-0.13,2.84,1.22,0.38,0.13,-0.73,-1.7
2.546,0.27,1.47,-0.13,2.84,1.22,0.38,0.1,-0.81,-2.47
2.548,0.27,1.47,-0.13,5.22,2.28,0.23,0.1,-0.81,-2.47
2.554,0.27,1.47,-0.13,5.22,2.28,0.23,0.1,-0.81,-2.47
2.555,0.38,1.42,-0.21,5.22,2.28,0.23,0.1,-0.81,-2.47
2.575,0.31,1.53,-0.52,5.22,2.28,0.23,0.1,-0.81,-2.47
2.577,0.31,1.53,-0.52,5.22,2.28,0.23,0.07,-1.23,-3.09
2.578,0.31,1.53,-0.52,7.17,5.52,-0.23,0.07,-1.23,-3.09
2.597,0.37,1.97,-0.62,7.17,5.52,-0.23,0.07,-1.23,-3.09
2.615,0.37,1.97,-0.62,7.17,5.52,-0.23,0.07,-1.23,-3.09
2.618,0.92,1.69,-0.63,7.17,5.52,-0.23,0.07,-1.23,-3.09
2.62,0.92,1.69,-0.63,7.17,5.52,-0.23,0.01,-2.27,-3.23
2.622,0.92,1.69,-0.63,8.34,6.01,-0.64,0.01,-2.27,-3.23
2.649,1.12,1.67,-0.75,8.34,6.01,-0.64,0.01,-2.27,-3.23
2.656,0,1.99,-0.14,8.34,6.01,-0.64,0.01,-2.27,-3.23
2.658,0,1.99,-0.14,8.34,6.01,-0.64,-0.09,-2.4,-2.89
2.661,0,1.99,-0.14,13.95,9.47,-4.88,-0.09,-2.4,-2.89
2.683,0,1.99,-0.14,13.95,9.47,-4.88,-0.09,-2.4,-2.89
2.686,-1.06,1.4,-0.51,13.95,9.47,-4.88,-0.09,-2.4,-2.89
2.696,-0.98,0.79,-0.32,13.95,9.47,-4.88,-0.09,-2.4,-2.89
2.698,-0.98,0.79,-0.32,13.95,9.47,-4.88,0.14,0.75,-3.72
2.699,-0.98,0.79,-0.32,0.44,6.6,-1.24,0.14,0.75,-3.72
2.713,-0.73,0.31,-0.09,0.44,6.6,-1.24,0.14,0.75,-3.72
2.74,-0.73,0.31,-0.09,0.44,6.6,-1.24,0.14,0.75,-3.72
2.742,-0.73,0.09,-0.08,0.44,6.6,-1.24,0.14,0.75,-3.72
2.744,-0.73,0.09,-0.08,0.44,6.6,-1.24,0.44,0.67,-1.3
2.746,-0.73,0.09,-0.08,0.73,6.89,-0.91,0.44,0.67,-1.3
2.76,-0.45,0.16,0.28,0.73,6.89,-0.91,0.44,0.67,-1.3
2.773,0.08,0.17,0.18,0.73,6.89,-0.91,0.44,0.67,-1.3
2.774,0.08,0.17,0.18,0.73,6.89,-0.91,0.24,-1.12,0.98
2.775,0.08,0.17,0.18,0.95,-5.11,2.33,0.24,-1.12,0.98
2.793,0.43,0.23,0.04,0.95,-5.11,2.33,0.24,-1.12,0.98
2.794,0.43,0.23,0.04,0.95,-5.11,2.33,0.24,-1.12,0.98
2.815,0.07,0.3,0.01,0.95,-5.11,2.33,0.24,-1.12,0.98
2.818,0.07,0.3,0.01,0.95,-5.11,2.33,0.23,-0.2,2.46
2.82,0.07,0.3,0.01,8.25,-5.21,2.66,0.23,-0.2,2.46
2.85,-0.46,0.38,-0.03,8.25,-5.21,2.66,0.23,-0.2,2.46
2.853,-0.63,0.45,-0.05,8.25,-5.21,2.66,0.23,-0.2,2.46
2.854,-0.63,0.45,-0.05,8.25,-5.21,2.66,0.15,2.02,2.75
2.854,-0.63,0.45,-0.05,8.25,-5.21,2.66,0.15,2.02,2.75
2.856,-0.63,0.45,-0.05,7.11,-5.74,3.12,0.15,2.02,2.75
2.88,-0.53,0.47,0,7.11,-5.74,3.12,0.15,2.02,2.75
2.891,-0.41,0.47,-0.04,7.11,-5.74,3.12,0.15,2.02,2.75
2.894,-0.41,0.47,-0.04,7.11,-5.74,3.12,-0.17,1.93,3.99
2.895,-0.41,0.47,-0.04,-1.56,-4.44,2.36,-0.17,1.93,3.99
2.932,-0.33,0.53,-0.12,-1.56,-4.44,2.36,-0.17,1.93,3.99
2.934,-0.33,0.53,-0.12,-1.56,-4.44,2.36,-0.17,1.93,3.99
2.936,-0.4,0.64,-0.22,-1.56,-4.44,2.36,-0.17,1.93,3.99
2.937,-0.4,0.64,-0.22,-1.56,-4.44,2.36,-0.48,1.05,5
2.938,-0.4,0.64,-0.22,-1.84,-3.89,1.3,-0.48,1.05,5
2.95,-0.56,0.78,-0.35,-1.84,-3.89,1.3,-0.48,1.05,5
2.969,-0.52,0.95,-0.36,-1.84,-3.89,1.3,-0.48,1.05,5
2.971,-0.52,0.95,-0.36,-1.84,-3.89,1.3,-0.76,1.08,5.53
2.971,-0.52,0.95,-0.36,-3.93,-4.07,1.03,-0.76,1.08,5.53
2.972,-0.52,0.95,-0.36,-3.93,-4.07,1.03,-0.76,1.08,5.53
2.989,-0.51,1.32,-0.48,-3.93,-4.07,1.03,-0.76,1.08,5.53
3.01,-0.76,1.75,-0.74,-3.93,-4.07,1.03,-0.76,1.08,5.53
3.012,-0.76,1.75,-0.74,-3.93,-4.07,1.03,-0.74,1.35,5.79
3.013,-0.76,1.75,-0.74,-7.57,0.8,-1.94,-0.74,1.35,5.79
3.033,-1.16,1.76,-0.64,-7.57,0.8,-1.94,-0.74,1.35,5.79
3.035,-1.16,1.76,-0.64,-7.57,0.8,-1.94,-0.74,1.35,5.79
3.05,-1,1.64,-0.11,-7.57,0.8,-1.94,-0.74,1.35,5.79
3.052,-1,1.64,-0.11,-7.57,0.8,-1.94,-0.44,0.66,5.15
3.053,-1,1.64,-0.11,-13.54,8.18,-3.1,-0.44,0.66,5.15
3.069,-0.04,1.68,-0.21,-13.54,8.18,-3.1,-0.44,0.66,5.15
3.089,-0.33,1.46,-0.43,-13.54,8.18,-3.1,-0.44,0.66,5.15
3.093,-0.33,1.46,-0.43,-13.54,8.18,-3.1,0.06,-0.31,2.93
3.095,-0.33,1.46,-0.43,-14.24,8.55,-2.97,0.06,-0.31,2.93
3.098,-0.33,1.46,-0.43,-14.24,8.55,-2.97,0.06,-0.31,2.93
3.109,-0.98,1.02,-0.27,-14.24,8.55,-2.97,0.06,-0.31,2.93
3.129,1.17,1.61,0.52,-14.24,8.55,-2.97,0.06,-0.31,2.93
3.131,1.17,1.61,0.52,-14.24,8.55,-2.97,0.32,0.68,-0.95
3.133,1.17,1.61,0.52,-8.7,5.07,-1.04,0.32,0.68,-0.95
3.165,2.87,3.33,-1.4,-8.7,5.07,-1.04,0.32,0.68,-0.95
3.168,2.87,3.33,-1.4,-8.7,5.07,-1.04,0.32,0.68,-0.95
3.17,-1.37,1.88,0.38,-8.7,5.07,-1.04,0.32,0.68,-0.95
3.172,-1.37,1.88,0.38,-8.7,5.07,-1.04,1.54,2.28,-1.57
3.172,-1.37,1.88,0.38,4.73,13.43,0.44,1.54,2.28,-1.57
3.2,-3.72,-1.25,-1.15,4.73,13.43,0.44,1.54,2.28,-1.57
3.208,-1.09,-0.36,-0.56,4.73,13.43,0.44,1.54,2.28,-1.57
3.209,-1.09,-0.36,-0.56,4.73,13.43,0.44,1.46,0.92,-4.73
3.21,-1.09,-0.36,-0.56,6.25,12.75,0.82,1.46,0.92,-4.73
3.213,-1.09,-0.36,-0.56,6.25,12.75,0.82,1.46,0.92,-4.73
3.227,1.44,1.33,-1.65,6.25,12.75,0.82,1.46,0.92,-4.73
3.263,1.93,2.19,0.08,6.25,12.75,0.82,1.46,0.92,-4.73
3.267,1.93,2.19,0.08,-13.56,-10.07,-7.96,1.46,0.92,-4.73
3.27,1.93,2.19,0.08,-13.56,-10.07,-7.96,0.5,-2.62,1.57
3.272,0.57,0.81,-0.04,-13.56,-10.07,-7.96,0.5,-2.62,1.57
3.273,0.57,0.81,-0.04,-13.56,-10.07,-7.96,0.5,-2.62,1.57
3.3,0.34,0.21,-0.43,-13.56,-10.07,-7.96,0.5,-2.62,1.57
3.304,0.34,0.21,-0.43,-13.56,-10.07,-7.96,-0.26,-0.85,-0.46
3.307,0.34,0.21,-0.43,6.89,1.17,1.71,-0.26,-0.85,-0.46
3.309,0.31,0.86,-0.38,6.89,1.17,1.71,-0.26,-0.85,-0.46
3.326,-0.25,1.22,-0.27,6.89,1.17,1.71,-0.26,-0.85,-0.46
3.329,-0.25,1.22,-0.27,6.89,1.17,1.71,0.05,0.06,-1.89
3.331,-0.25,1.22,-0.27,7.46,1.01,1.69,0.05,0.06,-1.89
3.332,-0.25,1.22,-0.27,7.46,1.01,1.69,0.05,0.06,-1.89
3.347,-0.26,0.94,-0.12,7.46,1.01,1.69,0.05,0.06,-1.89
3.365,0.28,0.84,-0.22,7.46,1.01,1.69,0.05,0.06,-1.89
3.366,0.28,0.84,-0.22,7.46,1.01,1.69,0.07,-1.01,-1.41
3.367,0.28,0.84,-0.22,-1.79,0.34,0.54,0.07,-1.01,-1.41
3.385,0.38,0.95,-0.39,-1.79,0.34,0.54,0.07,-1.01,-1.41
3.392,0.38,0.95,-0.39,-1.79,0.34,0.54,0.07,-1.01,-1.41
3.406,0.18,0.97,-0.37,-1.79,0.34,0.54,0.07,-1.01,-1.41
3.411,0.18,0.97,-0.37,-1.79,0.34,0.54,0.15,-0.89,-1.17
3.413,0.18,0.97,-0.37,2.11,-0.51,-0.06,0.15,-0.89,-1.17
3.425,-0.07,0.88,-0.31,2.11,-0.51,-0.06,0.15,-0.89,-1.17
3.451,-0.24,0.93,-0.24,2.11,-0.51,-0.06,0.15,-0.89,-1.17
3.453,-0.24,0.93,-0.24,2.11,-0.51,-0.06,0.11,-0.32,-1.49
3.454,-0.24,0.93,-0.24,2.67,-0.51,-0.01,0.11,-0.32,-1.49
3.454,-0.24,0.93,-0.24,2.67,-0.51,-0.01,0.11,-0.32,-1.49
3.482,-0.14,1.03,-0.33,2.67,-0.51,-0.01,0.11,-0.32,-1.49
3.484,-0.03,1.03,-0.37,2.67,-0.51,-0.01,0.11,-0.32,-1.49
3.485,-0.03,1.03,-0.37,-0.95,-0.22,0.33,0.11,-0.32,-1.49
3.486,-0.03,1.03,-0.37,-0.95,-0.22,0.33,0.1,-0.53,-1.38
3.504,-0.11,1.05,-0.45,-0.95,-0.22,0.33,0.1,-0.53,-1.38
3.513,-0.11,1.05,-0.45,-0.95,-0.22,0.33,0.1,-0.53,-1.38
3.523,-0.11,1.1,-0.4,-0.95,-0.22,0.33,0.1,-0.53,-1.38
3.524,-0.11,1.1,-0.4,-0.95,-0.22,0.33,0.08,-0.72,-1.26
3.525,-0.11,1.1,-0.4,0.25,0.93,-0.73,0.08,-0.72,-1.26
3.543,0.07,1.1,-0.18,0.25,0.93,-0.73,0.08,-0.72,-1.26
3.566,0.07,1.1,-0.18,0.87,0.99,-0.77,0.08,-0.72,-1.26
3.57,0.4,1.1,-0.22,0.87,0.99,-0.77,0.08,-0.72,-1.26
3.572,0.4,1.1,-0.22,0.87,0.99,-0.77,0.03,-1.11,-1.33
3.573,0.4,1.1,-0.22,0.87,0.99,-0.77,0.03,-1.11,-1.33
3.587,0.39,1.24,-0.36,0.87,0.99,-0.77,0.03,-1.11,-1.33
3.603,0.22,1.46,-0.24,0.87,0.99,-0.77,0.03,-1.11,-1.33
3.604,0.22,1.46,-0.24,0.87,0.99,-0.77,0,-1.02,-2.02
3.605,0.22,1.46,-0.24,5.32,1.97,0.61,0,-1.02,-2.02
3.623,0.18,1.49,-0.09,5.32,1.97,0.61,0,-1.02,-2.02
3.646,0.18,1.49,-0.09,5.32,1.97,0.61,0,-1.02,-2.02
3.649,0.18,1.48,-0.24,5.32,1.97,0.61,0,-1.02,-2.02
3.651,0.18,1.48,-0.24,5.32,1.97,0.61,-0.07,-1.18,-2.92
3.652,0.18,1.48,-0.24,5.5,5.48,1.04,-0.07,-1.18,-2.92
3.669,0.16,1.91,-0.52,5.5,5.48,1.04,-0.07,-1.18,-2.92
3.682,0.56,2.02,-0.46,5.5,5.48,1.04,-0.07,-1.18,-2.92
3.684,0.56,2.02,-0.46,5.5,5.48,1.04,-0.18,-2.23,-3.18
3.684,0.56,2.02,-0.46,6.73,5.89,0.58,-0.18,-2.23,-3.18
3.69,0.56,2.02,-0.46,6.73,5.89,0.58,-0.18,-2.23,-3.18
3.701,1.31,1.41,-0.82,6.73,5.89,0.58,-0.18,-2.23,-3.18
3.723,1.16,1.8,-0.63,6.73,5.89,0.58,-0.18,-2.23,-3.18
3.725,1.16,1.8,-0.63,6.73,5.89,0.58,-0.21,-3.3,-2.52
3.726,1.16,1.8,-0.63,12.36,9.21,-4.11,-0.21,-3.3,-2.52
3.748,-0.28,1.9,-0.19,12.36,9.21,-4.11,-0.21,-3.3,-2.52
3.754,-0.28,1.9,-0.19,12.36,9.21,-4.11,-0.21,-3.3,-2.52
3.76,-0.99,1.15,-0.44,12.36,9.21,-4.11,-0.21,-3.3,-2.52
3.762,-0.99,1.15,-0.44,12.36,9.21,-4.11,-0.34,-0.1,-3.52
3.762,-0.99,1.15,-0.44,6.33,8.29,-2.42,-0.34,-0.1,-3.52
3.782,-0.68,0.58,-0.47,6.33,8.29,-2.42,-0.34,-0.1,-3.52
3.8,-0.55,0.21,-0.22,6.33,8.29,-2.42,-0.34,-0.1,-3.52
3.802,-0.55,0.21,-0.22,6.33,8.29,-2.42,0.13,1.66,-2.43
3.803,-0.55,0.21,-0.22,6.78,8.82,-1.89,0.13,1.66,-2.43
3.81,-0.55,0.21,-0.22,6.78,8.82,-1.89,0.13,1.66,-2.43
3.819,-0.86,0.11,-0.38,6.78,8.82,-1.89,0.13,1.66,-2.43
3.846,-0.69,0.22,0.01,6.78,8.82,-1.89,0.13,1.66,-2.43
3.849,-0.69,0.22,0.01,6.78,8.82,-1.89,-0.01,0.27,-0.15
3.85,-0.69,0.22,0.01,0.36,-3.93,-1.2,-0.01,0.27,-0.15
3.859,-0.17,0.16,0.26,0.36,-3.93,-1.2,-0.01,0.27,-0.15
3.871,-0.17,0.16,0.26,0.36,-3.93,-1.2,-0.01,0.27,-0.15
3.88,-0.17,0.16,0.26,4.65,-5.77,2.7,-0.01,0.27,-0.15
3.883,0.23,0.09,-0.02,4.65,-5.77,2.7,-0.01,0.27,-0.15
3.883,0.23,0.09,-0.02,4.65,-5.77,2.7,-0.38,-1.05,1.71
3.898,0.29,0.14,0.01,4.65,-5.77,2.7,-0.38,-1.05,1.71
3.919,-0.08,0.29,-0.09,4.65,-5.77,2.7,-0.38,-1.05,1.71
3.923,-0.08,0.29,-0.09,4.65,-5.77,2.7,-0.21,0.77,3.02
3.925,-0.08,0.29,-0.09,3.61,-6.42,2.78,-0.21,0.77,3.02
3.953,-0.08,0.29,-0.09,3.61,-6.42,2.78,-0.21,0.77,3.02
3.954,-0.5,0.4,-0.16,3.61,-6.42,2.78,-0.21,0.77,3.02
3.964,-0.68,0.48,-0.14,3.61,-6.42,2.78,-0.21,0.77,3.02
3.965,-0.68,0.48,-0.14,3.61,-6.42,2.78,-0.22,2.72,3.41
3.966,-0.68,0.48,-0.14,3.29,-5.79,1.59,-0.22,2.72,3.41
3.982,-0.58,0.5,-0.14,3.29,-5.79,1.59,-0.22,2.72,3.41
3.99,-0.58,0.5,-0.14,3.29,-5.79,1.59,-0.22,2.72,3.41
3.999,-0.4,0.52,-0.13,3.29,-5.79,1.59,-0.22,2.72,3.41
4.002,-0.4,0.52,-0.13,3.29,-5.79,1.59,-0.49,1.99,4.55
4.003,-0.4,0.52,-0.13,-2.93,-4.21,1.09,-0.49,1.99,4.55
4.019,-0.36,0.63,-0.15,-2.93,-4.21,1.09,-0.49,1.99,4.55
4.05,-0.57,0.88,-0.35,-2.93,-4.21,1.09,-0.49,1.99,4.55
4.051,-0.57,0.88,-0.35,-2.93,-4.21,1.09,-0.7,1.1,5.49
4.058,-0.57,0.88,-0.35,-4.98,-4.51,0.89,-0.7,1.1,5.49
4.059,-0.57,0.88,-0.35,-4.98,-4.51,0.89,-0.7,1.1,5.49
4.06,-0.83,1.09,-0.47,-4.98,-4.51,0.89,-0.7,1.1,5.49
4.075,-0.73,1.29,-0.53,-4.98,-4.51,0.89,-0.7,1.1,5.49
4.076,-0.73,1.29,-0.53,-4.98,-4.51,0.89,-0.73,0.67,6.01
4.077,-0.73,1.29,-0.53,-7.43,-0.79,-1.19,-0.73,0.67,6.01
4.097,-0.62,1.94,-0.65,-7.43,-0.79,-1.19,-0.73,0.67,6.01
4.11,-0.62,1.94,-0.65,-7.43,-0.79,-1.19,-0.73,0.67,6.01
4.117,-0.93,2.15,-0.31,-7.43,-0.79,-1.19,-0.73,0.67,6.01
4.12,-0.93,2.15,-0.31,-11.16,8.77,-2.93,-0.73,0.67,6.01
4.123,-0.93,2.15,-0.31,-11.16,8.77,-2.93,-0.35,0.17,6.09
4.138,-0.73,1.76,-0.04,-11.16,8.77,-2.93,-0.35,0.17,6.09
4.172,-0.24,1.64,-0.33,-11.16,8.77,-2.93,-0.35,0.17,6.09
4.174,-0.24,1.64,-0.33,-11.16,8.77,-2.93,0.02,-0.31,3.82
4.175,-0.24,1.64,-0.33,-12.21,9.27,-2.82,0.02,-0.31,3.82
4.176,-0.24,1.64,-0.33,-12.21,9.27,-2.82,0.02,-0.31,3.82
4.177,-0.97,1.14,-0.16,-12.21,9.27,-2.82,0.02,-0.31,3.82
4.203,-0.47,0.93,-0.47,-12.21,9.27,-2.82,0.02,-0.31,3.82
4.205,-0.47,0.93,-0.47,-12.21,9.27,-2.82,0.2,1.05,-0.66
4.205,-0.47,0.93,-0.47,-10.73,6.33,0.15,0.2,1.05,-0.66
4.218,2.22,1.54,0.52,-10.73,6.33,0.15,0.2,1.05,-0.66
4.233,2.22,1.54,0.52,-10.73,6.33,0.15,0.2,1.05,-0.66
4.237,3.37,1.8,-1.59,-10.73,6.33,0.15,0.2,1.05,-0.66
4.24,3.37,1.8,-1.59,-10.73,6.33,0.15,0.89,-0.6,-0.65
4.242,3.37,1.8,-1.59,12.34,5.31,-2.73,0.89,-0.6,-0.65
4.259,-0.17,2.13,-0.46,12.34,5.31,-2.73,0.89,-0.6,-0.65
4.276,-4.61,0.06,-0.13,12.34,5.31,-2.73,0.89,-0.6,-0.65
4.277,-4.61,0.06,-0.13,12.34,5.31,-2.73,1.49,4.31,-4.2
4.278,-4.61,0.06,-0.13,13.21,4.73,-2.81,1.49,4.31,-4.2
4.289,-4.61,0.06,-0.13,13.21,4.73,-2.81,1.49,4.31,-4.2
4.293,-2.51,-0.67,-0.69,13.21,4.73,-2.81,1.49,4.31,-4.2
4.314,0.9,0.69,-0.99,13.21,4.73,-2.81,1.49,4.31,-4.2
4.316,0.9,0.69,-0.99,13.21,4.73,-2.81,1.16,-1.14,-3.33
4.318,0.9,0.69,-0.99,-25.54,-4.45,-1.37,1.16,-1.14,-3.33
4.334,2.19,1.95,-1.07,-25.54,-4.45,-1.37,1.16,-1.14,-3.33
4.37,2.19,1.95,-1.07,-25.54,-4.45,-1.37,1.16,-1.14,-3.33
4.373,1.19,1.33,0.1,-25.54,-4.45,-1.37,1.16,-1.14,-3.33
4.374,1.19,1.33,0.1,-25.54,-4.45,-1.37,0.32,-2.22,2.27
4.375,1.19,1.33,0.1,11.52,3.71,-3.25,0.32,-2.22,2.27
4.378,-0.12,0.4,-0.28,11.52,3.71,-3.25,0.32,-2.22,2.27
4.4,-0.03,0.62,-0.26,11.52,3.71,-3.25,0.32,-2.22,2.27
4.402,-0.03,0.62,-0.26,11.52,3.71,-3.25,-0.24,0.24,-1.43
4.404,-0.03,0.62,-0.26,11.82,3.5,-3.3,-0.24,0.24,-1.43
4.409,-0.03,0.62,-0.26,11.82,3.5,-3.3,-0.24,0.24,-1.43
4.412,-0.06,1.14,-0.33,11.82,3.5,-3.3,-0.24,0.24,-1.43
4.451,-0.08,1.11,-0.26,11.82,3.5,-3.3,-0.24,0.24,-1.43
4.454,-0.08,1.11,-0.26,11.82,3.5,-3.3,0.05,-0.52,-1.55
4.454,-0.08,1.11,-0.26,-2.14,-2.49,0.29,0.05,-0.52,-1.55
4.459,0.23,0.86,-0.21,-2.14,-2.49,0.29,0.05,-0.52,-1.55
4.479,0.23,0.86,-0.21,-2.14,-2.49,0.29,0.05,-0.52,-1.55
4.48,0.39,0.85,-0.29,-2.14,-2.49,0.29,0.05,-0.52,-1.55
4.482,0.39,0.85,-0.29,-2.14,-2.49,0.29,0.08,-1.53,-0.99
4.485,0.39,0.85,-0.29,0.85,-0.37,0.74,0.08,-1.53,-0.99
4.491,0.29,0.99,-0.25,0.85,-0.37,0.74,0.08,-1.53,-0.99
4.511,0.04,0.95,-0.33,0.85,-0.37,0.74,0.08,-1.53,-0.99
4.514,0.04,0.95,-0.33,0.85,-0.37,0.74,0.08,-0.56,-1.32
4.516,0.04,0.95,-0.33,1.4,-0.38,0.77,0.08,-0.56,-1.32
4.53,0.04,0.95,-0.33,1.4,-0.38,0.77,0.08,-0.56,-1.32
4.533,-0.2,0.88,-0.29,1.4,-0.38,0.77,0.08,-0.56,-1.32
4.556,-0.22,0.98,-0.25,1.4,-0.38,0.77,0.08,-0.56,-1.32
4.557,-0.22,0.98,-0.25,1.4,-0.38,0.77,0.08,-0.18,-1.62
4.558,-0.22,0.98,-0.25,0.67,-0.37,0.43,0.08,-0.18,-1.62
4.575,-0.09,1.04,-0.32,0.67,-0.37,0.43,0.08,-0.18,-1.62
4.588,-0.09,1.04,-0.32,0.67,-0.37,0.43,0.08,-0.18,-1.62
4.589,-0.03,1.02,-0.31,0.67,-0.37,0.43,0.08,-0.18,-1.62
4.589,-0.03,1.02,-0.31,0.67,-0.37,0.43,0.1,-0.48,-1.4
4.59,-0.03,1.02,-0.31,-0.26,0.39,0.4,0.1,-0.48,-1.4
4.609,-0.12,1.06,-0.37,-0.26,0.39,0.4,0.1,-0.48,-1.4
4.63,-0.15,1.12,-0.35,-0.26,0.39,0.4,0.1,-0.48,-1.4
4.633,-0.15,1.12,-0.35,-0.26,0.39,0.4,0.1,-0.48,-1.42
4.635,-0.15,1.12,-0.35,0.32,0.46,0.41,0.1,-0.48,-1.42
4.656,-0.15,1.12,-0.35,0.32,0.46,0.41,0.1,-0.48,-1.42
4.658,0.02,1.1,-0.34,0.32,0.46,0.41,0.1,-0.48,-1.42
4.682,0.19,1.18,-0.27,0.32,0.46,0.41,0.1,-0.48,-1.42
4.683,0.19,1.18,-0.27,0.32,0.46,0.41,0.09,-0.81,-1.59
4.684,0.19,1.18,-0.27,1.27,1.35,-0.17,0.09,-0.81,-1.59
4.69,0.15,1.31,-0.3,1.27,1.35,-0.17,0.09,-0.81,-1.59
4.708,0.15,1.31,-0.3,1.27,1.35,-0.17,0.09,-0.81,-1.59
4.71,0.1,1.47,-0.2,1.27,1.35,-0.17,0.09,-0.81,-1.59
4.71,0.1,1.47,-0.2,1.27,1.35,-0.17,-0.03,-1.05,-2.13
4.711,0.1,1.47,-0.2,4.37,3.68,0.65,-0.03,-1.05,-2.13
4.728,0.11,1.44,-0.2,4.37,3.68,0.65,-0.03,-1.05,-2.13
4.753,0.07,1.51,-0.48,4.37,3.68,0.65,-0.03,-1.05,-2.13
4.754,0.07,1.51,-0.48,4.37,3.68,0.65,-0.18,-1.19,-2.8
4.755,0.07,1.51,-0.48,5.43,3.98,0.41,-0.18,-1.19,-2.8
4.77,0.07,1.51,-0.48,5.43,3.98,0.41,-0.18,-1.19,-2.8
4.773,0.14,1.99,-0.48,5.43,3.98,0.41,-0.18,-1.19,-2.8
4.787,0.75,1.8,-0.57,5.43,3.98,0.41,-0.18,-1.19,-2.8
4.789,0.75,1.8,-0.57,5.43,3.98,0.41,-0.31,-2.16,-2.9
4.789,0.75,1.8,-0.57,6.15,7.56,-1.36,-0.31,-2.16,-2.9
4.807,1.26,1.39,-0.82,6.15,7.56,-1.36,-0.31,-2.16,-2.9
4.826,0.68,1.78,-0.47,6.15,7.56,-1.36,-0.31,-2.16,-2.9
4.828,0.68,1.78,-0.47,6.15,7.56,-1.36,-0.28,-2.91,-2.4
4.829,0.68,1.78,-0.47,14.66,8.07,-4.31,-0.28,-2.91,-2.4
4.829,0.68,1.78,-0.47,14.66,8.07,-4.31,-0.28,-2.91,-2.4
4.846,-0.68,1.72,-0.17,14.66,8.07,-4.31,-0.28,-2.91,-2.4
4.867,-0.95,1.06,-0.46,14.66,8.07,-4.31,-0.28,-2.91,-2.4
4.868,-0.95,1.06,-0.46,14.66,8.07,-4.31,-0.26,-0.25,-3.38
4.869,-0.95,1.06,-0.46,15.45,8.76,-4.37,-0.26,-0.25,-3.38
4.887,-0.6,0.62,-0.33,15.45,8.76,-4.37,-0.26,-0.25,-3.38
4.889,-0.6,0.62,-0.33,15.45,8.76,-4.37,-0.26,-0.25,-3.38
4.906,-0.58,0.28,-0.2,15.45,8.76,-4.37,-0.26,-0.25,-3.38
4.908,-0.58,0.28,-0.2,15.45,8.76,-4.37,0.28,0.56,-2
4.908,-0.58,0.28,-0.2,-0.06,4.13,-1.16,0.28,0.56,-2
4.926,-0.65,0.2,-0.11,-0.06,4.13,-1.16,0.28,0.56,-2
4.954,-0.26,0.24,0.28,-0.06,4.13,-1.16,0.28,0.56,-2
4.955,-0.26,0.24,0.28,-0.06,4.13,-1.16,0.18,-0.88,0.02
4.956,-0.26,0.24,0.28,2.37,-4.56,1.66,0.18,-0.88,0.02
4.956,-0.26,0.24,0.28,2.37,-4.56,1.66,0.18,-0.88,0.02
4.973,0.29,0.24,-0.01,2.37,-4.56,1.66,0.18,-0.88,0.02
4.985,0.51,0.27,-0.07,2.37,-4.56,1.66,0.18,-0.88,0.02
4.986,0.51,0.27,-0.07,2.37,-4.56,1.66,0.04,-0.53,1.96
4.987,0.51,0.27,-0.07,1.82,-5.01,1.5,0.04,-0.53,1.96
5.004,0.12,0.37,-0.11,1.82,-5.01,1.5,0.04,-0.53,1.96
5.007,0.12,0.37,-0.11,1.82,-5.01,1.5,0.04,-0.53,1.96
5.025,-0.33,0.5,-0.14,1.82,-5.01,1.5,0.04,-0.53,1.96
5.027,-0.33,0.5,-0.14,1.82,-5.01,1.5,-0.01,2.64,2.47
5.028,-0.33,0.5,-0.14,8.57,-5,1.54,-0.01,2.64,2.47
5.052,-0.56,0.57,-0.25,8.57,-5,1.54,-0.01,2.64,2.47
5.064,-0.74,0.52,-0.31,8.57,-5,1.54,-0.01,2.64,2.47
5.066,-0.74,0.52,-0.31,8.57,-5,1.54,-0.42,3.99,3.12
5.068,-0.74,0.52,-0.31,-1.12,-3.28,0.52,-0.42,3.99,3.12
5.07,-0.74,0.52,-0.31,-1.12,-3.28,0.52,-0.42,3.99,3.12
5.084,-0.76,0.48,-0.19,-1.12,-3.28,0.52,-0.42,3.99,3.12
5.104,-0.55,0.52,-0.35,-1.12,-3.28,0.52,-0.42,3.99,3.12
5.105,-0.55,0.52,-0.35,-1.12,-3.28,0.52,-0.96,2.4,4.58
5.106,-0.55,0.52,-0.35,-2.94,-3.9,0.5,-0.96,2.4,4.58
5.124,-0.48,0.62,-0.33,-2.94,-3.9,0.5,-0.96,2.4,4.58
5.127,-0.48,0.62,-0.33,-2.94,-3.9,0.5,-0.96,2.4,4.58
5.144,-0.54,0.82,-0.25,-2.94,-3.9,0.5,-0.96,2.4,4.58
5.147,-0.54,0.82,-0.25,-2.94,-3.9,0.5,-1.07,0.95,5.63
5.149,-0.54,0.82,-0.25,-5.6,-4.15,-0.4,-1.07,0.95,5.63
5.174,-0.63,1.13,-0.4,-5.6,-4.15,-0.4,-1.07,0.95,5.63
5.194,-0.89,1.51,-0.55,-5.6,-4.15,-0.4,-1.07,0.95,5.63
5.195,-0.89,1.51,-0.55,-5.6,-4.15,-0.4,-0.89,1.06,5.88
5.196,-0.89,1.51,-0.55,-8.59,1.98,-1.77,-0.89,1.06,5.88
5.197,-0.89,1.51,-0.55,-8.59,1.98,-1.77,-0.89,1.06,5.88
5.202,-1.17,1.82,-0.56,-8.59,1.98,-1.77,-0.89,1.06,5.88
5.222,-1,1.81,-0.44,-8.59,1.98,-1.77,-0.89,1.06,5.88
5.224,-1,1.81,-0.44,-8.59,1.98,-1.77,-0.45,0.84,5.38
5.225,-1,1.81,-0.44,-10.41,2.51,-1.99,-0.45,0.84,5.38
5.242,-0.57,1.61,-0.43,-10.41,2.51,-1.99,-0.45,0.84,5.38
5.247,-0.57,1.61,-0.43,-10.41,2.51,-1.99,-0.45,0.84,5.38
5.264,-0.53,1.39,-0.4,-10.41,2.51,-1.99,-0.45,0.84,5.38
5.268,-0.53,1.39,-0.4,-10.41,2.51,-1.99,-0.08,0.18,3.13
5.269,-0.53,1.39,-0.4,-13.45,8.65,-2.75,-0.08,0.18,3.13
5.282,-1.16,1.11,-0.45,-13.45,8.65,-2.75,-0.08,0.18,3.13
5.301,0.01,1.47,0.55,-13.45,8.65,-2.75,-0.08,0.18,3.13
5.303,0.01,1.47,0.55,-13.45,8.65,-2.75,0.33,0.58,-0.59
5.303,0.01,1.47,0.55,-9.7,4.4,0.91,0.33,0.58,-0.59
5.306,0.01,1.47,0.55,-9.7,4.4,0.91,0.33,0.58,-0.59
5.322,2.61,2.01,-0.09,-9.7,4.4,0.91,0.33,0.58,-0.59
5.342,2.18,1.76,-1.51,-9.7,4.4,0.91,0.33,0.58,-0.59
5.345,2.18,1.76,-1.51,-9.7,4.4,0.91,1.18,0.33,-0.32
5.347,2.18,1.76,-1.51,-9.46,4.37,1.24,1.18,0.33,-0.32
5.372,-2.83,1.43,-0.02,-9.46,4.37,1.24,1.18,0.33,-0.32
5.374,-2.83,1.43,-0.02,-9.46,4.37,1.24,1.18,0.33,-0.32
5.381,-3.75,-0.36,-0.65,-9.46,4.37,1.24,1.18,0.33,-0.32
5.382,-3.75,-0.36,-0.65,-9.46,4.37,1.24,1.38,3.47,-4.61
5.382,-3.75,-0.36,-0.65,3.68,7.76,-2.99,1.38,3.47,-4.61
5.4,0.03,-0.05,-0.8,3.68,7.76,-2.99,1.38,3.47,-4.61
5.42,1.8,1.35,-1.34,3.68,7.76,-2.99,1.38,3.47,-4.61
5.423,1.8,1.35,-1.34,3.68,7.76,-2.99,1.08,-1.95,-0.42
5.425,1.8,1.35,-1.34,-8.45,-6,-6.16,1.08,-1.95,-0.42
5.427,1.8,1.35,-1.34,-8.45,-6,-6.16,1.08,-1.95,-0.42
5.439,1.82,1.78,0.24,-8.45,-6,-6.16,1.08,-1.95,-0.42
5.47,0.32,0.77,-0.31,-8.45,-6,-6.16,1.08,-1.95,-0.42
5.473,0.32,0.77,-0.31,-8.45,-6,-6.16,0.07,-1.75,0.75
5.473,0.32,0.77,-0.31,-8.36,-5.83,-5.88,0.07,-1.75,0.75
5.479,-0.12,0.49,-0.28,-8.36,-5.83,-5.88,0.07,-1.75,0.75
5.503,-0.12,0.49,-0.28,-8.36,-5.83,-5.88,0.07,-1.75,0.75
5.505,-0.14,0.89,-0.46,-8.36,-5.83,-5.88,0.07,-1.75,0.75
5.506,-0.14,0.89,-0.46,-8.36,-5.83,-5.88,0.07,0.76,-1.97
5.507,-0.14,0.89,-0.46,5.03,0.85,2.05,0.07,0.76,-1.97
5.519,-0.1,1.08,-0.2,5.03,0.85,2.05,0.07,0.76,-1.97
5.539,0.27,0.94,-0.28,5.03,0.85,2.05,0.07,0.76,-1.97
5.54,0.27,0.94,-0.28,5.03,0.85,2.05,0.22,-0.73,-1.44
5.541,0.27,0.94,-0.28,-0.87,0.43,0.2,0.22,-0.73,-1.44
5.546,0.27,0.94,-0.28,-0.87,0.43,0.2,0.22,-0.73,-1.44
5.562,0.35,0.9,-0.28,-0.87,0.43,0.2,0.22,-0.73,-1.44
5.592,0.07,0.95,-0.3,-0.87,0.43,0.2,0.22,-0.73,-1.44
5.594,0.07,0.95,-0.3,-0.87,0.43,0.2,0.24,-0.95,-1.18
5.595,0.07,0.95,-0.3,-0.32,0.43,0.31,0.24,-0.95,-1.18
5.598,-0.22,0.94,-0.29,-0.32,0.43,0.31,0.24,-0.95,-1.18
5.606,-0.22,0.94,-0.29,-0.32,0.43,0.31,0.24,-0.95,-1.18
5.619,-0.3,0.9,-0.29,-0.32,0.43,0.31,0.24,-0.95,-1.18
5.621,-0.3,0.9,-0.29,-0.32,0.43,0.31,0.22,-0.12,-1.5
5.623,-0.3,0.9,-0.29,0.78,0.03,0.64,0.22,-0.12,-1.5
5.638,-0.14,0.97,-0.35,0.78,0.03,0.64,0.22,-0.12,-1.5
5.674,-0.11,1.06,-0.4,0.78,0.03,0.64,0.22,-0.12,-1.5
5.676,-0.11,1.06,-0.4,0.78,0.03,0.64,0.23,-0.46,-1.22
5.678,-0.11,1.06,-0.4,-1.14,0.55,0.19,0.23,-0.46,-1.22
5.68,-0.11,1.06,-0.4,-1.14,0.55,0.19,0.23,-0.46,-1.22
5.682,-0.21,1,-0.36,-1.14,0.55,0.19,0.23,-0.46,-1.22
5.696,-0.18,0.96,-0.36,-1.14,0.55,0.19,0.23,-0.46,-1.22
5.698,-0.18,0.96,-0.36,-1.14,0.55,0.19,0.15,-0.63,-0.96
5.698,-0.18,0.96,-0.36,-0.69,0.59,0.21,0.15,-0.63,-0.96
5.715,-0.02,1.01,-0.42,-0.69,0.59,0.21,0.15,-0.63,-0.96
5.725,-0.02,1.01,-0.42,-0.69,0.59,0.21,0.15,-0.63,-0.96
5.736,0.17,1.05,-0.47,-0.69,0.59,0.21,0.15,-0.63,-0.96
5.737,0.17,1.05,-0.47,-0.69,0.59,0.21,0.12,-0.87,-0.93
5.738,0.17,1.05,-0.47,0.18,0.74,-0.15,0.12,-0.87,-0.93
5.758,0.24,1.12,-0.37,0.18,0.74,-0.15,0.12,-0.87,-0.93
5.781,0.21,1.25,-0.32,0.18,0.74,-0.15,0.12,-0.87,-0.93
5.782,0.21,1.25,-0.32,0.18,0.74,-0.15,0.13,-1.3,-1.3
5.783,0.21,1.25,-0.32,4.17,2.3,-0.24,0.13,-1.3,-1.3
5.788,0.21,1.25,-0.32,4.17,2.3,-0.24,0.13,-1.3,-1.3
5.795,0.18,1.37,-0.25,4.17,2.3,-0.24,0.13,-1.3,-1.3
5.815,0.1,1.36,-0.12,4.17,2.3,-0.24,0.13,-1.3,-1.3
5.818,0.1,1.36,-0.12,4.17,2.3,-0.24,0.04,-1.37,-2.08
5.819,0.1,1.36,-0.12,5,2.47,-0.36,0.04,-1.37,-2.08
5.837,0.04,1.3,-0.19,5,2.47,-0.36,0.04,-1.37,-2.08
5.846,0.04,1.3,-0.19,5,2.47,-0.36,0.04,-1.37,-2.08
5.856,0.03,1.64,-0.45,5,2.47,-0.36,0.04,-1.37,-2.08
5.859,0.03,1.64,-0.45,5,2.47,-0.36,-0.1,-1.44,-2.73
5.861,0.03,1.64,-0.45,5.04,4.74,1.32,-0.1,-1.44,-2.73
5.89,0.1,2.05,-0.42,5.04,4.74,1.32,-0.1,-1.44,-2.73
5.893,0.59,1.57,-0.33,5.04,4.74,1.32,-0.1,-1.44,-2.73
5.894,0.59,1.57,-0.33,5.04,4.74,1.32,-0.23,-2.23,-2.76
5.895,0.59,1.57,-0.33,7.34,9.11,-1.22,-0.23,-2.23,-2.76
5.922,0.59,1.57,-0.33,7.34,9.11,-1.22,-0.23,-2.23,-2.76
5.925,1.19,1.32,-0.63,7.34,9.11,-1.22,-0.23,-2.23,-2.76
5.935,0.85,1.59,-0.28,7.34,9.11,-1.22,-0.23,-2.23,-2.76
5.937,0.85,1.59,-0.28,7.34,9.11,-1.22,-0.04,-2.65,-2.27
5.937,0.85,1.59,-0.28,8.16,9.43,-1.77,-0.04,-2.65,-2.27
5.954,-0.37,1.32,-0.11,8.16,9.43,-1.77,-0.04,-2.65,-2.27
5.965,-0.37,1.32,-0.11,8.16,9.43,-1.77,-0.04,-2.65,-2.27
5.982,-1.02,0.9,-0.58,8.16,9.43,-1.77,-0.04,-2.65,-2.27
5.984,-1.02,0.9,-0.58,8.16,9.43,-1.77,0.11,0.61,-3.55
5.985,-1.02,0.9,-0.58,12.02,6.83,-0.98,0.11,0.61,-3.55
6.003,-1.09,0.59,-0.5,12.02,6.83,-0.98,0.11,0.61,-3.55
6.013,-0.82,0.18,-0.3,12.02,6.83,-0.98,0.11,0.61,-3.55
6.014,-0.82,0.18,-0.3,12.02,6.83,-0.98,0.46,1.39,-2.4
6.015,-0.82,0.18,-0.3,-2.46,-0.8,-1.61,0.46,1.39,-2.4
6.025,-0.82,0.18,-0.3,-2.46,-0.8,-1.61,0.46,1.39,-2.4
6.033,-0.05,0.08,0.11,-2.46,-0.8,-1.61,0.46,1.39,-2.4
6.067,0.63,0.31,0.04,-2.46,-0.8,-1.61,0.46,1.39,-2.4
6.069,0.63,0.31,0.04,-2.46,-0.8,-1.61,-0.03,-1.39,0.94
6.071,0.63,0.31,0.04,-2.51,-1.05,-1.97,-0.03,-1.39,0.94
6.073,0.64,0.57,-0.07,-2.51,-1.05,-1.97,-0.03,-1.39,0.94
6.105,0.64,0.57,-0.07,-2.51,-1.05,-1.97,-0.03,-1.39,0.94
6.108,0.01,0.64,-0.19,-2.51,-1.05,-1.97,-0.03,-1.39,0.94
6.11,0.01,0.64,-0.19,-2.51,-1.05,-1.97,-0.34,-0.03,2.51
6.111,0.01,0.64,-0.19,10.18,-4.02,2.66,-0.34,-0.03,2.51
6.113,-0.6,0.63,-0.31,10.18,-4.02,2.66,-0.34,-0.03,2.51
6.13,-0.89,0.62,-0.29,10.18,-4.02,2.66,-0.34,-0.03,2.51
6.133,-0.89,0.62,-0.29,10.18,-4.02,2.66,-0.45,2.44,2.21
6.134,-0.89,0.62,-0.29,0.45,-1.54,0.2,-0.45,2.44,2.21
6.156,-0.89,0.62,-0.29,0.45,-1.54,0.2,-0.45,2.44,2.21
6.157,-0.71,0.6,-0.26,0.45,-1.54,0.2,-0.45,2.44,2.21
6.176,-0.35,0.67,-0.24,0.45,-1.54,0.2,-0.45,2.44,2.21
6.178,-0.35,0.67,-0.24,0.45,-1.54,0.2,-0.71,1.66,3.65
6.179,-0.35,0.67,-0.24,-0.89,-2.24,0.28,-0.71,1.66,3.65
6.189,-0.26,0.76,-0.18,-0.89,-2.24,0.28,-0.71,1.66,3.65
6.204,-0.26,0.76,-0.18,-0.89,-2.24,0.28,-0.71,1.66,3.65
6.209,-0.37,0.81,-0.23,-0.89,-2.24,0.28,-0.71,1.66,3.65
6.21,-0.37,0.81,-0.23,-0.89,-2.24,0.28,-0.92,0.54,4.65
6.211,-0.37,0.81,-0.23,-2,-2.43,0.39,-0.92,0.54,4.65
6.23,-0.41,0.9,-0.23,-2,-2.43,0.39,-0.92,0.54,4.65
6.25,-0.42,1.04,-0.27,-2,-2.43,0.39,-0.92,0.54,4.65
6.253,-0.42,1.04,-0.27,-2,-2.43,0.39,-0.9,0.87,5
6.255,-0.42,1.04,-0.27,-3.46,-0.42,-0.03,-0.9,0.87,5
6.276,-0.42,1.04,-0.27,-3.46,-0.42,-0.03,-0.9,0.87,5
6.278,-0.5,1.23,-0.36,-3.46,-0.42,-0.03,-0.9,0.87,5
6.305,-0.69,1.49,-0.39,-3.46,-0.42,-0.03,-0.9,0.87,5
6.307,-0.69,1.49,-0.39,-3.46,-0.42,-0.03,-0.79,1.44,5.31
6.307,-0.69,1.49,-0.39,-5.46,-0.36,-0.35,-0.79,1.44,5.31
6.308,-1.09,1.65,-0.48,-5.46,-0.36,-0.35,-0.79,1.44,5.31
6.324,-1.09,1.65,-0.48,-5.46,-0.36,-0.35,-0.79,1.44,5.31
6.329,-1.09,1.65,-0.48,-10.65,5.28,-2.29,-0.79,1.44,5.31
6.331,-1.15,1.48,-0.4,-10.65,5.28,-2.29,-0.79,1.44,5.31
6.333,-1.15,1.48,-0.4,-10.65,5.28,-2.29,-0.55,1.33,4.79
6.349,-0.76,1.35,-0.44,-10.65,5.28,-2.29,-0.55,1.33,4.79
6.373,-0.7,1.29,-0.35,-10.65,5.28,-2.29,-0.55,1.33,4.79
6.375,-0.7,1.29,-0.35,-10.65,5.28,-2.29,-0.13,0.11,3.12
6.376,-0.7,1.29,-0.35,-12.58,4.83,-2.16,-0.13,0.11,3.12
6.384,-0.7,1.29,-0.35,-12.58,4.83,-2.16,-0.13,0.11,3.12
6.407,-0.99,1.16,-0.29,-12.58,4.83,-2.16,-0.13,0.11,3.12
6.41,-0.91,1.1,-0.37,-12.58,4.83,-2.16,-0.13,0.11,3.12
6.411,-0.91,1.1,-0.37,-12.58,4.83,-2.16,0.31,0.03,0.15
6.412,-0.91,1.1,-0.37,-12.42,4.79,-2.03,0.31,0.03,0.15
6.427,0.01,1.27,0.11,-12.42,4.79,-2.03,0.31,0.03,0.15
6.445,0.01,1.27,0.11,-12.42,4.79,-2.03,0.31,0.03,0.15
6.448,0.01,1.27,0.11,-9.42,2.68,0.29,0.31,0.03,0.15
6.449,2.25,1.63,0.37,-9.42,2.68,0.29,0.31,0.03,0.15
6.45,2.25,1.63,0.37,-9.42,2.68,0.29,0.32,-1.08,-1.19
6.475,3.23,1.95,-1.33,-9.42,2.68,0.29,0.32,-1.08,-1.19
6.505,-0.71,1.34,-0.31,-9.42,2.68,0.29,0.32,-1.08,-1.19
6.507,-0.71,1.34,-0.31,-9.42,2.68,0.29,1.54,2.44,-0.63
6.507,-0.71,1.34,-0.31,12.12,7.15,-1.82,1.54,2.44,-0.63
6.508,-0.71,1.34,-0.31,12.12,7.15,-1.82,1.54,2.44,-0.63
6.509,-4.74,0.04,-0.29,12.12,7.15,-1.82,1.54,2.44,-0.63
6.526,-1.91,-0.26,-0.84,12.12,7.15,-1.82,1.54,2.44,-0.63
6.528,-1.91,-0.26,-0.84,12.12,7.15,-1.82,1.35,2.96,-5.12
6.528,-1.91,-0.26,-0.84,13.46,6.63,-1.63,1.35,2.96,-5.12
6.546,1.18,0.93,-1.18,13.46,6.63,-1.63,1.35,2.96,-5.12
6.574,1.18,0.93,-1.18,13.46,6.63,-1.63,1.35,2.96,-5.12
6.576,2.49,1.88,-0.59,13.46,6.63,-1.63,1.35,2.96,-5.12
6.577,2.49,1.88,-0.59,13.46,6.63,-1.63,0.95,-2.88,1.77
6.577,2.49,1.88,-0.59,-19.96,-6.77,-4.32,0.95,-2.88,1.77
6.605,1.36,0.99,0.25,-19.96,-6.77,-4.32,0.95,-2.88,1.77
6.607,-0.07,0.32,-0.49,-19.96,-6.77,-4.32,0.95,-2.88,1.77
6.608,-0.07,0.32,-0.49,-19.96,-6.77,-4.32,0.04,-1.16,0
6.609,-0.07,0.32,-0.49,10.23,1.33,0.61,0.04,-1.16,0
6.623,-0.07,0.32,-0.49,10.23,1.33,0.61,0.04,-1.16,0
6.626,-0.19,0.82,-0.4,10.23,1.33,0.61,0.04,-1.16,0
6.645,-0.27,1.23,-0.43,10.23,1.33,0.61,0.04,-1.16,0
6.648,-0.27,1.23,-0.43,10.72,1.19,0.62,0.04,-1.16,0
6.65,-0.27,1.23,-0.43,10.72,1.19,0.62,0.16,0.58,-2.06
6.673,-0.13,0.96,-0.17,10.72,1.19,0.62,0.16,0.58,-2.06
6.683,-0.13,0.96,-0.17,10.72,1.19,0.62,0.16,0.58,-2.06
6.684,0.44,0.84,-0.18,10.72,1.19,0.62,0.16,0.58,-2.06
6.684,0.44,0.84,-0.18,10.72,1.19,0.62,0.14,-1.24,-1.11
6.685,0.44,0.84,-0.18,-2.94,0.54,0.15,0.14,-1.24,-1.11
6.703,0.46,0.96,-0.28,-2.94,0.54,0.15,0.14,-1.24,-1.11
6.725,0.03,0.99,-0.28,-2.94,0.54,0.15,0.14,-1.24,-1.11
6.728,0.03,0.99,-0.28,-2.94,0.54,0.15,0.2,-0.82,-1.05
6.73,0.03,0.99,-0.28,2.48,-0.16,1.08,0.2,-0.82,-1.05
6.743,0.03,0.99,-0.28,2.48,-0.16,1.08,0.2,-0.82,-1.05
6.746,-0.23,0.91,-0.33,2.48,-0.16,1.08,0.2,-0.82,-1.05
6.773,-0.23,0.91,-0.33,2.97,-0.13,1.15,0.2,-0.82,-1.05
6.775,-0.19,0.93,-0.35,2.97,-0.13,1.15,0.2,-0.82,-1.05
6.776,-0.19,0.93,-0.35,2.97,-0.13,1.15,0.25,0.01,-1.47
6.783,-0.01,1,-0.31,2.97,-0.13,1.15,0.25,0.01,-1.47
6.804,-0.01,1,-0.31,2.97,-0.13,1.15,0.25,0.01,-1.47
6.806,0.03,0.99,-0.32,2.97,-0.13,1.15,0.25,0.01,-1.47
6.807,0.03,0.99,-0.32,2.97,-0.13,1.15,0.21,-0.5,-1.22
6.808,0.03,0.99,-0.32,-0.93,0.06,0.37,0.21,-0.5,-1.22
6.823,-0.11,0.97,-0.4,-0.93,0.06,0.37,0.21,-0.5,-1.22
6.843,-0.24,1.01,-0.44,-0.93,0.06,0.37,0.21,-0.5,-1.22
6.848,-0.24,1.01,-0.44,-0.93,0.06,0.37,0.17,-0.44,-1.2
6.851,-0.24,1.01,-0.44,-0.06,0.53,-0.09,0.17,-0.44,-1.2
6.869,-0.19,1.03,-0.41,-0.06,0.53,-0.09,0.17,-0.44,-1.2
6.873,-0.19,1.03,-0.41,-0.06,0.53,-0.09,0.17,-0.44,-1.2
6.882,0.02,1.06,-0.31,-0.06,0.53,-0.09,0.17,-0.44,-1.2
6.883,0.02,1.06,-0.31,-0.06,0.53,-0.09,0.12,-0.65,-1.18
6.883,0.02,1.06,-0.31,0.45,0.6,-0.08,0.12,-0.65,-1.18
6.901,0.18,1.15,-0.27,0.45,0.6,-0.08,0.12,-0.65,-1.18
6.921,0.16,1.21,-0.33,0.45,0.6,-0.08,0.12,-0.65,-1.18
6.922,0.16,1.21,-0.33,0.45,0.6,-0.08,0.11,-1.17,-1.34
6.923,0.16,1.21,-0.33,0.45,0.6,-0.08,0.11,-1.17,-1.34
6.924,0.16,1.21,-0.33,2.16,1.56,0.42,0.11,-1.17,-1.34
6.941,0.08,1.27,-0.39,2.16,1.56,0.42,0.11,-1.17,-1.34
6.977,-0.03,1.31,-0.27,2.16,1.56,0.42,0.11,-1.17,-1.34
6.982,-0.03,1.31,-0.27,2.16,1.56,0.42,0.05,-1.2,-2.03
6.983,-0.03,1.31,-0.27,3.59,3.5,0.33,0.05,-1.2,-2.03
6.983,-0.13,1.26,-0.17,3.59,3.5,0.33,0.05,-1.2,-2.03
6.984,-0.13,1.26,-0.17,3.59,3.5,0.33,0.05,-1.2,-2.03
7.007,-0.11,1.39,-0.37,3.59,3.5,0.33,0.05,-1.2,-2.03
7.009,-0.11,1.39,-0.37,3.59,3.5,0.33,-0.08,-1.34,-2.47
7.01,-0.11,1.39,-0.37,4.55,3.76,0.11,-0.08,-1.34,-2.47
7.022,-0.03,1.88,-0.4,4.55,3.76,0.11,-0.08,-1.34,-2.47
7.042,-0.03,1.88,-0.4,4.03,6.48,-0.21,-0.08,-1.34,-2.47
7.049,0.35,1.77,-0.34,4.03,6.48,-0.21,-0.08,-1.34,-2.47
7.054,0.35,1.77,-0.34,4.03,6.48,-0.21,-0.25,-2.28,-2.43
7.056,0.35,1.77,-0.34,4.03,6.48,-0.21,-0.25,-2.28,-2.43
7.078,1.05,1.36,-0.59,4.03,6.48,-0.21,-0.25,-2.28,-2.43
7.079,1.07,1.57,-0.68,4.03,6.48,-0.21,-0.25,-2.28,-2.43
7.08,1.07,1.57,-0.68,4.03,6.48,-0.21,-0.12,-3.41,-1.99
7.081,1.07,1.57,-0.68,13.73,7.31,-3.11,-0.12,-3.41,-1.99
7.098,-0.09,1.67,-0.25,13.73,7.31,-3.11,-0.12,-3.41,-1.99
7.102,-0.09,1.67,-0.25,13.73,7.31,-3.11,-0.12,-3.41,-1.99
7.118,-0.93,1.26,-0.25,13.73,7.31,-3.11,-0.12,-3.41,-1.99
7.118,-0.93,1.26,-0.25,13.73,7.31,-3.11,-0.18,-0.89,-3.17
7.119,-0.93,1.26,-0.25,14.52,7.94,-3.32,-0.18,-0.89,-3.17
7.144,-0.56,0.89,-0.37,14.52,7.94,-3.32,-0.18,-0.89,-3.17
7.162,-0.43,0.54,-0.5,14.52,7.94,-3.32,-0.18,-0.89,-3.17
7.163,-0.43,0.54,-0.5,14.52,7.94,-3.32,0.24,0.7,-2.65
7.164,-0.43,0.54,-0.5,1.91,5.73,-0.66,0.24,0.7,-2.65
7.164,-0.43,0.54,-0.5,1.91,5.73,-0.66,0.24,0.7,-2.65
7.177,-0.64,0.26,-0.24,1.91,5.73,-0.66,0.24,0.7,-2.65
7.199,-0.42,0.3,-0.02,1.91,5.73,-0.66,0.24,0.7,-2.65
7.202,-0.42,0.3,-0.02,1.91,5.73,-0.66,0.25,0.1,-0.76
7.204,-0.42,0.3,-0.02,2.34,-2.89,-0.2,0.25,0.1,-0.76
7.218,-0.08,0.33,0.2,2.34,-2.89,-0.2,0.25,0.1,-0.76
7.223,-0.08,0.33,0.2,2.34,-2.89,-0.2,0.25,0.1,-0.76
7.241,0.1,0.32,-0.04,2.34,-2.89,-0.2,0.25,0.1,-0.76
7.245,0.1,0.32,-0.04,2.34,-2.89,-0.2,-0.21,-0.45,1.19
7.247,0.1,0.32,-0.04,2.04,-3.19,-0.37,-0.21,-0.45,1.19
7.26,0.03,0.34,-0.09,2.04,-3.19,-0.37,-0.21,-0.45,1.19
7.295,-0.26,0.38,-0.17,2.04,-3.19,-0.37,-0.21,-0.45,1.19
7.296,-0.26,0.38,-0.17,2.04,-3.19,-0.37,-0.29,1.08,2.41
7.297,-0.26,0.38,-0.17,6.23,-4.14,2.48,-0.29,1.08,2.41
7.297,-0.26,0.38,-0.17,6.23,-4.14,2.48,-0.29,1.08,2.41
7.302,-0.52,0.42,-0.2,6.23,-4.14,2.48,-0.29,1.08,2.41
7.328,-0.53,0.43,-0.12,6.23,-4.14,2.48,-0.29,1.08,2.41
7.33,-0.53,0.43,-0.12,6.23,-4.14,2.48,-0.44,2.24,3.12
7.331,-0.53,0.43,-0.12,0.59,-3.99,0.97,-0.44,2.24,3.12
7.339,-0.36,0.46,-0.05,0.59,-3.99,0.97,-0.44,2.24,3.12
7.341,-0.36,0.46,-0.05,0.59,-3.99,0.97,-0.44,2.24,3.12
7.356,-0.22,0.55,-0.04,0.59,-3.99,0.97,-0.44,2.24,3.12
7.36,-0.22,0.55,-0.04,0.59,-3.99,0.97,-0.66,1.55,4.34
7.363,-0.22,0.55,-0.04,-0.99,-4.67,0.99,-0.66,1.55,4.34
7.392,-0.26,0.72,-0.1,-0.99,-4.67,0.99,-0.66,1.55,4.34
7.401,-0.46,0.94,-0.12,-0.99,-4.67,0.99,-0.66,1.55,4.34
7.402,-0.46,0.94,-0.12,-0.99,-4.67,0.99,-0.72,1.3,5.17
7.402,-0.46,0.94,-0.12,-0.99,-4.67,0.99,-0.72,1.3,5.17
7.403,-0.46,0.94,-0.12,-1.41,-3.51,1.84,-0.72,1.3,5.17
7.423,-0.53,1.12,-0.12,-1.41,-3.51,1.84,-0.72,1.3,5.17
7.435,-0.61,1.35,-0.33,-1.41,-3.51,1.84,-0.72,1.3,5.17
7.436,-0.61,1.35,-0.33,-1.41,-3.51,1.84,-0.68,1.54,5.67
7.437,-0.61,1.35,-0.33,-6.02,1.82,0.34,-0.68,1.54,5.67
7.464,-0.88,1.73,-0.58,-6.02,1.82,0.34,-0.68,1.54,5.67
7.466,-0.88,1.73,-0.58,-6.02,1.82,0.34,-0.68,1.54,5.67
7.485,-1.16,1.96,-0.53,-6.02,1.82,0.34,-0.68,1.54,5.67
7.487,-1.16,1.96,-0.53,-6.02,1.82,0.34,-0.44,1.7,5.73
7.488,-1.16,1.96,-0.53,-8.1,2.17,0.04,-0.44,1.7,5.73
7.493,-1.06,1.76,-0.31,-8.1,2.17,0.04,-0.44,1.7,5.73
7.515,-0.57,1.52,-0.4,-8.1,2.17,0.04,-0.44,1.7,5.73
7.518,-0.57,1.52,-0.4,-8.1,2.17,0.04,-0.29,0.62,4.41
7.52,-0.57,1.52,-0.4,-14.29,9.29,-2.85,-0.29,0.62,4.41
7.527,-0.57,1.52,-0.4,-14.29,9.29,-2.85,-0.29,0.62,4.41
7.535,-0.62,1.46,-0.4,-14.29,9.29,-2.85,-0.29,0.62,4.41
7.576,-1.19,1.08,-0.27,-14.29,9.29,-2.85,-0.29,0.62,4.41
7.58,-1.19,1.08,-0.27,-14.29,9.29,-2.85,0.08,0.26,1.16
7.582,-1.19,1.08,-0.27,-12.13,4.87,-1.72,0.08,0.26,1.16
7.585,-0.7,1.02,-0.19,-12.13,4.87,-1.72,0.08,0.26,1.16
7.612,-0.7,1.02,-0.19,-12.13,4.87,-1.72,0.08,0.26,1.16
7.614,1.57,1.26,-0.09,-12.13,4.87,-1.72,0.08,0.26,1.16
7.615,1.57,1.26,-0.09,-12.13,4.87,-1.72,0.32,-0.74,-1.49
7.617,1.57,1.26,-0.09,-11.38,4.58,-1.46,0.32,-0.74,-1.49
7.618,3.23,2.17,-1.54,-11.38,4.58,-1.46,0.32,-0.74,-1.49
7.632,-0.11,1.93,0.59,-11.38,4.58,-1.46,0.32,-0.74,-1.49
7.635,-0.11,1.93,0.59,-11.38,4.58,-1.46,1.46,0.91,-0.02
7.636,-0.11,1.93,0.59,9.55,5.9,-3.46,1.46,0.91,-0.02
7.642,-0.11,1.93,0.59,9.55,5.9,-3.46,1.46,0.91,-0.02
7.652,-3.93,0.15,-0.4,9.55,5.9,-3.46,1.46,0.91,-0.02
7.676,-3.93,0.15,-0.4,-21.92,-3.61,2.09,1.46,0.91,-0.02
7.678,-2.03,-0.41,-0.31,-21.92,-3.61,2.09,1.46,0.91,-0.02
7.679,-2.03,-0.41,-0.31,-21.92,-3.61,2.09,1,2.36,-4.56
7.695,0.97,0.77,-1.06,-21.92,-3.61,2.09,1,2.36,-4.56
7.702,0.97,0.77,-1.06,-21.92,-3.61,2.09,1,2.36,-4.56
7.711,2.72,1.78,-1.22,-21.92,-3.61,2.09,1,2.36,-4.56
7.714,2.72,1.78,-1.22,-21.92,-3.61,2.09,1.02,-1.89,1.24
7.715,2.72,1.78,-1.22,-21.78,-3.33,2.57,1.02,-1.89,1.24
7.732,1.67,1.01,0.02,-21.78,-3.33,2.57,1.02,-1.89,1.24
7.751,-0.42,0.37,-0.32,-21.78,-3.33,2.57,1.02,-1.89,1.24
7.754,-0.42,0.37,-0.32,-21.78,-3.33,2.57,-0.02,-1.16,-0.03
7.757,-0.42,0.37,-0.32,15.43,2.74,-4.26,-0.02,-1.16,-0.03
7.778,-0.42,0.37,-0.32,15.43,2.74,-4.26,-0.02,-1.16,-0.03
7.78,-0.54,0.8,-0.03,15.43,2.74,-4.26,-0.02,-1.16,-0.03
7.813,0.01,1.3,-0.28,15.43,2.74,-4.26,-0.02,-1.16,-0.03
7.816,0.01,1.3,-0.28,15.43,2.74,-4.26,-0.09,0.11,-2.29
7.817,0.01,1.3,-0.28,-4.32,-0.93,1.03,-0.09,0.11,-2.29
7.818,0,0.97,-0.23,-4.32,-0.93,1.03,-0.09,0.11,-2.29
7.824,0,0.97,-0.23,-4.32,-0.93,1.03,-0.09,0.11,-2.29
7.83,0.28,0.77,-0.37,-4.32,-0.93,1.03,-0.09,0.11,-2.29
7.832,0.28,0.77,-0.37,-4.32,-0.93,1.03,0.18,-0.84,-1.09
7.833,0.28,0.77,-0.37,-3.76,-0.94,1.1,0.18,-0.84,-1.09
7.849,0.46,0.91,-0.39,-3.76,-0.94,1.1,0.18,-0.84,-1.09
7.87,0.18,0.97,-0.29,-3.76,-0.94,1.1,0.18,-0.84,-1.09
7.873,0.18,0.97,-0.29,-3.76,-0.94,1.1,0.11,-0.75,-1.05
7.874,0.18,0.97,-0.29,2.16,-0.36,-0.03,0.11,-0.75,-1.05
7.896,0.18,0.97,-0.29,2.16,-0.36,-0.03,0.11,-0.75,-1.05
7.897,-0.11,0.94,-0.21,2.16,-0.36,-0.03,0.11,-0.75,-1.05
7.908,-0.12,0.95,-0.21,2.16,-0.36,-0.03,0.11,-0.75,-1.05
7.909,-0.12,0.95,-0.21,2.16,-0.36,-0.03,0.07,-0.12,-1.45
7.91,-0.12,0.95,-0.21,0.13,0.39,0.88,0.07,-0.12,-1.45
7.928,0.01,0.98,-0.3,0.13,0.39,0.88,0.07,-0.12,-1.45
7.94,0.01,0.98,-0.3,0.13,0.39,0.88,0.07,-0.12,-1.45
7.948,-0.02,1.02,-0.39,0.13,0.39,0.88,0.07,-0.12,-1.45
7.949,-0.02,1.02,-0.39,0.13,0.39,0.88,0.16,-0.24,-1.32
7.95,-0.02,1.02,-0.39,0.62,0.43,0.92,0.16,-0.24,-1.32
7.973,-0.12,1,-0.42,0.62,0.43,0.92,0.16,-0.24,-1.32
7.999,-0.13,0.97,-0.39,0.62,0.43,0.92,0.16,-0.24,-1.32
8.001,-0.13,0.97,-0.39,0.62,0.43,0.92,0.11,-0.3,-1.25
8.002,-0.13,0.97,-0.39,0.82,0.9,-0.33,0.11,-0.3,-1.25
8.002,-0.13,0.97,-0.39,0.82,0.9,-0.33,0.11,-0.3,-1.25
8.008,0.03,1.02,-0.4,0.82,0.9,-0.33,0.11,-0.3,-1.25
8.026,0.13,1.08,-0.37,0.82,0.9,-0.33,0.11,-0.3,-1.25
8.028,0.13,1.08,-0.37,0.82,0.9,-0.33,0.05,-0.64,-1.26
8.028,0.13,1.08,-0.37,1.83,1.19,-0.5,0.05,-0.64,-1.26
8.047,0.03,1.11,-0.26,1.83,1.19,-0.5,0.05,-0.64,-1.26
8.078,0.03,1.11,-0.26,1.83,1.19,-0.5,0.05,-0.64,-1.26
8.082,0.01,1.18,-0.29,1.83,1.19,-0.5,0.05,-0.64,-1.26
8.084,0.01,1.18,-0.29,1.83,1.19,-0.5,0.01,-1.01,-1.61
8.086,0.01,1.18,-0.29,2.48,1.3,-0.57,0.01,-1.01,-1.61
8.11,0.06,1.28,-0.33,2.48,1.3,-0.57,0.01,-1.01,-1.61
8.111,0.02,1.31,-0.25,2.48,1.3,-0.57,0.01,-1.01,-1.61
8.112,0.02,1.31,-0.25,2.48,1.3,-0.57,-0.13,-1.05,-2.08
8.114,0.02,1.31,-0.25,3.5,3.06,0.12,-0.13,-1.05,-2.08
8.119,0.02,1.31,-0.25,3.5,3.06,0.12,-0.13,-1.05,-2.08
8.125,-0.05,1.27,-0.21,3.5,3.06,0.12,-0.13,-1.05,-2.08
8.146,-0.08,1.4,-0.37,3.5,3.06,0.12,-0.13,-1.05,-2.08
8.148,-0.08,1.4,-0.37,3.5,3.06,0.12,-0.29,-1.02,-2.45
8.149,-0.08,1.4,-0.37,3.71,4.69,0.09,-0.29,-1.02,-2.45
8.178,-0.01,1.73,-0.41,3.71,4.69,0.09,-0.29,-1.02,-2.45
8.186,-0.01,1.73,-0.41,4.6,5.01,-0.33,-0.29,-1.02,-2.45
8.191,-0.01,1.73,-0.41,4.6,5.01,-0.33,-0.29,-1.02,-2.45
8.192,0.28,1.62,-0.54,4.6,5.01,-0.33,-0.29,-1.02,-2.45
8.194,0.28,1.62,-0.54,4.6,5.01,-0.33,-0.35,-1.76,-2.46
8.206,0.93,1.41,-0.66,4.6,5.01,-0.33,-0.35,-1.76,-2.46
8.226,0.93,1.41,-0.66,9.52,7.78,-3.58,-0.35,-1.76,-2.46
8.228,1.2,1.54,-0.7,9.52,7.78,-3.58,-0.35,-1.76,-2.46
8.229,1.2,1.54,-0.7,9.52,7.78,-3.58,-0.24,-3.09,-1.98
8.239,1.2,1.54,-0.7,9.52,7.78,-3.58,-0.24,-3.09,-1.98
8.244,0.22,1.66,-0.23,9.52,7.78,-3.58,-0.24,-3.09,-1.98
8.266,-1,1.29,-0.29,9.52,7.78,-3.58,-0.24,-3.09,-1.98
8.268,-1,1.29,-0.29,9.52,7.78,-3.58,-0.28,-1.26,-2.96
8.269,-1,1.29,-0.29,7.81,7.49,-2.64,-0.28,-1.26,-2.96
8.29,-0.77,0.93,-0.44,7.81,7.49,-2.64,-0.28,-1.26,-2.96
8.299,-0.77,0.93,-0.44,7.81,7.49,-2.64,-0.28,-1.26,-2.96
8.303,-0.25,0.62,-0.25,7.81,7.49,-2.64,-0.28,-1.26,-2.96
8.304,-0.25,0.62,-0.25,7.81,7.49,-2.64,0.18,0.36,-2.8
8.305,-0.25,0.62,-0.25,8.4,8.11,-2.45,0.18,0.36,-2.8
8.324,-0.46,0.33,-0.16,8.4,8.11,-2.45,0.18,0.36,-2.8
8.344,-0.46,0.33,-0.16,2.36,-0.19,-1.26,0.18,0.36,-2.8
8.346,-0.63,0.34,0.09,2.36,-0.19,-1.26,0.18,0.36,-2.8
8.347,-0.63,0.34,0.09,2.36,-0.19,-1.26,0.27,-0.42,-0.77
8.362,-0.63,0.34,0.09,2.36,-0.19,-1.26,0.27,-0.42,-0.77
8.366,-0.26,0.33,0.31,2.36,-0.19,-1.26,0.27,-0.42,-0.77
8.395,0.25,0.25,0.06,2.36,-0.19,-1.26,0.27,-0.42,-0.77
8.397,0.25,0.25,0.06,2.36,-0.19,-1.26,0.06,-0.79,0.84
8.397,0.25,0.25,0.06,4.83,-3.44,2.76,0.06,-0.79,0.84
8.403,0.35,0.23,0.01,4.83,-3.44,2.76,0.06,-0.79,0.84
8.427,0.35,0.23,0.01,4.83,-3.44,2.76,0.06,-0.79,0.84
8.429,0.35,0.23,0.01,4.07,-3.98,3.04,0.06,-0.79,0.84
8.431,-0.14,0.33,-0.12,4.07,-3.98,3.04,0.06,-0.79,0.84
8.432,-0.14,0.33,-0.12,4.07,-3.98,3.04,0.2,1.09,2.35
8.443,-0.63,0.47,-0.14,4.07,-3.98,3.04,0.2,1.09,2.35
8.462,-0.7,0.55,-0.1,4.07,-3.98,3.04,0.2,1.09,2.35
8.464,-0.7,0.55,-0.1,4.07,-3.98,3.04,0.15,3.02,2.8
8.465,-0.7,0.55,-0.1,3.7,-4.19,1.42,0.15,3.02,2.8
8.49,-0.7,0.55,-0.1,3.7,-4.19,1.42,0.15,3.02,2.8
8.493,-0.39,0.59,0.04,3.7,-4.19,1.42,0.15,3.02,2.8
8.502,-0.09,0.65,0.07,3.7,-4.19,1.42,0.15,3.02,2.8
8.502,-0.09,0.65,0.07,3.7,-4.19,1.42,-0.22,2.29,4.15
8.503,-0.09,0.65,0.07,-0.26,-2.4,2.54,-0.22,2.29,4.15
8.521,-0.3,0.85,-0.19,-0.26,-2.4,2.54,-0.22,2.29,4.15
8.539,-0.3,0.85,-0.19,-0.26,-2.4,2.54,-0.22,2.29,4.15
8.541,-0.79,1.01,-0.39,-0.26,-2.4,2.54,-0.22,2.29,4.15
8.543,-0.79,1.01,-0.39,-0.26,-2.4,2.54,-0.54,1.64,4.92
8.545,-0.79,1.01,-0.39,-2.06,-2.92,2.5,-0.54,1.64,4.92
8.569,-0.78,0.99,-0.33,-2.06,-2.92,2.5,-0.54,1.64,4.92
8.606,-0.49,1.22,-0.3,-2.06,-2.92,2.5,-0.54,1.64,4.92
8.608,-0.49,1.22,-0.3,-2.06,-2.92,2.5,-0.68,0.93,5.41
8.609,-0.49,1.22,-0.3,-6.23,0.29,-0.69,-0.68,0.93,5.41
8.612,-0.49,1.22,-0.3,-6.23,0.29,-0.69,-0.68,0.93,5.41
8.613,-0.53,1.49,-0.34,-6.23,0.29,-0.69,-0.68,0.93,5.41
8.619,-0.86,1.62,-0.47,-6.23,0.29,-0.69,-0.68,0.93,5.41
8.62,-0.86,1.62,-0.47,-6.23,0.29,-0.69,-0.54,0.88,5.53
8.621,-0.86,1.62,-0.47,-8.15,5.23,-1.55,-0.54,0.88,5.53
8.641,-0.9,1.68,-0.47,-8.15,5.23,-1.55,-0.54,0.88,5.53
8.66,-0.9,1.68,-0.47,-8.15,5.23,-1.55,-0.54,0.88,5.53
8.664,-0.6,1.49,-0.33,-8.15,5.23,-1.55,-0.54,0.88,5.53
8.666,-0.6,1.49,-0.33,-8.15,5.23,-1.55,-0.21,0.61,4.17
8.668,-0.6,1.49,-0.33,-9.47,5.57,-1.66,-0.21,0.61,4.17
8.679,-0.54,1.34,-0.27,-9.47,5.57,-1.66,-0.21,0.61,4.17
8.709,-0.69,1.22,-0.31,-9.47,5.57,-1.66,-0.21,0.61,4.17
8.713,-0.69,1.22,-0.31,-9.47,5.57,-1.66,0.12,0.54,1.59
8.714,-0.69,1.22,-0.31,-10.37,6.31,-1.54,0.12,0.54,1.59
8.718,-0.69,1.22,-0.31,-10.37,6.31,-1.54,0.12,0.54,1.59
8.72,-0.78,1.17,-0.6,-10.37,6.31,-1.54,0.12,0.54,1.59
8.739,0.68,1.22,0.36,-10.37,6.31,-1.54,0.12,0.54,1.59
8.741,0.68,1.22,0.36,-10.37,6.31,-1.54,0.37,0.9,-1.15
8.742,0.68,1.22,0.36,-5.89,3.19,0.17,0.37,0.9,-1.15
8.758,2.83,1.94,-0.43,-5.89,3.19,0.17,0.37,0.9,-1.15
8.794,2.83,1.94,-0.43,-5.89,3.19,0.17,0.37,0.9,-1.15
8.795,1.48,2.02,-0.99,-5.89,3.19,0.17,0.37,0.9,-1.15
8.796,1.48,2.02,-0.99,-5.89,3.19,0.17,1.23,1.32,-0.42
8.796,1.48,2.02,-0.99,-5.75,3.18,0.41,1.23,1.32,-0.42
8.797,-3.73,0.81,0.12,-5.75,3.18,0.41,1.23,1.32,-0.42
8.832,-3.14,-0.57,-0.69,-5.75,3.18,0.41,1.23,1.32,-0.42
8.835,-3.14,-0.57,-0.69,-5.75,3.18,0.41,1.29,3.45,-4.86
8.837,-3.14,-0.57,-0.69,0.11,6.5,-1.93,1.29,3.45,-4.86
8.84,0.42,0.29,-0.67,0.11,6.5,-1.93,1.29,3.45,-4.86
8.842,0.42,0.29,-0.67,0.11,6.5,-1.93,1.29,3.45,-4.86
8.874,0.42,0.29,-0.67,-3.81,-4.42,-6.11,1.29,3.45,-4.86
8.878,2.04,1.65,-1.42,-3.81,-4.42,-6.11,1.29,3.45,-4.86
8.879,2.04,1.65,-1.42,-3.81,-4.42,-6.11,1.1,-2.21,0.34
8.881,1.63,1.66,0.4,-3.81,-4.42,-6.11,1.1,-2.21,0.34
8.904,-0.04,0.51,-0.37,-3.81,-4.42,-6.11,1.1,-2.21,0.34
8.905,-0.04,0.51,-0.37,-3.81,-4.42,-6.11,0.08,-1.33,0.66
8.905,-0.04,0.51,-0.37,-3.82,-4.3,-5.9,0.08,-1.33,0.66
8.906,-0.04,0.51,-0.37,-3.82,-4.3,-5.9,0.08,-1.33,0.66
8.916,0.02,0.45,-0.34,-3.82,-4.3,-5.9,0.08,-1.33,0.66
8.937,0.23,1.06,-0.51,-3.82,-4.3,-5.9,0.08,-1.33,0.66
8.94,0.23,1.06,-0.51,-3.82,-4.3,-5.9,0.15,0.43,-1.81
8.941,0.23,1.06,-0.51,4.15,-0.27,2.13,0.15,0.43,-1.81
8.956,-0.11,1.18,-0.27,4.15,-0.27,2.13,0.15,0.43,-1.81
8.959,-0.11,1.18,-0.27,4.15,-0.27,2.13,0.15,0.43,-1.81
8.987,-0.11,1.18,-0.27,0,1.38,0.32,0.15,0.43,-1.81
8.991,0.03,0.91,-0.12,0,1.38,0.32,0.15,0.43,-1.81
8.992,0.03,0.91,-0.12,0,1.38,0.32,0.14,-0.96,-1.37
9.017,0.36,0.85,-0.24,0,1.38,0.32,0.14,-0.96,-1.37
9.02,0.2,0.96,-0.33,0,1.38,0.32,0.14,-0.96,-1.37
9.021,0.2,0.96,-0.33,0,1.38,0.32,0.18,-0.93,-1.18
9.023,0.2,0.96,-0.33,0.53,1.37,0.39,0.18,-0.93,-1.18
9.024,0.2,0.96,-0.33,0.53,1.37,0.39,0.18,-0.93,-1.18
9.034,-0.09,0.96,-0.37,0.53,1.37,0.39,0.18,-0.93,-1.18
9.055,-0.22,0.92,-0.29,0.53,1.37,0.39,0.18,-0.93,-1.18
9.056,-0.22,0.92,-0.29,0.53,1.37,0.39,0.21,-0.2,-1.49
9.059,-0.22,0.92,-0.29,2.07,0.2,0.3,0.21,-0.2,-1.49
9.077,-0.15,0.97,-0.32,2.07,0.2,0.3,0.21,-0.2,-1.49
9.079,-0.15,0.97,-0.32,2.07,0.2,0.3,0.21,-0.2,-1.49
9.093,-0.12,1.01,-0.33,2.07,0.2,0.3,0.21,-0.2,-1.49
9.094,-0.12,1.01,-0.33,2.07,0.2,0.3,0.17,-0.38,-1.34
9.095,-0.12,1.01,-0.33,-0.52,0.66,0.32,0.17,-0.38,-1.34
9.113,-0.19,1.01,-0.37,-0.52,0.66,0.32,0.17,-0.38,-1.34
9.134,-0.21,1,-0.42,-0.52,0.66,0.32,0.17,-0.38,-1.34
9.137,-0.21,1,-0.42,-0.52,0.66,0.32,0.13,-0.51,-1.13
9.139,-0.21,1,-0.42,-0.06,0.73,0.34,0.13,-0.51,-1.13
9.141,-0.21,1,-0.42,-0.06,0.73,0.34,0.13,-0.51,-1.13
9.154,-0.11,1.03,-0.4,-0.06,0.73,0.34,0.13,-0.51,-1.13
9.176,0.02,1.09,-0.38,-0.06,0.73,0.34,0.13,-0.51,-1.13
9.177,0.02,1.09,-0.38,-0.06,0.73,0.34,0.08,-0.73,-1.01
9.178,0.02,1.09,-0.38,0.3,1.23,-0.47,0.08,-0.73,-1.01
9.218,0.12,1.13,-0.19,0.3,1.23,-0.47,0.08,-0.73,-1.01
9.221,0.12,1.13,-0.19,0.3,1.23,-0.47,0.08,-0.73,-1.01
9.224,0.12,1.13,-0.19,3.71,2.37,0.73,0.08,-0.73,-1.01
9.226,0.25,1.14,-0.23,3.71,2.37,0.73,0.08,-0.73,-1.01
9.228,0.25,1.14,-0.23,3.71,2.37,0.73,0.08,-1.09,-1.2
9.233,0.22,1.18,-0.34,3.71,2.37,0.73,0.08,-1.09,-1.2
9.253,0.08,1.26,-0.36,3.71,2.37,0.73,0.08,-1.09,-1.2
9.256,0.08,1.26,-0.36,3.71,2.37,0.73,0.02,-1.02,-1.96
9.258,0.08,1.26,-0.36,4.43,2.54,0.61,0.02,-1.02,-1.96
9.26,0.08,1.26,-0.36,4.43,2.54,0.61,0.02,-1.02,-1.96
9.28,-0.08,1.3,-0.31,4.43,2.54,0.61,0.02,-1.02,-1.96
9.302,-0.15,1.42,-0.4,4.43,2.54,0.61,0.02,-1.02,-1.96
9.304,-0.15,1.42,-0.4,4.43,2.54,0.61,-0.13,-1.15,-2.64
9.304,-0.15,1.42,-0.4,4.78,4.09,-0.3,-0.13,-1.15,-2.64
9.311,-0.08,1.86,-0.4,4.78,4.09,-0.3,-0.13,-1.15,-2.64
9.316,-0.08,1.86,-0.4,4.78,4.09,-0.3,-0.13,-1.15,-2.64
9.33,0.25,1.81,-0.33,4.78,4.09,-0.3,-0.13,-1.15,-2.64
9.332,0.25,1.81,-0.33,4.78,4.09,-0.3,-0.28,-2.12,-2.59
9.333,0.25,1.81,-0.33,5.1,8.8,-1.11,-0.28,-2.12,-2.59
9.35,0.94,1.34,-0.49,5.1,8.8,-1.11,-0.28,-2.12,-2.59
9.372,1.16,1.48,-0.59,5.1,8.8,-1.11,-0.28,-2.12,-2.59
9.375,1.16,1.48,-0.59,5.1,8.8,-1.11,-0.17,-3.27,-2.01
9.376,1.16,1.48,-0.59,5.89,9.07,-1.84,-0.17,-3.27,-2.01
9.378,1.16,1.48,-0.59,5.89,9.07,-1.84,-0.17,-3.27,-2.01
9.403,0.15,1.66,-0.27,5.89,9.07,-1.84,-0.17,-3.27,-2.01
9.412,0.15,1.66,-0.27,13.88,7.67,-2.79,-0.17,-3.27,-2.01
9.414,-1.06,1.26,-0.28,13.88,7.67,-2.79,-0.17,-3.27,-2.01
9.415,-1.06,1.26,-0.28,13.88,7.67,-2.79,-0.16,-0.79,-3.07
9.429,-0.94,0.87,-0.47,13.88,7.67,-2.79,-0.16,-0.79,-3.07
9.436,-0.94,0.87,-0.47,13.88,7.67,-2.79,-0.16,-0.79,-3.07
9.449,-0.43,0.55,-0.35,13.88,7.67,-2.79,-0.16,-0.79,-3.07
9.45,-0.43,0.55,-0.35,13.88,7.67,-2.79,0.33,0.8,-2.87
9.451,-0.43,0.55,-0.35,-0.71,2.53,-1.63,0.33,0.8,-2.87
9.47,-0.48,0.24,-0.22,-0.71,2.53,-1.63,0.33,0.8,-2.87
9.496,-0.53,0.29,-0.07,-0.71,2.53,-1.63,0.33,0.8,-2.87
9.498,-0.53,0.29,-0.07,-0.71,2.53,-1.63,0.31,-0.37,-0.64
9.498,-0.53,0.29,-0.07,-0.52,2.7,-1.64,0.31,-0.37,-0.64
9.499,-0.53,0.29,-0.07,-0.52,2.7,-1.64,0.31,-0.37,-0.64
9.529,-0.23,0.32,0.23,-0.52,2.7,-1.64,0.31,-0.37,-0.64
9.532,0.14,0.25,-0.04,-0.52,2.7,-1.64,0.31,-0.37,-0.64
9.533,0.14,0.25,-0.04,-0.52,2.7,-1.64,-0.04,-0.94,0.93
9.534,0.14,0.25,-0.04,3.11,-3.48,1.45,-0.04,-0.94,0.93
9.549,0.25,0.24,-0.04,3.11,-3.48,1.45,-0.04,-0.94,0.93
9.556,0.25,0.24,-0.04,3.11,-3.48,1.45,-0.04,-0.94,0.93
9.569,-0.09,0.36,-0.12,3.11,-3.48,1.45,-0.04,-0.94,0.93
9.572,-0.09,0.36,-0.12,3.11,-3.48,1.45,0.06,0.87,2.16
9.573,-0.09,0.36,-0.12,7.44,-3.98,1.26,0.06,0.87,2.16
9.594,-0.54,0.49,-0.14,7.44,-3.98,1.26,0.06,0.87,2.16
9.62,-0.74,0.58,-0.1,7.44,-3.98,1.26,0.06,0.87,2.16
9.624,-0.74,0.58,-0.1,7.44,-3.98,1.26,-0.06,2.34,2.68
9.626,-0.74,0.58,-0.1,6.38,-4.54,1.76,-0.06,2.34,2.68
9.627,-0.74,0.58,-0.1,6.38,-4.54,1.76,-0.06,2.34,2.68
9.629,-0.56,0.59,-0.04,6.38,-4.54,1.76,-0.06,2.34,2.68
9.646,-0.32,0.61,-0.07,6.38,-4.54,1.76,-0.06,2.34,2.68
9.648,-0.32,0.61,-0.07,6.38,-4.54,1.76,-0.34,1.58,3.94
9.648,-0.32,0.61,-0.07,-1.95,-2.62,1.64,-0.34,1.58,3.94
9.666,-0.3,0.71,-0.12,-1.95,-2.62,1.64,-0.34,1.58,3.94
9.698,-0.3,0.71,-0.12,-1.95,-2.62,1.64,-0.34,1.58,3.94
9.702,-0.4,0.86,-0.18,-1.95,-2.62,1.64,-0.34,1.58,3.94
9.704,-0.4,0.86,-0.18,-1.95,-2.62,1.64,-0.58,1.18,4.82
9.706,-0.4,0.86,-0.18,-0.95,-1.55,1.25,-0.58,1.18,4.82
9.737,-0.49,1.03,-0.24,-0.95,-1.55,1.25,-0.58,1.18,4.82
9.739,-0.49,1.17,-0.2,-0.95,-1.55,1.25,-0.58,1.18,4.82
9.74,-0.49,1.17,-0.2,-0.95,-1.55,1.25,-0.75,1.41,5.29
9.742,-0.49,1.17,-0.2,-2.89,-1.88,1.04,-0.75,1.41,5.29
9.743,-0.49,1.17,-0.2,-2.89,-1.88,1.04,-0.75,1.41,5.29
9.747,-0.49,1.46,-0.27,-2.89,-1.88,1.04,-0.75,1.41,5.29
9.765,-0.7,1.78,-0.44,-2.89,-1.88,1.04,-0.75,1.41,5.29
9.766,-0.7,1.78,-0.44,-2.89,-1.88,1.04,-0.71,1.65,5.59
9.767,-0.7,1.78,-0.44,-6.39,2.96,-0.32,-0.71,1.65,5.59
9.786,-1.14,1.83,-0.53,-6.39,2.96,-0.32,-0.71,1.65,5.59
9.811,-1.14,1.83,-0.53,-6.39,2.96,-0.32,-0.71,1.65,5.59
9.814,-1.12,1.55,-0.42,-6.39,2.96,-0.32,-0.71,1.65,5.59
9.815,-1.12,1.55,-0.42,-6.39,2.96,-0.32,-0.34,1.58,4.58
9.817,-1.12,1.55,-0.42,-12.77,8.16,-2.77,-0.34,1.58,4.58
9.826,-0.71,1.37,-0.38,-12.77,8.16,-2.77,-0.34,1.58,4.58
9.846,-0.71,1.37,-0.38,-13.33,8.32,-2.8,-0.34,1.58,4.58
9.848,-0.79,1.26,-0.18,-13.33,8.32,-2.8,-0.34,1.58,4.58
9.85,-0.79,1.26,-0.18,-13.33,8.32,-2.8,0.05,0.71,2.19
9.855,-0.79,1.26,-0.18,-13.33,8.32,-2.8,0.05,0.71,2.19
9.866,-0.87,0.98,-0.36,-13.33,8.32,-2.8,0.05,0.71,2.19
9.899,0.03,1.14,-0.09,-13.33,8.32,-2.8,0.05,0.71,2.19
9.904,0.03,1.14,-0.09,-13.33,8.32,-2.8,0.38,0.53,-0.91
9.906,0.03,1.14,-0.09,-10.96,3.12,-1.2,0.38,0.53,-0.91
9.908,2,1.45,-0.08,-10.96,3.12,-1.2,0.38,0.53,-0.91
9.939,2,1.45,-0.08,-10.96,3.12,-1.2,0.38,0.53,-0.91
9.947,2.59,1.47,-1.58,-10.96,3.12,-1.2,0.38,0.53,-0.91
9.95,2.59,1.47,-1.58,-10.96,3.12,-1.2,1.01,-0.82,-0.11
9.951,2.59,1.47,-1.58,11.8,4.56,-3.4,1.01,-0.82,-0.11
9.953,-0.45,1.55,0.04,11.8,4.56,-3.4,1.01,-0.82,-0.11
9.968,-3.91,0.83,-0.14,11.8,4.56,-3.4,1.01,-0.82,-0.11
9.969,-3.91,0.83,-0.14,11.8,4.56,-3.4,1.21,2.8,-3.21
9.97,-3.91,0.83,-0.14,12.44,4.24,-3.24,1.21,2.8,-3.21
9.989,-3.91,0.83,-0.14,12.44,4.24,-3.24,1.21,2.8,-3.21
9.991,-1.63,-0.1,-0.49,12.44,4.24,-3.24,1.21,2.8,-3.21
10.002,0.92,0.82,-0.8,12.44,4.24,-3.24,1.21,2.8,-3.21
10.003,0.92,0.82,-0.8,12.44,4.24,-3.24,0.95,-0.85,-1.91
10.004,0.92,0.82,-0.8,-21.11,-1.61,0.95,0.95,-0.85,-1.91
10.023,2,1.66,-0.75,-21.11,-1.61,0.95,0.95,-0.85,-1.91
10.036,2,1.66,-0.75,-21.11,-1.61,0.95,0.95,-0.85,-1.91
10.046,2,1.66,-0.75,11.43,2.4,-2.77,0.95,-0.85,-1.91
10.054,1.19,1,-0.27,11.43,2.4,-2.77,0.95,-0.85,-1.91
10.057,1.19,1,-0.27,11.43,2.4,-2.77,0.47,-1.83,1.35
10.065,-0.15,0.45,-0.31,11.43,2.4,-2.77,0.47,-1.83,1.35
10.082,-0.22,0.8,-0.29,11.43,2.4,-2.77,0.47,-1.83,1.35
10.085,-0.22,0.8,-0.29,11.43,2.4,-2.77,0.02,0.05,-1.57
10.087,-0.22,0.8,-0.29,11.78,2.26,-2.72,0.02,0.05,-1.57
10.103,-0.22,0.8,-0.29,11.78,2.26,-2.72,0.02,0.05,-1.57
10.104,-0.02,1.21,-0.25,11.78,2.26,-2.72,0.02,0.05,-1.57
10.137,0.14,1.03,-0.18,11.78,2.26,-2.72,0.02,0.05,-1.57
10.139,0.14,1.03,-0.18,11.78,2.26,-2.72,0.13,-0.82,-1.43
10.14,0.14,1.03,-0.18,-2.27,-1.09,0.55,0.13,-0.82,-1.43
10.141,0.34,0.82,-0.34,-2.27,-1.09,0.55,0.13,-0.82,-1.43
10.155,0.34,0.82,-0.34,-2.27,-1.09,0.55,0.13,-0.82,-1.43
10.168,0.34,0.82,-0.34,1.72,-0.14,0.51,0.13,-0.82,-1.43
10.169,0.19,0.9,-0.36,1.72,-0.14,0.51,0.13,-0.82,-1.43
10.17,0.19,0.9,-0.36,1.72,-0.14,0.51,0.23,-1.15,-1.02
10.206,-0.09,0.99,-0.3,1.72,-0.14,0.51,0.23,-1.15,-1.02
10.208,-0.15,0.96,-0.25,1.72,-0.14,0.51,0.23,-1.15,-1.02
10.21,-0.15,0.96,-0.25,1.72,-0.14,0.51,0.18,-0.44,-1.31
10.211,-0.15,0.96,-0.25,2.22,-0.12,0.57,0.18,-0.44,-1.31
10.214,-0.15,0.96,-0.25,2.22,-0.12,0.57,0.18,-0.44,-1.31
10.22,-0.01,0.96,-0.33,2.22,-0.12,0.57,0.18,-0.44,-1.31
10.241,-0.01,0.96,-0.33,-0.27,0.4,0.67,0.18,-0.44,-1.31
10.244,-0.01,1,-0.33,-0.27,0.4,0.67,0.18,-0.44,-1.31
10.245,-0.01,1,-0.33,-0.27,0.4,0.67,0.21,-0.57,-1.2
10.264,-0.14,1.01,-0.35,-0.27,0.4,0.67,0.21,-0.57,-1.2
10.275,-0.14,1.01,-0.35,-0.27,0.4,0.67,0.21,-0.57,-1.2
10.284,-0.14,1.01,-0.35,-0.15,0.78,0.09,0.21,-0.57,-1.2
10.288,-0.2,0.99,-0.38,-0.15,0.78,0.09,0.21,-0.57,-1.2
10.289,-0.2,0.99,-0.38,-0.15,0.78,0.09,0.17,-0.49,-1.13
10.302,-0.13,0.99,-0.37,-0.15,0.78,0.09,0.17,-0.49,-1.13
10.328,-0.03,1.02,-0.48,-0.15,0.78,0.09,0.17,-0.49,-1.13
10.33,-0.03,1.02,-0.48,-0.15,0.78,0.09,0.08,-0.65,-1.05
10.331,-0.03,1.02,-0.48,0.31,0.83,0.09,0.08,-0.65,-1.05
10.334,-0.03,1.02,-0.48,0.31,0.83,0.09,0.08,-0.65,-1.05
10.338,-0.04,1.06,-0.34,0.31,0.83,0.09,0.08,-0.65,-1.05
10.359,0.06,0.99,-0.31,0.31,0.83,0.09,0.08,-0.65,-1.05
10.362,0.06,0.99,-0.31,0.31,0.83,0.09,0.04,-1.03,-1.11
10.364,0.06,0.99,-0.31,1.37,1.1,-0.33,0.04,-1.03,-1.11
10.39,0.23,1.1,-0.35,1.37,1.1,-0.33,0.04,-1.03,-1.11
10.394,0.23,1.1,-0.35,1.37,1.1,-0.33,0.04,-1.03,-1.11
10.397,0.14,1.33,-0.33,1.37,1.1,-0.33,0.04,-1.03,-1.11
10.398,0.14,1.33,-0.33,1.37,1.1,-0.33,0,-1.28,-1.52
10.399,0.14,1.33,-0.33,4.06,2.36,0.19,0,-1.28,-1.52
10.433,0.01,1.3,-0.23,4.06,2.36,0.19,0,-1.28,-1.52
10.439,-0.04,1.21,-0.18,4.06,2.36,0.19,0,-1.28,-1.52
10.44,-0.04,1.21,-0.18,4.06,2.36,0.19,-0.1,-1.25,-2.19
10.443,-0.04,1.21,-0.18,4.89,2.57,0,-0.1,-1.25,-2.19
10.454,-0.04,1.21,-0.18,4.89,2.57,0,-0.1,-1.25,-2.19
10.458,-0.06,1.57,-0.34,4.89,2.57,0,-0.1,-1.25,-2.19
10.486,-0.06,1.57,-0.34,4.18,4.99,0.37,-0.1,-1.25,-2.19
10.488,0.1,1.99,-0.25,4.18,4.99,0.37,-0.1,-1.25,-2.19
10.489,0.1,1.99,-0.25,4.18,4.99,0.37,-0.31,-1.7,-2.53
10.509,0.77,1.69,-0.27,4.18,4.99,0.37,-0.31,-1.7,-2.53
10.514,0.77,1.69,-0.27,4.18,4.99,0.37,-0.31,-1.7,-2.53
10.516,1.4,1.65,-0.52,4.18,4.99,0.37,-0.31,-1.7,-2.53
10.517,1.4,1.65,-0.52,4.18,4.99,0.37,-0.4,-2.74,-2.24
10.518,1.4,1.65,-0.52,12.63,9.31,-1.18,-0.4,-2.74,-2.24
10.535,0.97,1.68,-0.59,12.63,9.31,-1.18,-0.4,-2.74,-2.24
10.556,-0.38,1.4,-0.31,12.63,9.31,-1.18,-0.4,-2.74,-2.24
10.56,-0.38,1.4,-0.31,12.63,9.31,-1.18,-0.39,-0.79,-2.81
10.562,-0.38,1.4,-0.31,13.34,9.75,-1.45,-0.39,-0.79,-2.81
10.574,-0.38,1.4,-0.31,13.34,9.75,-1.45,-0.39,-0.79,-2.81
10.577,-0.99,1.09,-0.31,13.34,9.75,-1.45,-0.39,-0.79,-2.81
10.597,-0.77,0.91,-0.55,13.34,9.75,-1.45,-0.39,-0.79,-2.81
10.598,-0.77,0.91,-0.55,13.34,9.75,-1.45,-0.02,1.34,-3.62
10.599,-0.77,0.91,-0.55,5.47,6.79,-1.66,-0.02,1.34,-3.62
10.63,-0.51,0.63,-0.21,5.47,6.79,-1.66,-0.02,1.34,-3.62
10.635,-0.51,0.63,-0.21,5.47,6.79,-1.66,-0.02,1.34,-3.62
10.637,-0.59,0.29,-0.42,5.47,6.79,-1.66,-0.02,1.34,-3.62
10.638,-0.59,0.29,-0.42,5.47,6.79,-1.66,0.18,0.46,-1.56
10.639,-0.59,0.29,-0.42,0.99,-0.45,-1.37,0.18,0.46,-1.56
10.655,-0.42,0.24,-0.26,0.99,-0.45,-1.37,0.18,0.46,-1.56
10.675,-0.04,0.25,0.27,0.99,-0.45,-1.37,0.18,0.46,-1.56
10.678,-0.04,0.25,0.27,0.99,-0.45,-1.37,-0.12,-0.67,0.31
10.68,-0.04,0.25,0.27,0.95,-0.53,-1.56,-0.12,-0.67,0.31
10.703,-0.04,0.25,0.27,0.95,-0.53,-1.56,-0.12,-0.67,0.31
10.705,0.08,0.22,-0.04,0.95,-0.53,-1.56,-0.12,-0.67,0.31
10.726,0.08,0.22,-0.04,5.27,-4.64,1.95,-0.12,-0.67,0.31
10.727,-0.03,0.25,-0.07,5.27,-4.64,1.95,-0.12,-0.67,0.31
10.728,-0.03,0.25,-0.07,5.27,-4.64,1.95,-0.4,-0.38,1.94
10.733,-0.31,0.35,-0.12,5.27,-4.64,1.95,-0.4,-0.38,1.94
10.753,-0.31,0.35,-0.12,5.27,-4.64,1.95,-0.4,-0.38,1.94
10.754,-0.61,0.44,-0.21,5.27,-4.64,1.95,-0.4,-0.38,1.94
10.755,-0.61,0.44,-0.21,5.27,-4.64,1.95,-0.44,1.61,2.92
10.756,-0.61,0.44,-0.21,2.38,-4.27,0.96,-0.44,1.61,2.92
10.772,-0.69,0.47,-0.17,2.38,-4.27,0.96,-0.44,1.61,2.92
10.794,-0.69,0.47,-0.17,0.96,-4.97,1.12,-0.44,1.61,2.92
10.797,-0.48,0.6,-0.13,0.96,-4.97,1.12,-0.44,1.61,2.92
10.798,-0.48,0.6,-0.13,0.96,-4.97,1.12,-0.53,1.82,3.89
10.813,-0.48,0.6,-0.13,0.96,-4.97,1.12,-0.53,1.82,3.89
10.815,-0.37,0.77,-0.16,0.96,-4.97,1.12,-0.53,1.82,3.89
10.833,-0.37,0.77,-0.16,-2.7,-2.94,0.88,-0.53,1.82,3.89
10.835,-0.44,0.85,-0.18,-2.7,-2.94,0.88,-0.53,1.82,3.89
10.836,-0.44,0.85,-0.18,-2.7,-2.94,0.88,-0.58,1.15,4.77
10.853,-0.57,0.9,-0.3,-2.7,-2.94,0.88,-0.58,1.15,4.77
10.873,-0.68,0.93,-0.39,-2.7,-2.94,0.88,-0.58,1.15,4.77
10.876,-0.68,0.93,-0.39,-2.7,-2.94,0.88,-0.53,0.9,4.94
10.878,-0.68,0.93,-0.39,-4.97,-0.51,-0.59,-0.53,0.9,4.94
10.88,-0.68,0.93,-0.39,-4.97,-0.51,-0.59,-0.53,0.9,4.94
10.901,-0.66,0.98,-0.38,-4.97,-0.51,-0.59,-0.53,0.9,4.94
10.927,-0.66,1.25,-0.39,-4.97,-0.51,-0.59,-0.53,0.9,4.94
10.929,-0.66,1.25,-0.39,-4.97,-0.51,-0.59,-0.44,0.63,4.95
10.93,-0.66,1.25,-0.39,-6.73,-0.47,-0.75,-0.44,0.63,4.95
10.933,-0.92,1.42,-0.37,-6.73,-0.47,-0.75,-0.44,0.63,4.95
10.933,-0.92,1.42,-0.37,-6.73,-0.47,-0.75,-0.44,0.63,4.95
10.951,-1.1,1.39,-0.34,-6.73,-0.47,-0.75,-0.44,0.63,4.95
10.954,-1.1,1.39,-0.34,-6.73,-0.47,-0.75,-0.14,0.7,4.4
10.956,-1.1,1.39,-0.34,-9.96,2.99,-1.68,-0.14,0.7,4.4
10.971,-0.83,1.46,-0.28,-9.96,2.99,-1.68,-0.14,0.7,4.4
11.001,-0.42,1.4,-0.28,-9.96,2.99,-1.68,-0.14,0.7,4.4
11.004,-0.42,1.4,-0.28,-9.96,2.99,-1.68,-0.03,-0.22,3.13
11.006,-0.42,1.4,-0.28,-11.19,5.26,-0.92,-0.03,-0.22,3.13
11.009,-0.42,1.4,-0.28,-11.19,5.26,-0.92,-0.03,-0.22,3.13
11.043,-0.32,1.24,-0.27,-11.19,5.26,-0.92,-0.03,-0.22,3.13
11.05,-0.59,1.2,-0.17,-11.19,5.26,-0.92,-0.03,-0.22,3.13
11.054,-0.59,1.2,-0.17,-11.19,5.26,-0.92,0.13,0.22,0.8
11.054,-0.59,1.2,-0.17,-11.29,5.3,-0.89,0.13,0.22,0.8
11.055,-0.36,1.23,-0.36,-11.29,5.3,-0.89,0.13,0.22,0.8
11.056,-0.36,1.23,-0.36,-11.29,5.3,-0.89,0.13,0.22,0.8
11.071,-0.36,1.23,-0.36,-7.34,3.26,-0.47,0.13,0.22,0.8
11.073,1.8,1.39,0.16,-7.34,3.26,-0.47,0.13,0.22,0.8
11.074,1.8,1.39,0.16,-7.34,3.26,-0.47,0.37,0.49,-0.96
11.092,3.44,2.04,-0.92,-7.34,3.26,-0.47,0.37,0.49,-0.96
11.109,-0.16,1.4,-0.28,-7.34,3.26,-0.47,0.37,0.49,-0.96
11.11,-0.16,1.4,-0.28,-7.34,3.26,-0.47,1.54,2.81,-0.56
11.111,-0.16,1.4,-0.28,13.1,6.99,-1.05,1.54,2.81,-0.56
11.119,-0.16,1.4,-0.28,13.1,6.99,-1.05,1.54,2.81,-0.56
11.129,-4.62,0.24,-0.43,13.1,6.99,-1.05,1.54,2.81,-0.56
11.149,-2.04,-0.33,-0.5,13.1,6.99,-1.05,1.54,2.81,-0.56
11.151,-2.04,-0.33,-0.5,13.1,6.99,-1.05,1.4,3.22,-5.17
11.153,-2.04,-0.33,-0.5,14.4,6.45,-0.9,1.4,3.22,-5.17
11.169,1.09,0.81,-1.48,14.4,6.45,-0.9,1.4,3.22,-5.17
11.174,1.09,0.81,-1.48,14.4,6.45,-0.9,1.4,3.22,-5.17
11.196,2.36,1.92,-0.5,14.4,6.45,-0.9,1.4,3.22,-5.17
11.198,2.36,1.92,-0.5,14.4,6.45,-0.9,0.99,-2.38,1.34
11.198,2.36,1.92,-0.5,-20.26,-6.64,-4.73,0.99,-2.38,1.34
11.208,0.82,1.09,0.18,-20.26,-6.64,-4.73,0.99,-2.38,1.34
11.228,-0.2,0.32,-0.45,-20.26,-6.64,-4.73,0.99,-2.38,1.34
11.229,-0.2,0.32,-0.45,-20.26,-6.64,-4.73,-0.01,-1.24,-0.08
11.23,-0.2,0.32,-0.45,7.74,1.84,0.69,-0.01,-1.24,-0.08
11.232,-0.2,0.32,-0.45,7.74,1.84,0.69,-0.01,-1.24,-0.08
11.247,0.2,0.8,-0.44,7.74,1.84,0.69,-0.01,-1.24,-0.08
11.267,-0.13,1.21,-0.51,7.74,1.84,0.69,-0.01,-1.24,-0.08
11.27,-0.13,1.21,-0.51,7.74,1.84,0.69,0.16,0.04,-1.7
11.271,-0.13,1.21,-0.51,8.21,1.71,0.74,0.16,0.04,-1.7
11.298,-0.27,1.01,-0.09,8.21,1.71,0.74,0.16,0.04,-1.7
11.3,-0.27,1.01,-0.09,8.21,1.71,0.74,0.16,0.04,-1.7
11.307,0.38,0.87,-0.14,8.21,1.71,0.74,0.16,0.04,-1.7
11.308,0.38,0.87,-0.14,8.21,1.71,0.74,0.04,-1.62,-1.12
11.31,0.38,0.87,-0.14,-1.53,0.64,-0.04,0.04,-1.62,-1.12
11.346,0.53,0.91,-0.24,-1.53,0.64,-0.04,0.04,-1.62,-1.12
11.349,0.15,0.96,-0.33,-1.53,0.64,-0.04,0.04,-1.62,-1.12
11.352,0.15,0.96,-0.33,-1.53,0.64,-0.04,0.15,-1.1,-1.02
11.355,0.15,0.96,-0.33,3.05,-0.26,1.1,0.15,-1.1,-1.02
11.357,0.15,0.96,-0.33,3.05,-0.26,1.1,0.15,-1.1,-1.02
11.367,-0.23,0.96,-0.34,3.05,-0.26,1.1,0.15,-1.1,-1.02
11.387,-0.27,0.96,-0.3,3.05,-0.26,1.1,0.15,-1.1,-1.02
11.388,-0.27,0.96,-0.3,3.05,-0.26,1.1,0.2,-0.07,-1.52
11.388,-0.27,0.96,-0.3,3.55,-0.24,1.15,0.2,-0.07,-1.52
11.42,-0.06,0.98,-0.38,3.55,-0.24,1.15,0.2,-0.07,-1.52
11.422,-0.06,0.98,-0.38,3.55,-0.24,1.15,0.2,-0.07,-1.52
11.425,-0.07,1.01,-0.31,3.55,-0.24,1.15,0.2,-0.07,-1.52
11.426,-0.07,1.01,-0.31,3.55,-0.24,1.15,0.16,-0.56,-1.25
11.427,-0.07,1.01,-0.31,-1.23,0.29,0.21,0.16,-0.56,-1.25
11.444,-0.21,1.03,-0.35,-1.23,0.29,0.21,0.16,-0.56,-1.25
11.466,-0.28,1.03,-0.39,-1.23,0.29,0.21,0.16,-0.56,-1.25
11.467,-0.28,1.03,-0.39,-1.23,0.29,0.21,0.1,-0.6,-1.13
11.468,-0.28,1.03,-0.39,-0.69,0.92,0.1,0.1,-0.6,-1.13
11.471,-0.28,1.03,-0.39,-0.69,0.92,0.1,0.1,-0.6,-1.13
11.491,-0.09,1.05,-0.41,-0.69,0.92,0.1,0.1,-0.6,-1.13
11.527,-0.09,1.05,-0.41,-0.19,0.97,0.07,0.1,-0.6,-1.13
11.53,0.11,1.1,-0.29,-0.19,0.97,0.07,0.1,-0.6,-1.13
11.533,0.11,1.1,-0.29,-0.19,0.97,0.07,0.03,-0.81,-1.06
11.535,0.17,1.07,-0.22,-0.19,0.97,0.07,0.03,-0.81,-1.06
11.535,0.17,1.07,-0.22,-0.19,0.97,0.07,0.03,-0.81,-1.06
11.543,0.14,1.08,-0.28,-0.19,0.97,0.07,0.03,-0.81,-1.06
11.544,0.14,1.08,-0.28,-0.19,0.97,0.07,0,-0.99,-1.32
11.544,0.14,1.08,-0.28,2.77,1.49,0.41,0,-0.99,-1.32
11.563,0.04,1.24,-0.29,2.77,1.49,0.41,0,-0.99,-1.32
11.584,0.07,1.37,-0.27,2.77,1.49,0.41,0,-0.99,-1.32
11.588,0.07,1.37,-0.27,2.77,1.49,0.41,-0.07,-0.92,-2.06
11.59,0.07,1.37,-0.27,3.75,3.2,0.58,-0.07,-0.92,-2.06
11.593,0.07,1.37,-0.27,3.75,3.2,0.58,-0.07,-0.92,-2.06
11.604,0.11,1.36,-0.24,3.75,3.2,0.58,-0.07,-0.92,-2.06
11.634,0.02,1.56,-0.43,3.75,3.2,0.58,-0.07,-0.92,-2.06
11.636,0.02,1.56,-0.43,3.75,3.2,0.58,-0.16,-1.33,-2.6
11.636,0.02,1.56,-0.43,4.73,3.48,0.34,-0.16,-1.33,-2.6
11.643,0.09,2.13,-0.34,4.73,3.48,0.34,-0.16,-1.33,-2.6
11.675,0.09,2.13,-0.34,4.73,3.48,0.34,-0.16,-1.33,-2.6
11.679,0.09,2.13,-0.34,5.72,8.23,-0.78,-0.16,-1.33,-2.6
11.682,0.79,1.73,-0.28,5.72,8.23,-0.78,-0.16,-1.33,-2.6
11.684,0.79,1.73,-0.28,5.72,8.23,-0.78,-0.33,-2.39,-2.72
11.685,1.37,1.43,-0.67,5.72,8.23,-0.78,-0.33,-2.39,-2.72
11.705,0.89,1.72,-0.5,5.72,8.23,-0.78,-0.33,-2.39,-2.72
11.707,0.89,1.72,-0.5,5.72,8.23,-0.78,-0.28,-2.34,-2.38
11.708,0.89,1.72,-0.5,15.67,8.04,-2.76,-0.28,-2.34,-2.38
11.71,0.89,1.72,-0.5,15.67,8.04,-2.76,-0.28,-2.34,-2.38
11.723,-0.61,1.51,-0.52,15.67,8.04,-2.76,-0.28,-2.34,-2.38
11.74,-1.63,0.99,-0.67,15.67,8.04,-2.76,-0.28,-2.34,-2.38
11.741,-1.63,0.99,-0.67,15.67,8.04,-2.76,-0.04,1.46,-4.05
11.742,-1.63,0.99,-0.67,16.46,8.89,-2.36,-0.04,1.46,-4.05
11.76,-1.16,0.66,-0.46,16.46,8.89,-2.36,-0.04,1.46,-4.05
11.771,-1.16,0.66,-0.46,16.46,8.89,-2.36,-0.04,1.46,-4.05
11.783,-0.56,0.3,-0.11,16.46,8.89,-2.36,-0.04,1.46,-4.05
11.786,-0.56,0.3,-0.11,16.46,8.89,-2.36,0.18,1.11,-2.67
11.788,-0.56,0.3,-0.11,-3.94,3.91,-2.63,0.18,1.11,-2.67
11.801,0.02,0.21,0.12,-3.94,3.91,-2.63,0.18,1.11,-2.67
11.834,0.39,0.25,0.11,-3.94,3.91,-2.63,0.18,1.11,-2.67
11.836,0.39,0.25,0.11,-3.94,3.91,-2.63,-0.19,-2.1,0.65
11.836,0.39,0.25,0.11,6.61,-4.04,2.47,-0.19,-2.1,0.65
11.837,0.39,0.25,0.11,6.61,-4.04,2.47,-0.19,-2.1,0.65
11.841,0.31,0.28,-0.03,6.61,-4.04,2.47,-0.19,-2.1,0.65
11.864,-0.09,0.33,-0.08,6.61,-4.04,2.47,-0.19,-2.1,0.65
11.866,-0.09,0.33,-0.08,6.61,-4.04,2.47,-0.24,-0.52,1.73
11.867,-0.09,0.33,-0.08,6.08,-4.45,2.22,-0.24,-0.52,1.73
11.886,-0.41,0.39,-0.17,6.08,-4.45,2.22,-0.24,-0.52,1.73
11.891,-0.41,0.39,-0.17,6.08,-4.45,2.22,-0.24,-0.52,1.73
11.9,-0.52,0.4,-0.16,6.08,-4.45,2.22,-0.24,-0.52,1.73
11.903,-0.52,0.4,-0.16,6.08,-4.45,2.22,-0.31,2.04,2.1
11.905,-0.52,0.4,-0.16,5.09,-4.16,1.29,-0.31,2.04,2.1
11.935,-0.53,0.37,-0.15,5.09,-4.16,1.29,-0.31,2.04,2.1
11.938,-0.43,0.39,-0.18,5.09,-4.16,1.29,-0.31,2.04,2.1
11.939,-0.43,0.39,-0.18,5.09,-4.16,1.29,-0.46,2.29,3.51
11.94,-0.43,0.39,-0.18,-0.44,-4.27,0.91,-0.46,2.29,3.51
11.964,-0.43,0.39,-0.18,-0.44,-4.27,0.91,-0.46,2.29,3.51
11.966,-0.33,0.53,-0.23,-0.44,-4.27,0.91,-0.46,2.29,3.51
11.978,-0.36,0.67,-0.15,-0.44,-4.27,0.91,-0.46,2.29,3.51
11.979,-0.36,0.67,-0.15,-0.44,-4.27,0.91,-0.69,1.69,4.6
11.98,-0.36,0.67,-0.15,-2.11,-4.91,0.91,-0.69,1.69,4.6
12.015,-0.51,0.78,-0.18,-2.11,-4.91,0.91,-0.69,1.69,4.6
12.018,-0.51,0.78,-0.18,-2.11,-4.91,0.91,-0.69,1.69,4.6
12.021,-0.59,0.9,-0.47,-2.11,-4.91,0.91,-0.69,1.69,4.6
12.023,-0.59,0.9,-0.47,-2.11,-4.91,0.91,-0.85,1.11,5.24
12.024,-0.59,0.9,-0.47,-3.1,-2.67,0.46,-0.85,1.11,5.24
12.053,-0.73,1.21,-0.51,-3.1,-2.67,0.46,-0.85,1.11,5.24
12.059,-0.73,1.21,-0.51,-8.47,2.79,-2.34,-0.85,1.11,5.24
12.067,-0.91,1.55,-0.37,-8.47,2.79,-2.34,-0.85,1.11,5.24
12.069,-0.91,1.55,-0.37,-8.47,2.79,-2.34,-0.71,0.92,5.76
12.074,-0.91,1.55,-0.37,-8.47,2.79,-2.34,-0.71,0.92,5.76
12.076,-1.11,1.7,-0.5,-8.47,2.79,-2.34,-0.71,0.92,5.76
12.107,-1.24,1.65,-0.5,-8.47,2.79,-2.34,-0.71,0.92,5.76
12.109,-1.24,1.65,-0.5,-8.47,2.79,-2.34,-0.33,0.87,5.46
12.109,-1.24,1.65,-0.5,-10.3,3.18,-2.49,-0.33,0.87,5.46
12.132,-0.71,1.46,-0.3,-10.3,3.18,-2.49,-0.33,0.87,5.46
12.135,-0.71,1.46,-0.3,-10.3,3.18,-2.49,-0.33,0.87,5.46
12.136,-0.23,1.35,-0.43,-10.3,3.18,-2.49,-0.33,0.87,5.46
12.138,-0.23,1.35,-0.43,-10.3,3.18,-2.49,-0.06,0.1,3.47
12.139,-0.23,1.35,-0.43,-13.93,7.31,-2.35,-0.06,0.1,3.47
12.156,-0.7,1.23,-0.28,-13.93,7.31,-2.35,-0.06,0.1,3.47
12.176,-1.29,1.13,-0.53,-13.93,7.31,-2.35,-0.06,0.1,3.47
12.18,-1.29,1.13,-0.53,-13.93,7.31,-2.35,0.33,1.12,-0.07
12.182,-1.29,1.13,-0.53,-11.07,3.66,-2.19,0.33,1.12,-0.07
12.199,-1.29,1.13,-0.53,-11.07,3.66,-2.19,0.33,1.12,-0.07
12.2,0.49,1.23,0.79,-11.07,3.66,-2.19,0.33,1.12,-0.07
12.228,3.13,2.14,-0.86,-11.07,3.66,-2.19,0.33,1.12,-0.07
12.23,3.13,2.14,-0.86,-10.62,3.55,-1.9,0.33,1.12,-0.07
12.232,3.13,2.14,-0.86,-10.62,3.55,-1.9,0.58,-0.42,-0.7
12.234,1.87,2.16,-0.62,-10.62,3.55,-1.9,0.58,-0.42,-0.7
12.25,1.87,2.16,-0.62,-10.62,3.55,-1.9,0.58,-0.42,-0.7
12.256,-3.65,0.55,0.08,-10.62,3.55,-1.9,0.58,-0.42,-0.7
12.258,-3.65,0.55,0.08,-10.62,3.55,-1.9,1.46,3.61,-2.09
12.26,-3.65,0.55,0.08,14.67,9.2,-0.08,1.46,3.61,-2.09
12.274,-3.3,-0.71,-0.84,14.67,9.2,-0.08,1.46,3.61,-2.09
12.299,0.37,0.39,-0.5,14.67,9.2,-0.08,1.46,3.61,-2.09
12.302,0.37,0.39,-0.5,14.67,9.2,-0.08,1.24,0.83,-3.43
12.303,0.37,0.39,-0.5,-23.16,-8.22,-1.54,1.24,0.83,-3.43
12.309,0.37,0.39,-0.5,-23.16,-8.22,-1.54,1.24,0.83,-3.43
12.322,2.08,1.8,-1.51,-23.16,-8.22,-1.54,1.24,0.83,-3.43
12.333,1.75,1.59,0.37,-23.16,-8.22,-1.54,1.24,0.83,-3.43
12.337,1.75,1.59,0.37,-23.16,-8.22,-1.54,0.68,-2.48,2.15
12.338,1.75,1.59,0.37,-23.24,-7.85,-1.09,0.68,-2.48,2.15
12.352,0.13,0.37,-0.41,-23.24,-7.85,-1.09,0.68,-2.48,2.15
12.369,0.13,0.37,-0.41,-23.24,-7.85,-1.09,0.68,-2.48,2.15
12.373,0.05,0.46,-0.4,-23.24,-7.85,-1.09,0.68,-2.48,2.15
12.375,0.05,0.46,-0.4,-23.24,-7.85,-1.09,0.05,-0.43,-1.28
12.376,0.05,0.46,-0.4,11.46,3.57,-1.97,0.05,-0.43,-1.28
12.396,0.03,1.17,-0.41,11.46,3.57,-1.97,0.05,-0.43,-1.28
12.413,-0.34,1.19,-0.24,11.46,3.57,-1.97,0.05,-0.43,-1.28
12.415,-0.34,1.19,-0.24,11.46,3.57,-1.97,0.12,-0.12,-1.75
12.416,-0.34,1.19,-0.24,-1.7,0.45,-0.29,0.12,-0.12,-1.75
12.43,-0.34,1.19,-0.24,-1.7,0.45,-0.29,0.12,-0.12,-1.75
12.448,0.07,0.83,-0.11,-1.7,0.45,-0.29,0.12,-0.12,-1.75
12.456,0.07,0.83,-0.11,-1.13,0.43,-0.22,0.12,-0.12,-1.75
12.457,0.55,0.85,-0.33,-1.13,0.43,-0.22,0.12,-0.12,-1.75
12.458,0.55,0.85,-0.33,-1.13,0.43,-0.22,0.12,-1.32,-1.1
12.486,0.26,1,-0.33,-1.13,0.43,-0.22,0.12,-1.32,-1.1
12.489,0.26,1,-0.33,-1.13,0.43,-0.22,0.12,-1.32,-1.1
12.492,-0.15,0.95,-0.32,-1.13,0.43,-0.22,0.12,-1.32,-1.1
12.493,-0.15,0.95,-0.32,-1.13,0.43,-0.22,0.16,-0.48,-1.3
12.495,-0.15,0.95,-0.32,3.1,-0.03,0.78,0.16,-0.48,-1.3
12.512,-0.28,0.9,-0.26,3.1,-0.03,0.78,0.16,-0.48,-1.3
12.537,-0.12,1,-0.34,3.1,-0.03,0.78,0.16,-0.48,-1.3
12.539,-0.12,1,-0.34,3.1,-0.03,0.78,0.13,-0.15,-1.53
12.54,-0.12,1,-0.34,-1.05,0.57,0.32,0.13,-0.15,-1.53
12.565,-0.12,1,-0.34,-1.05,0.57,0.32,0.13,-0.15,-1.53
12.567,-0.04,1.03,-0.33,-1.05,0.57,0.32,0.13,-0.15,-1.53
12.57,-0.16,0.98,-0.36,-1.05,0.57,0.32,0.13,-0.15,-1.53
12.572,-0.16,0.98,-0.36,-1.05,0.57,0.32,0.12,-0.57,-1.23
12.574,-0.16,0.98,-0.36,-0.54,0.62,0.33,0.12,-0.57,-1.23
12.59,-0.3,1.02,-0.38,-0.54,0.62,0.33,0.12,-0.57,-1.23
12.609,-0.3,1.02,-0.38,-0.54,0.62,0.33,0.12,-0.57,-1.23
12.612,-0.26,1.07,-0.39,-0.54,0.62,0.33,0.12,-0.57,-1.23
12.613,-0.26,1.07,-0.39,-0.54,0.62,0.33,0.08,-0.51,-1.14
12.614,-0.26,1.07,-0.39,0.11,1.23,-0.18,0.08,-0.51,-1.14
12.638,-0.02,1.11,-0.27,0.11,1.23,-0.18,0.08,-0.51,-1.14
12.649,0.23,1.12,-0.15,0.11,1.23,-0.18,0.08,-0.51,-1.14
12.651,0.23,1.12,-0.15,0.11,1.23,-0.18,0.06,-0.92,-0.99
12.651,0.23,1.12,-0.15,2,2.19,0.59,0.06,-0.92,-0.99
12.668,0.23,1.12,-0.15,2,2.19,0.59,0.06,-0.92,-0.99
12.67,0.27,1.1,-0.2,2,2.19,0.59,0.06,-0.92,-0.99
12.689,0.15,1.22,-0.31,2,2.19,0.59,0.06,-0.92,-0.99
12.69,0.15,1.22,-0.31,2,2.19,0.59,0.06,-0.93,-1.48
12.691,0.15,1.22,-0.31,2.57,2.3,0.52,0.06,-0.93,-1.48
12.721,0.07,1.33,-0.31,2.57,2.3,0.52,0.06,-0.93,-1.48
12.729,0.07,1.33,-0.31,2.57,2.3,0.52,0.06,-0.93,-1.48
12.731,0.07,1.28,-0.24,2.57,2.3,0.52,0.06,-0.93,-1.48
12.733,0.07,1.28,-0.24,2.57,2.3,0.52,-0.02,-0.88,-2.35
12.735,0.07,1.28,-0.24,5.14,3.66,0.36,-0.02,-0.88,-2.35
12.757,0.03,1.27,-0.29,5.14,3.66,0.36,-0.02,-0.88,-2.35
12.768,-0.03,1.61,-0.49,5.14,3.66,0.36,-0.02,-0.88,-2.35
12.77,-0.03,1.61,-0.49,5.14,3.66,0.36,-0.1,-1.44,-2.79
12.771,-0.03,1.61,-0.49,4.72,5.69,-0.55,-0.1,-1.44,-2.79
12.788,0.23,2,-0.41,4.72,5.69,-0.55,-0.1,-1.44,-2.79
12.789,0.23,2,-0.41,4.72,5.69,-0.55,-0.1,-1.44,-2.79
12.828,0.9,1.5,-0.54,4.72,5.69,-0.55,-0.1,-1.44,-2.79
12.833,0.9,1.5,-0.54,4.72,5.69,-0.55,-0.18,-2.8,-2.63
12.833,0.9,1.5,-0.54,5.7,6.1,-1.15,-0.18,-2.8,-2.63
12.834,1.09,1.42,-0.63,5.7,6.1,-1.15,-0.18,-2.8,-2.63
12.86,0.19,1.8,-0.36,5.7,6.1,-1.15,-0.18,-2.8,-2.63
12.863,0.19,1.8,-0.36,5.7,6.1,-1.15,-0.18,-2.71,-2.35
12.865,0.19,1.8,-0.36,13.39,8.94,-3.61,-0.18,-2.71,-2.35
12.867,0.19,1.8,-0.36,13.39,8.94,-3.61,-0.18,-2.71,-2.35
12.869,-1.13,1.49,-0.3,13.39,8.94,-3.61,-0.18,-2.71,-2.35
12.893,-1.06,0.88,-0.47,13.39,8.94,-3.61,-0.18,-2.71,-2.35
12.895,-1.06,0.88,-0.47,13.39,8.94,-3.61,-0.07,0.39,-3.57
12.896,-1.06,0.88,-0.47,0.52,7.3,-1.95,-0.07,0.39,-3.57
12.919,-0.47,0.46,-0.38,0.52,7.3,-1.95,-0.07,0.39,-3.57
12.922,-0.47,0.46,-0.38,0.52,7.3,-1.95,-0.07,0.39,-3.57
12.926,-0.58,0.13,-0.14,0.52,7.3,-1.95,-0.07,0.39,-3.57
12.927,-0.58,0.13,-0.14,0.52,7.3,-1.95,0.28,0.53,-1.58
12.928,-0.58,0.13,-0.14,0.85,7.64,-1.7,0.28,0.53,-1.58
12.945,-0.66,0.21,0.01,0.85,7.64,-1.7,0.28,0.53,-1.58
12.966,-0.28,0.27,0.34,0.85,7.64,-1.7,0.28,0.53,-1.58
12.968,-0.28,0.27,0.34,1.71,-3.41,0.03,0.28,0.53,-1.58
12.969,-0.28,0.27,0.34,1.71,-3.41,0.03,0,-0.9,0.38
12.97,-0.28,0.27,0.34,1.71,-3.41,0.03,0,-0.9,0.38
12.987,0.2,0.24,0.02,1.71,-3.41,0.03,0,-0.9,0.38
13.021,0.31,0.25,0.02,1.71,-3.41,0.03,0,-0.9,0.38
13.024,0.31,0.25,0.02,1.71,-3.41,0.03,-0.08,-0.61,2.15
13.026,0.31,0.25,0.02,7.4,-4.12,2.69,-0.08,-0.61,2.15
13.027,-0.09,0.34,-0.03,7.4,-4.12,2.69,-0.08,-0.61,2.15
13.028,-0.09,0.34,-0.03,7.4,-4.12,2.69,-0.08,-0.61,2.15
13.054,-0.5,0.45,-0.09,7.4,-4.12,2.69,-0.08,-0.61,2.15
13.063,-0.5,0.45,-0.09,7.4,-4.12,2.69,-0.03,1.76,2.69
13.065,-0.5,0.45,-0.09,6.45,-4.71,3.06,-0.03,1.76,2.69
13.067,-0.66,0.53,-0.08,6.45,-4.71,3.06,-0.03,1.76,2.69
13.088,-0.61,0.52,-0.05,6.45,-4.71,3.06,-0.03,1.76,2.69
13.089,-0.61,0.52,-0.05,6.45,-4.71,3.06,-0.21,2.47,3.5
13.09,-0.61,0.52,-0.05,0.38,-3.53,1.57,-0.21,2.47,3.5
13.09,-0.61,0.52,-0.05,0.38,-3.53,1.57,-0.21,2.47,3.5
13.104,-0.4,0.51,-0.02,0.38,-3.53,1.57,-0.21,2.47,3.5
13.124,-0.31,0.65,-0.05,0.38,-3.53,1.57,-0.21,2.47,3.5
13.125,-0.31,0.65,-0.05,0.38,-3.53,1.57,-0.45,1.35,4.7
13.125,-0.31,0.65,-0.05,-1.45,-3.02,1.84,-0.45,1.35,4.7
13.143,-0.45,0.85,-0.12,-1.45,-3.02,1.84,-0.45,1.35,4.7
13.147,-0.45,0.85,-0.12,-1.45,-3.02,1.84,-0.45,1.35,4.7
13.164,-0.61,1.01,-0.25,-1.45,-3.02,1.84,-0.45,1.35,4.7
13.167,-0.61,1.01,-0.25,-1.45,-3.02,1.84,-0.57,0.98,5.29
13.168,-0.61,1.01,-0.25,-3.31,-3.41,1.69,-0.57,0.98,5.29
13.187,-0.73,1.24,-0.42,-3.31,-3.41,1.69,-0.57,0.98,5.29
13.205,-0.8,1.62,-0.47,-3.31,-3.41,1.69,-0.57,0.98,5.29
13.21,-0.8,1.62,-0.47,-3.31,-3.41,1.69,-0.45,1.23,5.47
13.213,-0.8,1.62,-0.47,-6.78,1.2,-0.62,-0.45,1.23,5.47
13.215,-0.8,1.62,-0.47,-6.78,1.2,-0.62,-0.45,1.23,5.47
13.236,-0.88,1.73,-0.44,-6.78,1.2,-0.62,-0.45,1.23,5.47
13.243,-1.08,1.63,-0.46,-6.78,1.2,-0.62,-0.45,1.23,5.47
13.244,-1.08,1.63,-0.46,-6.78,1.2,-0.62,-0.25,1.51,4.89
13.244,-1.08,1.63,-0.46,-11.55,7.53,-2.67,-0.25,1.51,4.89
13.272,-0.78,1.47,-0.36,-11.55,7.53,-2.67,-0.25,1.51,4.89
13.275,-0.78,1.47,-0.36,-11.55,7.53,-2.67,-0.25,1.51,4.89
13.282,-0.4,1.38,-0.32,-11.55,7.53,-2.67,-0.25,1.51,4.89
13.283,-0.4,1.38,-0.32,-11.55,7.53,-2.67,0.02,0.7,2.92
13.286,-0.4,1.38,-0.32,-12.38,7.75,-2.71,0.02,0.7,2.92
13.314,-0.58,1.16,-0.27,-12.38,7.75,-2.71,0.02,0.7,2.92
13.324,-0.67,1.05,-0.43,-12.38,7.75,-2.71,0.02,0.7,2.92
13.325,-0.67,1.05,-0.43,-12.38,7.75,-2.71,0.29,0.74,0.03
13.327,-0.67,1.05,-0.43,-9.01,4.56,-1.33,0.29,0.74,0.03
13.328,-0.67,1.05,-0.43,-9.01,4.56,-1.33,0.29,0.74,0.03
13.346,0.92,1.23,0.32,-9.01,4.56,-1.33,0.29,0.74,0.03
13.36,3.25,2.38,-0.76,-9.01,4.56,-1.33,0.29,0.74,0.03
13.361,3.25,2.38,-0.76,-9.01,4.56,-1.33,0.75,0.09,-0.73
13.362,3.25,2.38,-0.76,8.28,6.51,-0.77,0.75,0.09,-0.73
13.38,0.97,1.74,-0.19,8.28,6.51,-0.77,0.75,0.09,-0.73
13.391,0.97,1.74,-0.19,8.28,6.51,-0.77,0.75,0.09,-0.73
13.416,0.97,1.74,-0.19,8.81,6.19,-0.71,0.75,0.09,-0.73
13.418,-4.16,0.06,-0.29,8.81,6.19,-0.71,0.75,0.09,-0.73
13.419,-4.16,0.06,-0.29,8.81,6.19,-0.71,1.47,4.15,-2.94
13.42,-2.75,-0.44,-0.75,8.81,6.19,-0.71,1.47,4.15,-2.94
13.44,0.85,0.73,-0.79,8.81,6.19,-0.71,1.47,4.15,-2.94
13.442,0.85,0.73,-0.79,8.81,6.19,-0.71,1.32,0.26,-2.83
13.444,0.85,0.73,-0.79,-20.65,-4.62,-1.47,1.32,0.26,-2.83
13.447,0.85,0.73,-0.79,-20.65,-4.62,-1.47,1.32,0.26,-2.83
13.461,2.28,1.85,-1.11,-20.65,-4.62,-1.47,1.32,0.26,-2.83
13.48,0.95,1.39,0.32,-20.65,-4.62,-1.47,1.32,0.26,-2.83
13.484,0.95,1.39,0.32,-20.65,-4.62,-1.47,0.59,-2.41,1.9
13.486,0.95,1.39,0.32,11.46,4,-2.21,0.59,-2.41,1.9
13.5,-0.28,0.37,-0.29,11.46,4,-2.21,0.59,-2.41,1.9
13.508,-0.28,0.37,-0.29,11.46,4,-2.21,0.59,-2.41,1.9
13.542,-0.28,0.37,-0.29,11.79,3.86,-2.12,0.59,-2.41,1.9
13.545,0.21,0.62,-0.38,11.79,3.86,-2.12,0.59,-2.41,1.9
13.546,0.21,0.62,-0.38,11.79,3.86,-2.12,0.11,-0.12,-1.44
13.547,0.11,1.2,-0.49,11.79,3.86,-2.12,0.11,-0.12,-1.44
13.562,-0.24,1.09,-0.3,11.79,3.86,-2.12,0.11,-0.12,-1.44
13.563,-0.24,1.09,-0.3,11.79,3.86,-2.12,0.26,-0.19,-1.42
13.563,-0.24,1.09,-0.3,-0.9,-1.99,-0.65,0.26,-0.19,-1.42
13.57,-0.24,1.09,-0.3,-0.9,-1.99,-0.65,0.26,-0.19,-1.42
13.578,0.2,0.83,-0.23,-0.9,-1.99,-0.65,0.26,-0.19,-1.42
13.598,0.55,0.87,-0.28,-0.9,-1.99,-0.65,0.26,-0.19,-1.42
13.6,0.55,0.87,-0.28,-0.9,-1.99,-0.65,0.16,-1.25,-1
13.602,0.55,0.87,-0.28,1.16,0.01,0.58,0.16,-1.25,-1
13.621,0.24,0.99,-0.32,1.16,0.01,0.58,0.16,-1.25,-1
13.627,0.24,0.99,-0.32,1.16,0.01,0.58,0.16,-1.25,-1
13.662,-0.19,1,-0.25,1.16,0.01,0.58,0.16,-1.25,-1
13.665,-0.19,1,-0.25,1.16,0.01,0.58,0.15,-0.41,-1.32
13.666,-0.19,1,-0.25,1.66,0.02,0.63,0.15,-0.41,-1.32
13.668,-0.28,0.93,-0.3,1.66,0.02,0.63,0.15,-0.41,-1.32
13.677,-0.11,0.95,-0.36,1.66,0.02,0.63,0.15,-0.41,-1.32
13.679,-0.11,0.95,-0.36,1.66,0.02,0.63,0.19,-0.11,-1.53
13.68,-0.11,0.95,-0.36,-0.2,0.47,0.53,0.19,-0.11,-1.53
13.686,-0.11,0.95,-0.36,-0.2,0.47,0.53,0.19,-0.11,-1.53
13.696,-0.11,1.03,-0.37,-0.2,0.47,0.53,0.19,-0.11,-1.53
13.717,-0.11,1.03,-0.37,-0.58,0.78,-0.18,0.19,-0.11,-1.53
13.718,-0.28,1.02,-0.36,-0.58,0.78,-0.18,0.19,-0.11,-1.53
13.719,-0.28,1.02,-0.36,-0.58,0.78,-0.18,0.22,-0.54,-1.2
13.737,-0.33,0.99,-0.39,-0.58,0.78,-0.18,0.22,-0.54,-1.2
13.746,-0.33,0.99,-0.39,-0.58,0.78,-0.18,0.22,-0.54,-1.2
13.756,-0.16,1.05,-0.41,-0.58,0.78,-0.18,0.22,-0.54,-1.2
13.759,-0.16,1.05,-0.41,-0.58,0.78,-0.18,0.16,-0.71,-1.02
13.76,-0.16,1.05,-0.41,-0.12,0.84,-0.16,0.16,-0.71,-1.02
13.776,0.03,1.15,-0.25,-0.12,0.84,-0.16,0.16,-0.71,-1.02
13.797,0.17,1.12,-0.14,-0.12,0.84,-0.16,0.16,-0.71,-1.02
13.8,0.17,1.12,-0.14,-0.12,0.84,-0.16,0.13,-1.11,-0.88
13.803,0.17,1.12,-0.14,0.46,1.49,-0.03,0.13,-1.11,-0.88
13.825,0.17,1.12,-0.14,0.46,1.49,-0.03,0.13,-1.11,-0.88
13.828,0.25,1.04,-0.19,0.46,1.49,-0.03,0.13,-1.11,-0.88
13.859,0.19,1.16,-0.31,0.46,1.49,-0.03,0.13,-1.11,-0.88
13.86,0.19,1.16,-0.31,0.46,1.49,-0.03,0.13,-1.01,-1.43
13.861,0.19,1.16,-0.31,4.52,2.04,1.23,0.13,-1.01,-1.43
13.862,0.14,1.35,-0.35,4.52,2.04,1.23,0.13,-1.01,-1.43
13.865,0.14,1.35,-0.35,4.52,2.04,1.23,0.13,-1.01,-1.43
13.874,0.08,1.36,-0.27,4.52,2.04,1.23,0.13,-1.01,-1.43
13.876,0.08,1.36,-0.27,4.52,2.04,1.23,0.06,-0.82,-2.3
13.876,0.08,1.36,-0.27,5.33,2.28,1.13,0.06,-0.82,-2.3
13.894,-0.05,1.34,-0.35,5.33,2.28,1.13,0.06,-0.82,-2.3
13.916,-0.07,1.76,-0.47,5.33,2.28,1.13,0.06,-0.82,-2.3
13.919,-0.07,1.76,-0.47,5.33,2.28,1.13,-0.04,-1.31,-2.79
13.92,-0.07,1.76,-0.47,4.89,5.01,-0.16,-0.04,-1.31,-2.79
13.925,-0.07,1.76,-0.47,4.89,5.01,-0.16,-0.04,-1.31,-2.79
13.935,0.33,1.93,-0.39,4.89,5.01,-0.16,-0.04,-1.31,-2.79
13.953,1.08,1.54,-0.58,4.89,5.01,-0.16,-0.04,-1.31,-2.79
13.957,1.08,1.54,-0.58,4.89,5.01,-0.16,-0.11,-2.83,-2.51
13.959,1.08,1.54,-0.58,9.66,9.18,-2.24,-0.11,-2.83,-2.51
13.973,1.13,1.63,-0.61,9.66,9.18,-2.24,-0.11,-2.83,-2.51
13.988,1.13,1.63,-0.61,9.66,9.18,-2.24,-0.11,-2.83,-2.51
13.994,-0.03,1.73,-0.28,9.66,9.18,-2.24,-0.11,-2.83,-2.51
13.996,-0.03,1.73,-0.28,9.66,9.18,-2.24,-0.15,-2.47,-2.37
13.998,-0.03,1.73,-0.28,10.41,9.55,-2.8,-0.15,-2.47,-2.37
14.018,-1.09,1.27,-0.26,10.41,9.55,-2.8,-0.15,-2.47,-2.37
14.033,-1.09,1.27,-0.26,6.86,8.33,-1.69,-0.15,-2.47,-2.37
14.035,-0.86,0.85,-0.43,6.86,8.33,-1.69,-0.15,-2.47,-2.37
14.036,-0.86,0.85,-0.43,6.86,8.33,-1.69,0.06,0.35,-3.4
14.051,-0.86,0.85,-0.43,6.86,8.33,-1.69,0.06,0.35,-3.4
14.058,-0.47,0.49,-0.3,6.86,8.33,-1.69,0.06,0.35,-3.4
14.073,-0.66,0.21,-0.25,6.86,8.33,-1.69,0.06,0.35,-3.4
14.076,-0.66,0.21,-0.25,6.86,8.33,-1.69,0.45,0.12,-1.41
14.078,-0.66,0.21,-0.25,0.69,-1.31,-0.96,0.45,0.12,-1.41
14.092,-0.62,0.31,0.03,0.69,-1.31,-0.96,0.45,0.12,-1.41
14.118,-0.62,0.31,0.03,0.69,-1.31,-0.96,0.45,0.12,-1.41
14.12,-0.18,0.32,0.33,0.69,-1.31,-0.96,0.45,0.12,-1.41
14.121,-0.18,0.32,0.33,0.69,-1.31,-0.96,0.18,-1.13,0.34
14.121,-0.18,0.32,0.33,0.69,-1.36,-1.22,0.18,-1.13,0.34
14.131,0.29,0.25,0.03,0.69,-1.36,-1.22,0.18,-1.13,0.34
14.159,0.37,0.24,0,0.69,-1.36,-1.22,0.18,-1.13,0.34
14.162,0.37,0.24,0,0.69,-1.36,-1.22,0.03,-0.73,2.17
14.163,0.37,0.24,0,4.9,-4.08,2.99,0.03,-0.73,2.17
14.165,0.37,0.24,0,4.9,-4.08,2.99,0.03,-0.73,2.17
14.171,-0.14,0.33,-0.12,4.9,-4.08,2.99,0.03,-0.73,2.17
14.19,-0.69,0.46,-0.14,4.9,-4.08,2.99,0.03,-0.73,2.17
14.192,-0.69,0.46,-0.14,4.9,-4.08,2.99,0.09,1.89,2.78
14.194,-0.69,0.46,-0.14,4.07,-4.17,1.35,0.09,1.89,2.78
14.221,-0.83,0.49,-0.07,4.07,-4.17,1.35,0.09,1.89,2.78
14.226,-0.83,0.49,-0.07,4.07,-4.17,1.35,0.09,1.89,2.78
14.231,-0.5,0.45,0.01,4.07,-4.17,1.35,0.09,1.89,2.78
14.232,-0.5,0.45,0.01,4.07,-4.17,1.35,-0.16,2.26,3.65
14.233,-0.5,0.45,0.01,2.67,-4.81,1.71,-0.16,2.26,3.65
14.249,-0.24,0.48,-0.01,2.67,-4.81,1.71,-0.16,2.26,3.65
14.27,-0.3,0.65,-0.07,2.67,-4.81,1.71,-0.16,2.26,3.65
14.273,-0.3,0.65,-0.07,2.67,-4.81,1.71,-0.39,0.93,5.06
14.275,-0.3,0.65,-0.07,-2.71,-4.17,2.23,-0.39,0.93,5.06
14.287,-0.3,0.65,-0.07,-2.71,-4.17,2.23,-0.39,0.93,5.06
14.289,-0.52,0.88,-0.09,-2.71,-4.17,2.23,-0.39,0.93,5.06
14.31,-0.65,1.05,-0.16,-2.71,-4.17,2.23,-0.39,0.93,5.06
14.313,-0.65,1.05,-0.16,-4.37,-0.71,1.27,-0.39,0.93,5.06
14.315,-0.65,1.05,-0.16,-4.37,-0.71,1.27,-0.54,0.75,5.5
14.337,-0.69,1.33,-0.35,-4.37,-0.71,1.27,-0.54,0.75,5.5
14.391,-0.69,1.33,-0.35,-4.37,-0.71,1.27,-0.54,0.75,5.5
14.396,-0.89,1.86,-0.48,-4.37,-0.71,1.27,-0.54,0.75,5.5
14.398,-0.89,1.86,-0.48,-4.37,-0.71,1.27,-0.39,1.02,5.65
14.4,-0.89,1.86,-0.48,-6.39,-0.6,1.08,-0.39,1.02,5.65
14.402,-1.14,1.78,-0.35,-6.39,-0.6,1.08,-0.39,1.02,5.65
14.404,-1.29,1.53,-0.45,-6.39,-0.6,1.08,-0.39,1.02,5.65
14.406,-1.29,1.53,-0.45,-6.39,-0.6,1.08,-0.1,1.43,4.66
14.408,-1.29,1.53,-0.45,-11.99,7.53,-1.87,-0.1,1.43,4.66
14.41,-1.29,1.53,-0.45,-11.99,7.53,-1.87,-0.1,1.43,4.66
14.412,-0.88,1.45,-0.31,-11.99,7.53,-1.87,-0.1,1.43,4.66
14.437,-0.37,1.35,-0.31,-11.99,7.53,-1.87,-0.1,1.43,4.66
14.44,-0.37,1.35,-0.31,-11.99,7.53,-1.87,0.08,0.38,2.38
14.442,-0.37,1.35,-0.31,-12.06,5.68,-1.49,0.08,0.38,2.38
14.447,-0.54,1.18,-0.56,-12.06,5.68,-1.49,0.08,0.38,2.38
14.464,-0.54,1.18,-0.56,-12.06,5.68,-1.49,0.08,0.38,2.38
14.466,0.29,1.33,-0.06,-12.06,5.68,-1.49,0.08,0.38,2.38
14.469,0.29,1.33,-0.06,-12.06,5.68,-1.49,0.26,0.53,-0.4
14.47,0.29,1.33,-0.06,-11.77,5.55,-1.45,0.26,0.53,-0.4
14.486,2.72,2.63,-0.3,-11.77,5.55,-1.45,0.26,0.53,-0.4
14.526,0.76,1.75,-0.16,-11.77,5.55,-1.45,0.26,0.53,-0.4
14.531,0.76,1.75,-0.16,-11.77,5.55,-1.45,1.06,1.59,-0.76
14.532,0.76,1.75,-0.16,4.64,8.04,-0.84,1.06,1.59,-0.76
14.533,0.76,1.75,-0.16,4.64,8.04,-0.84,1.06,1.59,-0.76
14.534,-3.34,-0.14,-0.07,4.64,8.04,-0.84,1.06,1.59,-0.76
14.565,-1.86,-0.23,-0.89,4.64,8.04,-0.84,1.06,1.59,-0.76
14.57,-1.86,-0.23,-0.89,4.64,8.04,-0.84,1.31,2.69,-3.9
14.572,-1.86,-0.23,-0.89,-16.49,-4.49,-1.26,1.31,2.69,-3.9
14.574,1.1,0.96,-1.11,-16.49,-4.49,-1.26,1.31,2.69,-3.9
14.588,1.1,0.96,-1.11,-16.49,-4.49,-1.26,1.31,2.69,-3.9
14.59,1.84,1.66,-1.01,-16.49,-4.49,-1.26,1.31,2.69,-3.9
14.591,1.84,1.66,-1.01,-16.49,-4.49,-1.26,1.1,-1.74,0.57
14.592,1.84,1.66,-1.01,-16.23,-4.27,-0.73,1.1,-1.74,0.57
14.607,0.16,1.18,0.52,-16.23,-4.27,-0.73,1.1,-1.74,0.57
14.64,-0.17,0.5,-0.34,-16.23,-4.27,-0.73,1.1,-1.74,0.57
14.645,-0.17,0.5,-0.34,-16.23,-4.27,-0.73,-0.01,-1.76,-0.31
14.647,-0.17,0.5,-0.34,8.59,3.57,-2.22,-0.01,-1.76,-0.31
14.649,-0.17,0.5,-0.34,8.59,3.57,-2.22,-0.01,-1.76,-0.31
14.651,0.64,0.81,-0.41,8.59,3.57,-2.22,-0.01,-1.76,-0.31
14.69,0.29,1.14,-0.55,8.59,3.57,-2.22,-0.01,-1.76,-0.31
14.693,0.29,1.14,-0.55,8.59,3.57,-2.22,0.24,-0.08,-1.17
14.694,0.29,1.14,-0.55,1.33,-0.86,-1.09,0.24,-0.08,-1.17
14.694,-0.33,0.98,-0.35,1.33,-0.86,-1.09,0.24,-0.08,-1.17
14.704,-0.33,0.98,-0.35,1.33,-0.86,-1.09,0.24,-0.08,-1.17
14.706,-0.09,0.85,-0.17,1.33,-0.86,-1.09,0.24,-0.08,-1.17
14.706,-0.09,0.85,-0.17,1.33,-0.86,-1.09,0.1,-0.79,-1.19
14.707,-0.09,0.85,-0.17,1.82,-0.87,-1.01,0.1,-0.79,-1.19
14.729,0.42,0.98,-0.27,1.82,-0.87,-1.01,0.1,-0.79,-1.19
14.763,0.39,1.03,-0.32,1.82,-0.87,-1.01,0.1,-0.79,-1.19
14.768,0.39,1.03,-0.32,1.82,-0.87,-1.01,0.07,-1.25,-0.89
14.77,0.39,1.03,-0.32,-0.19,0.28,0.66,0.07,-1.25,-0.89
14.771,0.02,0.92,-0.34,-0.19,0.28,0.66,0.07,-1.25,-0.89
14.771,0.02,0.92,-0.34,-0.19,0.28,0.66,0.07,-1.25,-0.89
14.783,-0.17,0.89,-0.27,-0.19,0.28,0.66,0.07,-1.25,-0.89
14.786,-0.17,0.89,-0.27,-0.19,0.28,0.66,0.13,-0.5,-1.23
14.788,-0.17,0.89,-0.27,1.07,0.42,0.28,0.13,-0.5,-1.23
14.811,-0.09,0.99,-0.34,1.07,0.42,0.28,0.13,-0.5,-1.23
14.838,-0.03,1.04,-0.36,1.07,0.42,0.28,0.13,-0.5,-1.23
14.84,-0.03,1.04,-0.36,1.07,0.42,0.28,0.15,-0.53,-1.25
14.84,-0.03,1.04,-0.36,1.55,0.46,0.32,0.15,-0.53,-1.25
14.841,-0.03,1.04,-0.36,1.55,0.46,0.32,0.15,-0.53,-1.25
14.842,-0.12,1,-0.36,1.55,0.46,0.32,0.15,-0.53,-1.25
14.862,-0.2,0.98,-0.35,1.55,0.46,0.32,0.15,-0.53,-1.25
14.863,-0.2,0.98,-0.35,1.55,0.46,0.32,0.13,-0.75,-1.08
14.864,-0.2,0.98,-0.35,0.45,1.08,-0.12,0.13,-0.75,-1.08
14.882,-0.13,0.99,-0.35,0.45,1.08,-0.12,0.13,-0.75,-1.08
14.883,-0.13,0.99,-0.35,0.45,1.08,-0.12,0.13,-0.75,-1.08
14.902,0.04,1.04,-0.38,0.45,1.08,-0.12,0.13,-0.75,-1.08
14.905,0.04,1.04,-0.38,0.45,1.08,-0.12,0.05,-0.9,-1
14.907,0.04,1.04,-0.38,0.72,1.1,-0.22,0.05,-0.9,-1
14.933,0.1,1.04,-0.3,0.72,1.1,-0.22,0.05,-0.9,-1
14.959,0.16,1.02,-0.3,0.72,1.1,-0.22,0.05,-0.9,-1
14.963,0.16,1.02,-0.3,0.72,1.1,-0.22,0.01,-1.03,-1.12
14.965,0.16,1.02,-0.3,0.72,1.1,-0.22,0.01,-1.03,-1.12
14.966,0.16,1.02,-0.3,1.22,1.16,-0.29,0.01,-1.03,-1.12
14.967,0.12,1.13,-0.3,1.22,1.16,-0.29,0.01,-1.03,-1.12
14.981,-0.01,1.22,-0.3,1.22,1.16,-0.29,0.01,-1.03,-1.12
14.982,-0.01,1.22,-0.3,1.22,1.16,-0.29,-0.01,-0.86,-1.65
14.983,-0.01,1.22,-0.3,4.06,1.88,0.22,-0.01,-0.86,-1.65
15.001,0.01,1.23,-0.28,4.06,1.88,0.22,-0.01,-0.86,-1.65
15.016,0.01,1.23,-0.28,4.06,1.88,0.22,-0.01,-0.86,-1.65
15.022,0.02,1.23,-0.21,4.06,1.88,0.22,-0.01,-0.86,-1.65
15.025,0.02,1.23,-0.21,4.06,1.88,0.22,-0.06,-1,-2.2
15.027,0.02,1.23,-0.21,3.62,3.68,0.41,-0.06,-1,-2.2
15.051,-0.09,1.28,-0.23,3.62,3.68,0.41,-0.06,-1,-2.2
15.06,-0.06,1.6,-0.4,3.62,3.68,0.41,-0.06,-1,-2.2
15.063,-0.06,1.6,-0.4,3.62,3.68,0.41,-0.14,-1.63,-2.55
15.065,-0.06,1.6,-0.4,4.54,4.01,0.1,-0.14,-1.63,-2.55
15.066,-0.06,1.6,-0.4,4.54,4.01,0.1,-0.14,-1.63,-2.55
15.079,0.49,2.14,-0.28,4.54,4.01,0.1,-0.14,-1.63,-2.55
15.099,1.23,1.67,-0.34,4.54,4.01,0.1,-0.14,-1.63,-2.55
15.1,1.23,1.67,-0.34,4.54,4.01,0.1,-0.28,-3.01,-2.44
15.102,1.23,1.67,-0.34,6.53,8.72,-0.93,-0.28,-3.01,-2.44
15.119,1.22,1.54,-0.73,6.53,8.72,-0.93,-0.28,-3.01,-2.44
15.123,1.22,1.54,-0.73,6.53,8.72,-0.93,-0.28,-3.01,-2.44
15.14,0.15,1.79,-0.61,6.53,8.72,-0.93,-0.28,-3.01,-2.44
15.142,0.15,1.79,-0.61,6.53,8.72,-0.93,-0.33,-1.78,-2.57
15.143,0.15,1.79,-0.61,14.55,9.02,-3.91,-0.33,-1.78,-2.57
15.159,-1.04,1.38,-0.4,14.55,9.02,-3.91,-0.33,-1.78,-2.57
15.179,-0.92,0.84,-0.69,14.55,9.02,-3.91,-0.33,-1.78,-2.57
15.183,-0.92,0.84,-0.69,14.55,9.02,-3.91,-0.29,1.53,-3.79
15.185,-0.92,0.84,-0.69,15.21,9.82,-3.52,-0.29,1.53,-3.79
15.188,-0.92,0.84,-0.69,15.21,9.82,-3.52,-0.29,1.53,-3.79
15.199,-0.51,0.57,-0.42,15.21,9.82,-3.52,-0.29,1.53,-3.79
15.229,-0.58,0.25,-0.4,15.21,9.82,-3.52,-0.29,1.53,-3.79
15.232,-0.58,0.25,-0.4,15.21,9.82,-3.52,-0.14,1.76,-1.97
15.233,-0.58,0.25,-0.4,-0.98,3.1,-2.48,-0.14,1.76,-1.97
15.269,-0.74,0.2,-0.5,-0.98,3.1,-2.48,-0.14,1.76,-1.97
15.271,-0.74,0.2,-0.5,-0.98,3.1,-2.48,-0.14,1.76,-1.97
15.273,-0.41,0.24,0.1,-0.98,3.1,-2.48,-0.14,1.76,-1.97
15.274,-0.41,0.24,0.1,-0.98,3.1,-2.48,-0.54,0.13,-0.22
15.276,-0.41,0.24,0.1,1.44,-3.69,-0.27,-0.54,0.13,-0.22
15.277,-0.04,0.18,0.08,1.44,-3.69,-0.27,-0.54,0.13,-0.22
15.296,0.18,0.14,-0.22,1.44,-3.69,-0.27,-0.54,0.13,-0.22
15.297,0.18,0.14,-0.22,1.44,-3.69,-0.27,-0.93,-0.9,1.69
15.298,0.18,0.14,-0.22,1.09,-4.16,-0.73,-0.93,-0.9,1.69
15.302,0.18,0.14,-0.22,1.09,-4.16,-0.73,-0.93,-0.9,1.69
15.316,0.03,0.24,-0.14,1.09,-4.16,-0.73,-0.93,-0.9,1.69
15.339,-0.38,0.38,-0.23,1.09,-4.16,-0.73,-0.93,-0.9,1.69
15.341,-0.38,0.38,-0.23,1.09,-4.16,-0.73,-0.85,1.06,2.69
15.342,-0.38,0.38,-0.23,6.4,-5.24,1.04,-0.85,1.06,2.69
15.356,-0.65,0.39,-0.23,6.4,-5.24,1.04,-0.85,1.06,2.69
15.363,-0.65,0.39,-0.23,6.4,-5.24,1.04,-0.85,1.06,2.69
15.376,-0.65,0.39,-0.23,-0.48,-4.15,0.17,-0.85,1.06,2.69
15.379,-0.55,0.33,-0.15,-0.48,-4.15,0.17,-0.85,1.06,2.69
15.38,-0.55,0.33,-0.15,-0.48,-4.15,0.17,-0.84,2.28,3.28
15.397,-0.33,0.39,-0.2,-0.48,-4.15,0.17,-0.84,2.28,3.28
15.425,-0.36,0.56,-0.28,-0.48,-4.15,0.17,-0.84,2.28,3.28
15.429,-0.36,0.56,-0.28,-0.48,-4.15,0.17,-0.77,1.85,4.57
15.431,-0.36,0.56,-0.28,-2.07,-4.83,0.21,-0.77,1.85,4.57
15.432,-0.36,0.56,-0.28,-2.07,-4.83,0.21,-0.77,1.85,4.57
15.436,-0.55,0.76,-0.24,-2.07,-4.83,0.21,-0.77,1.85,4.57
15.465,-0.6,0.95,-0.26,-2.07,-4.83,0.21,-0.77,1.85,4.57
15.468,-0.6,0.95,-0.26,-2.07,-4.83,0.21,-0.73,1.38,5.27
15.469,-0.6,0.95,-0.26,-2.84,-3.29,-0.29,-0.73,1.38,5.27
15.475,-0.64,1.24,-0.59,-2.84,-3.29,-0.29,-0.73,1.38,5.27
15.482,-0.64,1.24,-0.59,-2.84,-3.29,-0.29,-0.73,1.38,5.27
15.494,-1.01,1.65,-0.76,-2.84,-3.29,-0.29,-0.73,1.38,5.27
15.497,-1.01,1.65,-0.76,-2.84,-3.29,-0.29,-0.47,0.9,5.69
15.498,-1.01,1.65,-0.76,-8.11,3.55,-3.28,-0.47,0.9,5.69
15.514,-1.09,1.66,-0.38,-8.11,3.55,-3.28,-0.47,0.9,5.69
15.544,-0.72,1.69,-0.35,-8.11,3.55,-3.28,-0.47,0.9,5.69
15.548,-0.72,1.69,-0.35,-8.11,3.55,-3.28,-0.13,-0.09,5.49
15.55,-0.72,1.69,-0.35,-9.85,3.84,-3.26,-0.13,-0.09,5.49
15.552,-0.72,1.69,-0.35,-9.85,3.84,-3.26,-0.13,-0.09,5.49
15.561,-0.56,1.69,-0.35,-9.85,3.84,-3.26,-0.13,-0.09,5.49
15.579,-0.65,1.36,-0.22,-9.85,3.84,-3.26,-0.13,-0.09,5.49
15.581,-0.65,1.36,-0.22,-9.85,3.84,-3.26,0.23,-0.41,3.42
15.582,-0.65,1.36,-0.22,-11.16,8.06,-1.4,0.23,-0.41,3.42
15.593,-0.92,1.16,-0.05,-11.16,8.06,-1.4,0.23,-0.41,3.42
15.601,-0.92,1.16,-0.05,-11.16,8.06,-1.4,0.23,-0.41,3.42
15.613,-0.85,1.05,-0.45,-11.16,8.06,-1.4,0.23,-0.41,3.42
15.615,-0.85,1.05,-0.45,-11.16,8.06,-1.4,0.32,0.68,-0.02
15.616,-0.85,1.05,-0.45,-11.18,3.25,-0.19,0.32,0.68,-0.02
15.634,1.03,1.4,-0.24,-11.18,3.25,-0.19,0.32,0.68,-0.02
15.654,1.03,1.4,-0.24,-10.81,3.19,0.05,0.32,0.68,-0.02
15.657,3.49,2.68,-0.13,-10.81,3.19,0.05,0.32,0.68,-0.02
15.659,3.49,2.68,-0.13,-10.81,3.19,0.05,0.75,0.08,-0.56
15.662,3.49,2.68,-0.13,-10.81,3.19,0.05,0.75,0.08,-0.56
15.673,-0.03,1.34,-0.26,-10.81,3.19,0.05,0.75,0.08,-0.56
15.694,-0.03,1.34,-0.26,12.23,8.89,0.39,0.75,0.08,-0.56
15.697,-4.2,-0.17,-0.34,12.23,8.89,0.39,0.75,0.08,-0.56
15.698,-4.2,-0.17,-0.34,12.23,8.89,0.39,1.2,3.61,-2.97
15.714,-1.56,-0.08,-0.6,12.23,8.89,0.39,1.2,3.61,-2.97
15.744,-1.56,-0.08,-0.6,12.23,8.89,0.39,1.2,3.61,-2.97
15.748,1.44,1.08,-1.38,12.23,8.89,0.39,1.2,3.61,-2.97
15.75,1.44,1.08,-1.38,12.23,8.89,0.39,1.24,-0.25,-1.78
15.752,1.44,1.08,-1.38,-15.67,-6.05,-4.6,1.24,-0.25,-1.78
15.753,1.82,1.77,-0.5,-15.67,-6.05,-4.6,1.24,-0.25,-1.78
15.781,0.09,0.97,0.19,-15.67,-6.05,-4.6,1.24,-0.25,-1.78
15.784,0.09,0.97,0.19,-15.67,-6.05,-4.6,0.29,-2.2,1.25
15.785,0.09,0.97,0.19,-15.56,-5.84,-4.29,0.29,-2.2,1.25
15.787,0.09,0.97,0.19,-15.56,-5.84,-4.29,0.29,-2.2,1.25
15.791,0.06,0.4,-0.51,-15.56,-5.84,-4.29,0.29,-2.2,1.25
15.811,0.65,0.89,-0.48,-15.56,-5.84,-4.29,0.29,-2.2,1.25
15.814,0.65,0.89,-0.48,-15.56,-5.84,-4.29,0.09,-0.32,-1.17
15.816,0.65,0.89,-0.48,5.35,1.64,0.62,0.09,-0.32,-1.17
15.843,0.06,1.16,-0.46,5.35,1.64,0.62,0.09,-0.32,-1.17
15.847,0.06,1.16,-0.46,5.35,1.64,0.62,0.09,-0.32,-1.17
15.85,-0.37,0.95,-0.18,5.35,1.64,0.62,0.09,-0.32,-1.17
15.852,-0.37,0.95,-0.18,5.35,1.64,0.62,0.08,-0.51,-1.24
15.853,-0.37,0.95,-0.18,0.51,1.14,-0.31,0.08,-0.51,-1.24
15.88,0.13,0.87,-0.17,0.51,1.14,-0.31,0.08,-0.51,-1.24
15.89,0.44,0.96,-0.31,0.51,1.14,-0.31,0.08,-0.51,-1.24
15.894,0.44,0.96,-0.31,0.51,1.14,-0.31,0.02,-1.27,-0.91
15.895,0.44,0.96,-0.31,0.97,1.11,-0.28,0.02,-1.27,-0.91
15.901,0.44,0.96,-0.31,0.97,1.11,-0.28,0.02,-1.27,-0.91
15.91,0.3,0.96,-0.36,0.97,1.11,-0.28,0.02,-1.27,-0.91
15.931,0.06,0.9,-0.33,0.97,1.11,-0.28,0.02,-1.27,-0.91
15.933,0.06,0.9,-0.33,0.97,1.11,-0.28,0.12,-0.63,-1.04
15.934,0.06,0.9,-0.33,3.11,0.42,0.67,0.12,-0.63,-1.04
15.965,-0.13,0.93,-0.24,3.11,0.42,0.67,0.12,-0.63,-1.04
15.966,-0.13,0.93,-0.24,3.11,0.42,0.67,0.12,-0.63,-1.04
15.968,-0.09,1,-0.31,3.11,0.42,0.67,0.12,-0.63,-1.04
15.969,-0.09,1,-0.31,3.11,0.42,0.67,0.15,-0.26,-1.3
15.969,-0.09,1,-0.31,0.21,0.59,0.56,0.15,-0.26,-1.3
15.988,0,0.97,-0.31,0.21,0.59,0.56,0.15,-0.26,-1.3
16.008,-0.06,0.96,-0.38,0.21,0.59,0.56,0.15,-0.26,-1.3
16.009,-0.06,0.96,-0.38,0.21,0.59,0.56,0.2,-0.48,-1.19
16.01,-0.06,0.96,-0.38,0.67,0.65,0.6,0.2,-0.48,-1.19
16.02,-0.06,0.96,-0.38,0.67,0.65,0.6,0.2,-0.48,-1.19
16.043,-0.18,1,-0.45,0.67,0.65,0.6,0.2,-0.48,-1.19
16.05,-0.18,1,-0.45,0.83,1.06,-0.22,0.2,-0.48,-1.19
16.052,-0.18,1.02,-0.4,0.83,1.06,-0.22,0.2,-0.48,-1.19
16.053,-0.18,1.02,-0.4,0.83,1.06,-0.22,0.14,-0.53,-1.17
16.067,-0.06,1,-0.45,0.83,1.06,-0.22,0.14,-0.53,-1.17
16.08,-0.06,1,-0.45,0.83,1.06,-0.22,0.14,-0.53,-1.17
16.086,0.04,1.03,-0.35,0.83,1.06,-0.22,0.14,-0.53,-1.17
16.087,0.04,1.03,-0.35,0.83,1.06,-0.22,0.05,-0.82,-1.08
16.088,0.04,1.03,-0.35,1.43,1.49,-0.45,0.05,-0.82,-1.08
16.14,0.06,1.06,-0.29,1.43,1.49,-0.45,0.05,-0.82,-1.08
16.147,0.06,1.06,-0.29,1.98,1.58,-0.54,0.05,-0.82,-1.08
16.148,0.13,1.18,-0.29,1.98,1.58,-0.54,0.05,-0.82,-1.08
16.149,0.13,1.18,-0.29,1.98,1.58,-0.54,0,-1.08,-1.33
16.152,0.13,1.18,-0.29,1.98,1.58,-0.54,0,-1.08,-1.33
16.153,0.13,1.32,-0.31,1.98,1.58,-0.54,0,-1.08,-1.33
16.165,0.02,1.32,-0.25,1.98,1.58,-0.54,0,-1.08,-1.33
16.166,0.02,1.32,-0.25,1.98,1.58,-0.54,-0.13,-0.92,-1.93
16.167,0.02,1.32,-0.25,4.38,3.42,0.32,-0.13,-0.92,-1.93
16.185,-0.08,1.22,-0.25,4.38,3.42,0.32,-0.13,-0.92,-1.93
16.199,-0.08,1.22,-0.25,4.38,3.42,0.32,-0.13,-0.92,-1.93
16.212,-0.14,1.35,-0.38,4.38,3.42,0.32,-0.13,-0.92,-1.93
16.214,-0.14,1.35,-0.38,4.38,3.42,0.32,-0.24,-0.93,-2.45
16.215,-0.14,1.35,-0.38,3.48,4.76,0.11,-0.24,-0.93,-2.45
16.239,-0.05,1.81,-0.37,3.48,4.76,0.11,-0.24,-0.93,-2.45
16.244,0.52,1.7,-0.27,3.48,4.76,0.11,-0.24,-0.93,-2.45
16.245,0.52,1.7,-0.27,3.48,4.76,0.11,-0.36,-2.02,-2.46
16.246,0.52,1.7,-0.27,4.38,5.08,-0.37,-0.36,-2.02,-2.46
16.26,0.52,1.7,-0.27,4.38,5.08,-0.37,-0.36,-2.02,-2.46
16.264,1.21,1.51,-0.53,4.38,5.08,-0.37,-0.36,-2.02,-2.46
16.285,1.09,1.64,-0.7,4.38,5.08,-0.37,-0.36,-2.02,-2.46
16.287,1.09,1.64,-0.7,11.2,9.07,-1.97,-0.36,-2.02,-2.46
16.288,1.09,1.64,-0.7,11.2,9.07,-1.97,-0.28,-2.93,-2.13
16.304,0.08,1.55,-0.52,11.2,9.07,-1.97,-0.28,-2.93,-2.13
16.33,0.08,1.55,-0.52,11.2,9.07,-1.97,-0.28,-2.93,-2.13
16.333,-1.02,1.25,-0.32,11.2,9.07,-1.97,-0.28,-2.93,-2.13
16.334,-1.02,1.25,-0.32,11.2,9.07,-1.97,-0.26,-0.54,-3.13
16.334,-1.02,1.25,-0.32,6.99,7.79,-3.31,-0.26,-0.54,-3.13
16.363,-0.8,1,-0.48,6.99,7.79,-3.31,-0.26,-0.54,-3.13
16.366,-0.8,1,-0.48,7.55,8.46,-3.05,-0.26,-0.54,-3.13
16.368,-0.34,0.76,-0.36,7.55,8.46,-3.05,-0.26,-0.54,-3.13
16.37,-0.34,0.76,-0.36,7.55,8.46,-3.05,0.02,0.76,-2.97
16.38,-0.34,0.76,-0.36,7.55,8.46,-3.05,0.02,0.76,-2.97
16.385,-0.46,0.39,-0.38,7.55,8.46,-3.05,0.02,0.76,-2.97
16.403,-0.65,0.28,-0.28,7.55,8.46,-3.05,0.02,0.76,-2.97
16.405,-0.65,0.28,-0.28,7.55,8.46,-3.05,0.08,0.38,-1.2
16.406,-0.65,0.28,-0.28,2.06,1.31,-1.84,0.08,0.38,-1.2
16.423,-0.39,0.31,0.24,2.06,1.31,-1.84,0.08,0.38,-1.2
16.463,-0.39,0.31,0.24,2.06,1.31,-1.84,0.08,0.38,-1.2
16.465,-0.1,0.29,0.07,2.06,1.31,-1.84,0.08,0.38,-1.2
16.466,-0.1,0.29,0.07,2.06,1.31,-1.84,-0.39,-0.27,0.48
16.467,-0.1,0.29,0.07,3.41,-2.99,2.03,-0.39,-0.27,0.48
16.468,0.09,0.24,-0.03,3.41,-2.99,2.03,-0.39,-0.27,0.48
16.482,-0.09,0.29,-0.1,3.41,-2.99,2.03,-0.39,-0.27,0.48
16.483,-0.09,0.29,-0.1,3.41,-2.99,2.03,-0.4,0.55,2.33
16.483,-0.09,0.29,-0.1,2.76,-3.59,2.04,-0.4,0.55,2.33
16.5,-0.09,0.29,-0.1,2.76,-3.59,2.04,-0.4,0.55,2.33
16.503,-0.51,0.42,-0.13,2.76,-3.59,2.04,-0.4,0.55,2.33
16.543,-0.67,0.51,-0.01,2.76,-3.59,2.04,-0.4,0.55,2.33
16.548,-0.67,0.51,-0.01,2.76,-3.59,2.04,-0.42,1.95,3.16
16.55,-0.67,0.51,-0.01,3.7,-4.07,1.42,-0.42,1.95,3.16
16.552,-0.52,0.53,0.01,3.7,-4.07,1.42,-0.42,1.95,3.16
16.583,-0.52,0.53,0.01,3.7,-4.07,1.42,-0.42,1.95,3.16
16.588,-0.42,0.55,0.01,3.7,-4.07,1.42,-0.42,1.95,3.16
16.59,-0.42,0.55,0.01,3.7,-4.07,1.42,-0.49,1.48,4.26
16.591,-0.42,0.55,0.01,-1.25,-2.79,2.37,-0.49,1.48,4.26
16.592,-0.44,0.67,0.03,-1.25,-2.79,2.37,-0.49,1.48,4.26
16.604,-0.53,0.79,-0.01,-1.25,-2.79,2.37,-0.49,1.48,4.26
16.609,-0.53,0.79,-0.01,-1.25,-2.79,2.37,-0.46,0.63,5.06
16.612,-0.53,0.79,-0.01,-2.93,-3.4,2.27,-0.46,0.63,5.06
16.619,-0.53,0.79,-0.01,-2.93,-3.4,2.27,-0.46,0.63,5.06
16.62,-0.63,0.81,-0.07,-2.93,-3.4,2.27,-0.46,0.63,5.06
16.662,-0.62,0.97,-0.22,-2.93,-3.4,2.27,-0.46,0.63,5.06
16.668,-0.62,0.97,-0.22,-2.93,-3.4,2.27,-0.44,0.48,5.25
16.67,-0.62,0.97,-0.22,-4.65,-1.45,1.94,-0.44,0.48,5.25
16.672,-0.65,1.49,-0.25,-4.65,-1.45,1.94,-0.44,0.48,5.25
16.708,-0.65,1.49,-0.25,-4.65,-1.45,1.94,-0.44,0.48,5.25
16.709,-1.01,1.7,-0.33,-4.65,-1.45,1.94,-0.44,0.48,5.25
16.71,-1.01,1.7,-0.33,-4.65,-1.45,1.94,-0.39,1.51,5
16.713,-1.01,1.7,-0.33,-8.63,4.68,-0.68,-0.39,1.51,5
16.715,-1.48,1.47,-0.43,-8.63,4.68,-0.68,-0.39,1.51,5
16.719,-1.33,1.41,-0.45,-8.63,4.68,-0.68,-0.39,1.51,5
16.721,-1.33,1.41,-0.45,-8.63,4.68,-0.68,-0.31,2.02,3.68
16.723,-1.33,1.41,-0.45,-9.89,4.85,-0.93,-0.31,2.02,3.68
16.739,-1.33,1.41,-0.45,-9.89,4.85,-0.93,-0.31,2.02,3.68
16.74,-0.71,1.41,-0.42,-9.89,4.85,-0.93,-0.31,2.02,3.68
16.758,-0.41,1.28,-0.35,-9.89,4.85,-0.93,-0.31,2.02,3.68
16.76,-0.41,1.28,-0.35,-9.89,4.85,-0.93,-0.2,0.56,1.9
16.761,-0.41,1.28,-0.35,-14.38,5.4,-2.65,-0.2,0.56,1.9
16.782,-0.66,1.18,-0.53,-14.38,5.4,-2.65,-0.2,0.56,1.9
16.799,0.06,1.13,-0.11,-14.38,5.4,-2.65,-0.2,0.56,1.9
16.801,0.06,1.13,-0.11,-14.38,5.4,-2.65,0.12,0.59,-0.6
16.802,0.06,1.13,-0.11,-5.94,2.97,-1.62,0.12,0.59,-0.6
16.803,0.06,1.13,-0.11,-5.94,2.97,-1.62,0.12,0.59,-0.6
16.818,2.48,2.13,-1.24,-5.94,2.97,-1.62,0.12,0.59,-0.6
16.843,2,2.29,-0.37,-5.94,2.97,-1.62,0.12,0.59,-0.6
16.846,2,2.29,-0.37,-5.94,2.97,-1.62,1.21,0.15,0.26
16.847,2,2.29,-0.37,-5.94,3.04,-1.2,1.21,0.15,0.26
16.878,-2.81,0.14,0.56,-5.94,3.04,-1.2,1.21,0.15,0.26
16.88,-2.81,0.14,0.56,-5.94,3.04,-1.2,1.21,0.15,0.26
16.88,-2.72,-0.35,-0.85,-5.94,3.04,-1.2,1.21,0.15,0.26
16.881,-2.72,-0.35,-0.85,-5.94,3.04,-1.2,1.06,1.88,-3.62
16.882,-2.72,-0.35,-0.85,3.86,5.91,-1.19,1.06,1.88,-3.62
16.896,0.59,0.78,0.02,3.86,5.91,-1.19,1.06,1.88,-3.62
16.916,2.29,1.76,-1.7,3.86,5.91,-1.19,1.06,1.88,-3.62
16.917,2.29,1.76,-1.7,3.86,5.91,-1.19,1.12,-1.35,0.25
16.918,2.29,1.76,-1.7,-0.97,-1.7,-5.44,1.12,-1.35,0.25
16.918,2.29,1.76,-1.7,-0.97,-1.7,-5.44,1.12,-1.35,0.25
16.936,1.22,1.2,0.02,-0.97,-1.7,-5.44,1.12,-1.35,0.25
16.968,-0.45,0.39,-0.44,-0.97,-1.7,-5.44,1.12,-1.35,0.25
16.969,-0.45,0.39,-0.44,-0.97,-1.7,-5.44,0.28,-0.83,-0.06
16.97,-0.45,0.39,-0.44,-0.84,-1.65,-5.2,0.28,-0.83,-0.06
16.978,-0.23,0.7,-0.19,-0.84,-1.65,-5.2,0.28,-0.83,-0.06
16.98,-0.23,0.7,-0.19,-0.84,-1.65,-5.2,0.28,-0.83,-0.06
16.995,0.31,1.25,-0.2,-0.84,-1.65,-5.2,0.28,-0.83,-0.06
16.996,0.31,1.25,-0.2,-0.84,-1.65,-5.2,0.01,-0.17,-1.72
16.997,0.31,1.25,-0.2,1,-1.33,1.05,0.01,-0.17,-1.72
17.015,0.12,1.05,-0.26,1,-1.33,1.05,0.01,-0.17,-1.72
17.04,0.12,0.8,-0.24,1,-1.33,1.05,0.01,-0.17,-1.72
17.047,0.12,0.8,-0.24,1,-1.33,1.05,0.18,-0.88,-1.11
17.049,0.12,0.8,-0.24,1.51,1.29,0.84,0.18,-0.88,-1.11
17.05,0.12,0.8,-0.24,1.51,1.29,0.84,0.18,-0.88,-1.11
17.056,0.29,0.9,-0.29,1.51,1.29,0.84,0.18,-0.88,-1.11
17.085,0.12,0.97,-0.34,1.51,1.29,0.84,0.18,-0.88,-1.11
17.088,0.12,0.97,-0.34,1.51,1.29,0.84,0.21,-0.45,-1.19
17.089,0.12,0.97,-0.34,1.95,1.29,0.9,0.21,-0.45,-1.19
17.095,-0.14,0.94,-0.3,1.95,1.29,0.9,0.21,-0.45,-1.19
17.098,-0.14,0.94,-0.3,1.95,1.29,0.9,0.21,-0.45,-1.19
17.114,-0.18,0.96,-0.24,1.95,1.29,0.9,0.21,-0.45,-1.19
17.115,-0.18,0.96,-0.24,1.95,1.29,0.9,0.2,-0.07,-1.35
17.117,-0.18,0.96,-0.24,1.47,0.39,0.21,0.2,-0.07,-1.35
17.14,-0.06,1,-0.28,1.47,0.39,0.21,0.2,-0.07,-1.35
17.153,-0.04,1.01,-0.42,1.47,0.39,0.21,0.2,-0.07,-1.35
17.154,-0.04,1.01,-0.42,1.47,0.39,0.21,0.21,-0.27,-1.21
17.155,-0.04,1.01,-0.42,0.15,0.96,0.24,0.21,-0.27,-1.21
17.178,-0.04,1.01,-0.42,0.15,0.96,0.24,0.21,-0.27,-1.21
17.18,-0.2,0.97,-0.35,0.15,0.96,0.24,0.21,-0.27,-1.21
17.194,-0.26,0.99,-0.4,0.15,0.96,0.24,0.21,-0.27,-1.21
17.199,-0.26,0.99,-0.4,0.15,0.96,0.24,0.15,-0.41,-1.1
17.201,-0.26,0.99,-0.4,0.57,1.01,0.27,0.15,-0.41,-1.1
17.212,-0.1,1.04,-0.42,0.57,1.01,0.27,0.15,-0.41,-1.1
17.217,-0.1,1.04,-0.42,0.57,1.01,0.27,0.15,-0.41,-1.1
17.235,0.11,1.09,-0.4,0.57,1.01,0.27,0.15,-0.41,-1.1
17.237,0.11,1.09,-0.4,0.57,1.01,0.27,0.05,-0.78,-0.98
17.238,0.11,1.09,-0.4,0.09,1.15,-0.54,0.05,-0.78,-0.98
17.264,0.11,1.11,-0.33,0.09,1.15,-0.54,0.05,-0.78,-0.98
17.273,0.07,1.09,-0.25,0.09,1.15,-0.54,0.05,-0.78,-0.98
17.274,0.07,1.09,-0.25,0.09,1.15,-0.54,0.01,-1.11,-1.15
17.275,0.07,1.09,-0.25,3.33,2.17,0.02,0.01,-1.11,-1.15
17.278,0.07,1.09,-0.25,3.33,2.17,0.02,0.01,-1.11,-1.15
17.292,0.16,1.14,-0.24,3.33,2.17,0.02,0.01,-1.11,-1.15
17.311,0.18,1.26,-0.27,3.33,2.17,0.02,0.01,-1.11,-1.15
17.313,0.18,1.26,-0.27,3.33,2.17,0.02,0.01,-1.2,-1.71
17.314,0.18,1.26,-0.27,3.99,2.32,-0.11,0.01,-1.2,-1.71
17.345,0.1,1.38,-0.19,3.99,2.32,-0.11,0.01,-1.2,-1.71
17.35,0.1,1.38,-0.19,3.99,2.32,-0.11,0.01,-1.2,-1.71
17.355,-0.01,1.32,-0.14,3.99,2.32,-0.11,0.01,-1.2,-1.71
17.358,-0.01,1.32,-0.14,3.99,2.32,-0.11,-0.09,-1.15,-2.4
17.362,-0.01,1.32,-0.14,5.33,4.15,0.59,-0.09,-1.15,-2.4
17.377,-0.11,1.47,-0.39,5.33,4.15,0.59,-0.09,-1.15,-2.4
17.39,0.01,2.06,-0.45,5.33,4.15,0.59,-0.09,-1.15,-2.4
17.39,0.01,2.06,-0.45,5.33,4.15,0.59,-0.19,-1.65,-2.78
17.391,0.01,2.06,-0.45,4.48,7.98,-0.68,-0.19,-1.65,-2.78
17.396,0.01,2.06,-0.45,4.48,7.98,-0.68,-0.19,-1.65,-2.78
17.41,0.73,1.75,-0.49,4.48,7.98,-0.68,-0.19,-1.65,-2.78
17.445,1.31,1.4,-0.82,4.48,7.98,-0.68,-0.19,-1.65,-2.78
17.448,1.31,1.4,-0.82,4.48,7.98,-0.68,-0.21,-3.28,-2.27
17.45,1.31,1.4,-0.82,5.36,8.3,-1.42,-0.21,-3.28,-2.27
17.452,0.82,1.82,-0.52,5.36,8.3,-1.42,-0.21,-3.28,-2.27
17.459,0.82,1.82,-0.52,5.36,8.3,-1.42,-0.21,-3.28,-2.27
17.478,-0.62,1.62,-0.37,5.36,8.3,-1.42,-0.21,-3.28,-2.27
17.479,-0.62,1.62,-0.37,5.36,8.3,-1.42,-0.35,-2,-2.64
17.48,-0.62,1.62,-0.37,15.67,9.17,-4.65,-0.35,-2,-2.64
17.488,-1.03,1.1,-0.51,15.67,9.17,-4.65,-0.35,-2,-2.64
17.51,-0.41,0.73,-0.29,15.67,9.17,-4.65,-0.35,-2,-2.64
17.513,-0.41,0.73,-0.29,15.67,9.17,-4.65,-0.14,0.67,-3.32
17.515,-0.41,0.73,-0.29,0.46,4.99,-2.32,-0.14,0.67,-3.32
17.519,-0.41,0.73,-0.29,0.46,4.99,-2.32,-0.14,0.67,-3.32
17.544,-0.41,0.37,-0.23,0.46,4.99,-2.32,-0.14,0.67,-3.32
17.548,-0.72,0.27,-0.24,0.46,4.99,-2.32,-0.14,0.67,-3.32
17.549,-0.72,0.27,-0.24,0.46,4.99,-2.32,0,0.41,-1.23
17.55,-0.72,0.27,-0.24,0.72,5.25,-2.17,0,0.41,-1.23
17.572,-0.47,0.29,0.34,0.72,5.25,-2.17,0,0.41,-1.23
17.58,-0.47,0.29,0.34,0.72,5.25,-2.17,0,0.41,-1.23
17.587,0.01,0.21,0.01,0.72,5.25,-2.17,0,0.41,-1.23
17.589,0.01,0.21,0.01,0.72,5.25,-2.17,-0.27,-0.3,0.41
17.59,0.01,0.21,0.01,2.07,-3.06,1.07,-0.27,-0.3,0.41
17.608,0.32,0.19,-0.1,2.07,-3.06,1.07,-0.27,-0.3,0.41
17.628,-0.04,0.27,-0.13,2.07,-3.06,1.07,-0.27,-0.3,0.41
17.63,-0.04,0.27,-0.13,7.55,-4.45,0.9,-0.27,-0.3,0.41
17.63,-0.04,0.27,-0.13,7.55,-4.45,0.9,-0.19,0.76,2.18
17.637,-0.04,0.27,-0.13,7.55,-4.45,0.9,-0.19,0.76,2.18
17.663,-0.61,0.38,-0.14,7.55,-4.45,0.9,-0.19,0.76,2.18
17.669,-0.82,0.42,-0.13,7.55,-4.45,0.9,-0.19,0.76,2.18
17.672,-0.82,0.42,-0.13,6.5,-5.06,1.34,-0.19,0.76,2.18
17.674,-0.82,0.42,-0.13,6.5,-5.06,1.34,-0.27,2.23,2.79
17.705,-0.64,0.38,-0.06,6.5,-5.06,1.34,-0.27,2.23,2.79
17.711,-0.64,0.38,-0.06,6.5,-5.06,1.34,-0.27,2.23,2.79
17.712,-0.44,0.41,-0.05,6.5,-5.06,1.34,-0.27,2.23,2.79
17.713,-0.44,0.41,-0.05,6.5,-5.06,1.34,-0.39,0.94,4.18
17.714,-0.44,0.41,-0.05,-2.54,-4.14,1.04,-0.39,0.94,4.18
17.736,-0.38,0.57,0.14,-2.54,-4.14,1.04,-0.39,0.94,4.18
17.763,-0.26,0.68,0.21,-2.54,-4.14,1.04,-0.39,0.94,4.18
17.764,-0.26,0.68,0.21,-2.54,-4.14,1.04,-0.35,-0.57,5.29
17.765,-0.26,0.68,0.21,-0.99,-3.27,2.9,-0.35,-0.57,5.29
17.766,-0.26,0.68,0.21,-0.99,-3.27,2.9,-0.35,-0.57,5.29
17.767,-0.14,0.81,-0.07,-0.99,-3.27,2.9,-0.35,-0.57,5.29
17.785,-0.55,1.21,-0.17,-0.99,-3.27,2.9,-0.35,-0.57,5.29
17.788,-0.55,1.21,-0.17,-2.9,-3.54,2.92,-0.35,-0.57,5.29
17.789,-0.55,1.21,-0.17,-2.9,-3.54,2.92,0.1,0.76,5.42
17.805,-1.01,1.58,-0.33,-2.9,-3.54,2.92,0.1,0.76,5.42
17.817,-1.01,1.58,-0.33,-2.9,-3.54,2.92,0.1,0.76,5.42
17.849,-0.9,1.52,-0.27,-2.9,-3.54,2.92,0.1,0.76,5.42
17.852,-0.9,1.52,-0.27,-2.9,-3.54,2.92,0.25,2.87,4.99
17.853,-0.9,1.52,-0.27,-6.79,2.85,0.07,0.25,2.87,4.99
17.853,-0.86,1.64,-0.6,-6.79,2.85,0.07,0.25,2.87,4.99
17.889,-0.92,1.67,-0.62,-6.79,2.85,0.07,0.25,2.87,4.99
17.894,-0.92,1.67,-0.62,-6.79,2.85,0.07,0.16,2.87,4.07
17.896,-0.92,1.67,-0.62,-11.42,7.07,-3.05,0.16,2.87,4.07
17.897,-0.92,1.67,-0.62,-11.42,7.07,-3.05,0.16,2.87,4.07
17.899,-1.06,1.5,-0.52,-11.42,7.07,-3.05,0.16,2.87,4.07
17.904,-0.98,1.14,-0.4,-11.42,7.07,-3.05,0.16,2.87,4.07
17.906,-0.98,1.14,-0.4,-11.42,7.07,-3.05,0.04,1.56,2.01
17.907,-0.98,1.14,-0.4,-12.01,7.2,-3.18,0.04,1.56,2.01
17.924,-0.87,1.04,-0.32,-12.01,7.2,-3.18,0.04,1.56,2.01
17.936,-0.87,1.04,-0.32,-12.01,7.2,-3.18,0.04,1.56,2.01
17.988,-0.87,1.04,-0.32,-12.4,3.35,-2.3,0.04,1.56,2.01
17.992,-0.23,1.22,-0.16,-12.4,3.35,-2.3,0.04,1.56,2.01
17.994,-0.23,1.22,-0.16,-12.4,3.35,-2.3,0.21,0.3,-0.55
17.996,2.39,1.88,-0.21,-12.4,3.35,-2.3,0.21,0.3,-0.55
17.998,3.47,2.45,-0.88,-12.4,3.35,-2.3,0.21,0.3,-0.55
17.999,3.47,2.45,-0.88,-12.4,3.35,-2.3,1.06,-0.67,0.16
18,3.47,2.45,-0.88,15.23,9.38,-1.85,1.06,-0.67,0.16
18.002,3.47,2.45,-0.88,15.23,9.38,-1.85,1.06,-0.67,0.16
18.003,-1.81,0.78,0.12,15.23,9.38,-1.85,1.06,-0.67,0.16
18.022,-4.3,-0.54,-0.84,15.23,9.38,-1.85,1.06,-0.67,0.16
18.024,-4.3,-0.54,-0.84,15.23,9.38,-1.85,1.48,4.18,-4.14
18.025,-4.3,-0.54,-0.84,16.03,8.93,-1.73,1.48,4.18,-4.14
18.045,-0.68,0.18,-0.3,16.03,8.93,-1.73,1.48,4.18,-4.14
18.056,-0.68,0.18,-0.3,16.03,8.93,-1.73,1.48,4.18,-4.14
18.09,1.77,1.5,-1.61,16.03,8.93,-1.73,1.48,4.18,-4.14
18.098,1.77,1.5,-1.61,16.03,8.93,-1.73,1.23,-0.63,-1
18.101,1.77,1.5,-1.61,-23.68,-7.66,-0.46,1.23,-0.63,-1
18.103,1.9,1.74,-0.1,-23.68,-7.66,-0.46,1.23,-0.63,-1
18.103,0.22,0.55,-0.16,-23.68,-7.66,-0.46,1.23,-0.63,-1
18.104,0.22,0.55,-0.16,-23.68,-7.66,-0.46,0.24,-1.93,1.17
18.105,0.22,0.55,-0.16,10.84,3.42,-2.98,0.24,-1.93,1.17
18.115,0.22,0.55,-0.16,10.84,3.42,-2.98,0.24,-1.93,1.17
18.121,0.03,0.42,-0.44,10.84,3.42,-2.98,0.24,-1.93,1.17
18.14,0.08,1.12,-0.33,10.84,3.42,-2.98,0.24,-1.93,1.17
18.143,0.08,1.12,-0.33,11.27,3.27,-2.9,0.24,-1.93,1.17
18.144,0.08,1.12,-0.33,11.27,3.27,-2.9,0.03,-0.22,-1.66
18.16,-0.37,1.19,-0.32,11.27,3.27,-2.9,0.03,-0.22,-1.66
18.174,-0.37,1.19,-0.32,11.27,3.27,-2.9,0.03,-0.22,-1.66
18.18,-0.02,0.84,-0.19,11.27,3.27,-2.9,0.03,-0.22,-1.66
18.182,-0.02,0.84,-0.19,11.27,3.27,-2.9,0.04,-0.98,-1.36
18.183,-0.02,0.84,-0.19,-1.61,-0.22,-0.31,0.04,-0.98,-1.36
18.2,0.6,0.87,-0.28,-1.61,-0.22,-0.31,0.04,-0.98,-1.36
18.22,0.45,0.96,-0.33,-1.61,-0.22,-0.31,0.04,-0.98,-1.36
18.223,0.45,0.96,-0.33,-1.61,-0.22,-0.31,0.06,-1.35,-0.9
18.225,0.45,0.96,-0.33,3.01,-0.46,0.66,0.06,-1.35,-0.9
18.252,0.45,0.96,-0.33,3.01,-0.46,0.66,0.06,-1.35,-0.9
18.253,-0.06,0.94,-0.31,3.01,-0.46,0.66,0.06,-1.35,-0.9
18.283,-0.29,0.94,-0.26,3.01,-0.46,0.66,0.06,-1.35,-0.9
18.284,-0.29,0.94,-0.26,3.01,-0.46,0.66,0.03,-0.23,-1.44
18.285,-0.29,0.94,-0.26,3.51,-0.45,0.66,0.03,-0.23,-1.44
18.286,-0.17,0.97,-0.3,3.51,-0.45,0.66,0.03,-0.23,-1.44
18.295,-0.17,0.97,-0.3,3.51,-0.45,0.66,0.03,-0.23,-1.44
18.299,-0.08,1,-0.36,3.51,-0.45,0.66,0.03,-0.23,-1.44
18.3,-0.08,1,-0.36,3.51,-0.45,0.66,0.08,-0.36,-1.35
18.301,-0.08,1,-0.36,-1,0.19,0.47,0.08,-0.36,-1.35
18.319,-0.18,1.01,-0.34,-1,0.19,0.47,0.08,-0.36,-1.35
18.34,-0.2,1,-0.37,-1,0.19,0.47,0.08,-0.36,-1.35
18.345,-0.2,1,-0.37,-1,0.19,0.47,0.07,-0.65,-1.1
18.347,-0.2,1,-0.37,-0.34,0.73,-0.19,0.07,-0.65,-1.1
18.381,-0.2,1,-0.37,-0.34,0.73,-0.19,0.07,-0.65,-1.1
18.383,-0.1,1.04,-0.42,-0.34,0.73,-0.19,0.07,-0.65,-1.1
18.383,-0.1,1.04,-0.42,0.14,0.79,-0.22,0.07,-0.65,-1.1
18.384,0.07,1.1,-0.39,0.14,0.79,-0.22,0.07,-0.65,-1.1
18.386,0.07,1.1,-0.39,0.14,0.79,-0.22,0.03,-0.83,-1.05
18.402,0.21,1.13,-0.17,0.14,0.79,-0.22,0.03,-0.83,-1.05
18.415,0.21,1.13,-0.17,0.14,0.79,-0.22,0.03,-0.83,-1.05
18.419,0.22,1.22,-0.07,0.14,0.79,-0.22,0.03,-0.83,-1.05
18.421,0.22,1.22,-0.07,0.14,0.79,-0.22,0.01,-1.17,-1.28
18.423,0.22,1.22,-0.07,2.81,1.72,-0.01,0.01,-1.17,-1.28
18.444,0.15,1.28,-0.18,2.81,1.72,-0.01,0.01,-1.17,-1.28
18.457,0.08,1.35,-0.22,2.81,1.72,-0.01,0.01,-1.17,-1.28
18.458,0.08,1.35,-0.22,2.81,1.72,-0.01,-0.04,-0.93,-2.09
18.459,0.08,1.35,-0.22,4.46,3.74,1.53,-0.04,-0.93,-2.09
18.48,0.08,1.35,-0.22,4.46,3.74,1.53,-0.04,-0.93,-2.09
18.484,0.05,1.31,-0.25,4.46,3.74,1.53,-0.04,-0.93,-2.09
18.501,0.05,1.39,-0.44,4.46,3.74,1.53,-0.04,-0.93,-2.09
18.506,0.05,1.39,-0.44,4.46,3.74,1.53,-0.1,-0.89,-2.75
18.508,0.05,1.39,-0.44,5.41,4.04,1.35,-0.1,-0.89,-2.75
18.517,0.02,1.88,-0.64,5.41,4.04,1.35,-0.1,-0.89,-2.75
18.557,0.02,1.88,-0.64,5.41,4.04,1.35,-0.1,-0.89,-2.75
18.56,0.36,1.89,-0.57,5.41,4.04,1.35,-0.1,-0.89,-2.75
18.561,0.36,1.89,-0.57,5.41,4.04,1.35,-0.25,-1.81,-2.89
