time,gFx,gFy,gFz,ax,ay,az,wx,wy,wz
0.002,0.35,0.98,0.01,-0.08,0.02,0.25,-0.01,0.03,0.01
0.003,0.35,0.98,0.01,-0.08,0.02,0.25,0.04,-0.13,0.01
0.003,0.35,0.98,0.01,0.14,0.12,-0.16,0.04,-0.13,0.01
0.012,0.28,0.93,0.01,0.14,0.12,-0.16,0.04,-0.13,0.01
0.026,0.28,0.93,0.01,0.14,0.12,-0.16,0.04,-0.13,0.01
0.032,0.28,0.9,0.01,0.14,0.12,-0.16,0.04,-0.13,0.01
0.033,0.28,0.9,0.01,0.14,0.12,-0.16,-0.01,0.02,-0.01
0.034,0.28,0.9,0.01,0.14,0.11,-0.16,-0.01,0.02,-0.01
0.052,0.27,1,-0.02,0.14,0.11,-0.16,-0.01,0.02,-0.01
0.072,0.28,0.96,0.01,0.14,0.11,-0.16,-0.01,0.02,-0.01
0.074,0.28,0.96,0.01,0.14,0.11,-0.16,0,0.03,-0.03
0.075,0.28,0.96,0.01,-0.05,-0.1,-0.07,0,0.03,-0.03
0.091,0.28,0.96,0.01,-0.05,-0.1,-0.07,0,0.03,-0.03
0.093,0.28,0.96,0.01,-0.05,-0.1,-0.07,0,0.03,-0.03
0.112,0.3,0.96,0.01,-0.05,-0.1,-0.07,0,0.03,-0.03
0.114,0.3,0.96,0.01,-0.05,-0.1,-0.07,-0.02,-0.03,-0.01
0.114,0.3,0.96,0.01,0.04,0.09,0,-0.02,-0.03,-0.01
0.132,0.29,0.93,0.02,0.04,0.09,0,-0.02,-0.03,-0.01
0.146,0.29,0.93,0.02,0.04,0.09,0,-0.02,-0.03,-0.01
0.151,0.29,0.93,0.02,0.05,0.08,-0.01,-0.02,-0.03,-0.01
0.153,0.28,0.94,0,0.05,0.08,-0.01,-0.02,-0.03,-0.01
0.153,0.28,0.94,0,0.05,0.08,-0.01,-0.01,0.03,-0.03
0.184,0.27,0.96,0.01,0.05,0.08,-0.01,-0.01,0.03,-0.03
0.214,0.25,0.98,0,0.05,0.08,-0.01,-0.01,0.03,-0.03
0.215,0.25,0.98,0,0.05,0.08,-0.01,-0.01,0.03,-0.04
0.215,0.25,0.98,0,-0.01,-0.11,0.02,-0.01,0.03,-0.04
0.216,0.25,0.98,0,-0.01,-0.11,0.02,-0.01,0.03,-0.04
0.217,0.25,0.97,0,-0.01,-0.11,0.02,-0.01,0.03,-0.04
0.233,0.27,0.95,0,-0.01,-0.11,0.02,-0.01,0.03,-0.04
0.234,0.27,0.95,0,-0.01,-0.11,0.02,-0.01,0,-0.03
0.235,0.27,0.95,0,-0.18,0.12,-0.11,-0.01,0,-0.03
0.251,0.26,0.94,-0.01,-0.18,0.12,-0.11,-0.01,0,-0.03
0.277,0.26,0.94,-0.01,-0.18,0.12,-0.11,-0.01,0,-0.03
0.279,0.24,0.95,-0.04,-0.18,0.12,-0.11,-0.01,0,-0.03
0.28,0.24,0.95,-0.04,-0.18,0.12,-0.11,-0.02,0.01,0
0.281,0.24,0.95,-0.04,-0.18,0.12,-0.12,-0.02,0.01,0
0.308,0.24,0.97,-0.03,-0.18,0.12,-0.12,-0.02,0.01,0
0.31,0.27,0.96,0.04,-0.18,0.12,-0.12,-0.02,0.01,0
0.311,0.27,0.96,0.04,-0.18,0.12,-0.12,-0.07,-0.13,0.03
0.312,0.27,0.96,0.04,-0.32,-0.02,-0.33,-0.07,-0.13,0.03
0.326,0.27,0.96,0.04,-0.32,-0.02,-0.33,-0.07,-0.13,0.03
0.329,0.31,0.94,0.06,-0.32,-0.02,-0.33,-0.07,-0.13,0.03
0.349,0.3,0.92,0.06,-0.32,-0.02,-0.33,-0.07,-0.13,0.03
0.35,0.3,0.92,0.06,-0.32,-0.02,-0.33,-0.08,-0.17,0.06
0.351,0.3,0.92,0.06,0.13,-0.11,0.39,-0.08,-0.17,0.06
0.372,0.28,0.94,0.03,0.13,-0.11,0.39,-0.08,-0.17,0.06
0.401,0.28,0.94,0.03,0.13,-0.11,0.39,-0.08,-0.17,0.06
0.403,0.29,0.97,0.02,0.13,-0.11,0.39,-0.08,-0.17,0.06
0.404,0.29,0.97,0.02,0.13,-0.11,0.39,-0.04,-0.12,0.05
0.407,0.29,0.97,0.02,0.11,-0.1,0.38,-0.04,-0.12,0.05
0.409,0.29,0.93,0.02,0.11,-0.1,0.38,-0.04,-0.12,0.05
0.428,0.35,0.95,0.04,0.11,-0.1,0.38,-0.04,-0.12,0.05
0.43,0.35,0.95,0.04,0.11,-0.1,0.38,-0.04,-0.22,0.02
0.431,0.35,0.95,0.04,0.02,-0.06,0.1,-0.04,-0.22,0.02
0.446,0.35,0.95,0.04,0.02,-0.06,0.1,-0.04,-0.22,0.02
0.448,0.32,0.99,0.01,0.02,-0.06,0.1,-0.04,-0.22,0.02
0.47,0.26,0.96,0,0.02,-0.06,0.1,-0.04,-0.22,0.02
0.472,0.26,0.96,0,0.02,-0.06,0.1,-0.01,-0.14,-0.04
0.474,0.26,0.96,0,0.28,0.17,0.06,-0.01,-0.14,-0.04
0.505,0.27,0.91,0.01,0.28,0.17,0.06,-0.01,-0.14,-0.04
0.507,0.27,0.91,0.01,0.28,0.17,0.06,-0.01,-0.14,-0.04
0.507,0.25,0.88,0,0.28,0.17,0.06,-0.01,-0.14,-0.04
0.508,0.25,0.88,0,0.28,0.17,0.06,-0.02,-0.11,-0.07
0.508,0.25,0.88,0,0.3,0.16,0.07,-0.02,-0.11,-0.07
0.526,0.29,0.96,-0.03,0.3,0.16,0.07,-0.02,-0.11,-0.07
0.546,0.34,1,0.01,0.3,0.16,0.07,-0.02,-0.11,-0.07
0.547,0.34,1,0.01,0.3,0.16,0.07,-0.1,-0.39,-0.05
0.548,0.34,1,0.01,-0.07,-0.32,-0.15,-0.1,-0.39,-0.05
0.58,0.34,1,0.01,-0.07,-0.32,-0.15,-0.1,-0.39,-0.05
0.582,0.34,0.98,-0.01,-0.07,-0.32,-0.15,-0.1,-0.39,-0.05
0.607,0.32,0.94,0.06,-0.07,-0.32,-0.15,-0.1,-0.39,-0.05
0.608,0.32,0.94,0.06,-0.07,-0.32,-0.15,-0.13,-0.45,-0.1
0.609,0.32,0.94,0.06,0.55,0.17,0.09,-0.13,-0.45,-0.1
0.609,0.33,0.94,0.07,0.55,0.17,0.09,-0.13,-0.45,-0.1
0.626,0.33,0.94,0.07,0.55,0.17,0.09,-0.13,-0.45,-0.1
0.627,0.3,0.98,0.03,0.55,0.17,0.09,-0.13,-0.45,-0.1
0.628,0.3,0.98,0.03,0.55,0.17,0.09,-0.08,-0.35,-0.22
0.629,0.3,0.98,0.03,0.62,0.15,0.09,-0.08,-0.35,-0.22
0.645,0.28,0.99,0.01,0.62,0.15,0.09,-0.08,-0.35,-0.22
0.666,0.25,0.95,0.02,0.62,0.15,0.09,-0.08,-0.35,-0.22
0.668,0.25,0.95,0.02,0.62,0.15,0.09,0,-0.34,-0.31
0.669,0.25,0.95,0.02,0.44,0.09,0.25,0,-0.34,-0.31
0.696,0.27,0.96,0.04,0.44,0.09,0.25,0,-0.34,-0.31
0.697,0.27,0.96,0.04,0.44,0.09,0.25,0,-0.34,-0.31
0.704,0.34,0.98,0.03,0.44,0.09,0.25,0,-0.34,-0.31
0.705,0.34,0.98,0.03,0.44,0.09,0.25,0.06,-0.29,-0.35
0.706,0.34,0.98,0.03,0.41,-0.02,0.29,0.06,-0.29,-0.35
0.724,0.35,0.95,0.06,0.41,-0.02,0.29,0.06,-0.29,-0.35
0.744,0.34,0.95,0.04,0.41,-0.02,0.29,0.06,-0.29,-0.35
0.745,0.34,0.95,0.04,0.41,-0.02,0.29,0.16,-0.2,-0.46
0.746,0.34,0.95,0.04,0.57,-0.07,0.36,0.16,-0.2,-0.46
0.747,0.34,0.95,0.04,0.57,-0.07,0.36,0.16,-0.2,-0.46
0.764,0.36,0.96,0.01,0.57,-0.07,0.36,0.16,-0.2,-0.46
0.786,0.36,0.96,0.01,1.4,-0.18,0.47,0.16,-0.2,-0.46
0.789,0.36,1.01,-0.04,1.4,-0.18,0.47,0.16,-0.2,-0.46
0.79,0.36,1.01,-0.04,1.4,-0.18,0.47,0.25,-0.06,-0.67
0.827,0.22,1.04,-0.06,1.4,-0.18,0.47,0.25,-0.06,-0.67
0.829,0.22,1.04,-0.06,1.4,-0.18,0.47,0.25,-0.06,-0.67
0.83,0.08,1.07,-0.13,1.4,-0.18,0.47,0.25,-0.06,-0.67
0.831,0.08,1.07,-0.13,1.4,-0.18,0.47,0.32,0.24,-0.88
0.832,0.08,1.07,-0.13,0.47,0.59,-0.46,0.32,0.24,-0.88
0.844,0.06,1.06,-0.19,0.47,0.59,-0.46,0.32,0.24,-0.88
0.862,-0.1,1.03,-0.13,0.47,0.59,-0.46,0.32,0.24,-0.88
0.864,-0.1,1.03,-0.13,0.47,0.59,-0.46,0.46,0.52,-0.87
0.865,-0.1,1.03,-0.13,0.78,0.54,-0.31,0.46,0.52,-0.87
0.866,-0.1,1.03,-0.13,0.78,0.54,-0.31,0.46,0.52,-0.87
0.882,-0.3,0.95,0.06,0.78,0.54,-0.31,0.46,0.52,-0.87
0.902,-0.26,0.77,-0.02,0.78,0.54,-0.31,0.46,0.52,-0.87
0.903,-0.26,0.77,-0.02,0.78,0.54,-0.31,0.4,0.38,-0.54
0.904,-0.26,0.77,-0.02,-2.26,0.24,-0.32,0.4,0.38,-0.54
0.922,-0.08,0.66,0.1,-2.26,0.24,-0.32,0.4,0.38,-0.54
0.926,-0.08,0.66,0.1,-2.26,0.24,-0.32,0.4,0.38,-0.54
0.942,-0.01,0.77,0.22,-2.26,0.24,-0.32,0.4,0.38,-0.54
0.943,-0.01,0.77,0.22,-2.26,0.24,-0.32,0.28,-0.9,0.08
0.944,-0.01,0.77,0.22,-2.27,-2.45,1.64,0.28,-0.9,0.08
0.962,0.02,0.75,0.14,-2.27,-2.45,1.64,0.28,-0.9,0.08
0.99,0,0.94,0.19,-2.27,-2.45,1.64,0.28,-0.9,0.08
0.993,0,0.94,0.19,-2.27,-2.45,1.64,0.24,-1.61,0.39
0.995,0,0.94,0.19,-2.33,-2.39,1.78,0.24,-1.61,0.39
0.996,0,0.94,0.19,-2.33,-2.39,1.78,0.24,-1.61,0.39
1.003,0.1,1.19,-0.09,-2.33,-2.39,1.78,0.24,-1.61,0.39
1.021,0.32,1.13,-0.1,-2.33,-2.39,1.78,0.24,-1.61,0.39
1.022,0.32,1.13,-0.1,-2.33,-2.39,1.78,0.46,-1.95,0.64
1.023,0.32,1.13,-0.1,-0.94,-0.09,1.82,0.46,-1.95,0.64
1.04,0.6,0.97,-0.16,-0.94,-0.09,1.82,0.46,-1.95,0.64
1.045,0.6,0.97,-0.16,-0.94,-0.09,1.82,0.46,-1.95,0.64
1.06,0.6,0.97,-0.16,3.15,0.67,-0.5,0.46,-1.95,0.64
1.063,0.53,1,-0.33,3.15,0.67,-0.5,0.46,-1.95,0.64
1.064,0.53,1,-0.33,3.15,0.67,-0.5,0.93,-0.79,0.64
1.088,0,1.11,-0.32,3.15,0.67,-0.5,0.93,-0.79,0.64
1.1,-0.27,1.1,-0.46,3.15,0.67,-0.5,0.93,-0.79,0.64
1.102,-0.27,1.1,-0.46,3.15,0.67,-0.5,0.95,0.94,0.18
1.103,-0.27,1.1,-0.46,2.97,0.73,-0.2,0.95,0.94,0.18
1.121,-0.27,1.1,-0.46,2.97,0.73,-0.2,0.95,0.94,0.18
1.123,0.07,1.01,-0.44,2.97,0.73,-0.2,0.95,0.94,0.18
1.141,0.47,1.01,-0.33,2.97,0.73,-0.2,0.95,0.94,0.18
1.144,0.47,1.01,-0.33,2.97,0.73,-0.2,0.6,0.03,0.3
1.146,0.47,1.01,-0.33,-2.51,1.19,-2.01,0.6,0.03,0.3
1.16,0.26,0.92,-0.24,-2.51,1.19,-2.01,0.6,0.03,0.3
1.166,0.26,0.92,-0.24,-2.51,1.19,-2.01,0.6,0.03,0.3
1.192,-0.04,0.92,-0.28,-2.51,1.19,-2.01,0.6,0.03,0.3
1.195,-0.04,0.92,-0.28,-2.51,1.19,-2.01,0.4,0.13,0.32
1.196,-0.04,0.92,-0.28,0.32,0.02,-0.62,0.4,0.13,0.32
1.221,0.11,0.95,-0.23,0.32,0.02,-0.62,0.4,0.13,0.32
1.222,0.28,0.97,-0.21,0.32,0.02,-0.62,0.4,0.13,0.32
1.223,0.28,0.97,-0.21,0.32,0.02,-0.62,0.41,0.34,0.29
1.224,0.28,0.97,-0.21,0.18,0.08,-0.49,0.41,0.34,0.29
1.225,0.28,0.97,-0.21,0.18,0.08,-0.49,0.41,0.34,0.29
1.238,0.24,0.93,-0.25,0.18,0.08,-0.49,0.41,0.34,0.29
1.259,0.24,0.93,-0.25,-0.21,0.15,0.14,0.41,0.34,0.29
1.261,0.09,0.9,-0.28,-0.21,0.15,0.14,0.41,0.34,0.29
1.263,0.09,0.9,-0.28,-0.21,0.15,0.14,0.43,0.28,0.35
1.29,0.07,0.91,-0.33,-0.21,0.15,0.14,0.43,0.28,0.35
1.293,0.07,0.91,-0.33,-0.21,0.15,0.14,0.43,0.28,0.35
1.299,0.27,0.91,-0.37,-0.21,0.15,0.14,0.43,0.28,0.35
1.301,0.27,0.91,-0.37,-0.21,0.15,0.14,0.41,0.27,0.39
1.303,0.27,0.91,-0.37,-0.99,-0.2,-0.68,0.41,0.27,0.39
1.327,0.36,0.92,-0.33,-0.99,-0.2,-0.68,0.41,0.27,0.39
1.34,0.22,0.97,-0.3,-0.99,-0.2,-0.68,0.41,0.27,0.39
1.341,0.22,0.97,-0.3,-0.99,-0.2,-0.68,0.36,0.17,0.44
1.342,0.22,0.97,-0.3,-1.14,-0.11,-0.56,0.36,0.17,0.44
1.345,0.22,0.97,-0.3,-1.14,-0.11,-0.56,0.36,0.17,0.44
1.356,0.13,0.98,-0.28,-1.14,-0.11,-0.56,0.36,0.17,0.44
1.382,0.11,0.98,-0.37,-1.14,-0.11,-0.56,0.36,0.17,0.44
1.384,0.11,0.98,-0.37,-1.14,-0.11,-0.56,0.32,0.3,0.41
1.388,0.11,0.98,-0.37,-0.43,0.44,-0.24,0.32,0.3,0.41
1.396,0.34,0.99,-0.41,-0.43,0.44,-0.24,0.32,0.3,0.41
1.413,0.34,0.99,-0.41,-0.43,0.44,-0.24,0.32,0.3,0.41
1.416,0.3,0.99,-0.41,-0.43,0.44,-0.24,0.32,0.3,0.41
1.417,0.3,0.99,-0.41,-0.43,0.44,-0.24,0.22,0.12,0.59
1.419,0.3,0.99,-0.41,-0.49,0.81,-1.07,0.22,0.12,0.59
1.436,0.13,0.96,-0.38,-0.49,0.81,-1.07,0.22,0.12,0.59
1.455,0.24,0.98,-0.34,-0.49,0.81,-1.07,0.22,0.12,0.59
1.456,0.24,0.98,-0.34,-0.49,0.81,-1.07,0.13,0.34,0.59
1.457,0.24,0.98,-0.34,-0.72,0.88,-1.05,0.13,0.34,0.59
1.464,0.24,0.98,-0.34,-0.72,0.88,-1.05,0.13,0.34,0.59
1.477,0.21,1.01,-0.32,-0.72,0.88,-1.05,0.13,0.34,0.59
1.51,0.19,1.03,-0.43,-0.72,0.88,-1.05,0.13,0.34,0.59
1.512,0.19,1.03,-0.43,-0.72,0.88,-1.05,0.05,0.35,0.75
1.513,0.19,1.03,-0.43,-1.56,0.94,-0.57,0.05,0.35,0.75
1.514,0.23,1.07,-0.36,-1.56,0.94,-0.57,0.05,0.35,0.75
1.525,0.23,1.07,-0.36,-1.56,0.94,-0.57,0.05,0.35,0.75
1.534,0.01,1.02,-0.3,-1.56,0.94,-0.57,0.05,0.35,0.75
1.535,0.01,1.02,-0.3,-1.56,0.94,-0.57,-0.02,0.4,0.96
1.537,0.01,1.02,-0.3,-2.34,1.6,-0.77,-0.02,0.4,0.96
1.564,0.05,1.1,-0.37,-2.34,1.6,-0.77,-0.02,0.4,0.96
1.588,0.32,1.25,-0.32,-2.34,1.6,-0.77,-0.02,0.4,0.96
1.59,0.32,1.25,-0.32,-2.34,1.6,-0.77,0.06,0.56,1.27
1.59,0.32,1.25,-0.32,-2.78,1.78,-0.83,0.06,0.56,1.27
1.591,0.32,1.25,-0.32,-2.78,1.78,-0.83,0.06,0.56,1.27
1.593,0.38,1.39,-0.22,-2.78,1.78,-0.83,0.06,0.56,1.27
1.613,0.05,1.61,-0.24,-2.78,1.78,-0.83,0.06,0.56,1.27
1.614,0.05,1.61,-0.24,-2.78,1.78,-0.83,0.21,0.88,1.68
1.614,0.05,1.61,-0.24,-2.36,4.07,-0.33,0.21,0.88,1.68
1.633,-0.33,1.59,-0.12,-2.36,4.07,-0.33,0.21,0.88,1.68
1.646,-0.33,1.59,-0.12,-2.36,4.07,-0.33,0.21,0.88,1.68
1.658,-0.33,1.59,-0.12,-7.21,7.15,0.9,0.21,0.88,1.68
1.662,-0.26,1.39,-0.09,-7.21,7.15,0.9,0.21,0.88,1.68
1.664,-0.26,1.39,-0.09,-7.21,7.15,0.9,0.3,1.6,1.9
1.693,-0.11,1.51,-0.33,-7.21,7.15,0.9,0.3,1.6,1.9
1.696,-0.26,1.41,-0.54,-7.21,7.15,0.9,0.3,1.6,1.9
1.697,-0.26,1.41,-0.54,-7.21,7.15,0.9,0.67,2.26,2.33
1.697,-0.26,1.41,-0.54,-7.97,7.63,0.56,0.67,2.26,2.33
1.725,-0.26,1.41,-0.54,-7.97,7.63,0.56,0.67,2.26,2.33
1.727,0.16,1.26,-0.46,-7.97,7.63,0.56,0.67,2.26,2.33
1.732,0.85,1.35,-0.13,-7.97,7.63,0.56,0.67,2.26,2.33
1.733,0.85,1.35,-0.13,-7.97,7.63,0.56,0.95,1.99,2.89
1.733,0.85,1.35,-0.13,-7.7,6.99,-2.48,0.95,1.99,2.89
1.753,0.9,1.16,-0.31,-7.7,6.99,-2.48,0.95,1.99,2.89
1.777,0.9,1.16,-0.31,-7.7,6.99,-2.48,0.95,1.99,2.89
1.779,0.6,0.95,-0.32,-7.7,6.99,-2.48,0.95,1.99,2.89
1.779,0.6,0.95,-0.32,-7.7,6.99,-2.48,0.85,0.71,2.75
1.78,0.6,0.95,-0.32,-0.1,5.4,-0.66,0.85,0.71,2.75
1.791,0.2,0.84,-0.08,-0.1,5.4,-0.66,0.85,0.71,2.75
1.823,0.01,0.61,-0.07,-0.1,5.4,-0.66,0.85,0.71,2.75
1.826,0.01,0.61,-0.07,-0.1,5.4,-0.66,0.31,1.01,0.96
1.827,0.01,0.61,-0.07,-0.38,5.63,-0.89,0.31,1.01,0.96
1.828,0.01,0.61,-0.07,-0.38,5.63,-0.89,0.31,1.01,0.96
1.831,0.05,0.44,-0.13,-0.38,5.63,-0.89,0.31,1.01,0.96
1.851,0.05,0.44,-0.13,-6.95,0.32,0.57,0.31,1.01,0.96
1.853,0.35,0.4,-0.15,-6.95,0.32,0.57,0.31,1.01,0.96
1.853,0.35,0.4,-0.15,-6.95,0.32,0.57,-0.34,0.09,-0.62
1.873,0.47,0.4,-0.08,-6.95,0.32,0.57,-0.34,0.09,-0.62
1.886,0.47,0.4,-0.08,-6.95,0.32,0.57,-0.34,0.09,-0.62
1.899,0.47,0.4,-0.08,-2.89,-2.2,0.31,-0.34,0.09,-0.62
1.901,0.49,0.5,-0.18,-2.89,-2.2,0.31,-0.34,0.09,-0.62
1.902,0.49,0.5,-0.18,-2.89,-2.2,0.31,-0.76,-1.26,-1.87
1.909,0.45,0.56,-0.19,-2.89,-2.2,0.31,-0.76,-1.26,-1.87
1.93,0.36,0.54,-0.24,-2.89,-2.2,0.31,-0.76,-1.26,-1.87
1.931,0.36,0.54,-0.24,-1.91,-3.05,0.42,-0.76,-1.26,-1.87
1.931,0.36,0.54,-0.24,-1.91,-3.05,0.42,-1.01,-1.44,-3.15
1.946,0.36,0.54,-0.24,-1.91,-3.05,0.42,-1.01,-1.44,-3.15
1.95,0.44,0.55,-0.24,-1.91,-3.05,0.42,-1.01,-1.44,-3.15
1.993,0.56,0.59,-0.24,-1.91,-3.05,0.42,-1.01,-1.44,-3.15
1.996,0.56,0.59,-0.24,-1.91,-3.05,0.42,-1.27,-2.34,-3.96
1.997,0.56,0.59,-0.24,-0.74,-2.81,-0.25,-1.27,-2.34,-3.96
1.997,0.6,0.66,-0.29,-0.74,-2.81,-0.25,-1.27,-2.34,-3.96
2.016,0.6,0.66,-0.29,-0.74,-2.81,-0.25,-1.27,-2.34,-3.96
2.018,0.56,0.77,-0.38,-0.74,-2.81,-0.25,-1.27,-2.34,-3.96
2.019,0.56,0.77,-0.38,-0.74,-2.81,-0.25,-1.4,-2.88,-4.43
2.02,0.56,0.77,-0.38,2.51,-2.36,-1.09,-1.4,-2.88,-4.43
2.028,0.65,0.86,-0.49,2.51,-2.36,-1.09,-1.4,-2.88,-4.43
2.047,0.76,0.88,-0.5,2.51,-2.36,-1.09,-1.4,-2.88,-4.43
2.049,0.76,0.88,-0.5,2.51,-2.36,-1.09,-1.49,-2.76,-4.84
2.049,0.76,0.88,-0.5,4.4,-2.83,-1.38,-1.49,-2.76,-4.84
2.064,0.76,0.88,-0.5,4.4,-2.83,-1.38,-1.49,-2.76,-4.84
2.068,0.86,0.97,-0.43,4.4,-2.83,-1.38,-1.49,-2.76,-4.84
2.09,1.17,1.1,-0.57,4.4,-2.83,-1.38,-1.49,-2.76,-4.84
2.093,1.17,1.1,-0.57,4.4,-2.83,-1.38,-1.5,-2.13,-5
2.096,1.17,1.1,-0.57,8.03,-0.72,-3.52,-1.5,-2.13,-5
2.127,1.36,1.03,-0.53,8.03,-0.72,-3.52,-1.5,-2.13,-5
2.129,1.36,1.03,-0.53,8.03,-0.72,-3.52,-1.5,-2.13,-5
2.131,1.04,0.89,-0.54,8.03,-0.72,-3.52,-1.5,-2.13,-5
2.132,1.04,0.89,-0.54,8.03,-0.72,-3.52,-1.01,-0.24,-4.72
2.133,1.04,0.89,-0.54,13.84,0.56,-4.54,-1.01,-0.24,-4.72
2.148,0.81,0.98,-0.61,13.84,0.56,-4.54,-1.01,-0.24,-4.72
2.167,0.75,0.92,-0.33,13.84,0.56,-4.54,-1.01,-0.24,-4.72
2.17,0.75,0.92,-0.33,13.84,0.56,-4.54,-0.15,1.14,-3.22
2.171,0.75,0.92,-0.33,14.72,0.89,-4.39,-0.15,1.14,-3.22
2.194,0.75,0.92,-0.33,14.72,0.89,-4.39,-0.15,1.14,-3.22
2.196,0.83,0.79,-0.29,14.72,0.89,-4.39,-0.15,1.14,-3.22
2.228,0.63,0.74,-0.28,14.72,0.89,-4.39,-0.15,1.14,-3.22
2.23,0.63,0.74,-0.28,14.72,0.89,-4.39,0.36,0.17,-0.31
2.231,0.63,0.74,-0.28,10.76,-0.16,-2.83,0.36,0.17,-0.31
2.233,0.26,1.36,-0.29,10.76,-0.16,-2.83,0.36,0.17,-0.31
2.245,0.26,1.36,-0.29,10.76,-0.16,-2.83,0.36,0.17,-0.31
2.247,-1.3,2.59,1.56,10.76,-0.16,-2.83,0.36,0.17,-0.31
2.248,-1.3,2.59,1.56,10.76,-0.16,-2.83,0.47,-0.5,2.25
2.249,-1.3,2.59,1.56,0.84,6.13,4.46,0.47,-0.5,2.25
2.265,-1.72,1.79,-1.54,0.84,6.13,4.46,0.47,-0.5,2.25
2.286,-0.64,0.3,-1.53,0.84,6.13,4.46,0.47,-0.5,2.25
2.289,-0.64,0.3,-1.53,0.84,6.13,4.46,1.4,-0.74,0.31
2.291,-0.64,0.3,-1.53,0.75,6.08,4.82,1.4,-0.74,0.31
2.311,-0.64,0.3,-1.53,0.75,6.08,4.82,1.4,-0.74,0.31
2.312,2.6,1.14,1.08,0.75,6.08,4.82,1.4,-0.74,0.31
2.331,2.26,1.15,-0.02,0.75,6.08,4.82,1.4,-0.74,0.31
2.333,2.26,1.15,-0.02,0.75,6.08,4.82,0.72,-4.71,2.83
2.335,2.26,1.15,-0.02,2.08,1.11,-4.92,0.72,-4.71,2.83
2.344,-0.14,0.86,-1.17,2.08,1.11,-4.92,0.72,-4.71,2.83
2.365,-0.14,0.86,-1.17,2.08,1.11,-4.92,0.72,-4.71,2.83
2.366,-0.14,0.86,-1.17,5.65,1.45,-4.13,0.72,-4.71,2.83
2.367,-0.61,1.32,-0.73,5.65,1.45,-4.13,0.72,-4.71,2.83
2.367,-0.61,1.32,-0.73,5.65,1.45,-4.13,1.04,1.69,0.89
2.389,-1.31,0.8,-0.24,5.65,1.45,-4.13,1.04,1.69,0.89
2.417,-1.31,0.8,-0.24,5.26,1.45,-3.89,1.04,1.69,0.89
2.419,-0.48,0.68,-0.32,5.26,1.45,-3.89,1.04,1.69,0.89
2.419,-0.48,0.68,-0.32,5.26,1.45,-3.89,0.36,2.01,0.33
2.424,0.06,1.03,-0.22,5.26,1.45,-3.89,0.36,2.01,0.33
2.426,0.06,1.03,-0.22,5.26,1.45,-3.89,0.36,2.01,0.33
2.443,0.23,1.03,-0.22,5.26,1.45,-3.89,0.36,2.01,0.33
2.445,0.23,1.03,-0.22,5.26,1.45,-3.89,0.23,-0.25,1.52
2.446,0.23,1.03,-0.22,-5.73,-1.18,-0.09,0.23,-0.25,1.52
2.462,-0.09,0.87,-0.21,-5.73,-1.18,-0.09,0.23,-0.25,1.52
2.492,-0.13,0.93,-0.37,-5.73,-1.18,-0.09,0.23,-0.25,1.52
2.494,-0.13,0.93,-0.37,-5.73,-1.18,-0.09,0.44,1.08,1.53
2.497,-0.13,0.93,-0.37,-5.73,-1.18,-0.09,0.44,1.08,1.53
2.499,-0.13,0.93,-0.37,-0.71,-0.1,-0.01,0.44,1.08,1.53
2.502,0.05,0.96,-0.31,-0.71,-0.1,-0.01,0.44,1.08,1.53
2.522,0.31,0.94,-0.27,-0.71,-0.1,-0.01,0.44,1.08,1.53
2.524,0.31,0.94,-0.27,-0.71,-0.1,-0.01,0.32,0.84,1.45
2.525,0.31,0.94,-0.27,-1.31,0,0.07,0.32,0.84,1.45
2.542,0.43,0.95,-0.27,-1.31,0,0.07,0.32,0.84,1.45
2.543,0.43,0.95,-0.27,-1.31,0,0.07,0.32,0.84,1.45
2.562,0.38,1.01,-0.32,-1.31,0,0.07,0.32,0.84,1.45
2.565,0.38,1.01,-0.32,-1.31,0,0.07,0.27,0.37,1.37
2.567,0.38,1.01,-0.32,0.65,0.19,0,0.27,0.37,1.37
2.59,0.31,1.05,-0.34,0.65,0.19,0,0.27,0.37,1.37
2.603,0.25,1.09,-0.3,0.65,0.19,0,0.27,0.37,1.37
2.604,0.25,1.09,-0.3,0.65,0.19,0,0.33,0.87,1.01
2.605,0.25,1.09,-0.3,0.68,1.3,-0.35,0.33,0.87,1.01
2.607,0.25,1.09,-0.3,0.68,1.3,-0.35,0.33,0.87,1.01
2.624,0.11,1.07,-0.27,0.68,1.3,-0.35,0.33,0.87,1.01
2.641,-0.11,0.98,-0.35,0.68,1.3,-0.35,0.33,0.87,1.01
2.645,-0.11,0.98,-0.35,0.68,1.3,-0.35,0.24,1.02,0.93
2.647,-0.11,0.98,-0.35,0.24,1.39,-0.36,0.24,1.02,0.93
2.661,-0.21,1.03,-0.4,0.24,1.39,-0.36,0.24,1.02,0.93
2.663,-0.21,1.03,-0.4,0.24,1.39,-0.36,0.24,1.02,0.93
2.694,-0.15,1.2,-0.33,0.24,1.39,-0.36,0.24,1.02,0.93
2.697,-0.15,1.2,-0.33,0.24,1.39,-0.36,0.25,1.14,1.33
2.697,-0.15,1.2,-0.33,-4.04,1.27,-0.55,0.25,1.14,1.33
2.7,-0.13,1.24,-0.3,-4.04,1.27,-0.55,0.25,1.14,1.33
2.729,-0.09,1.25,-0.22,-4.04,1.27,-0.55,0.25,1.14,1.33
2.731,-0.09,1.25,-0.22,-4.04,1.27,-0.55,0.21,1.16,2.08
2.732,-0.09,1.25,-0.22,-5.3,3.56,-0.11,0.21,1.16,2.08
2.734,-0.09,1.25,-0.22,-5.3,3.56,-0.11,0.21,1.16,2.08
2.74,0.08,1.19,-0.12,-5.3,3.56,-0.11,0.21,1.16,2.08
2.76,0.21,1.24,-0.07,-5.3,3.56,-0.11,0.21,1.16,2.08
2.763,0.21,1.24,-0.07,-5.3,3.56,-0.11,0.21,1.07,2.69
2.765,0.21,1.24,-0.07,-6.18,4,-0.23,0.21,1.07,2.69
2.785,0.14,1.48,-0.16,-6.18,4,-0.23,0.21,1.07,2.69
2.787,0.14,1.48,-0.16,-6.18,4,-0.23,0.21,1.07,2.69
2.827,0.14,1.48,-0.16,-4.53,5.3,1.17,0.21,1.07,2.69
2.829,0.09,1.73,-0.28,-4.53,5.3,1.17,0.21,1.07,2.69
2.83,0.09,1.73,-0.28,-4.53,5.3,1.17,0.38,1.5,2.85
2.831,-0.22,1.83,-0.55,-4.53,5.3,1.17,0.38,1.5,2.85
2.839,-0.54,1.65,-0.79,-4.53,5.3,1.17,0.38,1.5,2.85
2.842,-0.54,1.65,-0.79,-4.53,5.3,1.17,0.77,3.03,2.53
2.843,-0.54,1.65,-0.79,-8.89,10.1,-3.49,0.77,3.03,2.53
2.845,-0.54,1.65,-0.79,-8.89,10.1,-3.49,0.77,3.03,2.53
2.858,0.16,1.5,-0.59,-8.89,10.1,-3.49,0.77,3.03,2.53
2.878,1.14,1.32,-0.35,-8.89,10.1,-3.49,0.77,3.03,2.53
2.881,1.14,1.32,-0.35,-8.89,10.1,-3.49,0.69,1.58,3.08
2.883,1.14,1.32,-0.35,-9.63,10.84,-3.69,0.69,1.58,3.08
2.912,1.19,0.89,-0.33,-9.63,10.84,-3.69,0.69,1.58,3.08
2.917,1.19,0.89,-0.33,-9.63,10.84,-3.69,0.69,1.58,3.08
2.917,0.75,0.59,0.07,-9.63,10.84,-3.69,0.69,1.58,3.08
2.918,0.75,0.59,0.07,-9.63,10.84,-3.69,0.54,-0.84,2.65
2.919,0.75,0.59,0.07,0.12,6.63,-2.14,0.54,-0.84,2.65
2.948,0.44,0.46,0.12,0.12,6.63,-2.14,0.54,-0.84,2.65
2.958,0.18,0.48,0.32,0.12,6.63,-2.14,0.54,-0.84,2.65
2.959,0.18,0.48,0.32,0.12,6.63,-2.14,0.37,0.57,-0.07
2.96,0.18,0.48,0.32,-3.48,-0.47,3.53,0.37,0.57,-0.07
2.963,0.18,0.48,0.32,-3.48,-0.47,3.53,0.37,0.57,-0.07
2.976,0.17,0.36,0.15,-3.48,-0.47,3.53,0.37,0.57,-0.07
3.001,0.22,0.3,0.15,-3.48,-0.47,3.53,0.37,0.57,-0.07
3.003,0.22,0.3,0.15,-3.48,-0.47,3.53,0.24,0.84,-1.68
3.004,0.22,0.3,0.15,-3.1,-0.96,3.27,0.24,0.84,-1.68
3.039,0.37,0.42,0.19,-3.1,-0.96,3.27,0.24,0.84,-1.68
3.04,0.37,0.42,0.19,-3.1,-0.96,3.27,0.24,0.84,-1.68
3.041,0.37,0.42,0.19,-4.34,-3.11,3.33,0.24,0.84,-1.68
3.042,0.41,0.51,0.14,-4.34,-3.11,3.33,0.24,0.84,-1.68
3.043,0.41,0.51,0.14,-4.34,-3.11,3.33,0.16,-0.45,-2.67
3.055,0.3,0.48,0.13,-4.34,-3.11,3.33,0.16,-0.45,-2.67
3.075,0.36,0.44,0.05,-4.34,-3.11,3.33,0.16,-0.45,-2.67
3.078,0.36,0.44,0.05,-4.34,-3.11,3.33,-0.08,-1.19,-3.79
3.08,0.36,0.44,0.05,-2.13,-2.85,2.97,-0.08,-1.19,-3.79
3.084,0.36,0.44,0.05,-2.13,-2.85,2.97,-0.08,-1.19,-3.79
3.102,0.45,0.5,0.04,-2.13,-2.85,2.97,-0.08,-1.19,-3.79
3.13,0.45,0.5,0.04,-0.52,-3.71,3.1,-0.08,-1.19,-3.79
3.132,0.47,0.56,0.07,-0.52,-3.71,3.1,-0.08,-1.19,-3.79
3.132,0.47,0.56,0.07,-0.52,-3.71,3.1,-0.39,-1.61,-4.67
3.134,0.6,0.64,-0.04,-0.52,-3.71,3.1,-0.39,-1.61,-4.67
3.143,0.6,0.64,-0.04,-0.52,-3.71,3.1,-0.39,-1.61,-4.67
3.155,0.6,0.64,-0.04,2.87,-3.45,2.26,-0.39,-1.61,-4.67
3.157,0.92,0.79,-0.2,2.87,-3.45,2.26,-0.39,-1.61,-4.67
3.157,0.92,0.79,-0.2,2.87,-3.45,2.26,-0.71,-2.11,-5.17
3.175,1.12,0.99,-0.29,2.87,-3.45,2.26,-0.71,-2.11,-5.17
3.208,1.25,1.29,-0.43,2.87,-3.45,2.26,-0.71,-2.11,-5.17
3.213,1.25,1.29,-0.43,2.87,-3.45,2.26,-1.07,-2.12,-5.31
3.215,1.25,1.29,-0.43,10.58,0.71,-1.26,-1.07,-2.12,-5.31
3.218,1.25,1.29,-0.43,10.58,0.71,-1.26,-1.07,-2.12,-5.31
3.218,1.41,1.2,-0.52,10.58,0.71,-1.26,-1.07,-2.12,-5.31
3.249,1.18,1.08,-0.48,10.58,0.71,-1.26,-1.07,-2.12,-5.31
3.251,1.18,1.08,-0.48,10.58,0.71,-1.26,-1.4,-0.72,-5.15
3.252,1.18,1.08,-0.48,12.31,0.78,-1.76,-1.4,-0.72,-5.15
3.253,0.78,1.03,-0.55,12.31,0.78,-1.76,-1.4,-0.72,-5.15
3.263,0.78,1.03,-0.55,12.31,0.78,-1.76,-1.4,-0.72,-5.15
3.291,0.78,1.03,-0.55,13.66,1.8,-3.96,-1.4,-0.72,-5.15
3.297,0.79,0.97,-0.52,13.66,1.8,-3.96,-1.4,-0.72,-5.15
3.298,0.79,0.97,-0.52,13.66,1.8,-3.96,-0.77,0.51,-3.72
3.3,1.14,0.84,-0.06,13.66,1.8,-3.96,-0.77,0.51,-3.72
3.334,0.8,0.68,-0.4,13.66,1.8,-3.96,-0.77,0.51,-3.72
3.335,0.8,0.68,-0.4,13.66,1.8,-3.96,0.12,-0.21,-0.46
3.336,0.8,0.68,-0.4,11.52,-0.8,-2.07,0.12,-0.21,-0.46
3.337,0.8,0.68,-0.4,11.52,-0.8,-2.07,0.12,-0.21,-0.46
3.338,0.15,1.25,-0.68,11.52,-0.8,-2.07,0.12,-0.21,-0.46
3.351,-1.42,2.47,1.1,11.52,-0.8,-2.07,0.12,-0.21,-0.46
3.353,-1.42,2.47,1.1,11.52,-0.8,-2.07,0.45,0.35,1.96
3.353,-1.42,2.47,1.1,10.62,-0.94,-1.85,0.45,0.35,1.96
3.382,-2.01,1.7,-2.3,10.62,-0.94,-1.85,0.45,0.35,1.96
3.424,-2.01,1.7,-2.3,10.62,-0.94,-1.85,0.45,0.35,1.96
3.426,-0.48,0.25,-0.59,10.62,-0.94,-1.85,0.45,0.35,1.96
3.427,-0.48,0.25,-0.59,10.62,-0.94,-1.85,1.48,0.11,0.36
3.429,-0.48,0.25,-0.59,-8.98,8.58,-4.17,1.48,0.11,0.36
3.431,3.37,1.29,1.45,-8.98,8.58,-4.17,1.48,0.11,0.36
3.432,1.98,1.2,-0.38,-8.98,8.58,-4.17,1.48,0.11,0.36
3.433,1.98,1.2,-0.38,-8.98,8.58,-4.17,0.57,-4.12,2.69
3.434,1.98,1.2,-0.38,16.71,-0.29,3.46,0.57,-4.12,2.69
3.443,1.98,1.2,-0.38,16.71,-0.29,3.46,0.57,-4.12,2.69
3.45,-0.93,0.77,-1.12,16.71,-0.29,3.46,0.57,-4.12,2.69
3.471,-0.93,1.22,-1.27,16.71,-0.29,3.46,0.57,-4.12,2.69
3.472,-0.93,1.22,-1.27,16.71,-0.29,3.46,1.18,2.17,0.62
3.472,-0.93,1.22,-1.27,16.02,-0.21,3.86,1.18,2.17,0.62
3.493,-0.97,0.8,-0.14,16.02,-0.21,3.86,1.18,2.17,0.62
3.503,-0.97,0.8,-0.14,16.02,-0.21,3.86,1.18,2.17,0.62
3.526,-0.97,0.8,-0.14,-9.32,-0.06,-5.81,1.18,2.17,0.62
3.528,-0.06,0.71,-0.18,-9.32,-0.06,-5.81,1.18,2.17,0.62
3.529,-0.06,0.71,-0.18,-9.32,-0.06,-5.81,0.17,1.44,0.63
3.53,0.2,1.06,-0.16,-9.32,-0.06,-5.81,0.17,1.44,0.63
3.549,0.19,1.07,-0.29,-9.32,-0.06,-5.81,0.17,1.44,0.63
3.552,0.19,1.07,-0.29,-9.32,-0.06,-5.81,0.12,-0.29,1.44
3.553,0.19,1.07,-0.29,0.48,0.19,0.43,0.12,-0.29,1.44
3.563,0.19,1.07,-0.29,0.48,0.19,0.43,0.12,-0.29,1.44
3.57,0.04,0.87,-0.25,0.48,0.19,0.43,0.12,-0.29,1.44
3.61,-0.03,0.9,-0.27,0.48,0.19,0.43,0.12,-0.29,1.44
3.615,-0.03,0.9,-0.27,0.48,0.19,0.43,0.38,1.23,1.25
3.617,-0.03,0.9,-0.27,-0.09,0.26,0.51,0.38,1.23,1.25
3.617,0.02,0.99,-0.28,-0.09,0.26,0.51,0.38,1.23,1.25
3.65,0.02,0.99,-0.28,-0.09,0.26,0.51,0.38,1.23,1.25
3.653,0.18,0.99,-0.3,-0.09,0.26,0.51,0.38,1.23,1.25
3.656,0.18,0.99,-0.3,-0.09,0.26,0.51,0.32,1.06,1.18
3.657,0.18,0.99,-0.3,-1.56,0.05,0,0.32,1.06,1.18
3.658,0.3,0.95,-0.33,-1.56,0.05,0,0.32,1.06,1.18
3.669,0.3,0.96,-0.36,-1.56,0.05,0,0.32,1.06,1.18
3.67,0.3,0.96,-0.36,-1.56,0.05,0,0.24,0.47,1.2
3.67,0.3,0.96,-0.36,0.43,0.61,-0.55,0.24,0.47,1.2
3.684,0.3,0.96,-0.36,0.43,0.61,-0.55,0.24,0.47,1.2
3.689,0.28,1.03,-0.33,0.43,0.61,-0.55,0.24,0.47,1.2
3.709,0.12,1.07,-0.29,0.43,0.61,-0.55,0.24,0.47,1.2
3.71,0.12,1.07,-0.29,0.43,0.61,-0.55,0.16,0.77,0.98
3.711,0.12,1.07,-0.29,0.01,0.71,-0.56,0.16,0.77,0.98
3.727,-0.09,1.03,-0.3,0.01,0.71,-0.56,0.16,0.77,0.98
3.743,-0.09,1.03,-0.3,0.01,0.71,-0.56,0.16,0.77,0.98
3.748,-0.13,0.99,-0.35,0.01,0.71,-0.56,0.16,0.77,0.98
3.749,-0.13,0.99,-0.35,-1.96,1.58,-0.39,0.16,0.77,0.98
3.751,-0.13,0.99,-0.35,-1.96,1.58,-0.39,0.08,1.01,1.01
3.767,-0.1,1.06,-0.36,-1.96,1.58,-0.39,0.08,1.01,1.01
3.795,-0.1,1.06,-0.36,-4.6,2.23,-0.61,0.08,1.01,1.01
3.797,-0.11,1.22,-0.25,-4.6,2.23,-0.61,0.08,1.01,1.01
3.797,-0.11,1.22,-0.25,-4.6,2.23,-0.61,0.19,1.06,1.47
3.834,-0.11,1.22,-0.25,-4.6,2.23,-0.61,0.19,1.06,1.47
3.838,-0.08,1.26,-0.2,-4.6,2.23,-0.61,0.19,1.06,1.47
3.84,-0.08,1.26,-0.2,-5.31,2.53,-0.72,0.19,1.06,1.47
3.842,0.03,1.3,-0.17,-5.31,2.53,-0.72,0.19,1.06,1.47
3.843,0.03,1.3,-0.17,-5.31,2.53,-0.72,0.18,1.14,2.1
3.846,0.22,1.25,-0.1,-5.31,2.53,-0.72,0.18,1.14,2.1
3.862,0.22,1.25,-0.1,-5.31,2.53,-0.72,0.18,1.14,2.1
3.866,0.22,1.25,-0.1,-4.48,4.72,0.73,0.18,1.14,2.1
3.868,0.33,1.3,-0.06,-4.48,4.72,0.73,0.18,1.14,2.1
3.869,0.33,1.3,-0.06,-4.48,4.72,0.73,0.08,0.97,2.67
3.886,0.29,1.67,-0.12,-4.48,4.72,0.73,0.08,0.97,2.67
3.907,0.02,1.83,-0.29,-4.48,4.72,0.73,0.08,0.97,2.67
3.913,0.02,1.83,-0.29,-4.48,4.72,0.73,0.21,1.91,2.68
3.915,0.02,1.83,-0.29,-3.84,8.39,0.36,0.21,1.91,2.68
3.922,0.02,1.83,-0.29,-3.84,8.39,0.36,0.21,1.91,2.68
3.953,-0.71,1.58,-0.66,-3.84,8.39,0.36,0.21,1.91,2.68
3.96,-1.05,1.45,-0.78,-3.84,8.39,0.36,0.21,1.91,2.68
3.962,-1.05,1.45,-0.78,-3.84,8.39,0.36,0.58,3.77,2.24
3.963,-1.05,1.45,-0.78,-4.61,8.84,-0.43,0.58,3.77,2.24
3.966,-0.17,1.63,-0.65,-4.61,8.84,-0.43,0.58,3.77,2.24
3.982,-0.17,1.63,-0.65,-4.61,8.84,-0.43,0.58,3.77,2.24
3.986,1,1.37,-0.52,-4.61,8.84,-0.43,0.58,3.77,2.24
3.987,1,1.37,-0.52,-4.61,8.84,-0.43,0.35,0.8,3.12
3.988,1,1.37,-0.52,-13.59,9.11,-5.74,0.35,0.8,3.12
4.004,1.19,0.89,-0.35,-13.59,9.11,-5.74,0.35,0.8,3.12
4.039,1.19,0.89,-0.35,2.04,4.13,-1.26,0.35,0.8,3.12
4.042,0.85,0.61,-0.09,2.04,4.13,-1.26,0.35,0.8,3.12
4.043,0.85,0.61,-0.09,2.04,4.13,-1.26,-0.1,-2.5,3.15
4.046,0.85,0.61,-0.09,2.04,4.13,-1.26,-0.1,-2.5,3.15
4.047,0.55,0.54,-0.21,2.04,4.13,-1.26,-0.1,-2.5,3.15
4.063,0.19,0.55,0.04,2.04,4.13,-1.26,-0.1,-2.5,3.15
4.064,0.19,0.55,0.04,2.04,4.13,-1.26,-0.4,-0.56,0.27
4.065,0.19,0.55,0.04,1.99,4.12,-1.14,-0.4,-0.56,0.27
4.084,0.09,0.34,-0.22,1.99,4.12,-1.14,-0.4,-0.56,0.27
4.101,0.09,0.34,-0.22,1.99,4.12,-1.14,-0.4,-0.56,0.27
4.104,0.09,0.34,-0.22,-4.83,-1.09,0.46,-0.4,-0.56,0.27
4.105,0.11,0.25,-0.26,-4.83,-1.09,0.46,-0.4,-0.56,0.27
4.106,0.11,0.25,-0.26,-4.83,-1.09,0.46,-0.66,0.22,-1.64
4.127,0.35,0.41,-0.1,-4.83,-1.09,0.46,-0.66,0.22,-1.64
4.142,0.61,0.55,-0.16,-4.83,-1.09,0.46,-0.66,0.22,-1.64
4.143,0.61,0.55,-0.16,-4.83,-1.09,0.46,-0.86,-0.96,-2.61
4.143,0.61,0.55,-0.16,-3.27,-2.61,0.09,-0.86,-0.96,-2.61
4.161,0.61,0.55,-0.16,-3.27,-2.61,0.09,-0.86,-0.96,-2.61
4.162,0.56,0.48,-0.07,-3.27,-2.61,0.09,-0.86,-0.96,-2.61
4.181,0.39,0.39,-0.14,-3.27,-2.61,0.09,-0.86,-0.96,-2.61
4.182,0.39,0.39,-0.14,-3.27,-2.61,0.09,-1.17,-1.03,-3.67
4.182,0.39,0.39,-0.14,-2.14,-3.53,0.02,-1.17,-1.03,-3.67
4.208,0.3,0.48,-0.21,-2.14,-3.53,0.02,-1.17,-1.03,-3.67
4.221,0.3,0.48,-0.21,-2.14,-3.53,0.02,-1.17,-1.03,-3.67
4.221,0.32,0.59,-0.29,-2.14,-3.53,0.02,-1.17,-1.03,-3.67
4.222,0.32,0.59,-0.29,-2.14,-3.53,0.02,-1.27,-1.33,-4.68
4.223,0.32,0.59,-0.29,0.01,-3.99,0.21,-1.27,-1.33,-4.68
4.24,0.57,0.72,-0.39,0.01,-3.99,0.21,-1.27,-1.33,-4.68
4.261,0.94,0.81,-0.38,0.01,-3.99,0.21,-1.27,-1.33,-4.68
4.262,0.94,0.81,-0.38,0.01,-3.99,0.21,-1.36,-3.02,-5.09
4.262,0.94,0.81,-0.38,3.81,-2.15,-1.97,-1.36,-3.02,-5.09
4.281,1.28,0.9,-0.45,3.81,-2.15,-1.97,-1.36,-3.02,-5.09
4.282,1.28,0.9,-0.45,3.81,-2.15,-1.97,-1.36,-3.02,-5.09
4.306,1.49,1.03,-0.57,3.81,-2.15,-1.97,-1.36,-3.02,-5.09
4.308,1.49,1.03,-0.57,3.81,-2.15,-1.97,-1.53,-3.22,-5.2
4.309,1.49,1.03,-0.57,5.78,-2.43,-2.34,-1.53,-3.22,-5.2
4.32,1.63,1.15,-0.7,5.78,-2.43,-2.34,-1.53,-3.22,-5.2
4.341,1.63,1.15,-0.7,15.75,0.8,-4.89,-1.53,-3.22,-5.2
4.343,1.03,1.2,-0.6,15.75,0.8,-4.89,-1.53,-3.22,-5.2
4.344,1.03,1.2,-0.6,15.75,0.8,-4.89,-1.31,-0.91,-5
4.346,1.03,1.2,-0.6,15.75,0.8,-4.89,-1.31,-0.91,-5
4.36,0.43,1.03,-0.76,15.75,0.8,-4.89,-1.31,-0.91,-5
4.381,0.93,0.79,-0.25,15.75,0.8,-4.89,-1.31,-0.91,-5
4.384,0.93,0.79,-0.25,15.75,0.8,-4.89,-0.41,-0.12,-3.32
4.386,0.93,0.79,-0.25,10.23,0.89,-4.62,-0.41,-0.12,-3.32
4.421,1.45,0.6,-0.12,10.23,0.89,-4.62,-0.41,-0.12,-3.32
4.425,1.45,0.6,-0.12,10.23,0.89,-4.62,-0.41,-0.12,-3.32
4.427,1.45,0.6,-0.12,9.83,0.82,-4.54,-0.41,-0.12,-3.32
4.43,0.61,1.24,-0.38,9.83,0.82,-4.54,-0.41,-0.12,-3.32
4.432,0.61,1.24,-0.38,9.83,0.82,-4.54,0.4,-1.46,0.77
4.447,-1.24,2.6,1.79,9.83,0.82,-4.54,0.4,-1.46,0.77
4.459,-1.44,1.86,-1.98,9.83,0.82,-4.54,0.4,-1.46,0.77
4.461,-1.44,1.86,-1.98,9.83,0.82,-4.54,0.83,0.54,1.88
4.461,-1.44,1.86,-1.98,3.9,5.23,5.21,0.83,0.54,1.88
4.462,-1.44,1.86,-1.98,3.9,5.23,5.21,0.83,0.54,1.88
4.477,-0.6,0.43,-1.79,3.9,5.23,5.21,0.83,0.54,1.88
4.499,-0.6,0.43,-1.79,1,0.34,-7.06,0.83,0.54,1.88
4.501,2.11,0.65,1.12,1,0.34,-7.06,0.83,0.54,1.88
4.501,2.11,0.65,1.12,1,0.34,-7.06,1.58,-2.45,1.61
4.537,2.28,1.15,-0.27,1,0.34,-7.06,1.58,-2.45,1.61
4.54,2.28,1.15,-0.27,1,0.34,-7.06,1.58,-2.45,1.61
4.541,-0.05,0.96,-0.65,1,0.34,-7.06,1.58,-2.45,1.61
4.543,-0.05,0.96,-0.65,1,0.34,-7.06,0.81,-1.51,2.4
4.544,-0.05,0.96,-0.65,0.22,0.35,-6.67,0.81,-1.51,2.4
4.557,-0.74,1.3,-0.9,0.22,0.35,-6.67,0.81,-1.51,2.4
4.577,-1.43,0.96,-0.32,0.22,0.35,-6.67,0.81,-1.51,2.4
4.579,-1.43,0.96,-0.32,0.22,0.35,-6.67,0.82,3.21,0.45
4.581,-1.43,0.96,-0.32,4.32,1.94,-3.63,0.82,3.21,0.45
4.582,-1.43,0.96,-0.32,4.32,1.94,-3.63,0.82,3.21,0.45
4.606,-0.29,0.63,-0.48,4.32,1.94,-3.63,0.82,3.21,0.45
4.616,0.69,1,-0.18,4.32,1.94,-3.63,0.82,3.21,0.45
4.618,0.69,1,-0.18,4.32,1.94,-3.63,0.2,-0.53,1.3
4.619,0.69,1,-0.18,-4.23,-0.66,-0.81,0.2,-0.53,1.3
4.654,1.05,1.1,0.03,-4.23,-0.66,-0.81,0.2,-0.53,1.3
4.66,1.05,1.1,0.03,-4.23,-0.66,-0.81,0.2,-0.53,1.3
4.661,0.19,0.82,-0.11,-4.23,-0.66,-0.81,0.2,-0.53,1.3
4.661,0.19,0.82,-0.11,-4.23,-0.66,-0.81,0.23,-0.59,1.5
4.662,0.19,0.82,-0.11,-4.63,-0.56,-0.69,0.23,-0.59,1.5
4.677,-0.3,0.92,-0.35,-4.63,-0.56,-0.69,0.23,-0.59,1.5
4.711,-0.06,1.04,-0.37,-4.63,-0.56,-0.69,0.23,-0.59,1.5
4.716,-0.06,1.04,-0.37,-4.63,-0.56,-0.69,0.54,1.6,0.8
4.717,-0.06,1.04,-0.37,1.32,0.34,1.2,0.54,1.6,0.8
4.718,-0.06,1.04,-0.37,1.32,0.34,1.2,0.54,1.6,0.8
4.718,0.29,0.94,-0.25,1.32,0.34,1.2,0.54,1.6,0.8
4.746,0.29,0.94,-0.25,0.19,0.69,-0.01,0.54,1.6,0.8
4.747,0.48,0.94,-0.21,0.19,0.69,-0.01,0.54,1.6,0.8
4.748,0.48,0.94,-0.21,0.19,0.69,-0.01,0.32,0.11,1.1
4.755,0.29,1.01,-0.31,0.19,0.69,-0.01,0.32,0.11,1.1
4.762,0.29,1.01,-0.31,0.19,0.69,-0.01,0.32,0.11,1.1
4.777,0.29,1.01,-0.31,-0.17,0.8,0.08,0.32,0.11,1.1
4.78,0.1,1.08,-0.35,-0.17,0.8,0.08,0.32,0.11,1.1
4.782,0.1,1.08,-0.35,-0.17,0.8,0.08,0.32,0.2,0.99
4.796,0.1,1.08,-0.28,-0.17,0.8,0.08,0.32,0.2,0.99
4.814,0.13,1.09,-0.23,-0.17,0.8,0.08,0.32,0.2,0.99
4.817,0.13,1.09,-0.23,-0.17,0.8,0.08,0.24,0.39,0.9
4.819,0.13,1.09,-0.23,-1.24,1.71,-0.27,0.24,0.39,0.9
4.821,0.13,1.09,-0.23,-1.24,1.71,-0.27,0.24,0.39,0.9
4.85,0.04,1.07,-0.31,-1.24,1.71,-0.27,0.24,0.39,0.9
4.853,-0.03,1.09,-0.35,-1.24,1.71,-0.27,0.24,0.39,0.9
4.854,-0.03,1.09,-0.35,-2.81,2.09,-0.08,0.24,0.39,0.9
4.856,-0.03,1.09,-0.35,-2.81,2.09,-0.08,0.1,0.48,1.19
4.881,-0.22,1.14,-0.39,-2.81,2.09,-0.08,0.1,0.48,1.19
4.882,-0.22,1.14,-0.39,-2.81,2.09,-0.08,0.1,0.48,1.19
4.9,-0.32,1.2,-0.38,-2.81,2.09,-0.08,0.1,0.48,1.19
4.902,-0.32,1.2,-0.38,-2.81,2.09,-0.08,0.15,1.35,1.62
4.903,-0.32,1.2,-0.38,-3.44,2.3,-0.21,0.15,1.35,1.62
4.912,-0.14,1.17,-0.25,-3.44,2.3,-0.21,0.15,1.35,1.62
4.932,0.17,1.18,-0.11,-3.44,2.3,-0.21,0.15,1.35,1.62
4.934,0.17,1.18,-0.11,-3.44,2.3,-0.21,0.1,1.14,2.36
4.936,0.17,1.18,-0.11,-6.84,3.5,-0.8,0.1,1.14,2.36
4.943,0.17,1.18,-0.11,-6.84,3.5,-0.8,0.1,1.14,2.36
4.952,0.35,1.3,-0.03,-6.84,3.5,-0.8,0.1,1.14,2.36
4.973,0.39,1.58,-0.01,-6.84,3.5,-0.8,0.1,1.14,2.36
4.976,0.39,1.58,-0.01,-6.84,3.5,-0.8,0.15,1.08,2.83
4.976,0.39,1.58,-0.01,-2.58,5.82,1.81,0.15,1.08,2.83
4.992,0.02,1.72,-0.19,-2.58,5.82,1.81,0.15,1.08,2.83
5.001,0.02,1.72,-0.19,-2.58,5.82,1.81,0.15,1.08,2.83
5.024,-0.67,1.63,-0.64,-2.58,5.82,1.81,0.15,1.08,2.83
5.026,-0.67,1.63,-0.64,-2.58,5.82,1.81,0.63,3.2,2.51
5.027,-0.67,1.63,-0.64,-3.49,6.36,1.2,0.63,3.2,2.51
5.031,-0.83,1.77,-0.87,-3.49,6.36,1.2,0.63,3.2,2.51
5.051,0.07,1.87,-0.64,-3.49,6.36,1.2,0.63,3.2,2.51
5.053,0.07,1.87,-0.64,-3.49,6.36,1.2,0.82,3.34,2.49
5.054,0.07,1.87,-0.64,-11.92,10.37,-4.5,0.82,3.34,2.49
5.06,0.07,1.87,-0.64,-11.92,10.37,-4.5,0.82,3.34,2.49
5.07,0.91,1.38,-0.45,-11.92,10.37,-4.5,0.82,3.34,2.49
5.103,0.99,0.89,-0.5,-11.92,10.37,-4.5,0.82,3.34,2.49
5.107,0.99,0.89,-0.5,-11.92,10.37,-4.5,0.16,-0.34,3.22
5.109,0.99,0.89,-0.5,-1.35,7.96,-3.9,0.16,-0.34,3.22
5.145,0.72,0.65,-0.12,-1.35,7.96,-3.9,0.16,-0.34,3.22
5.146,0.72,0.65,-0.12,-1.35,7.96,-3.9,0.16,-0.34,3.22
5.147,0.51,0.52,-0.05,-1.35,7.96,-3.9,0.16,-0.34,3.22
5.148,0.51,0.52,-0.05,-1.35,7.96,-3.9,-0.19,-1.16,1.3
5.149,0.51,0.52,-0.05,-1.53,8.22,-3.52,-0.19,-1.16,1.3
5.15,0.34,0.43,0.19,-1.53,8.22,-3.52,-0.19,-1.16,1.3
5.169,0.2,0.23,-0.1,-1.53,8.22,-3.52,-0.19,-1.16,1.3
5.171,0.2,0.23,-0.1,-1.53,8.22,-3.52,-0.51,0.08,-1.19
5.171,0.2,0.23,-0.1,-2.55,-0.44,1.58,-0.51,0.08,-1.19
5.182,0.2,0.23,-0.1,-2.55,-0.44,1.58,-0.51,0.08,-1.19
5.189,0.15,0.23,-0.04,-2.55,-0.44,1.58,-0.51,0.08,-1.19
5.216,0.34,0.47,0.05,-2.55,-0.44,1.58,-0.51,0.08,-1.19
5.218,0.34,0.47,0.05,-2.55,-0.44,1.58,-0.38,-0.39,-2.72
5.219,0.34,0.47,0.05,-4.65,-3.4,1.25,-0.38,-0.39,-2.72
5.241,0.5,0.63,0.02,-4.65,-3.4,1.25,-0.38,-0.39,-2.72
5.243,0.5,0.63,0.02,-4.65,-3.4,1.25,-0.38,-0.39,-2.72
5.248,0.43,0.52,0.05,-4.65,-3.4,1.25,-0.38,-0.39,-2.72
5.249,0.43,0.52,0.05,-4.65,-3.4,1.25,-0.43,-1.14,-3.55
5.249,0.43,0.52,0.05,-3.55,-4.25,1.39,-0.43,-1.14,-3.55
5.267,0.37,0.39,0.04,-3.55,-4.25,1.39,-0.43,-1.14,-3.55
5.287,0.44,0.45,0.01,-3.55,-4.25,1.39,-0.43,-1.14,-3.55
5.288,0.44,0.45,0.01,-3.55,-4.25,1.39,-0.7,-1.43,-4.47
5.289,0.44,0.45,0.01,-0.08,-3.17,2.07,-0.7,-1.43,-4.47
5.3,0.44,0.45,0.01,-0.08,-3.17,2.07,-0.7,-1.43,-4.47
5.315,0.67,0.66,-0.09,-0.08,-3.17,2.07,-0.7,-1.43,-4.47
5.326,0.88,0.74,-0.18,-0.08,-3.17,2.07,-0.7,-1.43,-4.47
5.327,0.88,0.74,-0.18,-0.08,-3.17,2.07,-0.92,-2.16,-5.16
5.327,0.88,0.74,-0.18,4,-2.85,0.79,-0.92,-2.16,-5.16
5.346,1.12,0.75,-0.36,4,-2.85,0.79,-0.92,-2.16,-5.16
5.36,1.12,0.75,-0.36,4,-2.85,0.79,-0.92,-2.16,-5.16
5.366,1.23,0.99,-0.59,4,-2.85,0.79,-0.92,-2.16,-5.16
5.367,1.23,0.99,-0.59,4,-2.85,0.79,-1.15,-2.62,-5.46
5.368,1.23,0.99,-0.59,6.02,-3.17,0.51,-1.15,-2.62,-5.46
5.386,1.24,1.1,-0.57,6.02,-3.17,0.51,-1.15,-2.62,-5.46
5.407,1.42,1.18,-0.73,6.02,-3.17,0.51,-1.15,-2.62,-5.46
5.409,1.42,1.18,-0.73,6.02,-3.17,0.51,-1.16,-2.44,-4.98
5.409,1.42,1.18,-0.73,12.96,0.11,-3.96,-1.16,-2.44,-4.98
5.421,1.42,1.18,-0.73,12.96,0.11,-3.96,-1.16,-2.44,-4.98
5.433,1.33,0.98,-0.49,12.96,0.11,-3.96,-1.16,-2.44,-4.98
5.446,1.12,0.93,-0.44,12.96,0.11,-3.96,-1.16,-2.44,-4.98
5.449,1.12,0.93,-0.44,12.96,0.11,-3.96,-0.43,-1.02,-3.39
5.451,1.12,0.93,-0.44,14.89,1.11,-4.56,-0.43,-1.02,-3.39
5.465,0.96,0.85,-0.28,14.89,1.11,-4.56,-0.43,-1.02,-3.39
5.481,0.96,0.85,-0.28,14.89,1.11,-4.56,-0.43,-1.02,-3.39
5.486,0.79,0.98,-0.46,14.89,1.11,-4.56,-0.43,-1.02,-3.39
5.487,0.79,0.98,-0.46,14.89,1.11,-4.56,0.39,0.25,-0.47
5.488,0.79,0.98,-0.46,14.79,1.15,-4.33,0.39,0.25,-0.47
5.509,-0.41,2.17,0.88,14.79,1.15,-4.33,0.39,0.25,-0.47
5.58,-0.41,2.17,0.88,5.84,3.94,1.6,0.39,0.25,-0.47
5.588,-1.6,2.42,0.39,5.84,3.94,1.6,0.39,0.25,-0.47
5.589,-1.6,2.42,0.39,5.84,3.94,1.6,0.25,0.19,1.72
5.591,-1.6,2.42,0.39,5.84,3.94,1.6,0.25,0.19,1.72
5.592,-1.22,0.75,-3.11,5.84,3.94,1.6,0.25,0.19,1.72
5.594,0.88,0.58,0.69,5.84,3.94,1.6,0.25,0.19,1.72
5.595,0.88,0.58,0.69,5.84,3.94,1.6,1.59,-1.81,0.6
5.597,0.88,0.58,0.69,-4.94,3.13,-4.91,1.59,-1.81,0.6
5.599,3.01,1.26,0.53,-4.94,3.13,-4.91,1.59,-1.81,0.6
5.6,3.01,1.26,0.53,-4.94,3.13,-4.91,1.59,-1.81,0.6
5.605,3.01,1.26,0.53,-5.48,3.03,-4.72,1.59,-1.81,0.6
5.608,0.54,0.83,-0.23,-5.48,3.03,-4.72,1.59,-1.81,0.6
5.609,0.54,0.83,-0.23,-5.48,3.03,-4.72,0.67,-3.21,2.39
5.645,-0.7,1.12,-1.25,-5.48,3.03,-4.72,0.67,-3.21,2.39
5.649,-0.7,1.12,-1.25,9.57,1.32,-0.73,0.67,-3.21,2.39
5.651,-1.44,1.13,-0.69,9.57,1.32,-0.73,0.67,-3.21,2.39
5.653,-1.44,1.13,-0.69,9.57,1.32,-0.73,1.07,3.05,0.35
5.688,-1.44,1.13,-0.69,9.57,1.32,-0.73,1.07,3.05,0.35
5.691,-0.77,0.6,-0.45,9.57,1.32,-0.73,1.07,3.05,0.35
5.694,-0.77,0.6,-0.45,-6.42,-0.73,-1.87,1.07,3.05,0.35
5.695,0.24,0.84,-0.19,-6.42,-0.73,-1.87,1.07,3.05,0.35
5.697,0.24,0.84,-0.19,-6.42,-0.73,-1.87,0.2,0.29,1.02
5.703,0.55,1.18,0.01,-6.42,-0.73,-1.87,0.2,0.29,1.02
5.726,0.55,1.18,0.01,-6.42,-0.73,-1.87,0.2,0.29,1.02
5.728,0.55,1.18,0.01,-6.83,-0.69,-1.78,0.2,0.29,1.02
5.729,0.2,0.98,-0.09,-6.83,-0.69,-1.78,0.2,0.29,1.02
5.73,0.2,0.98,-0.09,-6.83,-0.69,-1.78,0.14,-0.6,1.62
5.768,-0.16,0.89,-0.29,-6.83,-0.69,-1.78,0.14,-0.6,1.62
5.77,-0.18,0.95,-0.4,-6.83,-0.69,-1.78,0.14,-0.6,1.62
5.77,-0.18,0.95,-0.4,-6.83,-0.69,-1.78,0.45,1.35,1.24
5.771,-0.18,0.95,-0.4,0.92,0.92,1.45,0.45,1.35,1.24
5.779,-0.18,0.95,-0.4,0.92,0.92,1.45,0.45,1.35,1.24
5.782,0.05,0.89,-0.28,0.92,0.92,1.45,0.45,1.35,1.24
5.818,0.33,0.94,-0.2,0.92,0.92,1.45,0.45,1.35,1.24
5.821,0.33,0.94,-0.2,0.92,0.92,1.45,0.3,0.42,1.37
5.823,0.33,0.94,-0.2,-0.86,0.15,-0.13,0.3,0.42,1.37
5.825,0.39,1.04,-0.31,-0.86,0.15,-0.13,0.3,0.42,1.37
5.84,0.39,1.04,-0.31,-0.86,0.15,-0.13,0.3,0.42,1.37
5.846,0.34,1.04,-0.32,-0.86,0.15,-0.13,0.3,0.42,1.37
5.847,0.34,1.04,-0.32,-0.86,0.15,-0.13,0.32,0.19,1.35
5.847,0.34,1.04,-0.32,-1.33,0.27,-0.03,0.32,0.19,1.35
5.861,0.29,1.03,-0.28,-1.33,0.27,-0.03,0.32,0.19,1.35
5.881,0.26,1.07,-0.26,-1.33,0.27,-0.03,0.32,0.19,1.35
5.884,0.26,1.07,-0.26,-1.33,0.27,-0.03,0.28,0.66,1.05
5.886,0.26,1.07,-0.26,0.93,1.43,-0.09,0.28,0.66,1.05
5.914,0.26,1.07,-0.26,0.93,1.43,-0.09,0.28,0.66,1.05
5.917,0.18,1.1,-0.27,0.93,1.43,-0.09,0.28,0.66,1.05
5.92,-0.02,1.08,-0.27,0.93,1.43,-0.09,0.28,0.66,1.05
5.921,-0.02,1.08,-0.27,0.93,1.43,-0.09,0.14,0.68,0.99
5.922,-0.02,1.08,-0.27,-1.42,1.98,0.22,0.14,0.68,0.99
5.954,-0.14,0.99,-0.35,-1.42,1.98,0.22,0.14,0.68,0.99
5.96,-0.14,0.99,-0.35,-1.42,1.98,0.22,0.14,0.68,0.99
5.962,-0.12,1.16,-0.34,-1.42,1.98,0.22,0.14,0.68,0.99
5.964,-0.12,1.16,-0.34,-1.42,1.98,0.22,0.08,0.88,1.29
5.965,-0.12,1.16,-0.34,-1.92,2.11,0.14,0.08,0.88,1.29
5.98,-0.15,1.33,-0.29,-1.92,2.11,0.14,0.08,0.88,1.29
6.011,-0.16,1.25,-0.18,-1.92,2.11,0.14,0.08,0.88,1.29
6.014,-0.16,1.25,-0.18,-1.92,2.11,0.14,0.03,1.05,1.91
6.016,-0.16,1.25,-0.18,-5.31,3.12,-0.56,0.03,1.05,1.91
6.02,-0.16,1.25,-0.18,-5.31,3.12,-0.56,0.03,1.05,1.91
6.021,0.04,1.18,-0.11,-5.31,3.12,-0.56,0.03,1.05,1.91
6.042,0.29,1.2,-0.04,-5.31,3.12,-0.56,0.03,1.05,1.91
6.044,0.29,1.2,-0.04,-5.31,3.12,-0.56,-0.1,0.7,2.57
6.044,0.29,1.2,-0.04,-4.24,3.96,1.41,-0.1,0.7,2.57
6.06,0.41,1.41,-0.03,-4.24,3.96,1.41,-0.1,0.7,2.57
6.079,0.41,1.41,-0.03,-5.12,4.47,1.1,-0.1,0.7,2.57
6.082,0.22,1.71,-0.07,-5.12,4.47,1.1,-0.1,0.7,2.57
6.084,0.22,1.71,-0.07,-5.12,4.47,1.1,0.08,1.47,2.78
6.086,0.22,1.71,-0.07,-5.12,4.47,1.1,0.08,1.47,2.78
6.101,-0.4,1.65,-0.52,-5.12,4.47,1.1,0.08,1.47,2.78
6.128,-0.79,1.7,-0.78,-5.12,4.47,1.1,0.08,1.47,2.78
6.13,-0.79,1.7,-0.78,-5.12,4.47,1.1,0.7,4.1,2.36
6.13,-0.79,1.7,-0.78,-5.77,8.69,-0.64,0.7,4.1,2.36
6.137,-0.14,1.92,-0.82,-5.77,8.69,-0.64,0.7,4.1,2.36
6.139,-0.14,1.92,-0.82,-5.77,8.69,-0.64,0.7,4.1,2.36
6.158,0.86,1.49,-0.51,-5.77,8.69,-0.64,0.7,4.1,2.36
6.161,0.86,1.49,-0.51,-5.77,8.69,-0.64,0.61,2.6,2.9
6.163,0.86,1.49,-0.51,-7.51,10.45,-5.99,0.61,2.6,2.9
6.179,1.03,0.91,-0.4,-7.51,10.45,-5.99,0.61,2.6,2.9
6.198,0.71,0.64,-0.03,-7.51,10.45,-5.99,0.61,2.6,2.9
6.201,0.71,0.64,-0.03,-7.51,10.45,-5.99,0.07,-0.81,2.87
6.202,0.71,0.64,-0.03,-8,11.12,-5.62,0.07,-0.81,2.87
6.204,0.71,0.64,-0.03,-8,11.12,-5.62,0.07,-0.81,2.87
6.226,0.52,0.47,-0.22,-8,11.12,-5.62,0.07,-0.81,2.87
6.237,0.52,0.47,-0.22,-0.41,1.07,-0.87,0.07,-0.81,2.87
6.238,0.29,0.44,0.21,-0.41,1.07,-0.87,0.07,-0.81,2.87
6.239,0.29,0.44,0.21,-0.41,1.07,-0.87,-0.09,-0.03,0.24
6.266,0.11,0.23,-0.07,-0.41,1.07,-0.87,-0.09,-0.03,0.24
6.268,0.11,0.23,-0.07,-0.41,1.07,-0.87,-0.09,-0.03,0.24
6.278,0.12,0.14,-0.07,-0.41,1.07,-0.87,-0.09,-0.03,0.24
6.281,0.12,0.14,-0.07,-5.57,-3.42,1.36,-0.09,-0.03,0.24
6.283,0.12,0.14,-0.07,-5.57,-3.42,1.36,-0.17,0.2,-1.94
6.296,0.44,0.32,-0.01,-5.57,-3.42,1.36,-0.17,0.2,-1.94
6.324,0.62,0.49,-0.05,-5.57,-3.42,1.36,-0.17,0.2,-1.94
6.327,0.62,0.49,-0.05,-5.57,-3.42,1.36,0.02,-1.04,-2.94
6.328,0.62,0.49,-0.05,-4.68,-4.15,1.62,0.02,-1.04,-2.94
6.33,0.62,0.49,-0.05,-4.68,-4.15,1.62,0.02,-1.04,-2.94
6.336,0.55,0.49,-0.04,-4.68,-4.15,1.62,0.02,-1.04,-2.94
6.355,0.33,0.42,0.05,-4.68,-4.15,1.62,0.02,-1.04,-2.94
6.357,0.33,0.42,0.05,-4.68,-4.15,1.62,-0.02,-0.87,-3.94
6.36,0.33,0.42,0.05,0.05,-3.36,1.24,-0.02,-0.87,-3.94
6.374,0.28,0.45,-0.03,0.05,-3.36,1.24,-0.02,-0.87,-3.94
6.378,0.28,0.45,-0.03,0.05,-3.36,1.24,-0.02,-0.87,-3.94
6.394,0.36,0.56,-0.05,0.05,-3.36,1.24,-0.02,-0.87,-3.94
6.395,0.36,0.56,-0.05,0.05,-3.36,1.24,-0.09,-0.58,-4.7
6.396,0.36,0.56,-0.05,-0.47,-3.72,1.51,-0.09,-0.58,-4.7
6.424,0.52,0.62,-0.07,-0.47,-3.72,1.51,-0.09,-0.58,-4.7
6.434,0.83,0.78,-0.19,-0.47,-3.72,1.51,-0.09,-0.58,-4.7
6.436,0.83,0.78,-0.19,-0.47,-3.72,1.51,-0.04,-1.89,-5.03
6.437,0.83,0.78,-0.19,1.37,-4.2,1.67,-0.04,-1.89,-5.03
6.439,0.83,0.78,-0.19,1.37,-4.2,1.67,-0.04,-1.89,-5.03
6.469,1.06,0.95,-0.29,1.37,-4.2,1.67,-0.04,-1.89,-5.03
6.474,1.17,1.08,-0.29,1.37,-4.2,1.67,-0.04,-1.89,-5.03
6.476,1.17,1.08,-0.29,1.37,-4.2,1.67,-0.1,-3.13,-5.12
6.477,1.17,1.08,-0.29,7.99,-1.36,0.04,-0.1,-3.13,-5.12
6.506,1.53,1.22,-0.37,7.99,-1.36,0.04,-0.1,-3.13,-5.12
6.51,1.53,1.22,-0.37,7.99,-1.36,0.04,-0.1,-3.13,-5.12
6.566,1.53,1.22,-0.37,16.1,2.59,-1.78,-0.1,-3.13,-5.12
6.569,1.74,1.22,-0.4,16.1,2.59,-1.78,-0.1,-3.13,-5.12
6.57,1.74,1.22,-0.4,16.1,2.59,-1.78,-0.3,-2.54,-4.46
6.572,1.15,1.01,-0.24,16.1,2.59,-1.78,-0.3,-2.54,-4.46
6.573,1.15,1.01,-0.24,16.85,2.78,-1.84,-0.3,-2.54,-4.46
6.576,0.56,1.05,-0.36,16.85,2.78,-1.84,-0.3,-2.54,-4.46
6.577,0.56,1.05,-0.36,16.85,2.78,-1.84,-0.2,-0.34,-2.91
6.578,0.56,1.05,-0.36,16.85,2.78,-1.84,-0.2,-0.34,-2.91
6.58,0.61,0.99,-0.2,16.85,2.78,-1.84,-0.2,-0.34,-2.91
6.603,0.74,1.18,-0.34,16.85,2.78,-1.84,-0.2,-0.34,-2.91
6.605,0.74,1.18,-0.34,16.85,2.78,-1.84,0.16,-0.92,0.2
6.607,0.74,1.18,-0.34,9.72,1.21,-1.02,0.16,-0.92,0.2
6.643,-0.63,2.15,0.82,9.72,1.21,-1.02,0.16,-0.92,0.2
6.644,-0.63,2.15,0.82,9.72,1.21,-1.02,0.16,-0.92,0.2
6.645,-1.67,1.96,-0.69,9.72,1.21,-1.02,0.16,-0.92,0.2
6.646,-1.67,1.96,-0.69,9.72,1.21,-1.02,0.51,-1.12,1.5
6.647,-1.67,1.96,-0.69,-3.3,8.28,0.97,0.51,-1.12,1.5
6.651,0.2,0.97,-2.07,-3.3,8.28,0.97,0.51,-1.12,1.5
6.671,2.94,1.05,2.19,-3.3,8.28,0.97,0.51,-1.12,1.5
6.673,2.94,1.05,2.19,-3.3,8.28,0.97,1.08,-2.41,1.18
6.673,2.94,1.05,2.19,-3.49,8.14,1.18,1.08,-2.41,1.18
6.679,2.94,1.05,2.19,-3.49,8.14,1.18,1.08,-2.41,1.18
6.691,0.85,0.72,-0.77,-3.49,8.14,1.18,1.08,-2.41,1.18
6.73,0.85,0.72,-0.77,13.84,-0.18,-0.02,1.08,-2.41,1.18
6.734,-1.59,0.85,-0.73,13.84,-0.18,-0.02,1.08,-2.41,1.18
6.736,-1.59,0.85,-0.73,13.84,-0.18,-0.02,0.64,0.14,1.45
6.739,-0.96,1.05,-1.35,13.84,-0.18,-0.02,0.64,0.14,1.45
6.74,-0.96,1.05,-1.35,13.84,-0.18,-0.02,0.64,0.14,1.45
6.766,-0.5,0.82,-0.35,13.84,-0.18,-0.02,0.64,0.14,1.45
6.767,-0.5,0.82,-0.35,13.84,-0.18,-0.02,0.75,2.17,0.69
6.768,-0.5,0.82,-0.35,-9.45,-0.2,-5.42,0.75,2.17,0.69
6.769,0.29,0.92,-0.16,-9.45,-0.2,-5.42,0.75,2.17,0.69
6.789,0.51,1.07,-0.03,-9.45,-0.2,-5.42,0.75,2.17,0.69
6.79,0.51,1.07,-0.03,-9.71,-0.23,-5.4,0.75,2.17,0.69
6.791,0.51,1.07,-0.03,-9.71,-0.23,-5.4,-0.18,-0.92,1.45
6.802,0.51,1.07,-0.03,-9.71,-0.23,-5.4,-0.18,-0.92,1.45
6.852,-0.09,1.02,-0.18,-9.71,-0.23,-5.4,-0.18,-0.92,1.45
6.855,-0.21,0.93,-0.28,-9.71,-0.23,-5.4,-0.18,-0.92,1.45
6.857,-0.21,0.93,-0.28,-9.71,-0.23,-5.4,0.17,0.63,1.3
6.859,-0.21,0.93,-0.28,2.03,0.69,1.37,0.17,0.63,1.3
6.86,-0.15,0.91,-0.33,2.03,0.69,1.37,0.17,0.63,1.3
6.865,-0.15,0.91,-0.33,2.03,0.69,1.37,0.17,0.63,1.3
6.869,0.12,0.93,-0.28,2.03,0.69,1.37,0.17,0.63,1.3
6.871,0.12,0.93,-0.28,2.03,0.69,1.37,0.22,0.71,1.29
6.872,0.12,0.93,-0.28,-1.6,-0.01,-0.25,0.22,0.71,1.29
6.889,0.29,0.95,-0.2,-1.6,-0.01,-0.25,0.22,0.71,1.29
6.917,0.29,0.96,-0.21,-1.6,-0.01,-0.25,0.22,0.71,1.29
6.92,0.29,0.96,-0.21,-1.6,-0.01,-0.25,0.12,0.08,1.43
6.92,0.29,0.96,-0.21,-2.08,0.06,-0.21,0.12,0.08,1.43
6.921,0.29,0.96,-0.21,-2.08,0.06,-0.21,0.12,0.08,1.43
6.955,0.21,0.97,-0.31,-2.08,0.06,-0.21,0.12,0.08,1.43
6.957,0.24,0.99,-0.3,-2.08,0.06,-0.21,0.12,0.08,1.43
6.958,0.24,0.99,-0.3,-2.08,0.06,-0.21,0.25,0.53,1.22
6.959,0.24,0.99,-0.3,0.79,0.52,0.38,0.25,0.53,1.22
6.967,0.28,0.98,-0.3,0.79,0.52,0.38,0.25,0.53,1.22
6.978,0.28,0.98,-0.3,0.79,0.52,0.38,0.25,0.53,1.22
6.987,0.29,1.01,-0.3,0.79,0.52,0.38,0.25,0.53,1.22
6.989,0.29,1.01,-0.3,0.79,0.52,0.38,0.13,0.41,1.11
6.99,0.29,1.01,-0.3,0.39,0.95,-0.2,0.13,0.41,1.11
7.008,0.25,1.06,-0.32,0.39,0.95,-0.2,0.13,0.41,1.11
7.034,0.25,1.06,-0.32,-0.05,1.04,-0.24,0.13,0.41,1.11
7.037,0.03,1.05,-0.27,-0.05,1.04,-0.24,0.13,0.41,1.11
7.037,0.03,1.05,-0.27,-0.05,1.04,-0.24,0.06,0.73,1.05
7.071,0.03,1.05,-0.27,-0.05,1.04,-0.24,0.06,0.73,1.05
7.073,-0.11,1.02,-0.3,-0.05,1.04,-0.24,0.06,0.73,1.05
7.074,0.01,1.14,-0.33,-0.05,1.04,-0.24,0.06,0.73,1.05
7.077,0.01,1.14,-0.33,-0.05,1.04,-0.24,0.06,1.23,1.22
7.079,0.01,1.14,-0.33,-2.64,1.61,-0.3,0.06,1.23,1.22
7.086,0.13,1.27,-0.28,-2.64,1.61,-0.3,0.06,1.23,1.22
7.108,0.13,1.27,-0.28,-2.64,1.61,-0.3,0.06,1.23,1.22
7.11,0,1.19,-0.22,-2.64,1.61,-0.3,0.06,1.23,1.22
7.111,0,1.19,-0.22,-2.64,1.61,-0.3,0,1.12,1.8
7.112,0,1.19,-0.22,-3.41,3.38,-0.27,0,1.12,1.8
7.125,0.03,1.17,-0.16,-3.41,3.38,-0.27,0,1.12,1.8
7.147,0.03,1.17,-0.16,-4.19,3.7,-0.48,0,1.12,1.8
7.149,0.12,1.25,-0.14,-4.19,3.7,-0.48,0,1.12,1.8
7.149,0.12,1.25,-0.14,-4.19,3.7,-0.48,-0.1,1.1,2.32
7.158,0.12,1.25,-0.14,-4.19,3.7,-0.48,-0.1,1.1,2.32
7.166,0.17,1.49,-0.19,-4.19,3.7,-0.48,-0.1,1.1,2.32
7.185,0.19,1.65,-0.2,-4.19,3.7,-0.48,-0.1,1.1,2.32
7.188,0.19,1.65,-0.2,-4.19,3.7,-0.48,-0.12,1.25,2.71
7.189,0.19,1.65,-0.2,-4.45,5.12,0.33,-0.12,1.25,2.71
7.211,-0.06,1.81,-0.36,-4.45,5.12,0.33,-0.12,1.25,2.71
7.218,-0.06,1.81,-0.36,-4.45,5.12,0.33,-0.12,1.25,2.71
7.225,-0.06,1.81,-0.36,-7.35,9.32,-2.69,-0.12,1.25,2.71
7.226,-0.45,1.58,-0.69,-7.35,9.32,-2.69,-0.12,1.25,2.71
7.226,-0.45,1.58,-0.69,-7.35,9.32,-2.69,0.27,2.75,2.61
7.248,-0.19,1.24,-0.58,-7.35,9.32,-2.69,0.27,2.75,2.61
7.263,0.61,1.35,-0.36,-7.35,9.32,-2.69,0.27,2.75,2.61
7.265,0.61,1.35,-0.36,-7.35,9.32,-2.69,0.55,2.83,2.23
7.266,0.61,1.35,-0.36,-7.94,9.77,-3.23,0.55,2.83,2.23
7.278,0.61,1.35,-0.36,-7.94,9.77,-3.23,0.55,2.83,2.23
7.283,1.06,1.15,-0.3,-7.94,9.77,-3.23,0.55,2.83,2.23
7.303,0.79,0.65,-0.3,-7.94,9.77,-3.23,0.55,2.83,2.23
7.305,0.79,0.65,-0.3,-7.94,9.77,-3.23,0.31,0.71,2.11
7.307,0.79,0.65,-0.3,-2.6,6.02,-3.26,0.31,0.71,2.11
7.332,0.54,0.35,-0.12,-2.6,6.02,-3.26,0.31,0.71,2.11
7.338,0.54,0.35,-0.12,-2.6,6.02,-3.26,0.31,0.71,2.11
7.343,0.39,0.44,0,-2.6,6.02,-3.26,0.31,0.71,2.11
7.346,0.39,0.44,0,-2.6,6.02,-3.26,0.28,0.88,0.33
7.348,0.39,0.44,0,-1.88,-1.37,-0.73,0.28,0.88,0.33
7.377,0.16,0.45,0.2,-1.88,-1.37,-0.73,0.28,0.88,0.33
7.383,-0.05,0.24,-0.13,-1.88,-1.37,-0.73,0.28,0.88,0.33
7.383,-0.05,0.24,-0.13,-1.57,-1.69,-0.94,0.28,0.88,0.33
7.384,-0.05,0.24,-0.13,-1.57,-1.69,-0.94,0.21,0.95,-1.24
7.398,-0.05,0.24,-0.13,-1.57,-1.69,-0.94,0.21,0.95,-1.24
7.402,-0.05,0.29,-0.12,-1.57,-1.69,-0.94,0.21,0.95,-1.24
7.427,0.26,0.56,-0.04,-1.57,-1.69,-0.94,0.21,0.95,-1.24
7.429,0.26,0.56,-0.04,-1.57,-1.69,-0.94,0.5,-0.9,-2.16
7.431,0.26,0.56,-0.04,-6.27,-3.73,0.61,0.5,-0.9,-2.16
7.442,0.58,0.71,-0.06,-6.27,-3.73,0.61,0.5,-0.9,-2.16
7.468,0.58,0.71,-0.06,-6.27,-3.73,0.61,0.5,-0.9,-2.16
7.47,0.7,0.67,0.03,-6.27,-3.73,0.61,0.5,-0.9,-2.16
7.471,0.7,0.67,0.03,-6.27,-3.73,0.61,0.39,-2.7,-2.71
7.471,0.7,0.67,0.03,-0.54,-1.2,1.26,0.39,-2.7,-2.71
7.481,0.61,0.6,0.08,-0.54,-1.2,1.26,0.39,-2.7,-2.71
7.5,0.54,0.66,-0.02,-0.54,-1.2,1.26,0.39,-2.7,-2.71
7.502,0.54,0.66,-0.02,-0.54,-1.2,1.26,0.03,-2.4,-3.64
7.502,0.54,0.66,-0.02,0.75,-1.87,1.71,0.03,-2.4,-3.64
7.522,0.54,0.66,-0.02,0.75,-1.87,1.71,0.03,-2.4,-3.64
7.528,0.65,0.71,-0.1,0.75,-1.87,1.71,0.03,-2.4,-3.64
7.575,0.65,0.71,-0.1,3.15,-2.32,2.03,0.03,-2.4,-3.64
7.576,0.69,0.73,-0.07,3.15,-2.32,2.03,0.03,-2.4,-3.64
7.578,0.69,0.73,-0.07,3.15,-2.32,2.03,-0.1,-2.01,-4.25
7.578,0.71,0.87,-0.1,3.15,-2.32,2.03,-0.1,-2.01,-4.25
7.579,0.71,0.87,-0.1,3.15,-2.32,2.03,-0.1,-2.01,-4.25
7.58,0.83,1.02,-0.12,3.15,-2.32,2.03,-0.1,-2.01,-4.25
7.581,0.83,1.02,-0.12,3.15,-2.32,2.03,-0.09,-1.86,-4.67
7.581,0.83,1.02,-0.12,6.24,-0.52,1.29,-0.09,-1.86,-4.67
7.599,0.97,1.05,-0.09,6.24,-0.52,1.29,-0.09,-1.86,-4.67
7.623,1.07,1.09,-0.05,6.24,-0.52,1.29,-0.09,-1.86,-4.67
7.624,1.07,1.09,-0.05,6.24,-0.52,1.29,-0.14,-1.12,-4.73
7.624,1.07,1.09,-0.05,7.92,-0.55,1.23,-0.14,-1.12,-4.73
7.638,1.07,1.09,-0.05,7.92,-0.55,1.23,-0.14,-1.12,-4.73
7.64,1.11,1.18,-0.09,7.92,-0.55,1.23,-0.14,-1.12,-4.73
7.658,0.91,1.13,-0.12,7.92,-0.55,1.23,-0.14,-1.12,-4.73
7.659,0.91,1.13,-0.12,7.92,-0.55,1.23,-0.18,-0.38,-4.06
7.659,0.91,1.13,-0.12,12.24,1.91,1.32,-0.18,-0.38,-4.06
7.681,0.57,1.02,-0.2,12.24,1.91,1.32,-0.18,-0.38,-4.06
7.7,0.57,1.02,-0.2,12.24,1.91,1.32,-0.18,-0.38,-4.06
7.703,0.6,0.89,-0.03,12.24,1.91,1.32,-0.18,-0.38,-4.06
7.705,0.6,0.89,-0.03,12.24,1.91,1.32,-0.29,-0.88,-2.11
7.707,0.6,0.89,-0.03,9.39,1.15,0.74,-0.29,-0.88,-2.11
7.722,0.83,0.82,-0.03,9.39,1.15,0.74,-0.29,-0.88,-2.11
7.761,0.76,0.92,-0.36,9.39,1.15,0.74,-0.29,-0.88,-2.11
7.763,0.76,0.92,-0.36,9.39,1.15,0.74,-0.21,-2.37,0.63
7.763,0.76,0.92,-0.36,9.17,1.05,0.42,-0.21,-2.37,0.63
7.764,0.76,0.92,-0.36,9.17,1.05,0.42,-0.21,-2.37,0.63
7.765,-0.09,1.59,-0.79,9.17,1.05,0.42,-0.21,-2.37,0.63
7.777,-1.36,2.38,-0.78,9.17,1.05,0.42,-0.21,-2.37,0.63
7.778,-1.36,2.38,-0.78,9.17,1.05,0.42,0.72,-1.58,1.26
7.778,-1.36,2.38,-0.78,6.79,1.89,-2.17,0.72,-1.58,1.26
7.797,0.55,1.82,-0.98,6.79,1.89,-2.17,0.72,-1.58,1.26
7.831,2.65,0.55,2.37,6.79,1.89,-2.17,0.72,-1.58,1.26
7.836,2.65,0.55,2.37,6.79,1.89,-2.17,0.65,-1.18,0.61
7.837,2.65,0.55,2.37,7.64,6.46,3.77,0.65,-1.18,0.61
7.838,2.65,0.55,2.37,7.64,6.46,3.77,0.65,-1.18,0.61
7.838,-0.23,0.62,-0.45,7.64,6.46,3.77,0.65,-1.18,0.61
7.863,-0.23,0.62,-0.45,7.26,6.37,4.02,0.65,-1.18,0.61
7.865,-2.61,0.93,-0.89,7.26,6.37,4.02,0.65,-1.18,0.61
7.866,-2.61,0.93,-0.89,7.26,6.37,4.02,0.63,1.56,0.4
7.875,-1.11,0.85,-1.99,7.26,6.37,4.02,0.63,1.56,0.4
7.878,-1.11,0.85,-1.99,7.26,6.37,4.02,0.63,1.56,0.4
7.897,0.14,0.63,-0.57,7.26,6.37,4.02,0.63,1.56,0.4
7.9,0.14,0.63,-0.57,7.26,6.37,4.02,0.97,0.31,1
7.902,0.14,0.63,-0.57,-11.83,-1.26,-8.33,0.97,0.31,1
7.932,1.24,1.04,0.17,-11.83,-1.26,-8.33,0.97,0.31,1
7.936,1.24,1.04,0.17,7.74,-0.05,0.58,0.97,0.31,1
7.937,0.82,1.12,-0.13,7.74,-0.05,0.58,0.97,0.31,1
7.938,0.82,1.12,-0.13,7.74,-0.05,0.58,-0.35,-1.76,1.48
7.939,0.82,1.12,-0.13,7.74,-0.05,0.58,-0.35,-1.76,1.48
7.965,-0.55,1.04,-0.25,7.74,-0.05,0.58,-0.35,-1.76,1.48
7.974,-0.33,1.04,-0.36,7.74,-0.05,0.58,-0.35,-1.76,1.48
7.975,-0.33,1.04,-0.36,7.74,-0.05,0.58,0.24,2.16,0.43
7.976,-0.33,1.04,-0.36,7.26,-0.03,0.68,0.24,2.16,0.43
8.006,-0.19,0.9,-0.2,7.26,-0.03,0.68,0.24,2.16,0.43
8.009,-0.19,0.9,-0.2,7.26,-0.03,0.68,0.24,2.16,0.43
8.014,-0.19,0.9,-0.2,-3.68,0.57,-0.21,0.24,2.16,0.43
8.016,0.04,0.94,-0.19,-3.68,0.57,-0.21,0.24,2.16,0.43
8.017,0.04,0.94,-0.19,-3.68,0.57,-0.21,0.08,0.88,0.61
8.042,0.08,0.97,-0.26,-3.68,0.57,-0.21,0.08,0.88,0.61
8.053,-0.03,0.93,-0.32,-3.68,0.57,-0.21,0.08,0.88,0.61
8.054,-0.03,0.93,-0.32,-3.68,0.57,-0.21,0.03,-0.05,0.81
8.056,-0.03,0.93,-0.32,-0.19,0.11,-0.06,0.03,-0.05,0.81
8.058,-0.03,0.93,-0.32,-0.19,0.11,-0.06,0.03,-0.05,0.81
8.074,-0.1,0.94,-0.28,-0.19,0.11,-0.06,0.03,-0.05,0.81
8.093,0,1,-0.32,-0.19,0.11,-0.06,0.03,-0.05,0.81
8.095,0,1,-0.32,-0.19,0.11,-0.06,0.12,0.7,0.71
8.096,0,1,-0.32,-0.51,0.13,-0.03,0.12,0.7,0.71
8.118,0.06,1,-0.19,-0.51,0.13,-0.03,0.12,0.7,0.71
8.122,0.06,1,-0.19,-0.51,0.13,-0.03,0.12,0.7,0.71
8.146,0.1,1,-0.19,-0.51,0.13,-0.03,0.12,0.7,0.71
8.147,0.1,1,-0.19,-0.51,0.13,-0.03,0.06,0.29,0.73
8.148,0.1,1,-0.19,-1.17,0.48,-0.06,0.06,0.29,0.73
8.152,0.08,0.98,-0.21,-1.17,0.48,-0.06,0.06,0.29,0.73
8.172,-0.02,0.94,-0.24,-1.17,0.48,-0.06,0.06,0.29,0.73
8.173,-0.02,0.94,-0.24,-1.17,0.48,-0.06,0.06,0.12,0.8
8.174,-0.02,0.94,-0.24,-0.79,0.46,0.45,0.06,0.12,0.8
8.176,-0.02,0.94,-0.24,-0.79,0.46,0.45,0.06,0.12,0.8
8.192,-0.05,0.9,-0.3,-0.79,0.46,0.45,0.06,0.12,0.8
8.214,0.09,0.9,-0.34,-0.79,0.46,0.45,0.06,0.12,0.8
8.216,0.09,0.9,-0.34,-0.79,0.46,0.45,0.11,0.22,0.92
8.218,0.09,0.9,-0.34,-1.12,0.51,0.46,0.11,0.22,0.92
8.254,0.22,0.94,-0.37,-1.12,0.51,0.46,0.11,0.22,0.92
8.256,0.22,0.94,-0.37,-1.12,0.51,0.46,0.11,0.22,0.92
8.257,0.24,0.93,-0.31,-1.12,0.51,0.46,0.11,0.22,0.92
8.258,0.24,0.93,-0.31,-1.12,0.51,0.46,0.07,0.18,1.13
8.259,0.24,0.93,-0.31,-1.21,0.02,-0.73,0.07,0.18,1.13
8.271,0.18,0.91,-0.28,-1.21,0.02,-0.73,0.07,0.18,1.13
8.291,0.15,0.94,-0.3,-1.21,0.02,-0.73,0.07,0.18,1.13
8.292,0.15,0.94,-0.3,-1.21,0.02,-0.73,0.04,0.53,1.16
8.293,0.15,0.94,-0.3,-0.64,0.27,-0.36,0.04,0.53,1.16
8.308,0.15,0.94,-0.3,-0.64,0.27,-0.36,0.04,0.53,1.16
8.315,0.2,0.98,-0.34,-0.64,0.27,-0.36,0.04,0.53,1.16
8.352,0.2,0.98,-0.34,-1.09,0.39,-0.41,0.04,0.53,1.16
8.354,0.34,0.97,-0.28,-1.09,0.39,-0.41,0.04,0.53,1.16
8.354,0.34,0.97,-0.28,-1.09,0.39,-0.41,0,0.56,1.21
8.356,0.36,0.97,-0.27,-1.09,0.39,-0.41,0,0.56,1.21
8.358,0.36,0.97,-0.27,-1.09,0.39,-0.41,0,0.56,1.21
8.369,0.24,1.09,-0.39,-1.09,0.39,-0.41,0,0.56,1.21
8.371,0.24,1.09,-0.39,-1.09,0.39,-0.41,-0.09,0.67,1.24
8.372,0.24,1.09,-0.39,-0.49,0.99,-0.54,-0.09,0.67,1.24
8.389,0.17,1.24,-0.5,-0.49,0.99,-0.54,-0.09,0.67,1.24
8.41,0.11,1.31,-0.42,-0.49,0.99,-0.54,-0.09,0.67,1.24
8.412,0.11,1.31,-0.42,-0.49,0.99,-0.54,-0.21,0.91,1.33
8.414,0.11,1.31,-0.42,-2.24,3.42,-2.05,-0.21,0.91,1.33
8.435,0.11,1.31,-0.42,-2.24,3.42,-2.05,-0.21,0.91,1.33
8.437,0.08,1.18,-0.24,-2.24,3.42,-2.05,-0.21,0.91,1.33
8.488,0.18,1.13,-0.11,-2.24,3.42,-2.05,-0.21,0.91,1.33
8.49,0.18,1.13,-0.11,-2.24,3.42,-2.05,-0.12,1.09,1.61
8.491,0.18,1.13,-0.11,-2.82,3.62,-2.23,-0.12,1.09,1.61
8.492,0.32,1.2,0.15,-2.82,3.62,-2.23,-0.12,1.09,1.61
8.492,0.32,1.2,0.15,-2.82,3.62,-2.23,-0.12,1.09,1.61
8.493,0.16,1.19,-0.15,-2.82,3.62,-2.23,-0.12,1.09,1.61
8.494,0.16,1.19,-0.15,-2.82,3.62,-2.23,0.38,1.95,2
8.495,0.16,1.19,-0.15,-3.36,3.56,1.1,0.38,1.95,2
8.509,0.12,1.14,-0.34,-3.36,3.56,1.1,0.38,1.95,2
8.537,0.49,1.01,-0.36,-3.36,3.56,1.1,0.38,1.95,2
8.54,0.49,1.01,-0.36,-3.44,3.44,-1.27,0.38,1.95,2
8.542,0.49,1.01,-0.36,-3.44,3.44,-1.27,0.7,2.15,2.13
8.544,0.49,1.01,-0.36,-3.44,3.44,-1.27,0.7,2.15,2.13
8.548,0.64,1.03,-0.19,-3.44,3.44,-1.27,0.7,2.15,2.13
8.568,0.25,0.93,-0.19,-3.44,3.44,-1.27,0.7,2.15,2.13
8.569,0.25,0.93,-0.19,-3.44,3.44,-1.27,0.85,1.62,1.35
8.57,0.25,0.93,-0.19,-3.85,3.76,-1.4,0.85,1.62,1.35
8.588,0.2,0.74,-0.13,-3.85,3.76,-1.4,0.85,1.62,1.35
8.598,0.2,0.74,-0.13,-3.85,3.76,-1.4,0.85,1.62,1.35
8.607,0.2,0.74,-0.13,-2.77,1.61,-0.54,0.85,1.62,1.35
8.608,0.22,0.69,-0.04,-2.77,1.61,-0.54,0.85,1.62,1.35
8.609,0.22,0.69,-0.04,-2.77,1.61,-0.54,0.83,1.99,-0.3
8.634,0.22,0.72,-0.02,-2.77,1.61,-0.54,0.83,1.99,-0.3
8.678,0.22,0.71,0.04,-2.77,1.61,-0.54,0.83,1.99,-0.3
8.681,0.22,0.71,0.04,-2.77,1.61,-0.54,0.74,1.42,-1.41
8.683,0.22,0.71,0.04,-3.78,-0.55,0.87,0.74,1.42,-1.41
8.685,0.22,0.71,0.04,-3.78,-0.55,0.87,0.74,1.42,-1.41
8.686,0.26,0.77,0.04,-3.78,-0.55,0.87,0.74,1.42,-1.41
8.688,0.36,0.86,0.03,-3.78,-0.55,0.87,0.74,1.42,-1.41
8.689,0.36,0.86,0.03,-3.78,-0.55,0.87,0.59,0.06,-2.14
8.691,0.36,0.86,0.03,-3.07,-0.99,1.02,0.59,0.06,-2.14
8.706,0.45,0.87,0.02,-3.07,-0.99,1.02,0.59,0.06,-2.14
8.73,0.45,0.87,0.02,-3.07,-0.99,1.02,0.59,0.06,-2.14
8.733,0.57,0.9,-0.03,-3.07,-0.99,1.02,0.59,0.06,-2.14
8.735,0.57,0.9,-0.03,-3.07,-0.99,1.02,0.25,-1.1,-2.59
8.736,0.57,0.9,-0.03,-0.83,-0.23,1.65,0.25,-1.1,-2.59
8.769,0.54,0.85,-0.04,-0.83,-0.23,1.65,0.25,-1.1,-2.59
8.773,0.46,0.83,-0.09,-0.83,-0.23,1.65,0.25,-1.1,-2.59
8.775,0.46,0.83,-0.09,-0.83,-0.23,1.65,-0.23,-1.63,-2.94
8.777,0.46,0.83,-0.09,1.89,-0.44,1,-0.23,-1.63,-2.94
8.778,0.46,0.83,-0.09,1.89,-0.44,1,-0.23,-1.63,-2.94
8.785,0.49,0.85,-0.17,1.89,-0.44,1,-0.23,-1.63,-2.94
8.804,0.67,0.86,-0.22,1.89,-0.44,1,-0.23,-1.63,-2.94
8.806,0.67,0.86,-0.22,1.89,-0.44,1,-0.6,-2.41,-2.87
8.807,0.67,0.86,-0.22,3.01,-0.76,1.02,-0.6,-2.41,-2.87
8.828,0.87,0.78,-0.18,3.01,-0.76,1.02,-0.6,-2.41,-2.87
8.837,0.87,0.78,-0.18,3.01,-0.76,1.02,-0.6,-2.41,-2.87
8.845,1.03,0.71,-0.25,3.01,-0.76,1.02,-0.6,-2.41,-2.87
8.845,1.03,0.71,-0.25,3.01,-0.76,1.02,-0.87,-2.97,-2.26
8.846,1.03,0.71,-0.25,5.41,-1.21,-0.44,-0.87,-2.97,-2.26
8.864,1.02,0.73,-0.31,5.41,-1.21,-0.44,-0.87,-2.97,-2.26
8.884,0.83,0.67,-0.3,5.41,-1.21,-0.44,-0.87,-2.97,-2.26
8.887,0.83,0.67,-0.3,5.41,-1.21,-0.44,-1.04,-1.63,-1.55
8.889,0.83,0.67,-0.3,8.7,-2.52,-1.66,-1.04,-1.63,-1.55
8.898,0.83,0.67,-0.3,8.7,-2.52,-1.66,-1.04,-1.63,-1.55
8.903,0.54,0.52,-0.2,8.7,-2.52,-1.66,-1.04,-1.63,-1.55
8.925,0.54,0.52,-0.2,9.02,-2.53,-1.97,-1.04,-1.63,-1.55
8.928,0.4,0.44,-0.25,9.02,-2.53,-1.97,-1.04,-1.63,-1.55
8.93,0.4,0.44,-0.25,9.02,-2.53,-1.97,-0.94,-0.07,-1.26
8.949,0.44,0.36,-0.31,9.02,-2.53,-1.97,-0.94,-0.07,-1.26
8.956,0.44,0.36,-0.31,9.02,-2.53,-1.97,-0.94,-0.07,-1.26
8.984,0.76,1,-0.69,9.02,-2.53,-1.97,-0.94,-0.07,-1.26
8.986,0.76,1,-0.69,9.02,-2.53,-1.97,-0.28,-0.33,-0.83
8.987,0.76,1,-0.69,4.4,-5.04,-1.75,-0.28,-0.33,-0.83
8.988,0.8,2.86,0.66,4.4,-5.04,-1.75,-0.28,-0.33,-0.83
9.002,-0.85,2.22,0.99,4.4,-5.04,-1.75,-0.28,-0.33,-0.83
9.003,-0.85,2.22,0.99,4.4,-5.04,-1.75,-0.33,-0.58,0.44
9.004,-0.85,2.22,0.99,1.99,10.34,3.68,-0.33,-0.58,0.44
9.027,-0.85,2.22,0.99,1.99,10.34,3.68,-0.33,-0.58,0.44
9.029,-1.27,0.66,-0.75,1.99,10.34,3.68,-0.33,-0.58,0.44
9.042,0.03,0.25,-0.08,1.99,10.34,3.68,-0.33,-0.58,0.44
9.043,0.03,0.25,-0.08,1.99,10.34,3.68,0.08,1.21,0.02
9.043,0.03,0.25,-0.08,1.92,10.17,3.63,0.08,1.21,0.02
9.087,0.99,0.84,0.3,1.92,10.17,3.63,0.08,1.21,0.02
9.09,0.99,0.84,0.3,1.92,10.17,3.63,0.08,1.21,0.02
9.091,0.67,1.3,-0.11,1.92,10.17,3.63,0.08,1.21,0.02
9.092,0.67,1.3,-0.11,1.92,10.17,3.63,0.15,-0.94,0.62
9.093,0.67,1.3,-0.11,-1.39,-3.91,-1.13,0.15,-0.94,0.62
9.102,-0.21,1.04,-0.41,-1.39,-3.91,-1.13,0.15,-0.94,0.62
9.129,-0.31,1.02,-0.25,-1.39,-3.91,-1.13,0.15,-0.94,0.62
9.132,-0.31,1.02,-0.25,-1.39,-3.91,-1.13,0.19,0.98,0.18
9.134,-0.31,1.02,-0.25,-0.18,1.38,-1.84,0.19,0.98,0.18
9.143,-0.31,1.02,-0.25,-0.18,1.38,-1.84,0.19,0.98,0.18
9.144,-0.14,1.04,-0.15,-0.18,1.38,-1.84,0.19,0.98,0.18
9.16,-0.18,0.97,-0.17,-0.18,1.38,-1.84,0.19,0.98,0.18
9.161,-0.18,0.97,-0.17,-0.18,1.38,-1.84,-0.08,0.89,0.08
9.162,-0.18,0.97,-0.17,-0.22,1.35,-1.86,-0.08,0.89,0.08
9.181,-0.1,1.09,-0.15,-0.22,1.35,-1.86,-0.08,0.89,0.08
9.2,-0.1,1.09,-0.15,-0.22,1.35,-1.86,-0.08,0.89,0.08
9.203,0.17,1.04,-0.11,-0.22,1.35,-1.86,-0.08,0.89,0.08
9.206,0.17,1.04,-0.11,-0.22,1.35,-1.86,-0.24,-0.45,0.47
9.208,0.17,1.04,-0.11,-2.24,0.49,-0.91,-0.24,-0.45,0.47
9.22,0.24,0.89,-0.05,-2.24,0.49,-0.91,-0.24,-0.45,0.47
9.24,0.1,0.98,-0.09,-2.24,0.49,-0.91,-0.24,-0.45,0.47
9.242,0.1,0.98,-0.09,-2.24,0.49,-0.91,-0.29,-0.19,0.47
9.243,0.1,0.98,-0.09,0.62,-0.13,-0.29,-0.29,-0.19,0.47
9.282,0.1,0.98,-0.09,0.62,-0.13,-0.29,-0.29,-0.19,0.47
9.283,0.01,1.05,-0.13,0.62,-0.13,-0.29,-0.29,-0.19,0.47
9.284,0.01,1.05,-0.13,0.49,-0.12,-0.41,-0.29,-0.19,0.47
9.284,0.07,0.98,-0.04,0.49,-0.12,-0.41,-0.29,-0.19,0.47
9.285,0.07,0.98,-0.04,0.49,-0.12,-0.41,-0.3,0.19,0.3
9.299,0.16,0.96,0.01,0.49,-0.12,-0.41,-0.3,0.19,0.3
9.325,0.16,0.96,0.01,0.49,-0.12,-0.41,-0.3,0.19,0.3
9.327,0.13,0.97,0.02,0.49,-0.12,-0.41,-0.3,0.19,0.3
9.329,0.13,0.97,0.02,0.49,-0.12,-0.41,-0.36,-0.2,0.3
9.331,0.13,0.97,0.02,-0.5,0.16,-0.25,-0.36,-0.2,0.3
9.338,0.13,1.03,0,-0.5,0.16,-0.25,-0.36,-0.2,0.3
9.39,0.2,1,-0.02,-0.5,0.16,-0.25,-0.36,-0.2,0.3
9.392,0.2,1,-0.02,-0.5,0.16,-0.25,-0.31,-0.07,0.28
9.393,0.2,1,-0.02,0.11,0.21,0.13,-0.31,-0.07,0.28
9.394,0.2,1,-0.02,0.11,0.21,0.13,-0.31,-0.07,0.28
9.396,0.12,0.93,0.02,0.11,0.21,0.13,-0.31,-0.07,0.28
9.405,0.06,0.99,-0.01,0.11,0.21,0.13,-0.31,-0.07,0.28
9.407,0.06,0.99,-0.01,0.11,0.21,0.13,-0.28,0.1,0.21
9.408,0.06,0.99,-0.01,0.03,0.21,0.02,-0.28,0.1,0.21
9.417,0.11,1.05,0,0.03,0.21,0.02,-0.28,0.1,0.21
9.442,0.11,1.05,0,0.03,0.21,0.02,-0.28,0.1,0.21
9.444,0.1,0.98,-0.01,0.03,0.21,0.02,-0.28,0.1,0.21
9.445,0.1,0.98,-0.01,0.03,0.21,0.02,-0.26,0.04,0.19
9.446,0.1,0.98,-0.01,-0.6,0.14,-0.03,-0.26,0.04,0.19
9.493,0.08,0.97,-0.02,-0.6,0.14,-0.03,-0.26,0.04,0.19
9.497,0.14,1.02,0.01,-0.6,0.14,-0.03,-0.26,0.04,0.19
9.499,0.14,1.02,0.01,-0.6,0.14,-0.03,-0.27,0,0.2
9.501,0.14,1.02,0.01,-0.52,0.1,-0.23,-0.27,0,0.2
9.502,0.14,1.02,0.01,-0.52,0.1,-0.23,-0.27,0,0.2
9.504,0.12,1,0.01,-0.52,0.1,-0.23,-0.27,0,0.2
9.529,0.08,0.96,0.05,-0.52,0.1,-0.23,-0.27,0,0.2
9.531,0.08,0.96,0.05,-0.52,0.1,-0.23,-0.28,0.04,0.21
9.533,0.08,0.96,0.05,-0.59,0.12,-0.33,-0.28,0.04,0.21
9.536,0.1,0.96,0.11,-0.59,0.12,-0.33,-0.28,0.04,0.21
9.56,0.1,0.96,0.11,-0.59,0.12,-0.33,-0.28,0.04,0.21
9.561,0.21,0.99,0.13,-0.59,0.12,-0.33,-0.28,0.04,0.21
9.562,0.21,0.99,0.13,-0.59,0.12,-0.33,-0.22,0.04,0.24
9.564,0.21,0.99,0.13,-0.74,0,0.18,-0.22,0.04,0.24
9.574,0.27,0.99,0.13,-0.74,0,0.18,-0.22,0.04,0.24
9.594,0.23,0.96,0.1,-0.74,0,0.18,-0.22,0.04,0.24
9.597,0.23,0.96,0.1,-0.74,0,0.18,-0.07,0.14,0.22
9.599,0.23,0.96,0.1,0.48,0.03,0.8,-0.07,0.14,0.22
9.616,0.23,0.96,0.1,0.48,0.03,0.8,-0.07,0.14,0.22
9.619,0.16,0.96,0.07,0.48,0.03,0.8,-0.07,0.14,0.22
9.636,0.16,0.96,0.07,0.44,0.04,0.77,-0.07,0.14,0.22
9.639,0.15,1,0.02,0.44,0.04,0.77,-0.07,0.14,0.22
9.641,0.15,1,0.02,0.44,0.04,0.77,0.04,0.38,0.12
9.667,0.15,0.98,0.01,0.44,0.04,0.77,0.04,0.38,0.12
9.674,0.15,0.98,0.01,-0.38,0.06,-0.13,0.04,0.38,0.12
9.677,0.19,0.97,0.02,-0.38,0.06,-0.13,0.04,0.38,0.12
9.678,0.19,0.97,0.02,-0.38,0.06,-0.13,0.04,0.29,0.1
9.679,0.19,0.97,0.02,-0.38,0.06,-0.13,0.04,0.29,0.1
9.716,0.2,0.99,0.04,-0.38,0.06,-0.13,0.04,0.29,0.1
9.717,0.2,0.99,0.04,-0.07,0.09,-0.12,0.04,0.29,0.1
9.718,0.18,0.98,0.04,-0.07,0.09,-0.12,0.04,0.29,0.1
9.719,0.18,0.98,0.04,-0.07,0.09,-0.12,0,0.19,0.08
9.734,0.18,0.99,0.05,-0.07,0.09,-0.12,0,0.19,0.08
9.736,0.18,0.99,0.05,-0.07,0.09,-0.12,0,0.19,0.08
9.763,0.14,0.98,0.05,-0.07,0.09,-0.12,0,0.19,0.08
9.767,0.14,0.98,0.05,-0.07,0.09,-0.12,-0.01,0.26,0.04
9.769,0.14,0.98,0.05,-0.08,0.09,-0.14,-0.01,0.26,0.04
9.773,0.13,0.99,0.05,-0.08,0.09,-0.14,-0.01,0.26,0.04
9.798,0.15,0.98,0.05,-0.08,0.09,-0.14,-0.01,0.26,0.04
9.8,0.15,0.98,0.05,-0.08,0.09,-0.14,0,0.28,0.03
9.801,0.15,0.98,0.05,-0.45,0.16,0,0,0.28,0.03
9.802,0.15,0.98,0.05,-0.45,0.16,0,0,0.28,0.03
9.812,0.14,0.97,0.05,-0.45,0.16,0,0,0.28,0.03
9.852,0.14,0.97,0.05,-0.55,0.06,-0.06,0,0.28,0.03
9.857,0.14,0.98,0.05,-0.55,0.06,-0.06,0,0.28,0.03
9.857,0.14,0.98,0.05,-0.55,0.06,-0.06,0,0.18,0.07
9.858,0.16,0.98,0.07,-0.55,0.06,-0.06,0,0.18,0.07
9.859,0.16,0.98,0.07,-0.55,0.06,-0.06,0,0.18,0.07
9.892,0.19,0.98,0.06,-0.55,0.06,-0.06,0,0.18,0.07
9.895,0.19,0.98,0.06,-0.55,0.06,-0.06,0,0.11,0.09
9.898,0.19,0.98,0.06,-0.57,0.07,-0.07,0,0.11,0.09
9.9,0.17,0.98,0.06,-0.57,0.07,-0.07,0,0.11,0.09
9.911,0.16,0.98,0.08,-0.57,0.07,-0.07,0,0.11,0.09
9.912,0.16,0.98,0.08,-0.57,0.07,-0.07,0.02,0.12,0.08
9.913,0.16,0.98,0.08,-0.29,0.11,0.12,0.02,0.12,0.08
9.927,0.16,0.98,0.08,-0.29,0.11,0.12,0.02,0.12,0.08
9.959,0.22,1,0.05,-0.29,0.11,0.12,0.02,0.12,0.08
9.96,0.24,0.98,0.02,-0.29,0.11,0.12,0.02,0.12,0.08
9.961,0.24,0.98,0.02,-0.29,0.11,0.12,0.07,0.18,0.04
9.961,0.24,0.98,0.02,0.03,0.17,-0.01,0.07,0.18,0.04
9.969,0.18,0.95,0.01,0.03,0.17,-0.01,0.07,0.18,0.04
9.973,0.18,0.95,0.01,0.03,0.17,-0.01,0.07,0.18,0.04
9.989,0.15,0.95,0.05,0.03,0.17,-0.01,0.07,0.18,0.04
9.991,0.15,0.95,0.05,0.03,0.17,-0.01,0.05,0.21,-0.04
9.992,0.15,0.95,0.05,0.05,0.16,-0.01,0.05,0.21,-0.04
10.01,0.15,0.97,0.08,0.05,0.16,-0.01,0.05,0.21,-0.04
10.037,0.16,0.98,0.07,0.05,0.16,-0.01,0.05,0.21,-0.04
10.039,0.16,0.98,0.07,0.05,0.16,-0.01,0,0.03,-0.05
10.04,0.16,0.98,0.07,-0.36,-0.14,-0.07,0,0.03,-0.05
10.041,0.16,0.98,0.07,-0.36,-0.14,-0.07,0,0.03,-0.05
10.074,0.17,0.99,0.08,-0.36,-0.14,-0.07,0,0.03,-0.05
10.083,0.16,1,0.08,-0.36,-0.14,-0.07,0,0.03,-0.05
10.085,0.16,1,0.08,-0.36,-0.14,-0.07,0.01,-0.14,-0.03
10.086,0.16,1,0.08,-0.32,0.18,0.26,0.01,-0.14,-0.03
10.089,0.14,0.98,0.04,-0.32,0.18,0.26,0.01,-0.14,-0.03
10.093,0.14,0.98,0.04,-0.32,0.18,0.26,0.01,-0.14,-0.03
10.108,0.16,0.97,0.01,-0.32,0.18,0.26,0.01,-0.14,-0.03
10.11,0.16,0.97,0.01,-0.32,0.18,0.26,0.06,-0.1,-0.02
10.111,0.16,0.97,0.01,-0.31,0.18,0.29,0.06,-0.1,-0.02
10.133,0.17,0.99,0.01,-0.31,0.18,0.29,0.06,-0.1,-0.02
10.166,0.14,0.97,0.02,-0.31,0.18,0.29,0.06,-0.1,-0.02
10.169,0.14,0.97,0.02,-0.31,0.18,0.29,0.04,-0.16,-0.01
10.17,0.14,0.97,0.02,-0.39,0.07,-0.23,0.04,-0.16,-0.01
10.172,0.14,0.97,0.02,-0.39,0.07,-0.23,0.04,-0.16,-0.01
10.172,0.13,0.99,0.04,-0.39,0.07,-0.23,0.04,-0.16,-0.01
10.188,0.14,1,0.05,-0.39,0.07,-0.23,0.04,-0.16,-0.01
10.191,0.14,1,0.05,-0.39,0.07,-0.23,0.01,-0.15,0
10.192,0.14,1,0.05,-0.56,0.16,-0.07,0.01,-0.15,0
10.208,0.14,0.99,0.03,-0.56,0.16,-0.07,0.01,-0.15,0
10.237,0.14,0.99,0.03,-0.56,0.16,-0.07,0.01,-0.15,0
10.24,0.14,0.97,0.03,-0.56,0.16,-0.07,0.01,-0.15,0
10.241,0.14,0.97,0.03,-0.56,0.16,-0.07,0.03,-0.13,0.04
10.242,0.14,0.97,0.03,-0.57,0.16,-0.05,0.03,-0.13,0.04
10.273,0.18,0.96,0.04,-0.57,0.16,-0.05,0.03,-0.13,0.04
10.274,0.22,0.98,0.04,-0.57,0.16,-0.05,0.03,-0.13,0.04
10.276,0.22,0.98,0.04,-0.57,0.16,-0.05,0.03,-0.17,0.08
10.277,0.22,0.98,0.04,-0.47,0.04,-0.08,0.03,-0.17,0.08
10.278,0.22,0.98,0.04,-0.47,0.04,-0.08,0.03,-0.17,0.08
10.286,0.18,0.97,0.05,-0.47,0.04,-0.08,0.03,-0.17,0.08
10.306,0.14,0.98,0.04,-0.47,0.04,-0.08,0.03,-0.17,0.08
10.307,0.14,0.98,0.04,-0.47,0.04,-0.08,0.04,-0.14,0.05
10.308,0.14,0.98,0.04,-0.2,0.07,0.07,0.04,-0.14,0.05
10.333,0.21,0.99,0.04,-0.2,0.07,0.07,0.04,-0.14,0.05
10.335,0.21,0.99,0.04,-0.2,0.07,0.07,0.04,-0.14,0.05
10.348,0.2,0.97,0.05,-0.2,0.07,0.07,0.04,-0.14,0.05
10.352,0.2,0.97,0.05,-0.2,0.07,0.07,0.07,-0.09,0.04
10.354,0.2,0.97,0.05,-0.22,0.07,0.1,0.07,-0.09,0.04
10.374,0.14,0.98,0.02,-0.22,0.07,0.1,0.07,-0.09,0.04
10.385,0.13,0.99,0,-0.22,0.07,0.1,0.07,-0.09,0.04
10.387,0.13,0.99,0,-0.22,0.07,0.1,0.1,0,0.04
10.388,0.13,0.99,0,-0.19,0.07,0.08,0.1,0,0.04
10.393,0.13,0.99,0,-0.19,0.07,0.08,0.1,0,0.04
10.405,0.18,0.99,0,-0.19,0.07,0.08,0.1,0,0.04
10.425,0.2,0.98,0.01,-0.19,0.07,0.08,0.1,0,0.04
10.427,0.2,0.98,0.01,-0.19,0.07,0.08,0.08,-0.07,0.06
10.427,0.2,0.98,0.01,-0.32,0.14,-0.21,0.08,-0.07,0.06
10.46,0.19,0.97,0,-0.32,0.14,-0.21,0.08,-0.07,0.06
10.463,0.19,0.97,0,-0.32,0.14,-0.21,0.08,-0.07,0.06
10.468,0.19,0.97,0,-0.34,0.14,-0.18,0.08,-0.07,0.06
10.47,0.18,0.98,0,-0.34,0.14,-0.18,0.08,-0.07,0.06
10.472,0.18,0.98,0,-0.34,0.14,-0.18,0.06,-0.05,0.06
10.483,0.17,0.98,0.02,-0.34,0.14,-0.18,0.06,-0.05,0.06
10.503,0.19,0.98,0.02,-0.34,0.14,-0.18,0.06,-0.05,0.06
10.504,0.19,0.98,0.02,-0.34,0.14,-0.18,0.03,-0.05,0.06
10.504,0.19,0.98,0.02,-0.28,0.05,-0.14,0.03,-0.05,0.06
10.512,0.19,0.98,0.02,-0.28,0.05,-0.14,0.03,-0.05,0.06
10.522,0.21,0.99,0.02,-0.28,0.05,-0.14,0.03,-0.05,0.06
10.542,0.21,0.97,0,-0.28,0.05,-0.14,0.03,-0.05,0.06
10.543,0.21,0.97,0,-0.28,0.05,-0.14,0.03,-0.1,0.06
10.543,0.21,0.97,0,-0.07,0.09,-0.04,0.03,-0.1,0.06
10.562,0.21,0.96,0.02,-0.07,0.09,-0.04,0.03,-0.1,0.06
10.572,0.21,0.96,0.02,-0.07,0.09,-0.04,0.03,-0.1,0.06
10.584,0.21,0.96,0.02,-0.08,0.09,-0.03,0.03,-0.1,0.06
10.597,0.2,0.99,0.02,-0.08,0.09,-0.03,0.03,-0.1,0.06
10.598,0.2,0.99,0.02,-0.08,0.09,-0.03,0.03,-0.05,0.02
10.602,0.18,0.99,-0.01,-0.08,0.09,-0.03,0.03,-0.05,0.02
10.622,0.2,0.98,0.01,-0.08,0.09,-0.03,0.03,-0.05,0.02
10.624,0.2,0.98,0.01,-0.08,0.09,-0.03,0.02,0.01,0
10.625,0.2,0.98,0.01,-0.14,0.09,-0.07,0.02,0.01,0
10.64,0.2,0.98,0.01,-0.14,0.09,-0.07,0.02,0.01,0
10.645,0.19,0.97,0.03,-0.14,0.09,-0.07,0.02,0.01,0
10.677,0.17,0.98,0,-0.14,0.09,-0.07,0.02,0.01,0
10.678,0.17,0.98,0,-0.14,0.09,-0.07,0.02,0.05,-0.01
10.679,0.17,0.98,0,-0.23,0.03,-0.03,0.02,0.05,-0.01
10.681,0.17,0.98,0.01,-0.23,0.03,-0.03,0.02,0.05,-0.01
10.692,0.17,0.98,0.01,-0.23,0.03,-0.03,0.02,0.05,-0.01
10.7,0.16,0.99,0,-0.23,0.03,-0.03,0.02,0.05,-0.01
10.701,0.16,0.99,0,-0.23,0.03,-0.03,0.02,0.06,0.01
10.702,0.16,0.99,0,-0.2,0.03,-0.02,0.02,0.06,0.01
10.72,0.17,0.98,-0.01,-0.2,0.03,-0.02,0.02,0.06,0.01
10.74,0.21,0.97,0.02,-0.2,0.03,-0.02,0.02,0.06,0.01
10.741,0.21,0.97,0.02,-0.2,0.03,-0.02,0.01,-0.03,0.04
10.745,0.21,0.97,0.02,-0.4,0.13,-0.13,0.01,-0.03,0.04
10.763,0.21,0.97,0.02,-0.4,0.13,-0.13,0.01,-0.03,0.04
10.765,0.22,0.97,0,-0.4,0.13,-0.13,0.01,-0.03,0.04
