time,gFx,gFy,gFz,ax,ay,az,wx,wy,wz,subject_number,foot
9.475,-1.1807981070913858,0.3623805637759985,0.0330727370528906,-1.0973452273218087,9.016974161212012,-2.2924760611246064,-0.8573749892227882,-0.18289857725703762,-1.2934380912986607,2,right
9.475,-1.2102978070021764,0.3796150247392891,0.04314099720133223,-0.6580562380834725,8.09219885959222,-2.2058620304882695,-0.8501845183935383,-0.18957375820749814,-1.3031015466177915,2,right
9.479,-1.2184652657137187,0.3883982491331724,0.04654526488767888,-0.9229986587621903,8.650065454251273,-2.258130679599174,-0.8557378063367909,-0.1843868332716364,-1.29552084362396,2,right
9.479,-1.2237479222921537,0.39739170970228943,0.04046053551710424,-0.8152090786757733,8.423021256917899,-2.236844885205801,-0.8528879621223118,-0.1871476175121074,-1.299778203503464,2,right
9.482000000000001,-1.2196555945003074,0.40230421168340164,0.03569069865498127,-0.8136770098774497,8.419747204043553,-2.2365306501632967,-0.8531991798735459,-0.1866017655253933,-1.298407065172558,2,right
9.482999999999999,-1.2096279156174488,0.4065281657672539,0.03150068555674351,-0.870201131065906,8.539168308233808,-2.24778427539258,-0.8546148509214723,-0.185704921961178,-1.298052068775498,2,right
9.488,-1.1992259926497364,0.4142568059281554,0.02656950543453717,-0.8025077084887451,8.39573979269846,-2.234202461693112,-0.8524822492859208,-0.1871777395708699,-1.2990385637702406,2,right
9.488999999999999,-1.1886055153428114,0.4232718914488187,0.03073902799213367,-0.8552097085484167,8.508009558451079,-2.2449306205439568,-0.8543738221096155,-0.18582335934498942,-1.297985502680822,2,right
9.494,-1.1787481779284996,0.4319583048631267,0.03979708501618322,-0.8268079197096255,8.446901119241126,-2.2389949636128494,-0.8535243367964865,-0.1866266266218334,-1.2991814209156778,2,right
9.495,-1.1652935354877019,0.439287941361001,0.04807144160680411,-0.8332903227471401,8.461116386350266,-2.240417983509409,-0.8527552637002838,-0.18656031356536706,-1.2973223350257956,2,right
9.498,-1.1513151245660218,0.4449348090939484,0.060096030115717194,-0.840797264789414,8.478051614384107,-2.2421864872344965,-0.8553660297367626,-0.18590887404383305,-1.3003839130770103,2,right
9.499,-1.1326437570273433,0.44785675040269635,0.0734734642399851,-0.8278509577372084,8.44715130453822,-2.2387048832673657,-0.8512668527550569,-0.18707303928692554,-1.2961007301401493,2,right
9.502,-1.1057847116140025,0.450722684661083,0.0825544767951854,-0.8399173816878661,8.478835754766406,-2.2426847691368943,-0.8556747792869387,-0.18579617022190498,-1.3006140144407317,2,right
9.502,-1.0766362112082852,0.45406352117918025,0.09106794304657648,-0.8319244736446791,8.454298933255126,-2.23914423524169,-0.8530676592832462,-0.1865905613902059,-1.298089353315987,2,right
9.507,-1.0450722588620116,0.45744376658645086,0.10031096074956508,-0.8353463585243602,8.467649732085714,-2.2413852078901364,-0.8511183457388554,-0.18699499846039955,-1.2955004463810202,2,right
9.508,-1.0100125147020664,0.4618843098352213,0.10658684978776795,-0.8353276445091662,8.467665076522787,-2.2413954575964965,-0.8601375651074643,-0.18476602231501044,-1.30615612160522,2,right
9.512,-0.9755697316873041,0.46374158412107525,0.11582187537579111,-0.8337042853496193,8.452840181844174,-2.238168791660258,-0.8433230505189073,-0.18898260311442117,-1.2865160338024983,2,right
9.513,-0.9418354414945601,0.4621808357942878,0.1284923802519285,-0.835419958723109,8.482521877105214,-2.245149637783714,-0.8649337811380964,-0.18354958477011918,-1.3117088039656628,2,right
9.519,-0.908019756657719,0.45923599302398427,0.13456582889000024,-0.834502958680654,8.441699278626517,-2.235059165996492,-0.846883569318487,-0.18809308149094917,-1.2906857080404803,2,right
9.52,-0.8735953705689662,0.45073830981761076,0.13838058914469106,-0.8345204362547962,8.483196142246715,-2.2456265905041324,-0.8474039517919852,-0.18794074588226095,-1.2912167463373674,2,right
9.521,-0.8385281997207359,0.4379645225507222,0.1451761116426759,-0.8348170613868993,8.459865067369332,-2.239581227952635,-0.8817187294644778,-0.17937306431687094,-1.3314324371221178,2,right
9.522,-0.8063459220215163,0.4225523165512711,0.15302046027592398,-0.835200883132341,8.440022186518982,-2.2343950889716524,-0.7973386447779591,-0.200466429708751,-1.232627723039656,2,right
9.527000000000001,-0.7775039133589356,0.4021864786790882,0.17149167111278993,-0.8331528401806672,8.526087501600195,-2.2570192031292113,-0.9372559779075147,-0.16548304387264176,-1.3964453935070167,2,right
9.527999999999999,-0.7616614063040756,0.3913639971898474,0.18816322801935753,-0.837303370639938,8.367221095503803,-2.215132158349319,-0.752702702007714,-0.21162763165424925,-1.1803627890865647,2,right
9.531,-0.7590030219678409,0.38777482281033593,0.19141159398509835,-0.8317301462765706,8.57069922818307,-2.2688689975461678,0.021902136298068614,-0.40527273948107384,-0.2733453781410613,2,right
9.533,-0.7547446208850314,0.37669606774918496,0.20261548142058744,-0.836488942615039,8.401050725404264,-2.2240278822382256,0.20645792371702032,-0.4514164369174529,-0.05723402325072566,2,right
9.533,-0.7496387466488286,0.36728323792428585,0.2112804760908992,-0.8363767267216098,8.405671463940761,-2.2252444060659275,0.06653477705588592,-0.41643266785338573,-0.22109401126246553,2,right
9.537,-0.7434919810670415,0.35884957234825854,0.20734849008178624,-0.8270722061281516,8.72868861768839,-2.3107030963020834,0.1509247951841117,-0.4375311690285282,-0.12226141675182488,2,right
9.538,-0.7322728070635286,0.347287071779366,0.20533772790421756,-0.8499984815277823,7.934879497384983,-2.100668031517931,0.11659642176484003,-0.42895045955366995,-0.16245579355476622,2,right
9.541,-0.714871013970973,0.3327167216858064,0.1979887979911616,-0.8119197991227414,9.25091490026912,-2.4489025487926686,0.11609018765685428,-0.4288195862758081,-0.16308738506095238,2,right
9.542,-0.7018926370305344,0.31999394098827283,0.19171612617021677,-0.8622013447065131,7.515170513864753,-1.9895935984820596,0.13413220690573638,-0.4333375696481843,-0.14187632656186755,2,right
9.543,-0.696032566374972,0.3168021747083283,0.1908307464354992,-1.0736734888215436,0.22961498248347723,-0.06170293731904586,0.11251452787336526,-0.42792338758495274,-0.1673109686014339,2,right
9.547,-0.6736134001580859,0.30422426982304707,0.1810595059744484,-1.1240563869662876,-1.5060798251977934,0.3975924055009229,0.1293600943710076,-0.4321440412352765,-0.14746493526635637,2,right
9.549,-0.6375683962309364,0.2821081208473078,0.16881802084192943,-1.0857765858902968,-0.1901113834537399,0.04938366698060544,0.12028219599720619,-0.4298707762943911,-0.15814699315200348,2,right
9.552,-0.5961614630863401,0.2631869175480295,0.15950019057553477,-1.1089851156144097,-0.9838937255279383,0.25938516934597217,0.12230932425813751,-0.43036951698415493,-0.1558757769956256,2,right
9.552999999999999,-0.5431236097881793,0.2368225536581597,0.15231113910683916,-1.0993764612777936,-0.6607959012626674,0.17395837924477592,0.12484548864527134,-0.43102887050135685,-0.15257515673191863,2,right
9.556000000000001,-0.4877382061818342,0.20741531919004225,0.153998933191341,-1.0994724471940949,-0.6564137236380478,0.1727271549490556,0.12045762598632445,-0.4298885815594533,-0.15828340228919063,2,right
9.557,-0.43298732839103515,0.17879826422704245,0.1651451184962527,-1.1042899404397746,-0.8256681287973548,0.21754616476803232,0.12464089225738316,-0.43098738479807863,-0.15268513292088606,2,right
9.56,-0.37931516025269735,0.14506036009660056,0.1798678015532197,-1.098212071841791,-0.6226474898585026,0.1638852789325954,0.1218005304777663,-0.43023518751059575,-0.15656906449409427,2,right
9.562000000000001,-0.33074643852919455,0.11172527988014402,0.1930603654982066,-1.1034089096701034,-0.7811956150940509,0.20563938242524749,0.12294188641656081,-0.4305199357541965,-0.1552373626079769,2,right
9.566,-0.28925735964530086,0.07818001105887426,0.20386295790083708,-1.0998850110233924,-0.6950161298162166,0.1831808640335648,0.12335856365243918,-0.43070268839817205,-0.15371453191186757,2,right
9.567,-0.2563017057535998,0.042471421101674775,0.21397315074582807,-1.1017384109018127,-0.7157058226019599,0.18823065323612845,0.1217773985120473,-0.43012820796516266,-0.15793141206470662,2,right
9.57,-0.2233981484664715,0.007557115130619577,0.22161764404317305,-1.101367626212633,-0.7373064129974568,0.19428554124853598,0.12399023513073491,-0.430948434621679,-0.15181130769509066,2,right
9.571,-0.1880933211582108,-0.027071063128395467,0.22459097515983684,-1.100223677476587,-0.6982204051549372,0.183945788300185,0.12182494944416142,-0.43012281167194055,-0.15810892538362809,2,right
9.575,-0.15506205615967616,-0.05755189967538195,0.22975971819713664,-1.103191832733886,-0.7366941558823307,0.19349718821544898,0.12307846803388532,-0.43059989345169103,-0.15446701056059767,2,right
9.576,-0.12293189575564778,-0.07795354465145138,0.2428656267404651,-1.0981287105516129,-0.7079698867272604,0.18733463495063607,0.12372808186646725,-0.4309051773175026,-0.15183321202139471,2,right
9.581,-0.09429882725782593,-0.08795056755219413,0.2646318570521632,-1.1049286398091474,-0.7249172799338075,0.1896734427441102,0.12032630065947617,-0.42943314743313277,-0.16401634860673503,2,right
9.582,-0.07208098724000217,-0.08838934488014408,0.2953964840803487,-1.098012577456411,-0.7182609076419735,0.1901993291936775,0.12666357830331249,-0.4321686310139923,-0.14138818878711357,2,right
9.585,-0.05400263470445323,-0.07828845417169175,0.32455356039463745,-1.1018371333077073,-0.7162830265340907,0.18835472016530805,0.11856086287347858,-0.42866639993656164,-0.1704041616210792,2,right
9.586,-0.040864966186958035,-0.059140711426760036,0.3458910220857403,-1.1054975424860694,-0.7268410400613752,0.19000841509703825,0.1253107069528679,-0.4315841359667784,-0.14619603464204597,2,right
9.59,-0.03500355079932085,-0.02929867186131541,0.3519647779543843,-1.0902453670075984,-0.7065200631549525,0.18961841416151398,0.12507910563554742,-0.43149871208107143,-0.14691180814395688,2,right
9.59,-0.03140320060159246,0.0055499766082417685,0.33638006711490537,-1.1183049118724342,-0.7366597320951304,0.18834595881398397,0.11241045335082521,-0.42597152910226616,-0.19282734038394028,2,right
9.596,-0.02672501619128414,0.03952863110921675,0.31283304014882324,-1.082378811467623,-0.7013056626642453,0.19086444317099877,0.14358978796416427,-0.43955583393269,-0.07991785206939526,2,right
9.597000000000001,-0.029761269670304,0.08219271474720935,0.2811596604423705,-1.1123208701153295,-0.7293933643354481,0.188385581093247,0.09189163044632488,-0.41703958765541005,-0.267132806377889,2,right
9.601,-0.0384080355588913,0.11225468201520308,0.25594734655374796,-1.1115674858837683,-0.729862692660803,0.18877467495668315,0.16007367219474383,-0.44673083857913687,-0.02020291351175886,2,right
9.602,-0.04192789593750772,0.12089707393410849,0.24962595154008219,-1.054357581204675,-0.67403200651616,0.19290783245252557,0.4460314888328484,-0.5714700189606328,1.015909210862068,2,right
9.602,-0.05162212901355687,0.15140804954953707,0.23377446773587815,-1.1948641606366024,-0.8090557962909115,0.1821735577570604,0.5141914819770987,-0.6011619469538636,1.2628096723666955,2,right
9.606,-0.07444859855254937,0.19912509715449447,0.21878304040355673,-0.9619641925526519,-0.5862248865978407,0.2002422559188114,0.462541572274067,-0.5786296617005966,1.0756676003056906,2,right
9.607000000000001,-0.08800699606342718,0.2213114002458868,0.2183289732255394,-1.2691029441603168,-0.8796390634784561,0.17628416403433766,0.49364358032781525,-0.592267903718591,1.188443836719789,2,right
9.61,-0.09104740932341769,0.2283128752359046,0.21786290567554772,-2.558527472766275,-2.1110096250021604,0.07562419081169967,0.48107391888442147,-0.5866313794763449,1.1427223580379118,2,right
9.611,-0.10547421146491906,0.24794276307684973,0.22550405628178297,-2.8655553422162723,-2.4042018839663113,0.05162368390502241,0.4807483221153376,-0.5867065474270448,1.1417892581360243,2,right
9.612,-0.12485107103288741,0.266973522286031,0.24043717504619083,-2.632834078643185,-2.181903251337451,0.06980774087764369,0.48753766617725774,-0.5894538083970965,1.1661487001069402,2,right
9.616,-0.1451102817824684,0.27515091446704143,0.2545898435713727,-2.773178236672809,-2.315983460237086,0.05884485969511822,0.47951462075727047,-0.5860466634982899,1.1371822648553755,2,right
9.617,-0.1752627670388533,0.27851367287337997,0.2658352841222428,-2.715999301094034,-2.261489890533613,0.0633330739077829,0.4855965327261885,-0.588879779806336,1.159417252476723,2,right
9.621,-0.21150005066597122,0.2733073343881687,0.2688035416166886,-2.7154658244952827,-2.260507558256833,0.06329710354472118,0.48263555835183947,-0.5870065936467718,1.1480482966162648,2,right
9.622,-0.2558462320060588,0.2649132914899724,0.2654309735373537,-2.744863166596197,-2.289535568690359,0.06115639490037252,0.4827412412263507,-0.5880544369337536,1.1495332501999322,2,right
9.625,-0.3081002141279149,0.2540506547318623,0.2556572320174043,-2.7097660599732487,-2.2546703698548,0.06367700487289885,0.48443466643145533,-0.5875641295267982,1.154317969591369,2,right
9.626,-0.3635567543027306,0.23758309460933147,0.23942897853397743,-2.7369357393616367,-2.2819526912682724,0.06177443997130253,0.4822576168584279,-0.5875942779245296,1.147506404840232,2,right
9.629,-0.42155672058599536,0.22425037553693006,0.22379950145024877,-2.7221979835992083,-2.2673095380737944,0.0628323267826059,0.48369088595439275,-0.5882275182548728,1.1527087669489733,2,right
9.63,-0.4774279844491639,0.2166414587743649,0.20937823762296104,-2.726310869122255,-2.27006884519231,0.062316293836567706,0.4839190004938634,-0.5865109830328943,1.1515398294232049,2,right
9.634,-0.5319862061121279,0.2143116975150322,0.19653386224118125,-2.7281583021990454,-2.275571146887936,0.06279377109522745,0.48161563636174676,-0.5896573914454684,1.1477542714103892,2,right
9.634,-0.5872134894110494,0.21793800489056725,0.19032268965841428,-2.724940163088346,-2.266064271150319,0.061974954524894835,0.48567931406985837,-0.5852365494987507,1.1556753687942503,2,right
9.639,-0.6377698306905216,0.22805610187521386,0.18334157532756445,-2.726892752435679,-2.2758221142436597,0.06313561939501505,0.4811178347563457,-0.5898499488078497,1.1463995406856233,2,right
9.64,-0.6843634286501459,0.242750903828424,0.17227305153715494,-2.7261578986854964,-2.2688289293470474,0.062146208844142285,0.4839073072922232,-0.5872500151868069,1.152316633927013,2,right
9.645,-0.7319666288066458,0.26002386343523065,0.16059112249448929,-2.728093801846689,-2.2706185322435344,0.06198504914440464,0.48583346415815515,-0.5848046525078113,1.1556837970546,2,right
9.646,-0.7755899812627565,0.28119071968711695,0.1420816545072185,-2.721378510152371,-2.275888948432036,0.06445412112578221,0.4765212062261127,-0.5951312556519593,1.1377498208473371,2,right
9.649,-0.8116075699064854,0.30278487366132156,0.11702700986395104,-2.7356764035422216,-2.2628468375444513,0.05889403907142008,0.4939991887472466,-0.5760674300567761,1.1717634832722665,2,right
9.65,-0.8448834414429618,0.3247336683588645,0.08869958863708174,-2.7141048116388067,-2.282070891117473,0.06720741886843279,0.47148177320238727,-0.6005175535486733,1.1278169811121959,2,right
9.652999999999999,-0.8755123554962836,0.3460763554348203,0.0588162854414778,-2.7374215626825906,-2.2618858728957294,0.05832023963189758,0.4903116829941092,-0.5801132716382391,1.1646191071584586,2,right
9.654,-0.8960222368317751,0.3685937985715049,0.024225106254473498,-2.7239551362743004,-2.273551347766767,0.06345446658667374,0.48975423468376367,-0.5806580378097888,1.163449537760262,2,right
9.658,-0.9061129873074596,0.393268787357971,-0.013357532987164937,-2.711623522207722,-2.282926961817937,0.06793792380961752,0.4539768418135316,-0.6195884929013689,1.0937377913096884,2,right
9.658999999999999,-0.9108349052201279,0.4127434914834608,-0.04440264127573132,-2.764649853376305,-2.2410159634988114,0.04839208957426545,0.541981706722876,-0.5239050560185885,1.2653292730227799,2,right
9.663,-0.9025383754964313,0.4363373670066685,-0.0768252890919709,-2.666364901456724,-2.3187823217368315,0.08463504230628628,0.3960407306659469,-0.6825621758553906,0.9807320583055196,2,right
9.664,-0.8898506312145665,0.45447760731277065,-0.0977571816124793,-2.7926203088056947,-2.2189849856279036,0.038093993911401405,0.588544003555812,-0.4732770442402792,1.3561433336343627,2,right
9.668,-0.887135390984298,0.4591990395906909,-0.10330867801890109,-2.6871983429405235,-2.30227239667033,0.07694904093441288,1.3965567494028246,0.404965858342341,2.9318592616976544,2,right
9.669,-0.8734009877967692,0.4753480127702751,-0.12081587242138478,-2.6899552838779828,-2.299952132556591,0.07590745332619128,1.5890588738094777,0.6142863705405797,3.307266803182337,2,right
9.669,-0.8500688595258786,0.49196648652171815,-0.13636679029646737,-2.891344832543269,-2.1414322528178684,0.0017836640838725173,1.4431134744502658,0.4555934397341746,3.0226530961795453,2,right
9.673,-0.831460411233965,0.49628903625759396,-0.14021422567639108,-2.3964551903095543,-2.5310970489272133,0.1839576842458491,1.531138880670901,0.5512535742202738,3.194318839446711,2,right
9.675,-0.8027736022222101,0.49890923371157453,-0.13985875234443707,-3.2169743577717274,-1.8850298033679165,-0.11808853749561937,1.4953159924264996,0.5124681212860207,3.124443762835675,2,right
9.679,-0.7822197962621865,0.49841606297361396,-0.13500609735728686,-2.1347361926509905,-2.7371614646953892,0.2803024089497719,1.4948287930947006,0.511623406992817,3.123525456727876,2,right
9.68,-0.7777707442231566,0.4966595513856145,-0.1316378738484356,2.4083577142810353,-6.3138522988205334,1.9526025055041274,1.513580109024487,0.5324481124358631,3.160047513065673,2,right
9.68,-0.7570016426372316,0.4945116463451963,-0.11592900295031605,3.490518380764814,-7.1659343986251764,2.350975755100146,1.4911133155267104,0.5075913775974047,3.116279736182913,2,right
9.684,-0.7298305375395107,0.4921817412695844,-0.08797287212487431,2.6701203553912443,-6.5199446235631076,2.048957196499907,1.5086207838521526,0.5268082855579742,3.150402285592608,2,right
9.685,-0.7095350543112229,0.49216154023599445,-0.05987011351607219,3.164909793024572,-6.909545343221577,2.2311083338695603,1.4991467837377805,0.5168823737338848,3.131886239748569,2,right
9.687999999999999,-0.6860596771253189,0.49556505852568883,-0.02931390119540242,2.9635144365495263,-6.7510217371987595,2.1569832205257313,1.5013904831044236,0.5181256498564342,3.1363910609756114,2,right
9.687999999999999,-0.666415416512069,0.5019077001221444,-0.004299219143758606,2.96095192421733,-6.748825831008259,2.155986027642468,1.5037483333781805,0.5227464993760795,3.1407665317685627,2,right
9.693999999999999,-0.6489948345904655,0.5090918111162303,0.01345966352570276,3.065949456973828,-6.831841791529792,2.1947441585345766,1.4995938760656489,0.5157063831648065,3.13293806829693,2,right
9.695,-0.6291322851653698,0.5213165878378212,0.02820637627216804,2.9402986517239817,-6.732431118515848,2.1483411693730967,1.5035163673870524,0.5219820534958591,3.1403695404633205,2,right
9.698,-0.6120481081313168,0.5369188283570222,0.03843985321824295,3.0379848257596054,-6.809814559637687,2.1844473891001,1.5007896880833542,0.5190360622984648,3.1350501677423113,2,right
9.699,-0.5932677457577873,0.5510520566739718,0.04573792657389771,2.9852179621362787,-6.76806945059122,2.164960812136366,1.5022481859623702,0.5168886091338994,3.1382990587932564,2,right
9.703,-0.5710892155958123,0.5660941457676214,0.05264851613437403,2.9980532231000563,-6.777767236763716,2.169559262867728,1.501634832564381,0.5247524689200138,3.1361781936390676,2,right
9.704,-0.5490058365020665,0.582146898477812,0.06138948566491498,3.0098915472222307,-6.788391407860161,2.174321730992059,1.501898483564712,0.512312901587719,3.138072013374022,2,right
9.707,-0.5275492154360419,0.5994054926038661,0.07208054245185733,2.989380086508177,-6.7700005110784245,2.1660751238863862,1.5017387136067586,0.5257057647628915,3.1362895478672774,2,right
9.707,-0.5107128842911466,0.6166656991850121,0.08539494411072938,3.0075096588892074,-6.787023319380287,2.173602521502038,1.5016394602573042,0.5177587256722269,3.1369460833842826,2,right
9.712,-0.4969567727234671,0.6293415152778932,0.09692758345800724,2.9959555535384665,-6.775735775688588,2.168669005615012,1.5025028635783573,0.5119410581493287,3.139362010611292,2,right
9.713,-0.4853089682959839,0.6400499474753081,0.1016400375037014,3.002694688451629,-6.781021771958873,2.171143466298818,1.5002774944163288,0.5390931600522437,3.1318165513482756,2,right
9.717,-0.48017292413380763,0.6503835406922348,0.10386010982042358,2.9956697829557157,-6.779556349144002,2.169820319665762,1.5041241326543329,0.48843343650034327,3.1452635756594214,2,right
9.718,-0.4761745963028096,0.6565584565421322,0.10005817448955898,3.0080348850801313,-6.780001500529684,2.1714865813834363,1.4992477373326683,0.5535525482613264,3.128118971764011,2,right
9.722000000000001,-0.47133441131826714,0.6603928227095521,0.08771529821813666,2.988732104061933,-6.778663182727552,2.1686853858179846,1.5032933633184644,0.49915837864055074,3.142383407281435,2,right
9.722999999999999,-0.46390884425250534,0.661309070200125,0.0719697754409063,3.0104456500748835,-6.7809843274380395,2.172090046908462,1.5032814828399013,0.500741113394239,3.1421856944848083,2,right
9.727,-0.45454064069254274,0.6586018760731824,0.05239555020853587,2.997912023891408,-6.7796535901198745,2.170127100970385,1.4952469353486726,0.6041011370149616,3.1143663383397246,2,right
9.727,-0.4431636359207318,0.6549696834260414,0.03452991083356055,2.984586064608539,-6.776519062561861,2.1675077185882428,1.5148799409681741,0.3499211044345585,3.182522831676405,2,right
9.732000000000001,-0.4169845177825414,0.6472306540077166,0.022631056697480938,3.0396416894519223,-6.787662316030008,2.1777715281005747,1.4823570227951208,0.7714019677384514,3.069570711731033,2,right
9.732999999999999,-0.3978817272559215,0.6404093570404443,0.01636201776694962,2.937703433727253,-6.7671271376051525,2.1587963226736253,1.52525242687853,0.21546171132259745,3.2185528728893074,2,right
9.736,-0.39105586929009073,0.63768659288621,0.01590654395463887,3.0688057448052204,-6.793657659895505,2.1832390264116093,1.705443682131786,-2.1178621757235305,3.844137899041363,2,right
9.737,-0.3638768242295829,0.6299609720544299,0.018307268098603356,2.9592602907686985,-6.77143698628609,2.1627969997646073,1.748351585532383,-2.673800939625479,3.9931497050307394,2,right
9.738,-0.3267963450215232,0.6208100005119794,0.03249900916686557,2.9619590487545215,-6.77182196944275,2.1632549799719114,1.7158151450831118,-2.252321694035612,3.8801655104562953,2,right
9.742,-0.29281262440690015,0.6153571243821012,0.0545727313431001,3.171973820501501,-6.815101258149959,2.2026446601485867,1.7354430031801313,-2.5065023304627925,3.948309808187555,2,right
9.742,-0.25865523077208363,0.608801718790647,0.07236629793042759,2.6559863427697437,-6.7088997980645875,2.105898959767023,1.727453322720704,-2.403136971654912,3.9205968373972637,2,right
9.746,-0.2245284130313663,0.6038232916546382,0.09825393665597576,3.5115345166990157,-6.884989858439118,2.2663182843907377,1.7273449109017331,-2.401565730428156,3.920170218992739,2,right
9.747,-0.2020727188954337,0.6037610431639964,0.11939487052611751,2.3830088090335915,-6.652689761545005,2.0546990344585883,1.7315289386440091,-2.4559434092959194,3.934762861974683,2,right
9.747,-0.1952567628585744,0.603769768340795,0.12469373993443589,-2.3546836104956648,-5.676924293865184,1.166212325102376,1.7265147298011387,-2.3908407330832344,3.9172914278561195,2,right
9.75,-0.17509255809254237,0.6039472340053065,0.1394149093287196,-3.4833012831290033,-5.4445703711005535,0.954552528051479,1.730420821352299,-2.441493338630566,3.93087948093609,2,right
9.751,-0.14918020941016247,0.6085159862389097,0.15750710410811414,-2.6276044763003874,-5.620757352868408,1.1150338084732343,1.7283138188645046,-2.4143271840944833,3.92361465715821,2,right
9.757,-0.13436461699035657,0.6168334740831661,0.16435236093042954,-3.1437281404657242,-5.514441017601538,1.0182407303402514,1.728795972956311,-2.4201902235343473,3.9251265504685096,2,right
9.757,-0.12073163513216352,0.6287955423667977,0.1660595281954443,-2.933684642399153,-5.557809619520796,1.057616962756295,1.7293536037094541,-2.428059025611284,3.9273407906840787,2,right
9.762,-0.11332653254040717,0.645611300102216,0.1631689747479671,-2.9308080043006264,-5.558191155681934,1.058192110100741,1.728387698081795,-2.4147622418234294,3.9236466136202712,2,right
9.764,-0.11228621846889703,0.6654305594176879,0.15218900129000548,-3.0408004059433384,-5.535824326664952,1.0375114472086104,1.7292940007026965,-2.4271251160181393,3.9270645678037197,2,right
9.766,-0.1150348904873698,0.6868002440849594,0.12879982138384183,-2.909013309695749,-5.562689134678996,1.0622800265484789,1.7286864633831343,-2.419260789136482,3.9249572260700942,2,right
9.767000000000001,-0.12272929130476593,0.7123644626545911,0.09878145329177557,-3.0116922112210496,-5.5416592051351765,1.043000337318274,1.7289521654947115,-2.421550068229082,3.9253778619167083,2,right
9.772,-0.134609878793559,0.7420097249996764,0.06265885612847633,-2.956198784708292,-5.553323107215077,1.053361937409874,1.7289512596059196,-2.4241715474256873,3.9265220997502395,2,right
9.773,-0.1501285910304212,0.7722554429030893,0.016138821894064948,-2.9691703357486694,-5.549900876284054,1.0510771503343177,1.7288074695299638,-2.4183803111429496,3.92431082996013,2,right
9.777000000000001,-0.16582106108404154,0.8032428374610325,-0.025316741704343785,-2.983316283212132,-5.548277193202551,1.0481689577037165,1.7289876058264024,-2.4249036230854544,3.9267618622906864,2,right
9.777000000000001,-0.18312514144379063,0.8354057268824968,-0.05883570387269936,-2.9585605608958097,-5.551795180071028,1.0531251451981267,1.7288412313240378,-2.4205820395720954,3.925197739097192,2,right
9.781,-0.20178563390869475,0.8661813708536228,-0.09084053539312362,-2.9818769174664244,-5.54825218705519,1.0485023579567372,1.7289252372269173,-2.419594678718342,3.924582713793187,2,right
9.783,-0.22137997941174042,0.8926216089449488,-0.11357957623338633,-2.965892342626617,-5.5515556935961445,1.0514979294595908,1.7289010145573727,-2.4283962523614218,3.9284740710160206,2,right
9.786,-0.241333667678908,0.9154520053740499,-0.12999797622269882,-2.973852941478298,-5.547580444281454,1.0504689753044607,1.728884626646773,-2.4112662400830676,3.9210416213876313,2,right
9.787,-0.25865085693162554,0.9343276869782978,-0.1409663121270308,-2.971608201268918,-5.553379833720831,1.0498294982258285,1.7289184925018077,-2.4334415143416632,3.9306327930078977,2,right
9.79,-0.2741438369843675,0.9474289635700963,-0.14081173276275213,-2.971137124308589,-5.545515376701421,1.0514999365398823,1.7288863235305245,-2.414858037923999,3.922607603319137,2,right
9.791,-0.28434528778396273,0.957460254851114,-0.12972269204740536,-2.972350837589666,-5.553752223965116,1.049585732698318,1.7289048263064573,-2.415636047207206,3.922896455712783,2,right
9.795,-0.2899024481739782,0.9645437520142686,-0.11115633060322536,-2.97052621537392,-5.549224476331859,1.0509024398685622,1.7289046609124594,-2.4501623793519705,3.937960327020642,2,right
9.796,-0.293972649914227,0.9678156880171378,-0.08752283750647522,-2.9745173292010016,-5.54417533806114,1.0509940148230195,1.7288878032598904,-2.3649829330532377,3.900854156304939,2,right
9.8,-0.2939173727341341,0.9688941160209604,-0.050385881739198723,-2.96615782955777,-5.564396458644575,1.0488852237407587,1.7289159895804773,-2.506288966961409,3.9623946888919446,2,right
9.8,-0.293287732210447,0.9690121985360937,-0.02300002906902473,-2.980016883118269,-5.5272350812466104,1.0531042577800844,1.7288847147545199,-2.31991140090738,3.881227430878385,2,right
9.806000000000001,-0.29328357827014684,0.968957837384307,-0.01515882349415321,-2.9625897598914803,-5.57487571594632,1.0476176998874536,1.7287110944946869,-1.5378719523186866,3.540566439204121,2,right
9.807,-0.29129369915260006,0.9664265462690677,0.012162725223198115,-2.9769900777598948,-5.535134526578037,1.0522260141637028,1.7286932812878608,-1.3515478626881987,3.459418871709288,2,right
9.808,-0.28814079082483607,0.9610886477140704,0.04983245111795681,-2.9771713149521535,-5.536089781164886,1.0519942733297583,1.7287069071426346,-1.492796040268802,3.520938107071028,2,right
9.81,-0.2863747997351678,0.9555449719153948,0.07723671292488493,-2.9478384909238686,-5.6122621695324035,1.0435584503089488,1.728684495508725,-1.4075945828736254,3.4838238103585857,2,right
9.811,-0.28526403046058146,0.9522298907469291,0.09900691961058479,-3.019262717191571,-5.42518164412324,1.0644186273376017,1.728732672330606,-1.4423128474614524,3.498958396908039,2,right
9.816,-0.2801884955968167,0.9496148825808047,0.11018665569002954,-2.9010120114226194,-5.7353354984990235,1.0297989138956352,1.728647180903517,-1.4426778981885353,3.499095128941147,2,right
9.818,-0.2762716932391351,0.9454243254016947,0.11610208652719503,-3.056966328593841,-5.326237992378993,1.0754655635262198,1.7287641023626326,-1.4246865138788227,3.491288023033937,2,right
9.818,-0.2746691832327366,0.9446055769016009,0.11910214399577734,-3.712221020986192,-3.6085845381816557,1.2670365216908581,1.7286495254438095,-1.4462721962943084,3.500662061134663,2,right
9.82,-0.2702028941643043,0.9444703035361337,0.11898230261866627,-3.8682053648108767,-3.1993960265786283,1.3126987636599956,1.7286971503642925,-1.4293965665052841,3.493323240403442,2,right
9.821,-0.26294101469882564,0.9408852304266955,0.11645781608996225,-3.749969503079008,-3.509731422726529,1.2780736010432758,1.7288004836059248,-1.438704465238129,3.4974011914381133,2,right
9.824,-0.2502334346088063,0.9391439672099289,0.10650561131668687,-3.821213725963756,-3.3223940741876268,1.2989717841954653,1.728473745495652,-1.436086153737409,3.4961853349090237,2,right
9.825,-0.23468864295736425,0.936573922510348,0.09344728578262529,-3.7923342867739103,-3.398846525802525,1.2904455282478948,1.7290350154968233,-1.4345747304676038,3.4956563331848907,2,right
9.829,-0.21659782346527257,0.9320116237611455,0.078894371702324,-3.7917709029261504,-3.399604475306889,1.2903585190804587,1.728346784468705,-1.4376493096431469,3.4968371562953218,2,right
9.83,-0.19121867228080153,0.930730870526997,0.05976090158957211,-3.80705400585853,-3.359821714527186,1.2947992237161317,1.7288951643580102,-1.4346075117938462,3.495638342857114,2,right
9.834,-0.16071449819221484,0.9299979803682488,0.038874755027254196,-3.7889786968234636,-3.407909014802203,1.289429725964278,1.7289007362168733,-1.437253626327768,3.496792100035627,2,right
9.834,-0.1275834104807869,0.9286870240899274,0.016527311813849616,-3.8026887099834217,-3.369802378810724,1.29369080453752,1.7278812440364417,-1.4344403680294646,3.495332744974805,2,right
9.839,-0.09027855243084229,0.9315225590231131,-0.0074957967929294355,-3.795873647142561,-3.3913738780655978,1.2912682356155893,1.7302102417506804,-1.438236793978582,3.497520906481377,2,right
9.84,-0.04674120727066403,0.9381751308087523,-0.03055547366706967,-3.796589265077152,-3.3849580249367928,1.292003667922724,1.7267361611959928,-1.4332039132188594,3.494531390185114,2,right
9.845,-0.0004819284588488421,0.945419165733342,-0.052667983825926225,-3.799443420210031,-3.381091259595893,1.2924193181361034,1.7304392969878142,-1.4384511814537857,3.49766684402206,2,right
9.846,0.04815498144725166,0.9537880406338272,-0.07385356322122452,-3.795940350576945,-3.3903165277921037,1.2913896024431155,1.7283001309587251,-1.4356057662367843,3.495936484740712,2,right
9.85,0.0973006327015736,0.9650122985327336,-0.09435444032277976,-3.797697240981958,-3.378974106599825,1.2926857211645695,1.7264544770096648,-1.4322310518378178,3.4940430747310995,2,right
9.851,0.14308784758122373,0.9766696634655135,-0.1159319289920043,-3.799001946563488,-3.390937960685883,1.2912809281886353,1.7345285559171555,-1.445489890212171,3.501671060755385,2,right
9.854,0.19023152501516435,0.986387138353299,-0.13586357093422277,-3.794727290247186,-3.3791977422753634,1.2926954262191175,1.7195564347869892,-1.4211755101163404,3.4876445750373906,2,right
9.855,0.23465564647813317,0.9979777890218938,-0.14849289508750335,-3.8003096244003256,-3.3890222014442353,1.2914874115063935,1.7387800913932683,-1.4523325738671093,3.5056272672414313,2,right
9.86,0.2749127228534489,1.0122830370984606,-0.15445354786076498,-3.7965613843168833,-3.3847200484575053,1.292032583384325,1.72273307133354,-1.4263500418885395,3.4906273274113664,2,right
9.861,0.30946533832329903,1.0284977260105772,-0.1536355976363411,-3.7944296656208802,-3.378116285213234,1.292824025818633,1.7231631376356245,-1.4269487730486317,3.490987105193534,2,right
9.863,0.33320270413528613,1.0469766956494793,-0.14363216478991073,-3.8060802550220347,-3.4009058225579656,1.2900388513144976,1.7537718201515249,-1.4768263795842969,3.51973616278819,2,right
9.863999999999999,0.35125790570510906,1.0667476360766712,-0.1278066288751703,-3.7837978753350994,-3.3604252023937136,1.2950065368100723,1.6785480550855145,-1.3543648778581656,3.4491331967670726,2,right
9.868,0.35350272090089196,1.0889167335213294,-0.10802359704629627,-3.812708474689769,-3.411611449278045,1.2887147606790532,1.8032659564444695,-1.557367676294907,3.566175928002882,2,right
9.869,0.3477179898716699,1.1011870187652422,-0.09328625863345086,-3.788446955366436,-3.369220745374091,1.2939314543580909,1.6387702377864872,-1.2896256014835956,3.4118058831592064,2,right
9.874,0.3435899565213959,1.1043036695161255,-0.08902354059389248,-3.7892074994670324,-3.370065507007232,1.2938189907083646,0.9482264079075131,-0.16547017524206173,2.7636917388557247,2,right
9.875,0.32337015340270503,1.1184419890050914,-0.07955689115004852,-3.8352811251531556,-3.4514622685360132,1.2838206590019596,0.7837414645800285,0.10225833343784091,2.609329331861911,2,right
9.876,0.2922728075337816,1.1346745090159365,-0.07012455755370217,-3.721853225499165,-3.2519439654669275,1.3083447275538154,0.908447708553245,-0.10072979131375534,2.726363805194607,2,right
9.878,0.2528782239379155,1.1426861209095842,-0.08092993285425978,-3.91000588866162,-3.5824879479414937,1.2677046855980918,0.8332195066149914,0.021737306890194576,2.655757675878447,2,right
9.879,0.22482876198525015,1.1470184730306476,-0.09416462538200585,-3.6617982613212554,-3.1466407649828794,1.321301027652155,0.8638668664288387,-0.028189015892342545,2.6845341867677446,2,right
9.883,0.21743247596698656,1.1477264214966336,-0.09890640121038563,-2.6198017638571125,-1.3170354670073576,1.5461975573433406,0.8642137176685498,-0.02868294737298797,2.6848349234045727,2,right
9.884,0.19439698556122195,1.1474998597114339,-0.11653738281071985,-2.3715873844321638,-0.8812821264114485,1.5997964941240461,0.8482860078984988,-0.0028506612762261374,2.669919614111648,2,right
9.885,0.17013016102524808,1.1437364940911419,-0.14023283713315052,-2.5597771070920006,-1.211646574961292,1.559162346012097,0.8673908603837778,-0.03385813096308447,2.6878180600500965,2,right
9.889,0.16097044960201062,1.1367053134198741,-0.15313326002803784,-2.4462465956028625,-1.0123659441804116,1.5836545270333628,0.8524699935506779,-0.009608261761542607,2.6738278728753775,2,right
9.89,0.15476883432293614,1.1319234233580433,-0.15675857494967133,-2.4925132618381367,-1.0935298984853212,1.5737290457210555,0.8606461081901154,-0.022995641671122016,2.681528322350834,2,right
9.892999999999999,0.15773954847304233,1.1271568865128754,-0.14836905934490116,-2.4930036041134302,-1.094495055759079,1.5735022820189877,0.8584717988190705,-0.019207003128962823,2.6794016944573067,2,right
9.894,0.16556526976493613,1.1224551740787305,-0.12845401459135242,-2.4690132947931276,-1.0522363669839536,1.5788488764608486,0.856898902768881,-0.01707471484202287,2.6780730618161295,2,right
9.897,0.17435066063396223,1.1221391971019674,-0.10032592799092888,-2.497798968695576,-1.1029106520249745,1.5724701912480872,0.8599071014866293,-0.02144688433060475,2.6807156211691017,2,right
9.898,0.18263012050200655,1.1274687837132338,-0.06643814938385675,-2.4753009806535466,-1.063357475951885,1.5773965617564896,0.8569870310956385,-0.017111544794554855,2.678118877651994,2,right
9.902000000000001,0.18556810273684926,1.1375063526078835,-0.031789631271081614,-2.4876798367920947,-1.0849586695065367,1.5748676170510683,0.8593210286522227,-0.020914485669577928,2.6803109687019795,2,right
9.902999999999999,0.1840587233465174,1.1483519165847005,0.001121682579569361,-2.4842705836512993,-1.0793819731170946,1.5751461145572598,0.8572732961037507,-0.016806089959540048,2.6781217463875313,2,right
9.907,0.17941567674202624,1.1580483216139648,0.027948370700320517,-2.4821169259861855,-1.0749005462364365,1.5763977023200915,0.859628625372381,-0.022411482254246547,2.6809427140873163,2,right
9.908,0.17234703542665678,1.1688790889422584,0.047069489334764514,-2.486386821766132,-1.0832553857510976,1.5745112168164042,0.8566716401426606,-0.01495535722701205,2.6772573178818075,2,right
9.913,0.1625559811980403,1.1792028098748375,0.06312191608780271,-2.4821951249169913,-1.0752123774410691,1.5761848985231186,0.859720100162374,-0.022735181992251614,2.681088132230927,2,right
9.914,0.15283074178273137,1.188660461778149,0.07819493141235886,-2.4857194168723087,-1.0813923401093435,1.5754312834914428,0.8581225272697596,-0.01850601085617537,2.6790292921886443,2,right
9.918,0.14086509172503017,1.1972634256171915,0.091856250542265,-2.482229895885336,-1.0765390580183745,1.5747572137401904,0.8559341005958417,-0.013541932214069916,2.6764904871159674,2,right
9.919,0.12338486391474414,1.2054292569225074,0.09724132475259675,-2.486696640837277,-1.0814731098866326,1.5770544499223194,0.8641835787603307,-0.0331097229418031,2.6863494843204707,2,right
9.923,0.10426669526781371,1.2182037611704235,0.08322277140799861,-2.480873301910672,-1.0755872149497603,1.5734461848819885,0.8491247125267543,0.0027903632048030935,2.668293315344283,2,right
9.923,0.08355851338682335,1.2328476174256338,0.053313222152203424,-2.486924501378325,-1.0815868261352053,1.5773263606227266,0.8684070011979044,-0.043221056849733444,2.6914253178830023,2,right
9.927999999999999,0.05964987769158328,1.2490824374111584,0.015483114583319338,-2.4836753994555067,-1.0785543256491246,1.5750311622462965,0.852331337531111,-0.0048416501286140425,2.6721377099358223,2,right
9.929,0.038703420787116666,1.2597129304912829,-0.025601906806042768,-2.4796501290521302,-1.0737908481008065,1.5733165138991723,0.852682079177687,-0.005749728347870011,2.672572815766456,2,right
9.932,0.024263012397260367,1.257457194346998,-0.05922534854271505,-2.4952620379947774,-1.0911192643727423,1.5812524139387834,0.883611155104481,-0.07936495424565847,2.709628044962955,2,right
9.933,0.01622133663424831,1.2506584936137881,-0.08819192227687593,-2.466671702650647,-1.059619228633206,1.5664574010927839,0.8076914086715911,0.10142265286271612,2.6186605140359482,2,right
9.937000000000001,0.022006815720483602,1.2301490081780009,-0.11874403020561064,-2.5033014696310176,-1.0999234441248211,1.5854722291792718,0.9335431449997805,-0.19829820658799605,2.769451886942827,2,right
9.937000000000001,0.030525892066170752,1.2126385054270856,-0.13952042753280133,-2.472754623040971,-1.0663344599745357,1.5695908726991712,0.767548646724298,0.19703695391887688,2.5705739227205675,2,right
9.942,0.03365604245724709,1.207856319411272,-0.14271964303784868,-2.473453977131038,-1.0670195049632458,1.5700473616901867,0.07065396879197325,1.8565534023942942,1.7355223013165773,2,right
9.943999999999999,0.04803785707174854,1.1844693976163116,-0.14456146650659024,-2.532117387799749,-1.1317993201209409,1.600241988487416,-0.09534893170871919,2.2519195422456755,1.5366564680087702,2,right
9.943999999999999,0.06824036004125772,1.1543647121854863,-0.14021355624615378,-2.3880814490712163,-0.9728453301359384,1.5259964459592448,0.03051189541458106,1.9521651671361702,1.6874347122572857,2,right
9.947000000000001,0.08559579414576733,1.1219554272650698,-0.09488384302427755,-2.626858688152393,-1.2363256861761631,1.6491061814204062,-0.04540439404275248,2.1329400194840322,1.5964622030062656,2,right
9.947000000000001,0.09794919776578989,1.0953567698753839,-0.054143322381968076,-2.3119190650639116,-0.8888086187131192,1.4867256447269808,-0.014505471665017103,2.0594359889847595,1.633560940792187,2,right
9.952,0.10120928356898706,1.087804861065629,-0.0408999699429696,-0.9897829658874026,0.570206118796096,0.8051723374355148,-0.01408985021451762,2.058288669534912,1.6339024138965592,2,right
9.954,0.10663214282930217,1.0605985439016972,0.011075291786628961,-0.6748385678627563,0.9177275227233755,0.642798830631491,-0.030258538864527434,2.097011091863022,1.61474907109395,2,right
9.954,0.10971005964917477,1.0242975595542716,0.06891498750423748,-0.9136131707512432,0.6542589521150917,0.7658985174118963,-0.01088361608797315,2.05065810955967,1.6377473550636497,2,right
9.957,0.09846510346894846,1.0024286555607076,0.09608032119223509,-0.7696068329746408,0.8131527951404092,0.691658734570234,-0.025982453403019565,2.086705555457028,1.6197489175394035,2,right
9.957,0.07900570649630877,0.9810081433677277,0.1217000558733154,-0.8281961327798031,0.7485088624340959,0.7218607530185042,-0.017812518511967277,2.067431109798486,1.6297226612569735,2,right
9.961,0.055146922303954043,0.964030708258255,0.13360140497092826,-0.8290168826409623,0.7476118317034197,0.7222894209935127,-0.019744709806928582,2.0714503150078754,1.6268140899689547,2,right
9.962,0.02780102732267008,0.9494674361768747,0.13309805032728708,-0.7983264543413151,0.7814404022146664,0.706457495496684,-0.021783789454538474,2.0773075013591944,1.625392449646347,2,right
9.966000000000001,0.0021159354717434067,0.934792903158556,0.12694553778470596,-0.8350611294223815,0.7409780043153309,0.7254111817511059,-0.018193487359816265,2.0675297376742794,1.628441178429315,2,right
9.967,-0.0214546537717959,0.9219245382333758,0.10751630455116443,-0.8064962271511356,0.7723969892239674,0.7106646851802847,-0.02158245905096192,2.0765786501987007,1.62537942056585,2,right
9.971,-0.04151769651514511,0.9102583533451925,0.07800935949485349,-0.8218551320625713,0.7555484601872632,0.7186020813694207,-0.019230970781350252,2.0709876039893063,1.628205665278394,2,right
9.972000000000001,-0.05329912973486487,0.9035360827494028,0.03966457026222109,-0.8183646066068935,0.7593579282156078,0.7167948716329319,-0.020477070527276396,2.072139858739,1.6248597785083363,2,right
9.976,-0.06105629517845279,0.9010701602316666,-0.004206891585368237,-0.8143531787495839,0.7636983165175425,0.714708959962203,-0.019975086303467983,2.0750924076924324,1.6296957418340337,2,right
9.977,-0.06536862607958582,0.9054972505595995,-0.050037117295823205,-0.8211710931411798,0.7564501805661281,0.7182794244146772,-0.020162077736228353,2.069349874591923,1.6231543615564057,2,right
9.981,-0.060495632192386344,0.9187130987041958,-0.08944158456072884,-0.8149886118125751,0.762799027202556,0.7149970104020995,-0.020067421933704574,2.075720687175817,1.630002499635315,2,right
9.982000000000001,-0.04984444224619526,0.9408471219890167,-0.12121639927824936,-0.8188719992913412,0.7590942910406496,0.7171155135837008,-0.019956866645914,2.071646218016114,1.6262430535906516,2,right
9.986,-0.03373684497883208,0.9704499502389876,-0.14400615290281651,-0.8173794418194338,0.7602786929416758,0.7162533033439364,-0.020679995539037183,2.0700827022087327,1.6220235820249402,2,right
9.987,-0.008446622048666785,0.9997098427210881,-0.15415796595890455,-0.8173931195480513,0.7602593572378725,0.7162593623494475,-0.01885493580191605,2.080115186349615,1.638888735507334,2,right
9.99,0.02661419781476799,1.025217401435298,-0.16230059466676078,-0.8175932561799474,0.760897108407424,0.7165350441100988,-0.02199770580163979,2.060934215673063,1.6079002659879187,2,right
9.991,0.07517594244898768,1.0424471131846418,-0.16371690056795873,-0.818219484969885,0.7582441179993606,0.716463879933322,-0.018016510765223294,2.085692559079974,1.6476275515704937,2,right
9.996,0.13235755886611855,1.0474228138537325,-0.15715508027961192,-0.816392630982675,0.7631868373756098,0.7161097788105257,-0.0213182250343669,2.064970958329117,1.6144852286727356,2,right
9.997,0.19161840693812604,1.040015847312405,-0.1434575623586021,-0.8188618765268321,0.7573420443582417,0.7167562900286217,-0.02131314994279408,2.0657320193851785,1.6152866708594331,2,right
10.0,0.25020917039909496,1.0253481866898828,-0.1173194573598777,-0.8172684690768446,0.7609030796489485,0.716296781116766,-0.014740942357096217,2.104586708955426,1.6788009495493383,2,right
10.001,0.30032316866698294,1.0093891117046976,-0.08453316128977953,-0.8158251630486646,0.7640497904819794,0.7158647866687764,-0.0307952904096803,2.0088511894620984,1.522798420367741,2,right
10.006,0.3427485339363357,0.9814678992366864,-0.031173171710577756,-0.8223416945019324,0.7500576982824068,0.7178586306591521,-0.004202068202566982,2.1676451850095315,1.7814361560840908,2,right
10.007,0.36674071100301814,0.9573417429944279,0.011223458842606178,-0.81006524570467,0.776217576488408,0.7140622368924175,-0.03927633209990174,1.958192739704589,1.4402864118919405,2,right
10.01,0.3706066995729297,0.950824060163267,0.02215553961526341,-0.8259612335243044,0.7424805135695935,0.7190053817335149,-0.18662045351992615,1.0792990875422257,0.008225023836646916,2,right
10.01,0.380154988067245,0.9277090347866097,0.06336735002509988,-0.8126329327326804,0.7707104121431447,0.7148486596809848,-0.2217049884677509,0.8698729672989517,-0.3329643379310705,2,right
10.011000000000001,0.38197895323267694,0.8944071944718359,0.1146326102514517,-0.8129844860166145,0.7699532039221755,0.7149572751259563,-0.19510089878008688,1.0286381661234079,-0.07427088927143506,2,right
10.017999999999999,0.365670606334858,0.8741852028437193,0.1345683916481666,-0.8385246214921935,0.7159951810001304,0.7229456986123224,-0.2111501521274119,0.9328929288122413,-0.23030262861712283,2,right
10.019,0.34427340307511745,0.8567895920446381,0.1445800379268174,-0.775719425891654,0.8486549508243744,0.7032943262782396,-0.20461659601886645,0.971839797575603,-0.16683670434157627,2,right
10.02,0.3064353258962467,0.8491378131720052,0.13596666339029315,-0.8798891119537167,0.628662099236796,0.7358950625369958,-0.20452955324406363,0.9724009881960097,-0.16586853777057411,2,right
10.021,0.278583404720129,0.850950677935087,0.12445630092023757,-0.7424590252098907,0.9188524470992399,0.6928821770563744,-0.20794783509618286,0.9519671902840163,-0.19930009659332637,2,right
10.021,0.2716780072396391,0.8521322392935973,0.12347697749403244,-0.16535556860764974,2.1367571047055876,0.512318989274043,-0.2038517590747876,0.9764374066696382,-0.1592221007340504,2,right
10.024,0.24589182199025256,0.8624658651989602,0.10810585550420031,-0.02786650080974452,2.426903322615677,0.46930275886628536,-0.20704187703772153,0.9573836089125248,-0.1904783178825601,2,right
10.025,0.21443367997368878,0.8924602273742573,0.10608513227217803,-0.13215396429805842,2.207018184268281,0.5019053218342671,-0.20532058503078116,0.9676569403873586,-0.1736460452474825,2,right
10.029,0.2017526693045093,0.9353305676469416,0.1172353715366346,-0.0691818978305144,2.3394837061073646,0.4822616743790793,-0.205718253960108,0.9653062860104886,-0.17729809426815785,2,right
10.031,0.21765520631627366,0.9530752281301161,0.09490754464043427,-0.09490441383605337,2.285805206753961,0.49022500477307074,-0.20616348210191535,0.9625945048680733,-0.18229718900883704,2,right
10.035,0.26872023279192336,0.9250269898442223,0.05977123176217191,-0.09512680495719185,2.2847391041720355,0.49037886903945,-0.20539204675126616,0.9672861466276327,-0.17364957517916474,2,right
10.036,0.3270127376677812,0.8816500839064414,0.03815647129008708,-0.0817729345509762,2.31317770023815,0.48616426539185653,-0.20611067511851264,0.962892501137043,-0.18204093415412448,2,right
10.039,0.37572253034788794,0.8466965109093132,0.019316844961390023,-0.09795764367492663,2.2795253218568883,0.4911563156976913,-0.20563166663169566,0.9658336612728411,-0.17626553373980408,2,right
10.04,0.41654629081345457,0.8283154256644476,-0.0097920951587118,-0.08506775821997434,2.3051055435262002,0.4873550242419968,-0.20584935713299946,0.9645364302374495,-0.17837089928382854,2,right
10.044,0.46282538664274964,0.8343998395801622,-0.05861262534520981,-0.09246280109947924,2.292292103187009,0.4892695571425796,-0.2058150315590103,0.9645857525535965,-0.18011426781000367,2,right
10.045,0.5407445278793237,0.8640227986768475,-0.11264473326447527,-0.09012748836899807,2.293795154303359,0.4890287863481475,-0.20577371853056303,0.9651860781407812,-0.17496753962663814,2,right
10.05,0.6601558618356187,0.9133990357756712,-0.17143168130751432,-0.08897082131968609,2.2989655425467683,0.4882763601899112,-0.2058076296116324,0.9644564935097337,-0.18237545778564834,2,right
10.051,0.8116778127989599,0.9736968896804133,-0.23289939589241182,-0.09207263489052836,2.2924450446235785,0.4892433428773561,-0.2058083447892754,0.9650142327511823,-0.17483683121871638,2,right
10.054,0.9556139380398527,1.0334959596639455,-0.25918685450885137,-0.0879953910831403,2.2959835701703453,0.48869237347877337,-0.20580825639389438,0.9646896115588814,-0.17919639594061815,2,right
10.055,1.059622778241681,1.0780299552207855,-0.2464377908141115,-0.09262191261962027,2.2977942502228736,0.4884838085083747,-0.20572668437823904,0.9648976276573806,-0.18216003449577547,2,right
10.059,1.1054310966741583,1.1034385725660742,-0.21683477970418646,-0.0877734532009597,2.290761971468598,0.4894373553759647,-0.20597837986980122,0.9646188484240786,-0.16816159189615237,2,right
10.061,1.0672127543402117,1.1267246309658394,-0.19093843542507882,-0.09203639667478876,2.3001665977037162,0.48813764395119463,-0.20551664056417213,0.9651043516669437,-0.19417272767029042,2,right
10.064,0.9593512918031376,1.1653189907416164,-0.16736964166602958,-0.09003751270292083,2.293758040904578,0.4890336116860599,-0.20611656936303158,0.9644406155532745,-0.160839356745,2,right
10.065,0.7984750125958968,1.225633740029311,-0.11643905077846398,-0.08733404669243056,2.290286657917661,0.48950003697821576,-0.2056122314742851,0.9650129235793188,-0.18863729273971586,2,right
10.068,0.620873568955973,1.2890627963421928,-0.0827452875441649,-0.09709617282396327,2.3098126667689396,0.4868129541465465,-0.2056182421708907,0.9650493560586254,-0.18780219264414316,2,right
10.068999999999999,0.4531518634292008,1.3334481831147864,-0.09179607815428927,-0.07959789758537195,2.2723374596488006,0.49198495854995594,-0.20661424578026594,0.9637376765622828,-0.13515159890578962,2,right
10.073,0.3014298558932056,1.3676383411665436,-0.0962998643337939,-0.10179353349851211,2.321019508696536,0.48525915379305523,-0.20417084268145808,0.9669216182005341,-0.26462182349658897,2,right
10.074,0.2703786149448195,1.4058758023427478,-0.12434940479412473,-0.08338814359401303,2.2801348821201888,0.4909121351854341,-0.2082240054954024,0.961639460040332,-0.04996172549329381,2,right
10.08,0.31720875952657807,1.4278261345537642,-0.1583839977925533,-0.08376220824342989,2.281455741203481,0.49072272739422734,-0.2028748381336638,0.9686186664838118,-0.33307571792149815,2,right
10.08,0.34697834481851625,1.4265095021406602,-0.17639661570123472,-0.11910158392977091,2.359013718887752,0.48001415436458683,-0.18042601632201194,0.9980757498670096,-1.5212332445455812,2,right
10.081,0.4830998035730415,1.4137579310582442,-0.268941714243237,-0.032470236472583215,2.167999939490662,0.5064010961348941,-0.17507445857580906,1.0050760965141452,-1.804314691866828,2,right
10.085,0.6753610628137936,1.367803832554962,-0.3869497669006472,-0.1759849843460035,2.4848979428426734,0.462615281305087,-0.17912862650379863,0.9997567801450906,-1.5897065473553047,2,right
10.086,0.7573655543079375,1.3279058374637591,-0.4227792228148317,0.013228984298024285,2.0668132397664594,0.5203902247924022,-0.1766918074318155,1.0029826236685393,-1.7191308641978948,2,right
10.088,0.7724041730503783,1.3151692116006197,-0.4285027276852694,0.8078970460518899,0.3120036395698649,0.7628035396587516,-0.1776676864380182,1.0016424952541174,-1.6664857220694396,2,right
10.089,0.764865621577044,1.2510656970430645,-0.44885713282552486,0.9970215161567736,-0.10614768690736365,0.8206003529169019,-0.17770928458545712,1.0016704474488898,-1.6657205649576339,2,right
10.089,0.6896783649106965,1.1501589683152336,-0.46016311851196756,0.8536298142675569,0.21087770159501987,0.7767826768480126,-0.17716009654587334,1.0023107116723853,-1.6933528267311253,2,right
10.093,0.5370658844015244,1.063514651062782,-0.5034095536061234,0.9402051374762481,0.019695452332024826,0.8031896625172326,-0.17779697399366234,1.0015096069741698,-1.6602661153037888,2,right
10.093,0.33896055472747566,0.989197869430863,-0.6230586217429315,0.904735987220595,0.09741816395176053,0.7924997019049889,-0.17733361343683612,1.0021838143200315,-1.6860191327276546,2,right
10.099,0.12324480083883536,0.9434962099058686,-0.7964789861567471,0.9047690299417837,0.09865436052328662,0.7922302473755956,-0.1775205824107054,1.001724743435587,-1.6721584243668492,2,right
10.1,-0.09382325944960702,0.9431089956132521,-1.0007249940163512,0.9224883306533795,0.05767513784853097,0.7980300228339444,-0.17759073827267685,1.002000449006879,-1.6752796875228393,2,right
10.103,-0.29464345776897605,1.0112343361349057,-1.1415515569773547,0.9011037719642438,0.10672115675047311,0.7911180437502445,-0.1773614546173889,1.0018504457743589,-1.6790263448926788,2,right
10.105,-0.446267146826386,1.1477777174614765,-1.1515352413769828,0.9180146345278657,0.06858797300219246,0.7964446500090847,-0.17760919837644112,1.0018846311469316,-1.6726022883118938,2,right
10.107999999999999,-0.5141139099649656,1.3219200344857025,-1.0912728615543716,0.9081031399082635,0.0889556501398417,0.7937463063234258,-0.1774973668987684,1.0020343735977582,-1.6785804067667294,2,right
10.109,-0.4852318801702913,1.5340989222384622,-0.9509430463843755,0.9122290672290667,0.08475883966290818,0.7939545762405398,-0.17733682347044677,1.0015792787516382,-1.6746665652111892,2,right
10.113,-0.3640781757128173,1.793987530804413,-0.6995330872703566,0.9112425040006014,0.07847264525622188,0.7954625382425057,-0.17784363520777569,1.0024358146384578,-1.6762061597424809,2,right
10.113,-0.15196411417633005,2.0798876482805584,-0.34604969414495157,0.9112112868826825,0.08892503356676063,0.7932341439232848,-0.17703828187733897,1.0012226619443803,-1.6765170544567292,2,right
10.118,0.154026999482366,2.342033213514698,0.02914648476377571,0.9118372476389244,0.07926683549880734,0.7951935655314386,-0.1779148355997116,1.0024923028686559,-1.675231354360436,2,right
10.119,0.538263965944637,2.532885380925518,0.19809350769283512,0.9091279560602521,0.08517818916730094,0.7943825048555326,-0.1773962821460039,1.00177438513983,-1.6766143279433123,2,right
10.123,0.9380645832522644,2.6219918533049555,0.11393951869654727,0.9165544601052877,0.08412459397650185,0.7933682541371382,-0.17698683002920268,1.0011068690952802,-1.675816234588377,2,right
10.124,1.2639330204292465,2.630287941298411,-0.08276181919219187,0.9022567667555391,0.08062685192168609,0.7965017971422774,-0.17884806137399017,1.0039385820768643,-1.6756371494512194,2,right
10.128,1.4583570506750498,2.603804011977952,-0.32637411460201377,0.9229458845712957,0.08725812112061004,0.7916320164970896,-0.17538003537574065,0.9987081147220932,-1.6768370951564435,2,right
10.128,1.5037535166149216,2.539896234694294,-0.5330319569690094,0.9010100430734668,0.07992747444584553,0.7968592813564798,-0.1798390256343328,1.0054170661802595,-1.6749830875746308,2,right
10.132,1.431584565280183,2.4716664245845905,-0.6537325410630321,0.9134965631715873,0.0845760477356686,0.793782154219269,-0.1761139853250408,0.9998185834870505,-1.6766640069556302,2,right
10.133,1.2600179933953015,2.393134690220773,-0.6420459730409958,0.9251919501380536,0.08653196979838501,0.7914122914752449,-0.17621855919380008,0.999966927098091,-1.6764125292875447,2,right
10.139,1.0254452020009308,2.295521855260431,-0.4908349925409816,0.8755320035728669,0.07461901517094403,0.8022456628895863,-0.18331146103067508,1.0106510549037409,-1.6737546268807555,2,right
10.14,0.7946667598318498,2.2079697117355055,-0.2678624577985624,0.9673522430670028,0.09731188691092099,0.7820727823064386,-0.16587260795593348,0.9843943241754344,-1.6805867451064334,2,right
10.142000000000001,0.555772176127471,2.01992539715999,0.060121959143879265,0.8495113435662445,0.06804520681118012,0.8079928037304769,-0.19478897553640495,1.0279292695087996,-1.6691439103419878,2,right
10.142000000000001,0.41338883985876346,1.865611091579796,0.291619686665918,0.9478674583824391,0.09252106645373559,0.7863484764307684,-0.1566478154747427,0.9705050336140618,-1.6842810982891376,2,right
10.148,0.3845085766200814,1.8191447244237944,0.34594838313955245,0.9452972694096184,0.09167588728201301,0.786957539777318,0.003447865778243492,0.729496466846719,-1.7476163562101976,2,right
10.148,0.291996757508753,1.618079278174243,0.5329670077792006,0.7574466819376362,0.04563087416370455,0.8281473111420707,0.04158896415871702,0.6720675425959843,-1.762767000587068,2,right
10.15,0.20352739425310107,1.3458388590148698,0.7571048480476136,1.2190555240108236,0.15899413444257762,0.7268856924634455,0.012672217679520368,0.7156069726407095,-1.7512860613408772,2,right
10.152999999999999,0.16314798064274427,1.0925926706655242,0.8399497148960995,0.45370985911588924,-0.028986356121284244,0.8947816115518148,0.030112674582136265,0.6893542530837948,-1.7581960411342934,2,right
10.154,0.12066495801530444,0.9087570421846662,0.8782646959626177,1.463201033166417,0.21891832747457518,0.673336462057823,0.023016297258533314,0.7000172628298496,-1.755414497472237,2,right
10.157,0.10954341528263664,0.8700531605953079,0.8734968209676488,5.700591519547165,1.2597136076814208,-0.2562424192922744,0.0229170273897952,0.7002081771941037,-1.7553141868961166,2,right
10.158,0.05757337566770069,0.7530103329602664,0.8283808050311816,6.710106613958579,1.50751569935804,-0.4776684310900012,0.026636203324941498,0.6945509523641775,-1.756870323584848,2,right
10.158,-0.03463866573749838,0.6078531858961029,0.7602290834480807,5.944735084922169,1.3196462158208297,-0.30979321963598405,0.022180878733651,0.7013155312095743,-1.7550257067929622,2,right
10.162,-0.11966721152129851,0.5558996644001473,0.6799631162633828,6.406334026810065,1.4330516591336726,-0.4110627066263087,0.025651360141554662,0.6960663865415035,-1.7564349033865478,2,right
10.163,-0.2227832563850128,0.5108757079661979,0.6069208417597388,6.218569404304619,1.3866385240431987,-0.3698042662961185,0.023777678668432802,0.6988380618643679,-1.7557562543221505,2,right
10.166,-0.33357690317666416,0.5041667049436221,0.5274226614079627,6.215814329606808,1.386585450650978,-0.36934296208787365,0.024211232450931784,0.6983428349460614,-1.7557218271676394,2,right
10.167,-0.46324412068674714,0.5267892532969098,0.4468812476154221,6.314435469981252,1.4099255554011734,-0.3907754254078575,0.02469734335730871,0.6973400398027858,-1.7562690197744306,2,right
10.171,-0.6218556540158968,0.5592464100549677,0.3630609270627539,6.196330739106475,1.3817898950312613,-0.3650663854831767,0.023850955216619715,0.6989465689713765,-1.7554991888100013,2,right
10.172,-0.7990794851330557,0.6117740765355273,0.26156824666747325,6.288264670655661,1.40399466935727,-0.38514821438988855,0.02464667687006409,0.6974838497364781,-1.7561605855360534,2,right
10.177,-0.9954450389148819,0.6628000671633212,0.1342505290443787,6.238831616325491,1.3911106868718885,-0.3741337100139291,0.024106583726542577,0.6982943767657583,-1.7559493814748743,2,right
10.177999999999999,-1.1998546740175993,0.715784807415016,-0.012632974292667569,6.249796701083374,1.3961948863659983,-0.37708711935715533,0.02436116575372508,0.6984028722315887,-1.755409345844993,2,right
10.182,-1.4072775134969522,0.7659041553528158,-0.15635627324455817,6.263541232836165,1.3954531214297865,-0.37915873330189764,0.024318273265463805,0.6973440082767348,-1.7568571542134221,2,right
10.183,-1.6139172028302355,0.807070216407767,-0.2758726067677627,6.240061845535653,1.3947379675135596,-0.37516552547031745,0.02425317580291793,0.6991176919039928,-1.7546461300292986,2,right
10.186,-1.8040226181499872,0.8381273757426989,-0.3456605245560954,6.2619810300906895,1.3960947542560596,-0.37905139635769564,0.024346637578119112,0.6971910123617819,-1.7570127281712944,2,right
10.187000000000001,-1.9749311370912128,0.855937374306263,-0.3608358825937579,6.2476955007395345,1.3925506799920864,-0.37590922288865025,0.024254620532643566,0.6983609143433376,-1.755630002361186,2,right
10.191,-2.115939733515033,0.8663105470395243,-0.3408080388746569,6.25283656968311,1.4012835897806073,-0.3787490342753954,0.024363503146040195,0.6990878299304707,-1.7545135314384086,2,right
10.192,-2.2190018306378363,0.8708372450347392,-0.3046099909054242,6.25534807395567,1.3848283053416897,-0.37538783161367306,0.024195125455482615,0.6954463138400682,-1.75952362562014,2,right
10.196,-2.2905515955262152,0.8747595056504779,-0.27753887948007117,6.248187210758125,1.4085384768242157,-0.3796529499789947,0.024451680582349904,0.7022818686946505,-1.750209592878405,2,right
10.197000000000001,-2.299272956684422,0.8897722980899165,-0.272852738362469,6.256454773306585,1.383418185669453,-0.3752455894569029,0.024134866500680523,0.6934871836457073,-1.7621749423196247,2,right
10.2,-2.2586048114191213,0.9052817830176256,-0.2871202213834208,6.250676944117666,1.3976876941498162,-0.37757214314283755,0.024394093092180748,0.7008352132690083,-1.7521825823459514,2,right
10.201,-2.1547661001586724,0.9382678771291157,-0.314097828067473,6.250660735453447,1.411205003642188,-0.38066818846492567,0.02440693559848669,0.7006112988880955,-1.752463236232681,2,right
10.206,-1.9880807608832616,0.9974926410976815,-0.35029398522409266,6.258852164860855,1.3540358293313184,-0.3689028847201507,0.023847947751429205,0.6866859712711861,-1.7714854906315098,2,right
10.207,-1.8160239752760323,1.0622286711519706,-0.39081846575899154,6.24220123528219,1.4597002730703186,-0.3904002491659979,0.025198023588471216,0.7209384921764546,-1.7247168377452624,2,right
10.21,-1.556378953261472,1.1665850284846648,-0.41234907655188624,6.263901747811387,1.3240983849017498,-0.36286796188317016,0.022966254529684305,0.6641443406753057,-1.802267976676363,2,right
10.211,-1.3716420459582526,1.2453451640443018,-0.41457617149502535,6.245665476183065,1.4372793339838017,-0.3858253884148041,0.025908531353593507,0.739048412755133,-1.6999734160658573,2,right
10.216000000000001,-1.321309629555952,1.2647367752203746,-0.41036019136393576,6.246640311967001,1.4343270742169136,-0.3853132615991469,0.03829140882639441,1.0534582765757978,-1.2706298022955402,2,right
10.216000000000001,-1.1178441700796031,1.3391309707051249,-0.39074643771233003,6.279804535463029,1.2181350489601006,-0.3411766311778448,0.04123360155657468,1.1283387114315864,-1.16832353385229,2,right
10.217,-0.8620932025312943,1.4319298965882634,-0.36334046685912225,6.197754443703792,1.749392088025983,-0.449533447293545,0.039003155633103345,1.0715797147233201,-1.2458934458929858,2,right
10.22,-0.6143872317067367,1.4926174746428191,-0.33693806754112426,6.333894063740015,0.8685539265208893,-0.26990104304636614,0.04034890176953458,1.1058080265874266,-1.1991079831295248,2,right
10.221,-0.41915313784180624,1.534049329155518,-0.3204436744726389,6.154388284964595,2.0304075540673954,-0.5068401612270583,0.039798609525604184,1.0918678291803996,-1.218132806743291,2,right
10.226,-0.3719962440128185,1.5415156492693431,-0.31611704371326643,5.4016267765666335,6.907455360009076,-1.5015486981082113,0.03979875325152267,1.0917226480678786,-1.2184377200105576,2,right
10.227,-0.19933457890255962,1.5598551340350824,-0.3046258074733247,5.2224316593984375,8.06944691110416,-1.7385275088542023,0.04007137475722155,1.098920369117713,-1.2083867281106533,2,right
10.228,0.04671346141073031,1.5743327309386208,-0.2887247425657507,5.358066565328965,7.188375733082902,-1.5588347484773089,0.03974723380178724,1.0903221049679437,-1.2204402538413373,2,right
10.231,0.2186651425758102,1.5562828119166263,-0.27082177527329054,5.276485817345774,7.719872811116394,-1.667236902732129,0.03999578627044814,1.0969860993540625,-1.2110328505272316,2,right
10.232000000000001,0.41017344084827845,1.5284845134315752,-0.2439420554940051,5.309533830792582,7.503563910731757,-1.6231155831584398,0.039859426142602544,1.093375951228491,-1.216094712717176,2,right
10.235,0.5703124621937292,1.481951049246076,-0.2095247110920132,5.30993621602132,7.500454350393514,-1.622485573531812,0.03990942625002354,1.0943459345537805,-1.2150307900786619,2,right
10.235,0.7009086137588827,1.4256888092749431,-0.16760988088575285,5.293179249109388,7.614188119631458,-1.6456800268979408,0.03989374651566966,1.0949016977209411,-1.213433039571777,2,right
10.24,0.8173909785237348,1.369638816015534,-0.12424831180491604,5.312584057617926,7.47762689915095,-1.617826756917389,0.03992019263456535,1.093936092930408,-1.2161956880286424,2,right
10.242,0.8884448071849198,1.30881808784858,-0.08296270152874413,5.298451388714122,7.584464536313115,-1.6396203874664452,0.03986869414405163,1.0946338628544456,-1.213471538640952,2,right
10.245,0.9302834187778475,1.2514291521669643,-0.05077385946719518,5.305093729361387,7.5263695202919765,-1.6277671558635165,0.03991758925040946,1.0942781788988847,-1.215369030265232,2,right
10.245999999999999,0.9404415577286083,1.1977966404225886,-0.035501281662947776,5.304011736919437,7.5398595192951365,-1.6305210492105617,0.039936684831259305,1.0947484476980724,-1.2147393168375864,2,right
10.251,0.915072662557665,1.1472879009313726,-0.0281041113670082,5.303507398510407,7.555884299522865,-1.633792098175432,0.03976841952073272,1.0934388199494305,-1.21390876716438,2,right
10.252,0.8545319066630814,1.1018429319113965,-0.024284842319795302,5.301654458185867,7.526796517717036,-1.627848809519528,0.04014285672601643,1.096176475303471,-1.216155306775918,2,right
10.254000000000001,0.7637702580432693,1.0579929153313414,-0.026948702705206655,5.308010090567752,7.556377353253657,-1.6339010587438145,0.03958195463842251,1.092033102141493,-1.2128848817186406,2,right
10.255,0.6501749100704325,1.0143160682175307,-0.032208476696471616,5.298105697852137,7.533743907248209,-1.6292611399638568,0.04018297660454906,1.0965286823523268,-1.2162637786990584,2,right
10.259,0.525841046388801,0.9743183303466938,-0.04020773607999146,5.306913691575234,7.545870949875015,-1.6317535487862815,0.03983573226575124,1.0939319730520185,-1.2143102876599836,2,right
10.26,0.3946508998593743,0.9388103038589062,-0.05103625266066,5.3070042208566175,7.545879825181018,-1.631755362747336,0.03952956744093983,1.091519124877236,-1.2128646651739057,2,right
10.264000000000001,0.25488100203908093,0.9061118455225972,-0.06055309441670582,5.289208121893157,7.532856854758612,-1.6290643040240218,0.04086066878716993,1.101853107958565,-1.2194999697980868,2,right
10.265,0.11616935306756199,0.8802757507429132,-0.07179705420398924,5.330498615543357,7.55861962430918,-1.6343988809595569,0.038392540583494825,1.0826998468207325,-1.2071793409922549,2,right
10.269,-0.027336120825296566,0.8620771765782402,-0.08835937673011005,5.268389407904255,7.5234796017044,-1.627112246424712,0.041562343474194,1.1073080731602056,-1.2229799309721407,2,right
10.269,-0.16746197238075955,0.8472917371463875,-0.10892873449417853,5.33489981917387,7.559014665166725,-1.6344874143337393,0.03891571225505786,1.0867572357728619,-1.2097976930328544,2,right
10.273,-0.30870102860444726,0.8359319716851004,-0.12978354113584523,5.296368681208312,7.539097015510967,-1.630351309938347,0.0389867804052627,1.087295319126147,-1.2101798715086793,2,right
10.275,-0.4488648609772572,0.8302577335529957,-0.14837084750316815,5.263135171032597,7.522186372808816,-1.6268388702655614,0.044036070925822415,1.1265594252987827,-1.2352080307769158,2,right
10.279000000000002,-0.5717253728043821,0.8281097787536311,-0.16001295102499863,5.408738297218127,7.59546075868786,-1.6420615364041145,0.031625780922936164,1.0300665779871747,-1.1736723113649226,2,right
10.28,-0.7099600433293969,0.8238299500243742,-0.1570072426491529,5.1385888849517745,7.4602779639758765,-1.6139746479472628,0.05220286059397565,1.1900577234237648,-1.27569986307458,2,right
10.284,-0.7974907290685402,0.8210257096959228,-0.15008673917548593,5.485567310569142,7.633371747654206,-1.6499402836118202,0.0250614717898368,0.9790255359258797,-1.1411319500802202,2,right
10.285,-0.8173542054680769,0.820321913966598,-0.14897107365050039,5.195832880866289,7.489075448772025,-1.619957233137174,-0.08886140683993998,0.09317642131254722,-0.576365316051848,2,right
10.286,-0.8914738145721532,0.8189727715394972,-0.1414229673906085,5.2037324281650035,7.49301717682329,-1.6207765590660208,-0.1160029002437072,-0.1178627614504085,-0.44180782040497724,2,right
10.288,-0.9768485830222651,0.8203664513301313,-0.13147373667522597,5.75611852796064,7.767693686105512,-1.677851848153591,-0.09542617146688906,0.04213910902817753,-0.5438168091881079,2,right
10.289000000000001,-1.0193090120115245,0.8261758954935987,-0.12497211823557329,4.398277360808571,7.092677920447459,-1.5375884365524413,-0.10783477469924471,-0.05436204059604383,-0.48230263166575177,2,right
10.294,-1.0518581863667218,0.845199146718467,-0.10779948091223707,6.649755267474993,8.211764679155621,-1.7701277031886486,-0.10278924828309254,-0.01509998931351822,-0.5073149295475257,2,right
10.295,-1.0610479135265045,0.8629427014260234,-0.09296997067472182,3.679955887007045,6.735784749920105,-1.4634272669179582,-0.1027123450380861,-0.014542085399773624,-0.5076956626212545,2,right
10.296,-1.0587753578717884,0.867950138340851,-0.08873772048530182,-8.784700804477044,0.5408956013925037,-0.1761690626653405,-0.10536553015457506,-0.0351336706681174,-0.49454397797190525,2,right
10.302999999999999,-1.0437350900323201,0.8892789200384639,-0.06979097003426164,-11.754679417871731,-0.935006418232684,0.13051656645603052,-0.10219146482180405,-0.010469466689045042,-0.5102785667623548,2,right
10.304,-1.0031727925261666,0.9209783882873321,-0.044903798432836664,-9.502997408354044,0.18393008574218267,-0.1019932275525188,-0.10465722834264302,-0.029675482438991756,-0.4980524827913696,2,right
10.304,-0.9448884976571902,0.9415435612630008,-0.0338328963325379,-10.860800896168595,-0.4908841019897681,0.03822862895726955,-0.103339473724847,-0.019323660447147544,-0.5045922258387713,2,right
10.306,-0.8636220792063394,0.9575053776897553,-0.02982420008281592,-10.308983671881913,-0.21640964809661584,-0.01880157040193875,-0.10361930993381291,-0.02168059613611557,-0.5031925400258228,2,right
10.307,-0.7666274439547829,0.9678260305137882,-0.035911370717849875,-10.299810433426158,-0.21235495971372736,-0.01965228703572068,-0.1040024580189767,-0.024437998088279976,-0.5013085629081814,2,right
10.308,-0.6611115363837381,0.9719438046746467,-0.05161196486028489,-10.59141085699197,-0.35655558204882665,0.01032322831401689,-0.1033674230067807,-0.01967688652396867,-0.5044442925564532,2,right
10.312999999999999,-0.5491870694094407,0.9745326260280996,-0.06557344381596962,-10.242524599133004,-0.1838789120531817,-0.02556926770187612,-0.10394042403471095,-0.0241339840675246,-0.5016035214283362,2,right
10.314,-0.4370374152093386,0.975789112809902,-0.07762287073374913,-10.513589488853322,-0.3182840374890913,0.0023641685340591717,-0.10360067591136807,-0.021164310749850312,-0.5033111449118004,2,right
10.318,-0.3262851672296462,0.9744485318916764,-0.0881347076063474,-10.369411983920354,-0.246028789338994,-0.012640412251552087,-0.10366713690503299,-0.02243031454607307,-0.5029282901760179,2,right
10.319,-0.21934304426329915,0.9719022611610765,-0.095217119577931,-10.397687366962149,-0.2620257601769938,-0.009347298748858455,-0.10381801550513303,-0.02248585974247564,-0.5022600022718455,2,right
10.322000000000001,-0.1164033797288505,0.9707914497617297,-0.09794154760106998,-10.444969184594411,-0.2821729895143704,-0.005107528369265663,-0.10356569217371195,-0.021715261731676705,-0.5034258983256712,2,right
10.323,-0.019143434440263608,0.969165274162519,-0.09640034750290678,-10.367499100891568,-0.24778363857992905,-0.012318802305515898,-0.10377281884730233,-0.022637449807761625,-0.5024481984373207,2,right
10.328,0.06736336799504257,0.9680118393612762,-0.0978081385712809,-10.438674970484861,-0.2798788156150175,-0.005597517018991725,-0.10376067465103536,-0.021949600315730726,-0.5025507389190794,2,right
10.329,0.1450474720968616,0.9693955814964181,-0.10160238290316613,-10.396708020628612,-0.2589935773215467,-0.009936870903125413,-0.1034620317363682,-0.02222444816851052,-0.5038459196579701,2,right
10.332,0.2121025894043761,0.9695036015384432,-0.1011155342019005,-10.399415423524864,-0.2664189666895993,-0.00849060103489167,-0.10409896466783365,-0.022360910692440852,-0.5010320764878623,2,right
10.333,0.26283231917107314,0.9674964055657881,-0.10055467401307557,-10.435182166064907,-0.27029939253979085,-0.0074633496346203695,-0.10325119115278221,-0.02195300705344469,-0.5047934893159798,2,right
10.339,0.30395062924826177,0.9672869073129424,-0.10399264028710806,-10.37177743790396,-0.2595174426874973,-0.010033331774975049,-0.10397155222196175,-0.02239152411532229,-0.5015908565421958,2,right
10.34,0.3309638227881439,0.9675765915943814,-0.10803276420519006,-10.441238286978702,-0.271940628302802,-0.007100574382308785,-0.10393268644199191,-0.022229011234939623,-0.5017734903187784,2,right
10.343,0.3416678721789514,0.9672874938670273,-0.11078407328681136,-10.398149961247416,-0.2632944282656212,-0.009100146543800869,-0.1026106635009755,-0.021793863241670527,-0.5076248070241406,2,right
10.343,0.34567036631475756,0.9674205373965622,-0.11162475393095304,-10.37564177506173,-0.26311468542512384,-0.009312542338006984,-0.1058879542897653,-0.02308059320901202,-0.4931047173447218,2,right
10.347999999999999,0.3329791553485598,0.9676406862805513,-0.10789830119354246,-10.498101265358585,-0.2758060079805069,-0.005909497170780124,-0.10044364742535289,-0.02086612856716535,-0.5172311734255943,2,right
10.347999999999999,0.3183077871207447,0.9698394307153939,-0.10427033680632677,-10.266678106375885,-0.2501221425897417,-0.012666659591329697,-0.10762825743579352,-0.02381503255368502,-0.48539080268155793,2,right
10.353,0.31041876603025786,0.9679673530417685,-0.10283540681708828,-10.56480320591253,-0.2835821226281958,-0.0038903533215489594,-0.13777187730619173,-0.036085994702483505,-0.35180843210001267,2,right
10.354000000000001,0.28406399549179107,0.9624099590895507,-0.09746295837409577,-10.315526113915233,-0.2554550980115199,-0.011257206020923987,-0.14495649048903148,-0.039034997072222036,-0.31996839594659665,2,right
10.355,0.23770232559126386,0.9557984780800957,-0.08920207589575913,-10.323767812867665,-0.2569601224616769,-0.010903606475677344,-0.13951023548962382,-0.03680526888815938,-0.344103961599509,2,right
10.357000000000001,0.18390948912303157,0.9440509561395678,-0.08014006668566057,-10.79417457590731,-0.308148127671631,0.0026363550420211088,-0.1427944131633112,-0.03814564522909027,-0.329550185650028,2,right
10.357999999999999,0.1298091611436304,0.9291559279013913,-0.06831911468138278,-9.63622141721918,-0.18146225954916154,-0.030823760614075463,-0.1414582009266151,-0.03760016959099025,-0.33547186687534414,2,right
10.362,0.06338278618254194,0.898998813612347,-0.05202667022465646,-11.556600670243911,-0.39173324387077113,0.024699920698218674,-0.14144037832457082,-0.037601099381534255,-0.335549307884763,2,right
10.363,0.015627709181835904,0.8726217921160913,-0.04021484105767509,-9.02360862549402,-0.11437503500740576,-0.04853766146572489,-0.14213816300086046,-0.03786447057087154,-0.3324605079211758,2,right
10.364,0.0019463376836710504,0.8650086225101209,-0.03642101220257474,1.606767915606647,1.0489045353093855,-0.3557684428927833,-0.14130338378235754,-0.03755703293670047,-0.33615477327578736,2,right
10.367,-0.04195252234801257,0.8352824600108248,-0.026893658337349878,4.139577517524874,1.3261715985856375,-0.42898744238943587,-0.14195232687000608,-0.03778745361663524,-0.333284100782246,2,right
10.367,-0.10358082272388316,0.7955603728234781,-0.017028082684120146,2.219359871437762,1.1159830714960082,-0.3734792847674652,-0.14160193230817414,-0.03765964405089356,-0.33483464859783135,2,right
10.372,-0.15212840062857946,0.7693757117509225,-0.013841138351919465,3.3775148530010752,1.242763671586381,-0.40696327500646484,-0.14168665763718563,-0.03772455385298781,-0.3344547170494093,2,right
10.372,-0.20281785466708535,0.7440248839682245,-0.008828313187630527,2.9061920201154217,1.191130578841294,-0.39332316712260895,-0.14176652326496725,-0.037658733716766896,-0.3341152269551467,2,right
10.378,-0.24931305026464107,0.7313247000426493,-0.007060011049123807,2.899746792920138,1.1905044001593628,-0.39316269479418653,-0.14162826856358263,-0.03777244257202342,-0.3347029885812234,2,right
10.379000000000001,-0.29482085835298666,0.7331432797785318,-0.007030318083609603,3.146587870022615,1.2174344393787857,-0.40027053615954067,-0.14175113297171335,-0.03761342891141239,-0.3341891297548798,2,right
10.380999999999998,-0.33740465661307595,0.7421331896667778,0.002507579957964007,2.850713958599353,1.1850875879575447,-0.39172980000296875,-0.14167245190606959,-0.037748226798569026,-0.334513361239902,2,right
10.382,-0.3744016121590338,0.7590893235223923,0.01667496304979832,3.0814899490524423,1.210437522698646,-0.39842682340346147,-0.14171715382613187,-0.037767938627575035,-0.3343151057610356,2,right
10.386,-0.40757289060478386,0.7797691692709829,0.03360702447901846,2.9563503559498017,1.196453087056783,-0.39472585385068537,-0.1416742209080148,-0.03744049567306433,-0.3345506068390067,2,right
10.388,-0.4311161446610131,0.7999805521687954,0.05219978691623593,2.9862067975988085,1.2002180927749957,-0.3957334129263025,-0.14174787642861061,-0.038178959633798096,-0.334120688777632,2,right
10.390999999999998,-0.4482030448839533,0.8187081460280468,0.06161517253516905,3.017363352292,1.2030161353910542,-0.3964562951362882,-0.14163229830220686,-0.03707486800961089,-0.33478739380145317,2,right
10.390999999999998,-0.4576736525945849,0.8378732236845257,0.06186863810621303,2.9617709124250062,1.1974202587165026,-0.394991148839415,-0.1417630550903709,-0.038254998878293735,-0.334043109142583,2,right
10.395999999999999,-0.46040497942170533,0.857315131756611,0.05346570019595319,3.0152768342066336,1.2032818689154752,-0.396539310779737,-0.1416875879250308,-0.03757312421909964,-0.3344729713926822,2,right
10.397,-0.4549106396737601,0.8815491689415077,0.038772670202231185,2.976756244454573,1.198154078475467,-0.39516166686566195,-0.14160578451229888,-0.03697852402461455,-0.3349171644208563,2,right
10.401,-0.4340743210447812,0.9105200316037634,0.027076720860243216,2.9985345091334366,1.202620920253246,-0.39639468215244644,-0.14194210200488466,-0.03957201687880873,-0.33306806830053776,2,right
10.402000000000001,-0.3991760352753255,0.9386215842888954,0.017389035024699285,2.989376506644703,1.1985104960074087,-0.39522974933890365,-0.1413194886260018,-0.034762754934933415,-0.33649292138913833,2,right
10.407,-0.3501685816622827,0.9680290179129799,0.007479935286859229,2.990602146644,1.2019581372397232,-0.3962246602799665,-0.1421203276583216,-0.04093868699953581,-0.3320886273702063,2,right
10.408,-0.2958218137009422,0.9958691637995686,-0.004210830231817004,2.9956188363951632,1.2005927993584766,-0.3958156610868703,-0.14145113921567193,-0.035782407064269064,-0.3357690526208029,2,right
10.412,-0.23450150070313938,1.0200293747888853,-0.017568347073710622,2.982142976833307,1.1974666835402403,-0.39494727237286,-0.14146743282899082,-0.035921350247581044,-0.33567557507053003,2,right
10.413,-0.1708372917298146,1.044011689725634,-0.026490800474982916,3.00828090302766,1.2075523108256592,-0.39779588089614076,-0.14275109404692377,-0.04575616857767373,-0.32862853195964004,2,right
10.417,-0.11994356122122997,1.0646009353933024,-0.03054213160551442,2.9675661554828445,1.1896979954428861,-0.3927384331770487,-0.13959745741312662,-0.021583738852382666,-0.3459466121143038,2,right
10.418,-0.05676994742461085,1.0794218000574292,-0.033108574501163085,3.017050016998775,1.2123174132095074,-0.39915057252432107,-0.14482638556284694,-0.061662911366721564,-0.3172297073694239,2,right
10.42,-0.014033920763831073,1.0885297314546913,-0.03398376144117521,2.9769195105945974,1.193563492773149,-0.39383309863416294,-0.13792908023398495,-0.00879841963848025,-0.3551107090198734,2,right
10.421,-0.0032777207640676204,1.0902483741783249,-0.03535903548780722,2.9761855475814607,1.193870330578568,-0.3939207767666444,-0.10897111387167249,0.213098350960714,-0.5140885756152647,2,right
10.422,0.043528577834431786,1.0913310927008861,-0.03836162934410099,3.05754827904298,1.2301640407802559,-0.40420881776709733,-0.10207304665147918,0.26596299595214545,-0.5519708855923894,2,right
10.425999999999998,0.1022498372266752,1.0929204211238832,-0.04250067674078173,2.86020051693765,1.1412496771149212,-0.37900549392050814,-0.10730341611771936,0.22588395804952052,-0.5232569796605662,2,right
10.425999999999998,0.16022280732261301,1.0822726753365326,-0.05164847927401084,3.1864194497908347,1.2885627997637246,-0.42075949352852776,-0.10414790756933251,0.2500552605673976,-0.5405588857396112,2,right
10.43,0.20735089896738795,1.07046408090764,-0.05694255417522595,2.756497915338345,1.09429919923411,-0.3657021750974929,-0.10543333991641725,0.24022318611266083,-0.5335487726185801,2,right
10.431,0.21821676053570133,1.0673567702974804,-0.0597887223528078,0.9504979799766785,0.2786992034533906,-0.13449480396242286,-0.10544883266563071,0.24007980473684248,-0.5333973700484327,2,right
10.431,0.25668262938459174,1.0533996863438508,-0.07780072696611773,0.5206368621807989,0.08444590078691772,-0.07944855427709166,-0.10477838266370162,0.24524127478184057,-0.5371436074629901,2,right
10.435,0.30524124636439,1.0314190815233626,-0.10166309315173225,0.8465797755290139,0.23172483837535807,-0.12118449399323182,-0.10558348814023821,0.23906164004490663,-0.5326953128983231,2,right
10.436,0.32349731665995674,1.0106574014164424,-0.11878481557236564,0.6499532895610108,0.14288785770121035,-0.09599816594415425,-0.10495344388894107,0.24386977814639255,-0.5360991632311105,2,right
10.440999999999999,0.336900804272272,0.9873628678265899,-0.12988721617036028,0.729994614708236,0.17905025709270123,-0.10628150283086182,-0.10529897869756251,0.24128573560728625,-0.5343799915999901,2,right
10.443,0.33329345301073865,0.968230565735298,-0.13512095931951862,0.7310761914909933,0.17952721320217774,-0.10634962160737356,-0.1052096430089445,0.2418606822512959,-0.53456418319018,2,right
10.445,0.3132305957576095,0.9513344292871014,-0.1370500556050289,0.6891653027602307,0.16061937703010992,-0.101083954659336,-0.10513457523988844,0.24257029537775243,-0.5353520369695105,2,right
10.446,0.28574448982889156,0.9355358927424419,-0.137582310645907,0.7393943845407582,0.18327964529706026,-0.10741482320768139,-0.10527819914621903,0.24136262911187395,-0.5342640062088028,2,right
10.45,0.24955072527902417,0.9253450311740116,-0.13886054705698855,0.7002664277076703,0.16561645831322583,-0.10244756040483197,-0.10513241002233764,0.2424789493907131,-0.535061901657554,2,right
10.450999999999999,0.21005457315133197,0.9148851532430133,-0.14257658758534547,0.7213671612544343,0.17518598697990098,-0.10523895210981687,-0.10525172590548967,0.24176298675053307,-0.5349621186445899,2,right
10.454,0.16526484089382704,0.9028695477392428,-0.1504235890200395,0.7165525210883523,0.17289482995917455,-0.10433637769825332,-0.10515949346993197,0.24201635116097645,-0.5341992929823135,2,right
10.455,0.12076767088212373,0.8925115302475535,-0.15643320941424088,0.7109403742276903,0.17056063505035307,-0.1041103274894127,-0.10523355103426624,0.24212535025302692,-0.535686277743195,2,right
10.46,0.07573740441907262,0.8819481218494092,-0.15648323520892843,0.7206488826258916,0.17469833439649007,-0.1047489692601425,-0.1051778359522,0.24183099207848757,-0.5339733755387235,2,right
10.462,0.0277183408321299,0.8674790614461236,-0.15783629694514667,0.711543266604387,0.170783296951592,-0.10406491670424425,-0.10519447910507818,0.24212049173655792,-0.5350488152471417,2,right
10.465,-0.01827021941900931,0.8499777642575542,-0.1577592120122656,0.7176303182604762,0.17353535681710358,-0.10484899956036328,-0.10525716370365071,0.24199876646005838,-0.5357093395050196,2,right
10.466,-0.06218593166126267,0.8345016602687094,-0.15435721307628814,0.7150159149421806,0.17198341541931855,-0.10361884398400226,-0.1050719688644457,0.24184658645762913,-0.5323267702909098,2,right
10.469000000000001,-0.10410950450424408,0.8218723397153818,-0.15346659085379466,0.7149141508968089,0.17278517426424977,-0.10565165501126322,-0.10539440599556185,0.24229053462703282,-0.5387160977416531,2,right
10.469000000000001,-0.14952874861963655,0.8092101259337847,-0.15325471248659847,0.7165224441365199,0.17224659388681451,-0.10280573982252818,-0.10498787503448029,0.24166232753767697,-0.5304697840958731,2,right
10.475,-0.19683954072289506,0.797940781168991,-0.15046487260012373,0.7145358092226425,0.17269823957066843,-0.10580447788090458,-0.10532422636936101,0.2422111462580111,-0.5373723060810582,2,right
10.475999999999999,-0.24487305006876245,0.7895716873062457,-0.14370501646189332,0.7161126857819984,0.1726306227319911,-0.10412717821675213,-0.10531967692004948,0.24215897131298186,-0.5371572855504803,2,right
10.479000000000001,-0.2929564537499296,0.7814828357770038,-0.13469881156586475,0.7153497948415692,0.17161472635960107,-0.10240810258692912,-0.10466608936798985,0.24121195626055866,-0.5240702754932596,2,right
10.48,-0.3335918380397749,0.7757397874127753,-0.12445100194359927,0.7152131177920726,0.17449328205434514,-0.10948356443200448,-0.10626619788604268,0.24359314372433452,-0.556277933072526,2,right
10.485999999999999,-0.3781048517282294,0.7752252580445131,-0.11224686565341657,0.7160954312578522,0.16943787508901276,-0.0964437767967665,-0.10361516876069657,0.23962543439878448,-0.5028596710766082,2,right
10.487,-0.4087159233762022,0.7763607901019731,-0.105571199318234,0.7148194536198011,0.17586582135925727,-0.11316802387960984,-0.10711165206174289,0.24486505593906,-0.5733253419414501,2,right
10.489,-0.4163711868756257,0.7771652452450621,-0.10474288403483674,0.7159450849430552,0.1705250765324442,-0.09921518597527293,-0.12178780604732835,0.2668357655040675,-0.8690732113411874,2,right
10.489,-0.44065009395761795,0.7891304945477484,-0.10179123587856731,0.7156886123814847,0.17057123547372952,-0.09956010145203702,-0.12528611655461935,0.2720733803276376,-0.9395447733533376,2,right
10.49,-0.47026887441443327,0.8111775020539581,-0.1001019688798026,0.7142764669103994,0.1810779492650069,-0.12626836783200204,-0.12263272510328371,0.2681050228169336,-0.8861145907285943,2,right
10.494000000000002,-0.4822149310286718,0.8355070069005988,-0.1003220799523013,0.718020710142995,0.15536947615203694,-0.06066561711832544,-0.12423344685806256,0.27049702215284066,-0.9183394710098197,2,right
10.495,-0.48401090594292495,0.8780458005019396,-0.09780953189848043,0.7117331589742488,0.19796571926072132,-0.16942141856907314,-0.12358360262125576,0.2695222178421396,-0.9052330996859224,2,right
10.498,-0.480750137065013,0.9117460623120406,-0.09659461889355872,0.7200465213874602,0.14178344758996642,-0.025982829731414345,-0.12356911876219233,0.26951608149490996,-0.90503267817394,2,right
10.5,-0.47717333315274846,0.9213286371986442,-0.09509463945781285,0.7545511635128734,-0.09417935147663933,0.5761882072617994,-0.12392121945675495,0.2700099011894175,-0.9119359323179033,2,right
10.5,-0.46057996908522414,0.9567190835252715,-0.08410243578010501,0.7628762405198393,-0.1503748474122945,0.7196069991503564,-0.12349712473473873,0.2694227083655314,-0.9036618283882973,2,right
10.504000000000001,-0.4271464728187272,1.006416262908719,-0.06582075258306529,0.7565569370590448,-0.10776400331645115,0.6108838647819348,-0.12383063316639457,0.26987449809827146,-0.9101133996556061,2,right
10.505999999999998,-0.38649695141669876,1.0425727299477971,-0.05052127543479238,0.7603639339981825,-0.13346807324207646,0.6764549208952446,-0.12365247118434863,0.26962825364288323,-0.9066388975232003,2,right
10.508,-0.33737608856092605,1.0775998346552595,-0.04170197216614528,0.7588545205181152,-0.12300667872162067,0.6497577413262253,-0.12367865576388942,0.26970829562060006,-0.9073963552856787,2,right
10.509,-0.28021347795037477,1.1082482415199775,-0.040377504868450986,0.7587142632364843,-0.12286157936788258,0.6494438435471612,-0.12376604646839039,0.26970762452069263,-0.9084178599441497,2,right
10.513,-0.21927628445877603,1.1362614515913445,-0.04495414111099588,0.75974778008653,-0.12834532980637162,0.6633082754696666,-0.12361516966688492,0.2697083159239238,-0.906651063561714,2,right
10.514000000000001,-0.1578971273175482,1.1629727041996147,-0.04832378199049446,0.7584704484025995,-0.12177354933030386,0.6467269415822093,-0.1237775364866332,0.26967334733446807,-0.9083604044290072,2,right
10.519,-0.09944065304092918,1.1869305718933751,-0.04542942780957526,0.7595262034956752,-0.1268936745558652,0.6596031502787862,-0.12365747349896569,0.2697152642099728,-0.9071866047140105,2,right
10.52,-0.0439127035319743,1.2116134845222608,-0.03057613338900042,0.7589923657940433,-0.12413250956261059,0.652639813683373,-0.12367851590872242,0.26974876614252913,-0.9076215447490183,2,right
10.523,0.010223659528109122,1.2273650390919415,-0.01186717546592676,0.7588236241553421,-0.12475972795643742,0.6544016967302941,-0.12380930908039443,0.26953317046096087,-0.9079464053125845,2,right
10.524000000000001,0.06358899433431027,1.2320340885995325,-0.004382295134234508,0.7597656942712963,-0.12550303009117675,0.6557759250317574,-0.12349848304043601,0.27000799239247797,-0.9069639928606579,2,right
10.53,0.1219440759619603,1.2304690546995471,-0.005216334822339939,0.758145194268742,-0.12421580363354288,0.6533925902885271,-0.12395942136594823,0.2692955275990965,-0.9083737335101437,2,right
10.530999999999999,0.1816347839274129,1.215293131284412,-0.015537031278750441,0.7600782771257106,-0.1254300258225488,0.655384284870671,-0.12347171138768892,0.2700604781067453,-0.9069449783717984,2,right
10.533,0.24024190960997271,1.1867825659865543,-0.03656233895952078,0.758560100037119,-0.12461247819716807,0.6541806634462977,-0.12375357215260882,0.2696186528251014,-0.9077712424881037,2,right
10.533,0.2933647795573231,1.1434770539883115,-0.0647292360552229,0.7585983649402626,-0.12496063072849073,0.6550766984166683,-0.12398832578380779,0.2692252527933397,-0.9083195517205296,2,right
10.539000000000001,0.32966618912356344,1.079338875138533,-0.10656608976422888,0.7611986454318385,-0.12499920512643539,0.6535377390628636,-0.12295023776045653,0.27093046069395177,-0.9057078049453455,2,right
10.54,0.34974580903137564,0.9960320248566552,-0.1470276087733542,0.7552289070367828,-0.1247193237220535,0.6565659264844484,-0.12487596894121224,0.26776921435220213,-0.9105617172826601,2,right
10.543,0.3403026839639229,0.8841808107491376,-0.16293775027065668,0.7641277531136954,-0.12509243895023808,0.651934793448139,-0.12240384858511992,0.2718291292353122,-0.9043428305139651,2,right
10.543,0.3121902239753582,0.752669451464167,-0.15671182763919517,0.7546502788898317,-0.12475372138104444,0.6570224806269727,-0.12446748471044568,0.26843967725695406,-0.9095282393635538,2,right
10.548,0.2504752496944983,0.6055409572771462,-0.1295102336281803,0.7601263292748337,-0.12494999823778387,0.6540841208366639,-0.12441055067431254,0.26852914238039693,-0.9093711390977459,2,right
10.549000000000001,0.14919207161634707,0.4553484844079086,-0.08660417503182913,0.7648278388669116,-0.12498851609985656,0.6512180672554252,-0.12047979923925344,0.274999997611729,-0.8995560210778173,2,right
10.552,0.04242872675080847,0.32234585691031703,-0.04038412238178699,0.7442274988238069,-0.12465096634585046,0.6633308362378685,-0.1301422030652497,0.2590984079779449,-0.9236924166818734,2,right
10.552999999999999,-0.14258314480996823,0.19046894247514212,0.004524611396704269,0.7824320388689325,-0.12528516155822472,0.6408882217655241,-0.11412121724495858,0.2854625382437418,-0.8836752022575574,2,right
10.557,-0.2980351574477662,0.11970093755633374,0.029316551906334413,0.7333772977831896,-0.12448192454768921,0.6697342495037898,-0.13525295533788792,0.2506896076314975,-0.9364527725183895,2,right
10.558,-0.33811579287454707,0.10139818637460173,0.03231248007661223,0.7743297702577416,-0.125147188591532,0.6456381632863005,-0.22394693982040112,0.10470973157075746,-1.1579492863757666,2,right
10.558,-0.5173097369652853,0.0739869558915589,0.036453713431650936,0.773219555506874,-0.12511628353840976,0.6462584070630513,-0.2450789791679846,0.06993887024047493,-1.2107195250942806,2,right
10.562000000000001,-0.7815808151881971,0.08770433127929944,0.03682865602389723,0.6951395026386722,-0.12390440509909409,0.692347042063409,-0.2290578259357528,0.09630100025952229,-1.1707134428680281,2,right
10.562999999999999,-0.9779657629578318,0.15426162780657526,0.03175925904723062,0.887051737392647,-0.12689172199266213,0.5790869900469593,-0.23871954429558662,0.08039771407114354,-1.1948415210718917,2,right
10.567,-1.2074360523352112,0.3022208399312585,0.037509941712771236,0.5688530151986655,-0.12194094506131262,0.7668847533492462,-0.2347910316126674,0.08687773786410236,-1.185023457689459,2,right
10.568,-1.3454255825789398,0.42842955080249423,0.04441227513598663,0.9885546865437489,-0.1284663403321512,0.519167073325324,-0.23473005397001978,0.08694863956725726,-1.1848883052944548,2,right
10.569,-1.371456062231517,0.46556460619881157,0.047915604941947174,2.750245525961483,-0.1558356903451648,-0.5206610052484397,-0.2367988686321886,0.08358487190643453,-1.1900297469525705,2,right
10.572000000000001,-1.4672053015072901,0.6152921505589557,0.06629317163810597,3.1699464295150053,-0.162353992212187,-0.7683996388899752,-0.2343223649830823,0.08762037461360983,-1.1838702548494293,2,right
10.573,-1.5490339698080646,0.8333200115540467,0.09565428697714172,2.8517489177116917,-0.15741343199532623,-0.5805726922103411,-0.23624855112654314,0.0844674999652581,-1.1886695459881615,2,right
10.575999999999999,-1.5482093940763384,1.0083921626232717,0.12262943060031066,3.04366012353591,-0.16039466355487503,-0.6938471908896124,-0.23521753693087816,0.08619865221410461,-1.1860736074066884,2,right
10.577,-1.5128878448045957,1.1925969816622155,0.1397311608825289,2.965580087730582,-0.15917589077778066,-0.6477861971505486,-0.23543519756391562,0.08573024742629046,-1.1866859255870732,2,right
10.582,-1.423073412247469,1.3470657654336886,0.1353525133840852,2.964471688539569,-0.1591722211523618,-0.6470747071984061,-0.23574327842159096,0.08541279447862891,-1.187336662934372,2,right
10.584000000000001,-1.2888899216668979,1.4638323662236692,0.11037126145520625,3.005420074870004,-0.1597885060960092,-0.6713270601918191,-0.2352268210494841,0.08603027302598422,-1.186192584300649,2,right
10.587,-1.1196002705199808,1.553427041588598,0.07127353128145406,2.9563712552372583,-0.15904644500486909,-0.6422936468411254,-0.2357055538371462,0.08542766772518759,-1.187271929633801,2,right
10.588,-0.9162010410105176,1.6015728800109161,0.026344948469761053,2.9945698000560115,-0.1596312108064541,-0.6648761258685638,-0.23540668001021403,0.08592121843759068,-1.186524633184543,2,right
10.592,-0.7026991323178459,1.6181578158354935,-0.011193814503933917,2.9739723026738556,-0.15929420492215213,-0.6527882849721952,-0.23547740093889147,0.08546104085914186,-1.1869165937466073,2,right
10.593,-0.48792530181560173,1.6053468598098215,-0.03441402869476362,2.978678292490475,-0.1594222751490325,-0.6553401156946403,-0.23561432775805166,0.08602128528937217,-1.1867662059988846,2,right
10.595999999999998,-0.28208779533027817,1.5778898338889251,-0.03566917231887503,2.984138882589866,-0.15941242402985864,-0.6589526721769274,-0.23533854998728493,0.08530322286474555,-1.1868121214260379,2,right
10.597000000000001,-0.09237924700560461,1.544668358118202,-0.013801649913405484,2.974688600209092,-0.1593816997144743,-0.6528966079930092,-0.23564586214084293,0.08604672969465818,-1.1867963095811855,2,right
10.600999999999999,0.0751846168476383,1.511198245261639,0.01739057110552244,2.983553494242078,-0.1594270950924892,-0.6585103062393907,-0.23544724402876202,0.08565181317018439,-1.1867531036147494,2,right
10.602,0.21671555483032706,1.4850692630321085,0.04051646986523458,2.9776117003798017,-0.1593334126656507,-0.6550063461722351,-0.23538027514271814,0.08513973173175352,-1.1869754639422372,2,right
10.607000000000001,0.34090140765641597,1.4632357418485966,0.04909487917447741,2.9802101980225606,-0.15954637584787296,-0.6558332622498935,-0.23584403151979183,0.08709976229275458,-1.186426990523648,2,right
10.607999999999999,0.45587893254331924,1.441796926378891,0.046607887138708046,2.980201280412,-0.15915281633654807,-0.6574437043821324,-0.23495314825513677,0.0835157107205185,-1.1873677588026712,2,right
10.612,0.5668008014833681,1.4120071888664367,0.031704300597440505,2.9787946061569945,-0.1597170530751181,-0.6542028282906371,-0.23610406195831574,0.08810624633331651,-1.1861765349858295,2,right
10.613,0.6742222377336987,1.3798190494232379,0.017910084615393923,2.9805584068211086,-0.15912069657797284,-0.657813896799004,-0.23514031531574914,0.0842787352263813,-1.1871647609909584,2,right
10.616,0.7791847200719217,1.33763315486413,0.01876397935602215,2.9791219567310936,-0.15945702652370236,-0.6554807033818941,-0.23517739220207606,0.08436398265424494,-1.1871630969129907,2,right
10.617,0.8744177604721606,1.2797854067058911,0.024865273935210763,2.9799515629164066,-0.15978460213456666,-0.654691201445238,-0.23697922207647848,0.09172189343155374,-1.1851950341256812,2,right
10.62,0.9516097643222325,1.2211878261403912,0.01417939638636875,2.9797050693215117,-0.15841520658854685,-0.6601465489787326,-0.23253739631816683,0.07365919572981444,-1.1900040278965587,2,right
10.620999999999999,0.9969494964211909,1.1295012995553018,-0.032814336776804426,2.9795519524675145,-0.16094036695308417,-0.6496682882980638,-0.23990574127490136,0.10360171140496091,-1.1820364081828063,2,right
10.625,0.9995114312990862,1.0528779898568035,-0.0717805466817653,2.9798846925879987,-0.1577050756737897,-0.6632043272545738,-0.2301864266586679,0.06410878378347795,-1.1925467102444012,2,right
10.626,1.000745080184186,1.0348064547734321,-0.08103663824516141,2.9795529018869065,-0.1603975825062895,-0.6518702334017823,-0.18941312476515823,-0.10170802784474851,-1.2366523494676054,2,right
10.627,0.960013923563164,0.9467056624454642,-0.10798464595692714,2.979771276023294,-0.16034616725868348,-0.6523045667112781,-0.17969548740917152,-0.1412039653660667,-1.2471642788355344,2,right
10.63,0.8548690434181132,0.8066495669998242,-0.13374429961293094,2.979713915504435,-0.15515681439169468,-0.6734994108096803,-0.18706096404975925,-0.11125559967718134,-1.2392011127883253,2,right
10.630999999999998,0.7349424955692514,0.6905435431433198,-0.13214562141048292,2.9796109837452747,-0.16787261173559714,-0.6212534483283861,-0.18262218009604747,-0.12932624506673307,-1.2439874256987538,2,right
10.636,0.5152299631618177,0.5310838841617076,-0.12031177212283867,2.9798414969484677,-0.14681380995906892,-0.7079200949818217,-0.18442233559870902,-0.12196019811930027,-1.2420705814091166,2,right
10.637,0.3388812784919587,0.42434786849746176,-0.10776958849267547,2.979536131232474,-0.17457237089690883,-0.593602587013522,-0.18445787515808296,-0.12187980475765556,-1.2419890297029823,2,right
10.637,0.2900839686295875,0.40086960350975087,-0.10535480967894606,2.978455647214,-0.2916261214192908,-0.11399225290920405,-0.18350044782669123,-0.1257104853849875,-1.2430675275064118,2,right
10.640999999999998,0.08108169519339052,0.3047575865525394,-0.10862711363865105,2.9781738657137558,-0.3194046340674669,0.00030699673708643044,-0.18463992868424295,-0.1211041412138041,-1.2418167283227919,2,right
10.642999999999999,-0.2253303156447869,0.18718922389944648,-0.11767160821447856,2.9783914712255375,-0.2982568612054425,-0.08633239430482845,-0.18376352349384573,-0.12471850883638425,-1.2427269057540409,2,right
10.645999999999999,-0.48783459015479647,0.1146552638680246,-0.12977545388403405,2.9782341737030875,-0.3112031267259847,-0.03410548845079188,-0.18421510343279807,-0.12271791537449395,-1.242359310822059,2,right
10.647,-0.7801741531886134,0.04494288578531902,-0.13027728241860223,2.9783535270354013,-0.30559331986527394,-0.055311083177145566,-0.18414952025102244,-0.12326752334109299,-1.2422221802341384,2,right
10.651,-1.053697908433097,-0.0006514726747606421,-0.12141188985120122,2.978253189408356,-0.30611784007046805,-0.055685691403941424,-0.18396999597879166,-0.12365065651583246,-1.242671694147762,2,right
10.652000000000001,-1.3078255093549498,-0.01338534944427457,-0.10451385085119176,2.9783291208457343,-0.30824775246960134,-0.04446652853354741,-0.1842310604221861,-0.12286545243543177,-1.2421857534645189,2,right
10.655,-1.5497281784488266,0.010202642590633486,-0.07822315673511936,2.9783173673787795,-0.3052439518362613,-0.05785152517724916,-0.18402624202204862,-0.12370066636752956,-1.2424054238003381,2,right
10.655,-1.7408244513803797,0.0786333553399342,-0.04584270074222872,2.9781986667776366,-0.30827967764649705,-0.047506391955652726,-0.18408531571733527,-0.12294827462480516,-1.242719493728825,2,right
10.66,-1.8848388655678396,0.1858915044432991,-0.029309713797237326,2.978511198275262,-0.30530487932598305,-0.05293485583397775,-0.18420443395053293,-0.12363431316044407,-1.2417268998967803,2,right
10.662,-1.9612102496646062,0.3299888838497721,-0.032221740879380456,2.977992842640457,-0.30838397965434494,-0.051962567173250256,-0.18393725477038944,-0.12297486175220058,-1.2433044905746018,2,right
10.668,-1.9620146525976976,0.4910032700236009,-0.02755654364136399,2.978621914903031,-0.3053531620745539,-0.050097259597572455,-0.1842547988086004,-0.12354458656122908,-1.2415872984779412,2,right
10.67,-1.8968820163983926,0.6582440031406553,-0.041760440875564145,2.9781238301736015,-0.30743002270522335,-0.052971685723207054,-0.18404939143544252,-0.12330484572128388,-1.2426032807446206,2,right
10.671,-1.7637850918519722,0.8165858669173354,-0.08284576394158472,2.9781124974112476,-0.3080431667575429,-0.05056078825031392,-0.1839405202418745,-0.12282010572869476,-1.2434051301464135,2,right
10.671,-1.5806263005768204,0.9458590739503447,-0.11661746600696554,2.9790552644444976,-0.3026305092691437,-0.051619851872732145,-0.18454277354234755,-0.12442840124398016,-1.2397593893065353,2,right
10.677999999999999,-1.370150417968298,1.0493378714247066,-0.1630529948745199,2.9769093378100817,-0.3142696630136823,-0.052188614823472035,-0.18339620782171961,-0.12156722623798726,-1.2465527405311168,2,right
10.68,-1.1312567318857774,1.1221300556986935,-0.21352633791515635,2.9801072177455445,-0.2971640310087611,-0.05028771067838429,-0.18487910198295676,-0.1251970942698059,-1.237818040302774,2,right
10.68,-0.8849820621322284,1.1669706020020327,-0.23749735272697176,2.976700332811583,-0.31530367474946414,-0.052698963706149696,-0.18363668581027986,-0.12218570891776144,-1.245115261077952,2,right
10.681,-0.6406672953933523,1.1786859456773966,-0.24232641397981045,2.9786659955261694,-0.3048877868292176,-0.051047946565920724,-0.18367705159189657,-0.12223749797854794,-1.2449098358348303,2,right
10.687999999999999,-0.4056827476520289,1.1542459082627916,-0.2267838972696062,2.980369517119377,-0.2957064155406748,-0.050426351849197484,-0.186028091383521,-0.12805825893973433,-1.2310164505518335,2,right
10.687999999999999,-0.20708709579268575,1.1161018207681201,-0.1908891295944321,2.9729325340684074,-0.33551277352875425,-0.05462516034761677,-0.18023993630083723,-0.11379536324568067,-1.2651763708664772,2,right
10.689,-0.029169583348885995,1.0522062636620895,-0.13229133483580596,2.986717575473618,-0.26178284339447266,-0.04648975449063328,-0.18984035778896247,-0.1374261646316057,-1.2085329224001342,2,right
10.689,0.06952623430671624,1.0015453091853086,-0.08838425133445467,2.969023142698343,-0.3564190814852072,-0.057060811390124644,-0.17717653392368318,-0.10626540134540399,-1.28324755227696,2,right
10.693,0.09145215313052321,0.9874437529900764,-0.0760070743883894,2.9837866659393377,-0.2774333266455553,-0.04818420029771395,-0.1240231572115721,0.024567270328915754,-1.5968518768382867,2,right
10.694,0.14124477356725357,0.9363267511896513,-0.03430406214051334,2.983406768977031,-0.2795323596506308,-0.048502221961679845,-0.11136027073124927,0.055720592557395275,-1.6715687515904682,2,right
10.694,0.17502999464494629,0.8697477719240347,0.017951858475536524,2.955209022774425,-0.43024000464194573,-0.06521996503248334,-0.12095992255599289,0.032104251303779086,-1.6149210414832553,2,right
10.698,0.157396140458324,0.8287029886521162,0.04805459848444307,3.024474771413831,-0.05988717468018678,-0.024020137867117743,-0.11517051562482408,0.04634750672038171,-1.6490865299813653,2,right
10.699000000000002,0.10066915466152691,0.7985968179936656,0.0811859411891916,2.9096619706607676,-0.6739064617191038,-0.09236875690892733,-0.11752670518205827,0.0405468434773152,-1.6351878175501344,2,right
10.703,0.0455633337673999,0.7897928020658501,0.09841130014192159,3.0610623324186217,0.13594224510862232,-0.002209353573579948,-0.11755718344311399,0.040483078919233785,-1.634984913134088,2,right
10.704,0.027672492900157993,0.7914612171959186,0.10019944950800626,3.6967642097960582,3.5354829625286124,0.3762150702296643,-0.11632798903607186,0.04348660137778343,-1.6422856781042348,2,right
10.704,-0.04473927693649753,0.8032376516075167,0.11262146316372992,3.8480689885950325,4.345240395919195,0.4663559439369149,-0.11779890972099102,0.03989583291321677,-1.6335385066529267,2,right
10.708,-0.15834531406857982,0.8370467114336388,0.12580519518236338,3.733405619835942,3.731365778935416,0.3980281095393572,-0.11665529594174492,0.04268206884835668,-1.6403538443117507,2,right
10.709000000000001,-0.2557951672592835,0.8827120740944343,0.13593998842317562,3.8025477053993155,4.10159352425277,0.4392329518335952,-0.11727293291610351,0.0411740043431046,-1.6366805490925622,2,right
10.713,-0.3583728034434981,0.9367763407907641,0.14135335146015654,3.7743429522224106,3.9508936134805377,0.42245408807847706,-0.11712328547961079,0.04156606155136855,-1.6375053335437295,2,right
10.713,-0.4453522383336692,0.992656240117213,0.13614334045932647,3.7742026222503817,3.949001945305277,0.42227117011927207,-0.11698315112705422,0.04183482740993061,-1.6385191644828776,2,right
10.718,-0.5133601029296764,1.0447045308551148,0.11504698181161543,3.7884429193688103,4.02751103370225,0.43095119047457087,-0.11722588878250098,0.04136823942034745,-1.63676493397007,2,right
10.719000000000001,-0.5593712092301191,1.0971090574227116,0.07554526077024862,3.771494029506526,3.9335734890975593,0.42057949641876424,-0.11701042142969131,0.04173818883942096,-1.638431324408213,2,right
10.722999999999999,-0.5716273878336222,1.1392491536582243,0.05295031069851045,3.784540436224044,4.006585902402498,0.42862219137425117,-0.11714826935445447,0.04152671229305108,-1.63730308447473,2,right
10.724,-0.559796085440748,1.1535030632845857,0.03512775373693726,3.7774240367331475,3.9671382745117323,0.42426761228260845,-0.11706943034376449,0.04172175738818711,-1.6377653556307552,2,right
10.728,-0.5236283416644675,1.1305902888000188,-0.013415832572471406,3.7797476654153797,3.9768132945247947,0.4254174944231627,-0.11714673022111716,0.04129482443745442,-1.637893814948049,2,right
10.729000000000001,-0.4757235834623738,1.0524717843300384,-0.04173080926742257,3.779706708670108,3.9854424778131796,0.42614324166821993,-0.11701325632438603,0.04216439418034765,-1.6373456344101767,2,right
10.732000000000001,-0.438783471554709,0.9179077101152571,-0.0469934826415142,3.7797584727386853,3.970489463701422,0.42488338795075664,-0.11722237731927386,0.040842394014704866,-1.6381043004845486,2,right
10.732999999999999,-0.42618213642977953,0.7538045484248848,-0.05263967115953598,3.7787114475507133,3.983570201862125,0.4258427970824143,-0.11698617965737891,0.042284537762068336,-1.6373739788334576,2,right
10.738,-0.43777234113005214,0.57563958640651,-0.02014481620470756,3.7799511666179595,3.9753114861497654,0.4253195482590353,-0.11712245981831129,0.04145136242627982,-1.6377968725670653,2,right
10.74,-0.47206385307162757,0.4014815570637589,0.03241968992071706,3.7809191139248908,3.9803573489787114,0.4258845649541116,-0.11726959847225613,0.04066137765466254,-1.6379871499481713,2,right
10.742,-0.5250514111877715,0.24015882659778753,0.07354073517966249,3.7746380323405795,3.9743835200649724,0.42448499780176213,-0.11666418298172729,0.044026475983883165,-1.6369286195724757,2,right
10.743,-0.5880292624829655,0.09055878272885147,0.11145514749813754,3.7884763246405853,3.985275701986498,0.4273766170915036,-0.11778488620870148,0.037789817857339966,-1.6389030866206613,2,right
10.747,-0.6685420126727899,-0.02375347406479761,0.13523613024618283,3.767712010879739,3.9683854365994238,0.4229911401346713,-0.11634355114787567,0.045804759549723725,-1.6363819957020649,2,right
10.748,-0.7630499673656137,-0.10890756488158355,0.14315721924246055,3.790006635369737,3.98724151752557,0.4277612332493147,-0.11754773764823356,0.03910959633428682,-1.6384804836820817,2,right
10.753,-0.8690045014421857,-0.146411590910735,0.14910159641280893,3.7771256193613576,3.976355185664995,0.4250054179921817,-0.11751878673721636,0.03928592367289322,-1.6384045789294208,2,right
10.754000000000001,-0.983356005527647,-0.12096039137883724,0.15587927583903444,3.765672134901884,3.9650859100675757,0.42242194659050886,-0.1152080888522368,0.05207809314519184,-1.6344832423588707,2,right
10.757,-1.0883249345324613,-0.05763295040249374,0.1685895602998514,3.815347536245415,4.011966428013282,0.4334610128183062,-0.12088411031128442,0.020636974390519886,-1.644136801872763,2,right
10.758,-1.1825428177060873,0.09308999223576189,0.17627404304972957,3.7232442146639775,3.9251463143316356,0.4130006380631922,-0.1114734773256133,0.07277191471202588,-1.6281310942342024,2,right
10.764000000000001,-1.230443433802769,0.22282598370258225,0.16185671323513545,3.841541202326124,4.0367853212351115,0.4392920169421718,-0.12388628871876517,0.004001624629674377,-1.649238798484721,2,right
10.765,-1.2404329128498988,0.2573357543025838,0.15925744124049063,3.7427637501695297,3.943510234234304,0.41733200663997194,-0.17601333670265779,-0.2846010104388593,-1.7377632381115495,2,right
10.765999999999998,-1.2573792910533808,0.40262767964826074,0.164231019725863,3.7454094178357407,3.945841230946633,0.41791063735104134,-0.18842795708968466,-0.35337135600667247,-1.7588627669021215,2,right
10.767000000000001,-1.2470869079127196,0.6037597452406449,0.12918953596987115,3.93389425268067,4.1245329014306735,0.4598629759300783,-0.17901266549688394,-0.30124490817414495,-1.742873187951529,2,right
10.767000000000001,-1.195650425221727,0.7382789181132152,0.08891816526930421,3.4706310982079374,3.685471312969456,0.3567531717108626,-0.18469751097214948,-0.33265571083346845,-1.7525043137295013,2,right
10.775,-1.1022855524286874,0.8952952749644218,0.0699971258715339,4.238759348490938,4.413477070209904,0.5277252545892159,-0.18237357916182462,-0.31992619303116687,-1.7486068211949255,2,right
10.776,-1.0292290240612407,0.9877093080090066,0.05925685263322428,3.2255788885443533,3.453186112476139,0.30219883310440343,-0.18235992439713333,-0.31965678465076397,-1.7485151438458053,2,right
10.777000000000001,-1.010756014029425,1.0055930836105131,0.04253481372744174,-1.0271674724816435,-0.5780627003421221,-0.6443915030322115,-0.18355273009943157,-0.32645200437087696,-1.7506077997024314,2,right
10.777000000000001,-0.920611456191893,1.0959221275031044,0.018225435822723526,-2.040386148063011,-1.5384371147563587,-0.8699423895986846,-0.18210954890380293,-0.3183791500630545,-1.7481280499742433,2,right
10.777999999999999,-0.7743495707743907,1.2115155406966216,0.03656299014000536,-1.272209672647902,-0.8103042825290663,-0.6989397443105871,-0.18325552193821745,-0.3245633196497222,-1.7500186928013315,2,right
10.782,-0.6519645575866351,1.292349412952794,0.0638845958929907,-1.7354814647637218,-1.2494618057224087,-0.8020539780571488,-0.18259529906999356,-0.32142647482254383,-1.7490767135779772,2,right
10.783,-0.525127814748651,1.3568745890394438,0.04020587451377379,-1.547083554345735,-1.0708010740556664,-0.7601595552905733,-0.18282197214657867,-0.3217883240859366,-1.7491531241715004,2,right
10.786,-0.4074164366097247,1.3929649657353516,-0.002840232839454347,-1.544217302884805,-1.0682240803747907,-0.7594363452808619,-0.18287628670896144,-0.32318482333262755,-1.7496237253984612,2,right
10.787,-0.3054904761291457,1.4109348543499571,-0.043228804101943366,-1.6433378927786237,-1.1619955341157313,-0.7816196385888631,-0.18268219182737255,-0.321236545271685,-1.7489925348229876,2,right
10.790999999999999,-0.21633125331300906,1.4209791113274413,-0.05507853567216486,-1.524665652399317,-1.0496827987247426,-0.755085947801081,-0.1829451293395925,-0.3226853160207281,-1.7494366239353893,2,right
10.792,-0.1582121606252033,1.424188321488128,-0.025386285170892923,-1.616993210166834,-1.1371268660177107,-0.7756879587571357,-0.18261096114892736,-0.32245409535276526,-1.7494278596328308,2,right
10.797,-0.12858472181057218,1.427442978740992,0.024049371984197897,-1.567496432164746,-1.090056957772509,-0.7647715162707107,-0.18304993706290898,-0.32118364079848266,-1.7488962044571474,2,right
10.798,-0.1250748773295818,1.4245081089146503,0.08381766673260468,-1.5781274764085116,-1.100615285303142,-0.7668129839806352,-0.18250935320511055,-0.32371253789668675,-1.7498835950294898,2,right
10.800999999999998,-0.14548389856847987,1.409918057228703,0.1330866737051467,-1.59256581721309,-1.1134764429465192,-0.7705861325713854,-0.18304390626283823,-0.32078468248922115,-1.748759948315519,2,right
10.802,-0.18491522519661807,1.3831646937337596,0.1557688497586512,-1.5682110883362481,-1.091400665604508,-0.764478930845263,-0.18276286066188563,-0.3226321894330796,-1.7494568535622879,2,right
10.806,-0.2372827349971977,1.3489204137483823,0.15999301876335256,-1.5908401548015099,-1.1120467422843499,-0.7700627124719343,-0.18243411920501104,-0.3237403917562135,-1.7499093793944418,2,right
10.807,-0.2940503314285866,1.3130732114499528,0.1592556282016206,-1.5765067716034205,-1.0984517563022185,-0.7668772915844285,-0.18371351359414845,-0.3179964346643185,-1.7476554843282766,2,right
10.811,-0.3545736701604927,1.281501383391776,0.1568423243093937,-1.5805010444267784,-1.1037318396107256,-0.7667514922474028,-0.18137821168493634,-0.3288602979963553,-1.7518999391253893,2,right
10.812000000000001,-0.4237266993429252,1.2567959798069128,0.14609945070506974,-1.5856877571714774,-1.1052366318958322,-0.770224952834524,-0.18436383374877252,-0.3148336487785667,-1.7464265885868786,2,right
10.817,-0.49389345125183826,1.235327120041886,0.12387631108720025,-1.5745214844018696,-1.0997401393457875,-0.7642802716840653,-0.1818760626150415,-0.32657735715574127,-1.7510058312082022,2,right
10.817,-0.5631413664024182,1.2158982020120674,0.08321808612992437,-1.5870637852948761,-1.106206675412908,-0.770759291705075,-0.1819368364798915,-0.32620659860629875,-1.7508667616794025,2,right
10.821,-0.625893910600817,1.1945877051339182,0.035831182650009084,-1.5788078665630847,-1.1015114546305478,-0.7667916722890687,-0.18669858746643048,-0.3039535104965029,-1.7421753190920428,2,right
10.822000000000001,-0.6734657778369497,1.1693486108102946,0.002175963747441176,-1.5766878035011804,-1.1022079311398294,-0.764482014852701,-0.1750029101006373,-0.3587273796468986,-1.7635596703505159,2,right
10.825,-0.7331791082070762,1.1428425779083144,-0.025500780790572625,-1.594146111342463,-1.1069293761766918,-0.7764073439221717,-0.19439363657527292,-0.2678775025044775,-1.7280952251550707,2,right
10.825999999999999,-0.7787010377604566,1.1267312520498551,-0.04169473693662565,-1.5602920854040794,-1.096766302750904,-0.7539643624098111,-0.16881547761306134,-0.38772318889658713,-1.7748755943182282,2,right
10.83,-0.7905179468932256,1.1258460172294127,-0.04596206136996799,-1.6040953135250156,-1.110138562725229,-0.7828548312007966,-0.06148641397796279,-0.8906738383280706,-1.9712243779067156,2,right
10.831,-0.8364266439419261,1.1201473618357078,-0.057431121438911284,-1.5673891343080486,-1.0988346937062603,-0.7587074399961997,-0.03590240999430227,-1.0105303569769477,-2.01800522885629,2,right
10.832,-0.9063859392211238,1.1297802678737061,-0.0660884692330479,-1.5689041454314507,-1.0996590252538332,-0.7594715971173368,-0.0552984274204438,-0.9196630404761758,-1.9825385115441265,2,right
10.835999999999999,-0.9632237658464917,1.1677825657690026,-0.06500660268583079,-1.6371904751030655,-1.1195382941118996,-0.805149775890158,-0.04360881408312861,-0.9744527110741459,-2.003928866126497,2,right
10.837,-1.0189109832533845,1.2120556674611724,-0.07640353570003952,-1.4687312643746253,-1.070043494467515,-0.6927511124879323,-0.048342044954573074,-0.9521967330108815,-1.9952263674605868,2,right
10.84,-1.0575701070531531,1.2850310911213465,-0.11560336381482872,-1.74820954299747,-1.1522959872814535,-0.8791428291514125,-0.04845914421158767,-0.9518042906800781,-1.9951025452335327,2,right
10.841,-1.0720059714180228,1.341767504759043,-0.14670914749262803,-1.3795602999284018,-1.0437638884922744,-0.6332943568695901,-0.045894648359056114,-0.9636014277332484,-1.9996667645280515,2,right
10.842,-1.074864278950632,1.355780466752146,-0.15720290515811436,0.16688138722879525,-0.5898143209691531,0.3985986415724044,-0.04895163281658467,-0.9494936718395018,-1.9941998325406785,2,right
10.845999999999998,-1.0715843751116958,1.4103786105600553,-0.19164883734386082,0.5354562076066522,-0.4813784535087401,0.6444363781513374,-0.04659489734341531,-0.9604443456836964,-1.9984573791553935,2,right
10.847000000000001,-1.0556951561345174,1.4812249754159643,-0.23332323385541276,0.2560882471432586,-0.563409840027098,0.45804276873907646,-0.047791449002048465,-0.9546506430818393,-1.9961614242306367,2,right
10.850999999999999,-1.0248811003305018,1.5213627705810728,-0.251704165498257,0.4244725381695167,-0.514289824525519,0.5704936957789575,-0.04769247015775373,-0.9557136885219704,-1.996686559681804,2,right
10.852,-0.9914218134036394,1.5516397655390741,-0.2564555679434152,0.35613670415874316,-0.5336601655850203,0.5246783487915048,-0.04703659468001867,-0.9577556133777737,-1.997294052133701,2,right
10.855,-0.9512435198778295,1.5645713541583155,-0.24735785712637373,0.3548735704620055,-0.5350088027257636,0.524143429509581,-0.04800879002169317,-0.9544653099191586,-1.9962422250604521,2,right
10.856,-0.9040519075400419,1.565254483206812,-0.2331727041198911,0.3911022297741198,-0.5234101076374122,0.5480148979009009,-0.04715271751051495,-0.9574682150710112,-1.9972290038428324,2,right
10.859000000000002,-0.8687220908174087,1.5536684873159992,-0.22850794989874984,0.34791987952678827,-0.5365052159055412,0.5193332914245141,-0.04751193336991601,-0.955775931391375,-1.9965669203265197,2,right
10.86,-0.8523549657045439,1.5181598226520758,-0.23270169270978128,0.3812360662708726,-0.5275215635624676,0.5418085249000226,-0.04793978152873439,-0.9556426249030049,-1.9968585372227008,2,right
10.864,-0.8542770308661083,1.4673976817143561,-0.22653205782845637,0.36386661293087047,-0.5300388921722898,0.529421868981843,-0.046600770258175495,-0.9576400875375268,-1.9968526190175047,2,right
10.865,-0.8763173532697939,1.4057951623978664,-0.2011679290153477,0.3667705436806944,-0.5336340774885674,0.5327324840313936,-0.0486848478633356,-0.9542549222967172,-1.9967034854126495,2,right
10.87,-0.9159345960301885,1.3397780813439373,-0.17735288161883267,0.3730683100779659,-0.5263294674875456,0.5352508161496485,-0.0464470687399825,-0.9579389173626043,-1.9968915460678418,2,right
10.870999999999999,-0.96548980098818,1.2801831403068635,-0.1707134301994257,0.3635743760675729,-0.5334651248934226,0.5302579365521326,-0.047765513963887625,-0.9556912856002082,-1.9967369991970385,2,right
10.874,-1.0195973455651721,1.2263124566155228,-0.17989550201412832,0.37134629019597387,-0.5312202115694824,0.5354548283654053,-0.04877594797343367,-0.9543438139269715,-1.9968322877227591,2,right
10.875,-1.0750908514387356,1.1715685731123902,-0.19788220446699756,0.3683489714880272,-0.5240392911947875,0.530968475196637,-0.04414739797625826,-0.9612064408875929,-1.9967883176584666,2,right
10.88,-1.1248914222165594,1.1153063449335245,-0.21756602213005377,0.36556092220487535,-0.5432805158269256,0.5347906904418163,-0.0527683580097076,-0.9483057462116453,-1.9968035700562332,2,right
