time,gFx,gFy,gFz,ax,ay,az,wx,wy,wz,subject_number,foot
6.072,1.2267341537723677,0.46760352805301864,0.2897941161058362,-4.496284746014523,4.247972804783888,-1.6620312154121062,-0.7886521122497905,-0.48253630058823693,2.1209410572640084,1,left
6.0729999999999995,1.3035495413535956,0.479885448356321,0.2765353187209531,-4.514297395775269,4.27687504841105,-1.6885462922959062,-0.7882309866826641,-0.48547805937093014,2.118849285450913,1,left
6.077999999999999,1.3707563692740479,0.4998029376537823,0.2590788406142358,-4.507747071248847,4.2608084221567974,-1.6745411919906958,-0.7889101238575051,-0.4844199211854574,2.12228171047836,1,left
6.08,1.425622708834395,0.5288580908260436,0.2333911607888935,-4.5046488895656545,4.265179714398515,-1.6773166351587268,-0.7879966215442844,-0.4840033692084839,2.1176356477657663,1,left
6.082000000000001,1.4702895469989727,0.5670501277882991,0.19737619334451656,-4.512105763689988,4.268566400241421,-1.6815575799054834,-0.7889340669913751,-0.4851776565564271,2.122414975944734,1,left
6.082999999999999,1.5084483849996522,0.6092524097548848,0.16378120254364595,-4.507027937682147,4.261512713235797,-1.6749407784411312,-0.7884167069215284,-0.48400928335374793,2.1197696645297253,1,left
6.087999999999999,1.5341260801216334,0.6584313425416184,0.1377163929718543,-4.503483107077834,4.269394655270023,-1.6803810564521724,-0.7878951333735666,-0.4845251057784351,2.1171280078763903,1,left
6.09,1.5474301384492386,0.7121173323716381,0.12331825558974335,-4.519335347486809,4.262058837372981,-1.677977627816642,-0.7900385018558995,-0.4850777036083907,2.1280228254152456,1,left
6.093,1.5488992655810523,0.7669955942767329,0.12274279025899575,-4.492296165825959,4.268331234969406,-1.6771748694493784,-0.7860962835532055,-0.48338851746512473,2.107975343383335,1,left
6.093999999999999,1.5316423592360644,0.8246960049382104,0.1309702777103965,-4.522612459470071,4.263701210994105,-1.6799632355452137,-0.7911468232242722,-0.48579761649492875,2.1336611933537015,1,left
6.097,1.507022504600959,0.8801882164043489,0.14127461358866505,-4.504336370193625,4.265328905384468,-1.6773660579638023,-0.7869347232701833,-0.48368389381964955,2.112240255471618,1,left
6.098,1.4671129309623239,0.9349474383935725,0.15259118738000776,-4.490177965803852,4.2689344443596084,-1.6772029980764631,-0.7870425535942602,-0.4839001261024947,2.1127856141570165,1,left
6.102,1.4113172664316882,0.9855738908537599,0.16334440469847505,-4.555510449183713,4.25780418740192,-1.6822982557113972,-0.7950910965262394,-0.48750858337738595,2.1537234068443123,1,left
6.103,1.3592750867386794,1.0259657268004865,0.17475548172772495,-4.433371716786417,4.277092521990458,-1.6715723506429216,-0.7753166637671018,-0.47840731408453907,2.053151438947725,1,left
6.107,1.2771389402854054,1.067374680689773,0.1962961562497032,-4.59063295396858,4.252920797513074,-1.6859102343692087,-0.8081020558464054,-0.4935882731362571,2.219888578566814,1,left
6.108,1.215872857507438,1.0925737888861,0.21237135178330782,-4.459169737879056,4.272855221052286,-1.673700877063237,-0.7648567417589975,-0.47352739835257524,1.9999654197679373,1,left
6.112,1.2004247888296353,1.097344056706533,0.21601095054380476,-4.462858474435738,4.2725090904396055,-1.6742338747695897,-0.5833454758633079,-0.3894776546326279,1.076838218246817,1,left
6.114,1.1375587244360463,1.1143377902265188,0.23023655097909113,-4.713307779480154,4.23415626310007,-1.6971434628859128,-0.5400923710136593,-0.3693946875823886,0.8569028861839136,1,left
6.114,1.0575596391851199,1.1331260108061758,0.24286790819994353,-4.097507549004373,4.328082983422846,-1.6404731286313072,-0.5728891660760829,-0.38462568443445583,1.023655365643664,1,left
6.117000000000001,0.9771181826727505,1.141117529968168,0.24384320464152642,-5.118622593051761,4.172493546356719,-1.7346036466478316,-0.553107405600757,-0.37544093369576,0.9230807237680844,1,left
6.117000000000001,0.9114495096539765,1.146949964147481,0.24828583275168423,-3.771758156754328,4.377668048593235,-1.6103694325218623,-0.5611497043111393,-0.379160951055559,0.9639906676012822,1,left
6.122000000000001,0.8959461797498963,1.1479462502639102,0.24941089434033448,1.8822746389825864,5.238319494197857,-1.0887357798316581,-0.5612854776533226,-0.3792646452452715,0.9646065288205444,1,left
6.122999999999999,0.833039226976259,1.148421310741619,0.24021510609414326,3.2290958440773943,5.443520632247623,-0.964472254103536,-0.557021697477754,-0.37721020244599013,0.9430760315203577,1,left
6.124,0.7387627700206275,1.1496889945007833,0.22332328765104575,2.2079842346239826,5.2879620630646595,-1.0586905363356625,-0.5621382098754246,-0.37968777669623843,0.9688815652397926,1,left
6.126,0.6724271221503737,1.1492515185769991,0.2024795703669208,2.8239557616649886,5.3816664128730185,-1.0018337292449981,-0.5581405790202534,-0.3777322677598104,0.9487627817678818,1,left
6.127000000000001,0.5999251483723991,1.1490293250055736,0.18275978688171807,2.5730348341889924,5.3438450218602345,-1.025047420767985,-0.5602893910438833,-0.37877166328235323,0.9596001335332685,1,left
6.132999999999999,0.5352993064678946,1.1483062693657855,0.16940255463192927,2.570149434050765,5.342646604616236,-1.0251995340053286,-0.5598570986675235,-0.3786579898512453,0.9572215189773734,1,left
6.135,0.47862172749090814,1.1441919501820363,0.16884821389882848,2.7006300877987215,5.363569930837641,-1.013317381392964,-0.5591252765289201,-0.37804142354797043,0.9540787582721967,1,left
6.1370000000000005,0.4229356539503488,1.1354436550825882,0.17771407695801195,2.5441358678288717,5.338704619026595,-1.0276028583205,-0.5603902807777308,-0.37910435634260414,0.9595154930171736,1,left
6.138,0.37769071393876286,1.1239927472860014,0.19046572320752578,2.6663362063588147,5.357751590761579,-1.0163918598933404,-0.559119528321208,-0.3779312439461514,0.9542753190193142,1,left
6.142,0.33084658056216343,1.10811834889688,0.20415016004515896,2.599440563575866,5.3484626191378,-1.0227019451502357,-0.5600166387997156,-0.37881243415096333,0.957863415868574,1,left
6.143,0.2861883286589768,1.0877937250491447,0.21402261406994433,2.6170781248969934,5.348280081122569,-1.0206382691998626,-0.5597512710521906,-0.37869352445503063,0.9565052057958233,1,left
6.146,0.24833100741981057,1.0653892099977944,0.2209082665635314,2.6302431237247106,5.35521783981806,-1.020173100783882,-0.5592240088904806,-0.3775861339305558,0.9556312097054903,1,left
6.147,0.212066163139476,1.0392383987595792,0.22617488696999072,2.6052606447571867,5.345363914635318,-1.021559092494132,-0.560576268727305,-0.3801850785779288,0.9583777805849533,1,left
6.151,0.18072683596075453,1.0124995817587499,0.23051806763718866,2.629450673642361,5.353868543425609,-1.0200595610732486,-0.5585932029171481,-0.3763237977054661,0.9544546081420332,1,left
6.153,0.15619789735471423,0.9864152533094759,0.23810336716488678,2.610341157600442,5.351003566840456,-1.0218297827899385,-0.5606617469766539,-0.380419051963819,0.9584056670863841,1,left
6.157,0.13785565669826938,0.9550296450319657,0.24778599461096276,2.626590735744151,5.344527740068799,-1.0189699234872376,-0.5594660887104033,-0.37805229135243773,0.9561205079714639,1,left
6.157,0.1275011125717074,0.922022752468418,0.2551894315481677,2.6084893416571555,5.362222348395585,-1.023748859307862,-0.5585360400872388,-0.3760598077277018,0.9546621802473155,1,left
6.162000000000001,0.12315689752886776,0.8927712647198919,0.2596833101356665,2.6309333479746506,5.335132155297877,-1.0170403200514249,-0.5627365714461277,-0.38484241756068505,0.9617061169052822,1,left
6.164,0.12384607512329923,0.8622686626513325,0.26199395117048097,2.6078587328903566,5.364139421241621,-1.0241133741140998,-0.5549402467026688,-0.36855110787826767,0.9486107395641233,1,left
6.166,0.12849184655599,0.830160132133476,0.26367200539330093,2.6198469324514226,5.34717580876625,-1.0201503028774792,-0.5649426708869452,-0.3894669583857703,0.9653827043624238,1,left
6.167000000000001,0.13527185202713485,0.8030345682514841,0.266531655853105,2.6368329879972823,5.3335610809718,-1.0161211777426828,-0.5565960666303351,-0.3720057865287342,0.9514009308423356,1,left
6.17,0.15196682874565465,0.7804630997711789,0.2709774156995114,2.5733877534469127,5.394794820677356,-1.032751349811404,-0.5568323270408793,-0.37248646541207514,0.9518310806782251,1,left
6.171,0.17301151079190735,0.7585405496266375,0.27261998700321144,2.68907562893946,5.280939798451598,-1.0020915980298744,-0.5727030162682,-0.40575287171475694,0.9782668617905529,1,left
6.176,0.19382428185925887,0.737137984755875,0.2657667165287673,2.540976801955437,5.42720020491492,-1.0414196145763235,-0.5336872813038396,-0.32397801876980603,0.9132545187233257,1,left
6.1770000000000005,0.22587100106899588,0.7191444462923626,0.2541592880984572,2.6644247581999645,5.305070316311351,-1.0086030026463408,-0.5983760079827729,-0.4595689449396094,1.0210407463253857,1,left
6.182,0.24988138566470053,0.7113404402153214,0.24760400758663245,2.661799131929615,5.308473987123325,-1.0094283422868242,-0.5130548247344782,-0.28072149217959846,0.8788875276455226,1,left
6.182,0.25601786113708797,0.7087901648498789,0.2469426279439196,2.4240901050003325,5.541023880026574,-1.0722095270000873,-0.1549439880651003,0.4699193510361331,0.2823055821118384,1,left
6.183,0.27684343223472413,0.7002119975308538,0.24311685458763593,3.007477735607546,4.969334627870708,-0.917974959312227,-0.06962705882914465,0.6487734777853291,0.14017673642320583,1,left
6.186,0.316699666711169,0.6903515917460314,0.23679388757157754,2.0404557919150017,5.917243024806799,-1.1736841436680487,-0.13430921961793107,0.5131762420357819,0.2479266102121408,1,left
6.187,0.3408925946578666,0.685552619442109,0.23552229848319006,3.3158758139569153,4.666965314252642,-0.8364060469858136,-0.09529868829847156,0.5949451210475587,0.18293960074424714,1,left
6.19,0.34795130407567837,0.683335612434134,0.23417838933869925,8.670740852615353,-0.5809766389866367,0.5794031022619108,-0.11117030806166585,0.5617093209174469,0.2093899496730169,1,left
6.191,0.3705859879305526,0.6814266927480406,0.2294448861939502,9.946090281708749,-1.8312151795075036,0.9166908263484607,-0.11139498845952221,0.5611672343941866,0.20974005014381006,1,left
6.191,0.40090003459828594,0.6813107990479073,0.22394463135235704,8.979220770743224,-0.8833616055312918,0.6609704780408946,-0.10307265597841744,0.5787128931874348,0.19591204613166485,1,left
6.195,0.42097753209944533,0.6833017442447098,0.21475809978651186,9.562368058832163,-1.4550229006146305,0.8152037325891619,-0.11304133148521119,0.5577173572883831,0.212482177583372,1,left
6.196000000000001,0.4401976493670967,0.6870986546252174,0.20310559249466953,9.324961056326732,-1.2224232964463737,0.7524516393743826,-0.1052773576219034,0.5740347932841707,0.19956434722285435,1,left
6.199,0.45767208651689273,0.693700840784041,0.19052049815111274,9.322056615391773,-1.2191872899449971,0.7515600580252423,-0.10946587744728027,0.5653396359764352,0.20657315015079097,1,left
6.2010000000000005,0.47304125023421073,0.7004143675627669,0.17481370540764668,9.44560727541678,-1.341028179828733,0.7844745675911899,-0.10850400510665165,0.5670831399826515,0.2048694119706368,1,left
6.206,0.48945984597574116,0.7069234593586168,0.15742767620853276,9.29777725268748,-1.1951162676806457,0.7450454172972707,-0.10740320637483941,0.5698603253076795,0.20321064350593343,1,left
6.206,0.5057377118458023,0.7157191911952872,0.14403333011042024,9.41266003132635,-1.3087081749568155,0.7757555812421064,-0.1093128388521557,0.56528110070781,0.20617686958817183,1,left
6.209,0.5215216535589654,0.7263320365952157,0.13519996022775982,9.350571926558121,-1.247434985276454,0.7591966423703627,-0.10751992903135019,0.5694987698637641,0.20336157780980313,1,left
6.21,0.5348495841505267,0.7366398380232926,0.12311972455307336,9.365917967428627,-1.2616237226330256,0.7629694501402897,-0.10872782166947162,0.5669707945188733,0.20537527470018846,1,left
6.215,0.5487167815646359,0.7456594082365839,0.11332718435880954,9.379181444193739,-1.2773446091216365,0.7673894104434442,-0.10818269438534275,0.5672613286220598,0.20414894397257916,1,left
6.215,0.5626388193716364,0.7540595755648829,0.1109203365044268,9.356187934380662,-1.250131812720091,0.7597394550189851,-0.1082231967511314,0.5691240098343588,0.20494371748732843,1,left
6.22,0.5731232395420105,0.7603303958609112,0.10504662268550759,9.376108790975515,-1.275389135072399,0.7669320976847749,-0.10845140289738392,0.5657400701767215,0.20423882967403295,1,left
6.221,0.579537595192504,0.7660375358003755,0.10069823700204919,9.363643099926637,-1.2586039279200443,0.7621018492747142,-0.10815442059094783,0.5694601708386269,0.20490079109319542,1,left
6.225,0.5804673760407728,0.7726552384377009,0.10602609464435347,9.371597092643439,-1.2663577700765711,0.7641909290694513,-0.10841085231608777,0.5671325820654403,0.2046596641399044,1,left
6.226,0.5746398334910059,0.7767057014333845,0.1141430607753059,9.361178451501898,-1.2646222252902564,0.764283133708108,-0.10821153680130846,0.5660082071625272,0.20375140665402297,1,left
6.23,0.5629014034089012,0.7814331552419784,0.12258123853380049,9.38063871362385,-1.2643282555837152,0.7629232642291858,-0.10839586065869831,0.5723730110642209,0.20658004539443325,1,left
6.23,0.5477014375925687,0.789483440217996,0.1302446560489573,9.350599108270181,-1.263777092241933,0.7646847424132326,-0.10817809558102419,0.5603085754150259,0.2015410859859026,1,left
6.234,0.5254057652282567,0.7957039558047089,0.13592664696451173,9.383960867554016,-1.2656776643912901,0.7631615110477772,-0.10843001936769481,0.575858740955397,0.20796511034878812,1,left
6.235,0.5011028892648823,0.7994299982655475,0.14024881639610548,9.364699417613227,-1.2645937725259397,0.7640448972115048,-0.10823072807490045,0.5628524110746636,0.2026205448706495,1,left
6.239,0.47250363908255666,0.8072939417827755,0.1409033591006686,9.345122875426597,-1.260746610220761,0.7640224248212639,-0.10819342069901391,0.5632966671386999,0.20269369360638556,1,left
6.24,0.4371771634028425,0.8169285416771872,0.13802624818569453,9.426949397824679,-1.2738123146895604,0.76310725361823,-0.10871405755944824,0.5877958352169019,0.21311987496018692,1,left
6.244,0.4040331370690973,0.8256559242765651,0.13396031588921276,9.27539392445533,-1.249769888258482,0.7648535229730726,-0.10748419217175709,0.5274700135843087,0.18757730879436868,1,left
6.246,0.3537314812790363,0.8431049669331692,0.12953631889055628,9.470243937155068,-1.2808825352228503,0.7626779461737703,-0.1095111537635715,0.6275227382496076,0.2299071327882723,1,left
6.249,0.316230935441134,0.8548097492603159,0.12739073269095846,9.30746247611206,-1.25479897834468,0.7644621833655373,-0.10683769148926878,0.49554931506139416,0.17407503443518013,1,left
6.25,0.3057294486161978,0.8579115832102293,0.12913457358892796,9.311552991267401,-1.2551965019858047,0.7643368473162802,-0.09556447882814159,-0.058251624698486576,-0.06037169978444627,1,left
6.25,0.26647877095959616,0.8746547375892862,0.1301367968712797,9.62328468150908,-1.3062446769479854,0.7612735288061883,-0.09288404423360386,-0.19021762807717918,-0.11621451117390323,1,left
6.255,0.21875424863779316,0.892978465871393,0.12682776628478076,8.857328449508536,-1.1810104071519447,0.7688544850283889,-0.0949185507636521,-0.09017293220488595,-0.07387309341354309,1,left
6.256,0.17354577524679388,0.911166954217489,0.11734292142934902,10.127338314049995,-1.3886746656885882,0.7562983716726674,-0.09369154968051185,-0.15050180334131127,-0.09941126172567058,1,left
6.257999999999999,0.13598178647431045,0.9283255794064782,0.10759711098074679,8.452127694750107,-1.1146930321356152,0.7728339030798508,-0.09418717355657334,-0.1259760141088775,-0.0890235065096369,1,left
6.2589999999999995,0.1282714547264387,0.9328702425474883,0.10445287346700614,1.4195061732685303,0.03625982790649923,0.8421745903768489,-0.09420369130323217,-0.12558904188573533,-0.08886766467923005,1,left
6.26,0.0961761175044242,0.9482060656991497,0.09788286650991,-0.25583123048478906,0.3103658197785908,0.8586831707244955,-0.09392722047952405,-0.1385132343059038,-0.09433080681111194,1,left
6.263999999999999,0.04521517572611024,0.9748466776963629,0.0853699632735968,1.0143960229597104,0.10248810740214502,0.8461547283959763,-0.09425600550083851,-0.1230448656010796,-0.08778869043814369,1,left
6.265,0.011087316764775205,0.998237527345179,0.06870531519661871,0.24820783364977606,0.22795069228669307,0.8537520463485542,-0.09400506410035067,-0.13507399802275366,-0.09287863112039538,1,left
6.269,-0.023244961475626214,1.0212082680247152,0.04453528465573957,0.5600702666427033,0.17677263441039637,0.8505811356069278,-0.09412341424890598,-0.12863897589593132,-0.09015133771484153,1,left
6.27,-0.05210943477542923,1.0406502787251364,0.022884868427850032,0.5642707970540769,0.17626963683432803,0.8506800383568018,-0.09413666620343661,-0.1299895802541711,-0.09073302801074133,1,left
6.273,-0.07409160732401941,1.0606598664134612,0.010013725129321652,0.4010182900192458,0.20281261122421418,0.8521485725617135,-0.09402680815124966,-0.13192734519653668,-0.09153690387428744,1,left
6.273,-0.09325623366977506,1.0803424022674908,0.007876092960103328,0.5967287304466902,0.17085750816406856,0.8502801171023198,-0.09417938402324418,-0.12868567839756578,-0.0901842448179311,1,left
6.278,-0.10444571045633108,1.094060796484383,0.018314642752691332,0.444075220454431,0.19597834634242106,0.8519073296364348,-0.09404913773903939,-0.13168815424563063,-0.09143988507413181,1,left
6.279,-0.11276634000133928,1.1062777145206313,0.030486466633643357,0.5268376096644796,0.18198869605867019,0.8506974294307658,-0.09408654454848861,-0.12982215005677117,-0.09064980120673663,1,left
6.284,-0.11977676907163061,1.1171313466104156,0.03552137109305091,0.5071273862054873,0.18597819399804894,0.8515709850097932,-0.09420638352936606,-0.13023933652640451,-0.09085458193715454,1,left
6.285,-0.12544604836316597,1.1221013411544254,0.03726870275523178,0.486460889958002,0.18842551045302178,0.8509408401858374,-0.09389442788704432,-0.13114979633730944,-0.09117586290694302,1,left
6.289,-0.13253355727853605,1.120852034908816,0.040421340514991105,0.5232834377152683,0.18314358917642531,0.8512427255421658,-0.09436902833083352,-0.12934530859168614,-0.09050742907999536,1,left
6.29,-0.1398338506617806,1.118458879542834,0.044960482255566564,0.4878911092109393,0.1889417873825781,0.8515977223477115,-0.09386126523463088,-0.1313518885903685,-0.09125532747821485,1,left
6.294,-0.14809219231937262,1.1126256089238942,0.05120140858293665,0.5132735131643015,0.18341015946827932,0.8501129921435195,-0.09415752011660972,-0.13006139045786308,-0.09076743391818134,1,left
6.295,-0.15413639513971183,1.101060264045997,0.051897041089361315,0.49909410366153556,0.1888789927738591,0.8530738676899239,-0.0943990758082817,-0.12959879998094045,-0.09062268128693221,1,left
6.297000000000001,-0.15367551076512687,1.090458665281512,0.048962254865459576,0.5048124350444232,0.18324673647507136,0.8488089871775589,-0.09331899081727629,-0.13268669940328962,-0.09170793505382319,1,left
6.2989999999999995,-0.15121037830606912,1.078102902190944,0.05171695673785217,0.5043641786006174,0.18832652547666995,0.853299609587872,-0.09532646649393184,-0.12676855750767801,-0.08961351739491427,1,left
6.303,-0.1448280663778975,1.06494492839831,0.04838678494441729,0.5008371370566453,0.18601063684410485,0.8507426339632268,-0.09274734465774254,-0.13441030188022007,-0.09232157277391168,1,left
6.303,-0.134260154124484,1.0557819085372788,0.037926271748756395,0.509567227814568,0.18208967299128362,0.8484211209825557,-0.09490170725009914,-0.12801394648224948,-0.09005265688079371,1,left
6.307,-0.12055742407680559,1.0483964217917041,0.02584162175975939,0.493074676068177,0.1956992243937674,0.8583644221724824,-0.09484006399808756,-0.12825214102553673,-0.0901440929640479,1,left
6.308,-0.1038444224219684,1.0470671607582651,0.011886009575025521,0.5185312388250154,0.17129837332769687,0.8399761102074315,-0.0907414152024198,-0.14023362213140794,-0.09437335754295902,1,left
6.313,-0.08521511828078679,1.050232119328137,-0.0015071864861391847,0.48769023525261207,0.20232923934551234,0.863568367293774,-0.10082080695237168,-0.11070940763046276,-0.08394170523940894,1,left
6.314,-0.05770052526888655,1.0548900316513459,-0.022937261296472673,0.5126610150742223,0.17654853109611468,0.843881484144541,-0.0841057454108688,-0.15967971596640906,-0.1012486301681183,1,left
6.317,-0.03577662283504619,1.0602512153003156,-0.03870220944787679,0.5131789131221993,0.1770549237696743,0.8443993300245185,-0.10615478821154317,-0.095088478626504,-0.0784185909438918,1,left
6.318,-0.027291229291874677,1.0625215628081568,-0.042424322978655345,0.4623858092002683,0.22672448995696226,0.8819771350700043,-0.1986454151243444,0.17599101047934063,0.01731984872003549,1,left
6.318,-0.00644328186509765,1.0690433610359653,-0.05691644617966066,0.5855100866110945,0.10491556482701911,0.7896394107985283,-0.22069215431234346,0.2405756075610045,0.040144415381690446,1,left
6.322,0.03170766390395771,1.0795430297186965,-0.07578181307334948,0.3820017935230627,0.30678349001278005,0.9427272134277473,-0.20398694609464338,0.1916058238693083,0.022849798386559567,1,left
6.3229999999999995,0.05744334687831391,1.0848401575025228,-0.0841051379456976,0.6502147526882831,0.04054613901600938,0.7408149053956681,-0.21404121303161977,0.2211563595587211,0.03326107976609244,1,left
6.3260000000000005,0.0662059226011717,1.0858495011156883,-0.08820835610885713,1.776966194737994,-1.077134426055209,-0.10672135544787029,-0.20998804832684062,0.20910241685603043,0.029058814031590424,1,left
6.327000000000001,0.09167921445474496,1.0868787832348477,-0.09768554081744718,2.0452219311512154,-1.3434114229380987,-0.30860887343544186,-0.20986444951703437,0.2089876444441628,0.028940444291777376,1,left
6.327999999999999,0.12639608698452037,1.0909568480702814,-0.11021172237078308,1.8417495466955882,-1.1414916000799222,-0.15556604286812042,-0.21207889452743517,0.21523304789107106,0.031223032355158154,1,left
6.332000000000001,0.14738750435576575,1.0943823216438284,-0.117820299069382,1.9645650989678918,-1.2633161012289251,-0.24784967742934402,-0.2094758536140483,0.20770913087064247,0.02853252121179656,1,left
6.332999999999999,0.1646196098877628,1.0935656582270301,-0.12216414217358253,1.9145256968766367,-1.2137230759945856,-0.21031544477000463,-0.21142696564536823,0.21363676373112556,0.030561508117591236,1,left
6.337999999999999,0.17857402751332652,1.093116817557,-0.1275116279046488,1.9138228599214875,-1.2130080718654006,-0.20979239444906445,-0.21052107653060448,0.21030866709933138,0.02959451367116023,1,left
6.3389999999999995,0.1875475889563345,1.0944699652142802,-0.13256329426509644,1.9402229324369369,-1.2391230585827477,-0.22941584485710817,-0.21046584658824322,0.21130583589947982,0.02958768973211224,1,left
6.341,0.1923404811299384,1.0953728687118935,-0.13671961554250844,1.9083595797714548,-1.2077153756609436,-0.20597531417376935,-0.21112339944433575,0.21181101177251607,0.030206537841450453,1,left
6.341,0.19153639702649805,1.0970503368844984,-0.14270039232481446,1.9335128024926207,-1.2323604445467309,-0.22413369304809366,-0.21033162425119795,0.2106240129009944,0.02943622605398734,1,left
6.346,0.1876197971313658,1.0994631015820922,-0.14714381292041223,1.9196134943157601,-1.2188863340370073,-0.21443909482305162,-0.21079450020534857,0.21199055532557287,0.02991588834154043,1,left
6.347,0.18043313316312212,1.1006977821574173,-0.14887639604730554,1.9229412966168742,-1.2220474649937667,-0.21661141170646386,-0.21103076432438495,0.2105801061626018,0.03006869576260395,1,left
6.352,0.17252351532184204,1.1017367364867545,-0.15118389787036213,1.9270468074832234,-1.2258560832368928,-0.2190554269770206,-0.20991427121771206,0.212113864622578,0.029122604336836173,1,left
6.353,0.16481815698329916,1.101477112809432,-0.14937023004975772,1.9190119479124648,-1.2187497901650755,-0.21509625202702526,-0.21178296577090194,0.21042074321651943,0.030744231222344813,1,left
6.356,0.1544223422686251,1.100819891366478,-0.1422412191459041,1.928117223639782,-1.226287682094006,-0.2183508707569528,-0.20971651421301896,0.21200793823944167,0.02893854571466558,1,left
6.357,0.14268318743513184,1.1015874660627205,-0.1364036122997537,1.9200981476607293,-1.220169438952033,-0.21673080675460893,-0.2109605062378448,0.21123687118487866,0.0300336384783946,1,left
6.362,0.13231840883146426,1.100728189401232,-0.13237337622283746,1.9251254316531157,-1.2236911010059996,-0.21699463552692158,-0.21187738894980235,0.21011817540824695,0.030816635175944358,1,left
6.362,0.11844112789233845,1.1017664444695716,-0.12376333134898615,1.9251462085052615,-1.223699663062923,-0.21697981853012446,-0.20757771771310835,0.2141765148313967,0.027092705427680486,1,left
6.365,0.10197210292787658,1.1060075651213563,-0.11114081906041343,1.9180094888495578,-1.2193376290716382,-0.21813684301325045,-0.2156195092519777,0.20684819877206942,0.034069207167706325,1,left
6.367000000000001,0.09016710401766856,1.1096927034039599,-0.10004722518938847,1.9333970923448731,-1.2283899042611508,-0.21479799979101316,-0.20526863128696188,0.2161867526955618,0.025085308603567315,1,left
6.371,0.07667158507646271,1.113748704823959,-0.09006366393872811,1.911201503526249,-1.2156402769000965,-0.2203511664319799,-0.21392106189265897,0.20842067057449137,0.032596949757142155,1,left
6.372000000000001,0.05785400005424584,1.1180944760791598,-0.0800184110268264,1.9344180994348403,-1.2287904357982815,-0.2140969165260512,-0.21366936981778628,0.20858425561759464,0.0323754111447832,1,left
6.376,0.04100385050986467,1.1238174305649298,-0.07032103981292198,1.9211455346954287,-1.2213332782177444,-0.21781744518494378,-0.19721699385207797,0.2235165594284177,0.018100171492996423,1,left
6.377000000000001,0.02572334648961642,1.1296951388353076,-0.05809922447722811,1.9097636797271287,-1.2149637793961554,-0.22106937617954425,-0.23768128481879944,0.186882312487535,0.05321447685912736,1,left
6.381,0.009902585940599215,1.1345907405300957,-0.04445596791967074,1.9594056431706555,-1.242670158414365,-0.20670933770139266,-0.17057819247583217,0.24759792361875227,-0.005018674905759253,1,left
6.382000000000001,0.0019580313850286486,1.1384761748455978,-0.03894638316130238,1.8675074060807044,-1.191450583542571,-0.2334628024633946,-0.2590931534159935,0.1675238687405914,0.07179729886616948,1,left
6.3870000000000005,-0.0005468074523229192,1.139597506999863,-0.0378771632319542,1.985396234748422,-1.257106684637514,-0.19902534348110695,-0.6306044719197734,-0.16862419310035315,0.3942001090854296,1,left
6.388,-0.009441771363637776,1.1420436240929637,-0.03182327688838389,1.887025986708798,-1.2023430557349655,-0.2278119250329838,-0.71912838040017,-0.24869591795587007,0.47102582712633856,1,left
6.388999999999999,-0.01765903445675855,1.143779795514229,-0.027035666677059755,1.889696031828373,-1.203831087698339,-0.2270398802402716,-0.6520097242454722,-0.18798857250956258,0.4127758106928049,1,left
6.391,-0.020851133354327055,1.1418547284316634,-0.02361192667169546,2.0771618121465485,-1.3081535679033014,-0.17206562816343018,-0.6924911716335101,-0.22460343017577283,0.4479084990421601,1,left
6.392,-0.023903143548515346,1.140395100187849,-0.016362892373749938,1.616420874990614,-1.051770232396386,-0.3072037723560924,-0.676027947264431,-0.20970471369950874,0.4336220657897438,1,left
6.395,-0.02295524918713022,1.1371717697216988,-0.010389205109564897,2.3803188633423487,-1.4768359436855976,-0.08311495281000456,-0.67577089672665,-0.2094968860740148,0.43339377058479267,1,left
6.395,-0.02045459678366784,1.1337198411578897,-0.008998479485520378,1.372769144085614,-0.9161965114378424,-0.37871084383302567,-0.6844539884787579,-0.21730396608026992,0.4409397915681644,1,left
6.396,-0.020594754703347942,1.1346463571798404,-0.007904413742368515,-2.8561831853919584,1.437096129223277,-1.6197713358942518,-0.6740438754328273,-0.20795261278175028,0.4318908137837453,1,left
6.4,-0.01818681966033879,1.1338387626710336,-0.006081208630038129,-3.8636758045795734,1.997739842283861,-1.915441074554978,-0.6821645282117288,-0.21523440826546564,0.438952674547901,1,left
6.401,-0.012296234535582463,1.13010800270901,-0.007739147315426164,-3.0998930854569093,1.5726558828471697,-1.6911983145120772,-0.6777928974568451,-0.21130698013515925,0.43515264135574994,1,left
6.406000000000001,-0.006355700156828135,1.1303053248282406,-0.014071360513107811,-3.5604680534088518,1.8290856874471662,-1.826568330501905,-0.6787302866035374,-0.2122102820972388,0.43595373152910694,1,left
6.4079999999999995,0.0007288608641057419,1.133063784195893,-0.026027141087264588,-3.3731879498214905,1.724679137242482,-1.7713184338464554,-0.6800588863161727,-0.21323535760454482,0.4371465364076148,1,left
6.4110000000000005,0.009195648773696209,1.1368265215373037,-0.03963193795079095,-3.3703793421378014,1.7233055688224428,-1.7707782733359205,-0.6777612454335742,-0.21146082146303757,0.43508407993770803,1,left
6.412000000000001,0.01677077303974868,1.14227204453032,-0.04860375596283298,-3.4687393475570136,1.7779582535422123,-1.7995215551492971,-0.6800044794442452,-0.21311744843182426,0.4371148286876573,1,left
6.415,0.025372980204347154,1.1472187249792092,-0.054377790074743915,-3.3511216669434165,1.712346224002091,-1.7647660176925464,-0.6784534706473647,-0.2120112601192194,0.43570187549453304,1,left
6.416,0.03617136547518214,1.1511912057269422,-0.058342803408197245,-3.442418343848075,1.763670071257888,-1.7923274338607418,-0.6789990760667309,-0.2125076806197316,0.4361747494468734,1,left
6.42,0.04561058508867387,1.1530369695856098,-0.06069572035730948,-3.393660082280478,1.735641808386507,-1.7766951055873919,-0.6795493193791073,-0.21245415681170543,0.4367765152049313,1,left
6.421,0.0537565513448639,1.1539383643174475,-0.06105478626371706,-3.404116194669558,1.7425594004377327,-1.781386605265037,-0.6779904793346379,-0.21230346426005509,0.43513980907594774,1,left
6.425,0.0604452642852331,1.154744809069021,-0.058957948988730496,-3.417893266660228,1.7493498435666033,-1.784136320603764,-0.6802457449657594,-0.21246498418445095,0.43752048886420924,1,left
6.426,0.0624905519389947,1.156267294456779,-0.05660619901620027,-3.3952158780961392,1.7367226491670866,-1.7774698898466808,-0.677934738399538,-0.21237680116060653,0.4350635108912123,1,left
6.428999999999999,0.06250040734103227,1.1609379139471687,-0.05862391990697104,-3.415250655273597,1.7494971991049533,-1.785748253848083,-0.6792707341131634,-0.2124288037569053,0.43648370187217933,1,left
6.43,0.06073088571871641,1.1662687806309417,-0.06545811105790564,-3.403829434599351,1.7394264575537401,-1.7769146704677747,-0.6802171422691643,-0.21228665596718505,0.4375299860216114,1,left
6.434,0.05668014032582377,1.173551359349176,-0.07107994439877183,-3.4058306364398554,1.746082208524981,-1.7856796198155753,-0.6758102594340415,-0.21266633969030885,0.4327213754328854,1,left
6.435,0.05716894178027322,1.1863732383579983,-0.07939682032198217,-3.4103213358763385,1.742673439579022,-1.7782801878964867,-0.683995326057991,-0.2119746192993895,0.44164965425832015,1,left
6.439,0.060844101461479706,1.2033905227166022,-0.09317139890505756,-3.4043444225935127,1.742760347580366,-1.7815627210001073,-0.673503206774311,-0.21287790449377206,0.430200994047748,1,left
6.439,0.065168635812486,1.2223178131864478,-0.10680357486410047,-3.406315375928978,1.7468009784226115,-1.7864835528549254,-0.6822535903275918,-0.21211731276586582,0.4397509176060982,1,left
6.444,0.0766638274798481,1.244149797534205,-0.1238284912890775,-3.4127258689114757,1.7374884625115463,-1.7693620922153022,-0.6819977626738942,-0.2121169786470141,0.43947644812105413,1,left
6.445,0.08962251523460901,1.2674363467859373,-0.1387153626058532,-3.3964531275034147,1.7523171678701608,-1.7998265350483709,-0.6653985799275222,-0.2136540789644405,0.42134015949880965,1,left
6.45,0.10352500759403942,1.2945441665662727,-0.14490798575768155,-3.419295098689532,1.7343614554400562,-1.761280850965877,-0.706208301323924,-0.20989357412374304,0.46592545876714164,1,left
6.45,0.1261557630442002,1.3313024908482762,-0.15238418455380015,-3.399390518675811,1.748884760782706,-1.7932145912770254,-0.6385496266156874,-0.21612807339888473,0.3920067013750187,1,left
6.452999999999999,0.13898226950137793,1.3560152101228642,-0.15899324852774133,-3.4006573912897213,1.7489023559427792,-1.7925663782659094,-0.7277817055023248,-0.20790210596144654,0.48949628050095717,1,left
6.455,0.14127310660221998,1.3626134842279791,-0.16115938465826027,-3.4372577403135285,1.7204428539716956,-1.731272093537422,-1.1023225253257174,-0.17329874355245897,0.89870777724503,1,left
6.455,0.15068680449319416,1.3855893112007138,-0.1677245137547681,-3.345991131012035,1.7896541233421837,-1.88153729373168,-1.191540112115296,-0.16506923226892856,0.996183539087433,1,left
6.457999999999999,0.15677277036309573,1.4247010222223144,-0.17832940476084333,-3.4979453158581633,1.6752577077408644,-1.6325793780279676,-1.1239011345816352,-0.17131119997076688,0.9222832189194277,1,left
6.459,0.15810395731274093,1.446487629592648,-0.1846832832286514,-3.2972033397388314,1.8259621123369407,-1.9608573470819315,-1.1647025887025502,-0.1675392809310467,0.9668618499572116,1,left
6.465,0.15845444092699046,1.4531559258680709,-0.1872526519150193,-2.4546420107502342,2.4586674523618344,-3.3388577753015314,-1.1480807334278968,-0.16909020056974924,0.9487014415896939,1,left
6.466,0.1525233103904443,1.470999087751826,-0.19450895951099656,-2.2537112880534567,2.6092529219318266,-3.6670745274173826,-1.1478932882803399,-0.16907786152969145,0.9484958836893167,1,left
6.466,0.1432160213408921,1.4928952759640353,-0.20161907191230347,-2.4060617393950388,2.4950920507514276,-3.4182392073500285,-1.1565299329345615,-0.1683202878397126,0.9579333792393374,1,left
6.468,0.13165051713397283,1.5026098783891997,-0.19818212493891058,-2.314192532942779,2.5639737436101564,-3.5683299586651374,-1.1461706760269335,-0.1692382990262861,0.9466136909137599,1,left
6.468999999999999,0.12039280789115539,1.505371529559246,-0.1865355350595573,-2.35151793070539,2.5358677514683574,-3.5072275508549042,-1.15426201244469,-0.16850729636870948,0.9554547189456615,1,left
6.474,0.10607221341876379,1.5026419607676544,-0.17420947109020357,-2.3521616674741557,2.5356460403826095,-3.5064414444141976,-1.1498249232452964,-0.1689502128852339,0.9506081802359871,1,left
6.475,0.08924993660643724,1.4927285408091693,-0.16457303335047707,-2.33240046968922,2.5500951046384546,-3.5383527714164265,-1.1510129356543704,-0.16873490400954597,0.9519019122049467,1,left
6.478,0.07857710637757459,1.4769563748598515,-0.15145844811242554,-2.3560365203563745,2.5327346134697697,-3.5001043486195282,-1.1518507298813425,-0.1688388760328267,0.952824634874291,1,left
6.479,0.06659943905805962,1.457156715791219,-0.13023890239919433,-2.337681527593652,2.5463385210304317,-3.5299299975356884,-1.150238101555293,-0.16876557434061906,0.9510536670956728,1,left
6.483,0.05491554525828467,1.4360782381691428,-0.10198364946261407,-2.3474184641907376,2.5387452215227904,-3.513729610217297,-1.1518067165900208,-0.16879775477297237,0.9527746838560325,1,left
6.484,0.051364965631202394,1.4142968104903224,-0.06654471923508987,-2.345570334576914,2.5410850702868526,-3.517707289211092,-1.1505406513172247,-0.1689162780624123,0.9513915750001861,1,left
6.4879999999999995,0.04943889935749843,1.3917578712414915,-0.026287025597351323,-2.3422580252043743,2.5419236229552293,-3.5214657234553846,-1.1516795796487134,-0.16848264445702346,0.9526223549343649,1,left
6.489,0.050627575918906854,1.3712205627260914,0.012576006899163421,-2.34763873981768,2.539907215695928,-3.5147031323475857,-1.1503374738645293,-0.16935713413513526,0.9511868797132611,1,left
6.492999999999999,0.056208864192194036,1.356295741824788,0.043496037667552265,-2.3427120440860048,2.5419928637359503,-3.521135450587148,-1.152037669578521,-0.16808045472543504,0.9529985457736497,1,left
6.494,0.06219170603805081,1.3476792575861998,0.069543347870444,-2.345551087083185,2.539850534567268,-3.5164841949708086,-1.1502815533051152,-0.1694362548787194,0.9511286412101371,1,left
6.5,0.07049555759405396,1.3437550447053148,0.095715796690363,-2.345571893942335,2.5428160767637014,-3.519444768719608,-1.1512072495643846,-0.16866098528328216,0.9521121494848859,1,left
6.501,0.07923719563673814,1.3456187541807583,0.1146532581809993,-2.342685277982183,2.5381676862141114,-3.5173162866974006,-1.1524456795178681,-0.16795237207154262,0.9534402317844882,1,left
6.502000000000001,0.08578704932496242,1.3561522774817503,0.12310314635092097,-2.3476714276295585,2.544591820363598,-3.5193808927887162,-1.1477469701175975,-0.17098774536164071,0.9484139182269221,1,left
6.502999999999999,0.09135406456013603,1.3723122659072315,0.12114357576564977,-2.342229625830525,2.5378394423707196,-3.5173868994461723,-1.1563302957514856,-0.16537035059164434,0.9575935461957081,1,left
6.5089999999999995,0.09522131800280478,1.3930886392656365,0.10542607423787556,-2.3455736647805505,2.541589488521719,-3.5182122590723375,-1.1453385697294527,-0.17258094307283794,0.9458380549600446,1,left
6.51,0.09620565124657773,1.4173358711907875,0.08321446065294988,-2.3474662930530013,2.5455694756090916,-3.5205421131593218,-1.1545024340039058,-0.1665618510188393,0.955639607009498,1,left
6.5120000000000005,0.09474129421884663,1.4437606710862552,0.05673313000647345,-2.3375631019167926,2.529376846935023,-3.5129948031523615,-1.1543014696248366,-0.1667215739683653,0.9554229023405587,1,left
6.513,0.0915666489700721,1.4719098895653757,0.026158990142084167,-2.3562207223764826,2.559182528478969,-3.5265130195150833,-1.1366749761857324,-0.17821011374575263,0.9365731200903316,1,left
6.518,0.08703719798203083,1.495548756489183,0.003416893672498416,-2.3321983645021973,2.52096412430922,-3.5092625461535456,-1.1799417802964953,-0.1499756154278766,0.982847088415018,1,left
6.52,0.08088497736555471,1.5180894725784673,-0.008806672061281759,-2.3522791575811306,2.552844499895521,-3.5236202100932488,-1.1082199172140417,-0.19678995301480406,0.9061363777415239,1,left
6.523,0.07813178885547517,1.5332792148282728,-0.01297345701649811,-2.3516355921294565,2.5520726756880014,-3.523399247719781,-1.2028168770510728,-0.13504064340975394,1.0073176345225632,1,left
6.524,0.07871833457892473,1.5370959728302245,-0.012394898009468074,-2.3136755459201575,2.4909973976622446,-3.495472992515483,-1.5999827561360314,0.12413965824048462,1.4320796814438244,1,left
6.525,0.079328804688236,1.5468035572221068,-0.008637796738201817,-2.407092897464125,2.6409932885254106,-3.563913907472549,-1.6945808949039622,0.1858921312558388,1.5332695602318942,1,left
6.527,0.09127077059551239,1.5560349767027999,0.0017599314653183565,-2.252174729411417,2.392338910224751,-3.450487905074466,-1.6228577537722169,0.13907437726047472,1.4565495224284801,1,left
6.528,0.10418898367143267,1.5568222846466173,0.008003759170948671,-2.4565103978614498,2.720288380407375,-3.6000906789557234,-1.666124081697725,0.16730755191425667,1.5028199381860827,1,left
6.532,0.10764580626503338,1.5578617132947137,0.00835541646155048,-3.3140950626631085,4.097220291370661,-4.228303628286918,-1.648501800871484,0.15583041046028984,1.4840011088776106,1,left
6.5329999999999995,0.1237140868343665,1.559236270955347,0.013498809443698804,-3.5184131881295153,4.425141903153683,-4.377924690095033,-1.6482917602195113,0.1556461928105853,1.483717811508046,1,left
6.534,0.1502909375379185,1.559707338310988,0.014782090127980894,-3.3635140065249804,4.176517669454492,-4.2644789001357815,-1.6574686478790568,0.16170038108977614,1.4936148388045036,1,left
6.537999999999999,0.17712432291236185,1.5579227945089842,0.010306875976259792,-3.4569385553305336,4.326525010990994,-4.332912294053225,-1.646463940977356,0.15445487032804073,1.4817642806102367,1,left
6.539,0.20722283042133594,1.5558359565781363,0.005707688568306204,-3.4189155939697984,4.2653497791526265,-4.305051663049955,-1.6550528904735353,0.1600872755405101,1.4909849162101931,1,left
6.542000000000001,0.238557576030793,1.5562520379347817,-0.006034142813312205,-3.418407428037141,4.264793035818869,-4.304689496038424,-1.650365275245411,0.1570820163737381,1.4860402654194096,1,left
6.542999999999999,0.2724626543965885,1.555597498748069,-0.022778197803412482,-3.438294061963206,4.29636501496465,-4.319249623489188,-1.6515678772371052,0.15769384631252392,1.4871053371231322,1,left
6.546,0.30586023586377353,1.552111234950757,-0.041902809147927406,-3.414465075702616,4.2584537269093286,-4.301797532835675,-1.6525553579685075,0.15863575112798672,1.4885419964681292,1,left
6.547000000000001,0.33678356421727684,1.5431330674162482,-0.06736409148680797,-3.4330392049072733,4.288126860825624,-4.315402754263774,-1.650723362097621,0.15707558200694277,1.4861159908393713,1,left
6.5520000000000005,0.3664129398255703,1.5263686722559298,-0.09442394663918902,-3.4229700899703768,4.271670583301491,-4.308028550179709,-1.6524841341601153,0.15851499372867545,1.4883709642536718,1,left
6.553,0.3973516536041707,1.5037596562047186,-0.11799642064661206,-3.4253974223046937,4.276499985332176,-4.309800739263789,-1.6511423807161318,0.15764241573504184,1.486939539257929,1,left
6.556,0.43048599018972694,1.4722296332524987,-0.1379313761616185,-3.4278200203072426,4.278786380914989,-4.3115870032045915,-1.6521693253841172,0.15777300265527328,1.4873474292680053,1,left
6.558,0.45816859925143183,1.4306120332258114,-0.1573218667242298,-3.423509188821086,4.273830346731469,-4.30841371381913,-1.6511595202587506,0.15834620450981893,1.4878447168341564,1,left
6.562,0.4820387505966392,1.3833466523381328,-0.17191271565855576,-3.427593478022657,4.2788222329710806,-4.311418549501736,-1.6523455638493534,0.1572827540040988,1.4867606323740814,1,left
6.562,0.5049522321055719,1.330390757532566,-0.17793578314029473,-3.424699277620257,4.2741613458586825,-4.3092983596733205,-1.6511411005469157,0.15845459107939525,1.4879797922223736,1,left
6.566,0.5229206601672964,1.2714607593549343,-0.17828216195906302,-3.426392659405843,4.279784148261348,-4.310514314233922,-1.6517424872136288,0.1577173003597494,1.4871751424622537,1,left
6.567,0.5350421319135756,1.2113243160276657,-0.16867976234748489,-3.4254084945926406,4.271568613070901,-4.309850252044653,-1.6527284987434263,0.15738221647809447,1.4869787975051056,1,left
6.571000000000001,0.5408990722211862,1.1549139684373473,-0.15876107671245152,-3.426186053246587,4.282714881456352,-4.310334196521854,-1.6491792214218632,0.1593387125929991,1.4886513640780425,1,left
6.571000000000001,0.5455847766982236,1.1004806451848295,-0.14380091217559154,-3.4254851132766633,4.271039173696918,-4.309912875360643,-1.6556225417805086,0.15562387175151338,1.485403553500846,1,left
6.577000000000001,0.5474802752290744,1.0511393355093914,-0.11366707294169183,-3.4256880557133735,4.277459580484895,-4.310007084689934,-1.6473809615541586,0.1604106812647787,1.4896056200106647,1,left
6.577999999999999,0.5383716025540699,1.0106363202615474,-0.09667822974644222,-3.4268662611942906,4.28460899836667,-4.310826825833066,-1.65424741215376,0.156411238221009,1.4860861174978397,1,left
6.581,0.5215323265637046,0.9700522945096547,-0.07958363292279647,-3.4233502053262135,4.255962186365355,-4.308448566556544,-1.6541130758402107,0.15653925118887152,1.4862281419734686,1,left
6.582000000000001,0.5057900229404633,0.9345840738422609,-0.038253662762625346,-3.4295766722684906,4.308612050946028,-4.312640371262791,-1.6408542236761394,0.16409031442839275,1.4927816428939802,1,left
6.587000000000001,0.4989302724536075,0.9090482911145876,0.00498235408747027,-3.4216449108903215,4.241112423980234,-4.307307521390291,-1.6733792134938534,0.14551723938158523,1.4766227355621555,1,left
6.5889999999999995,0.4931716937055751,0.8844430381776464,0.04420171161288103,-3.4282447407548267,4.297423823002984,-4.311738810142154,-1.619471227699944,0.176303971491316,1.5034234634743808,1,left
6.59,0.4862624179760012,0.8703481898413586,0.06851950309393845,-3.4281581439852973,4.296059690774137,-4.3116972042250605,-1.6905690621886533,0.13571358510315232,1.468079331931225,1,left
6.591,0.4851081768444051,0.8666168364557995,0.07263274535607833,-3.415261323257519,4.188154525479532,-4.302992755558876,-1.9891318521482955,-0.03482411221380412,1.319714982947589,1,left
6.5920000000000005,0.4833235602388682,0.8546573175647189,0.0803623416046498,-3.4468615737925363,4.453189149048862,-4.324292921376263,-2.060226749014361,-0.07538068046896687,1.2843891138482006,1,left
6.595,0.4906015363467948,0.8347745545418414,0.09288996265006288,-3.394480455982009,4.0137902268376,-4.289002973078636,-2.0063219431780657,-0.044630539150836784,1.3111700860177313,1,left
6.595,0.5018062110120549,0.8216775876133372,0.0988578151976428,-3.4635864799228235,4.593361283639405,-4.335544770069195,-2.0388481359921222,-0.06321752382086004,1.2950036530879605,1,left
6.6,0.5064471456588125,0.8174585720824661,0.10206763500636651,-3.7536000644989587,7.026226794539333,-4.531054171397111,-2.0255787530534963,-0.0555451044996191,1.3016227177691104,1,left
6.601,0.5266618961930708,0.8030063819482991,0.11333443151659553,-3.8227493119346976,7.6058361461041875,-4.577599367085609,-2.0254670830302466,-0.05567821303486392,1.3016236883727395,1,left
6.602,0.5589113355554534,0.7767079571026019,0.12955129870873727,-3.770321437026646,7.166395806615281,-4.542305749559084,-2.032301028364334,-0.05930325396524571,1.2983064166120537,1,left
6.606,0.5913237009971755,0.7538704086242045,0.1437902086417453,-3.8019038734048998,7.431414618473715,-4.56360448871091,-2.0240918245988277,-0.05488927939265342,1.3023071183360981,1,left
6.606,0.6264101700616643,0.7276666169776929,0.15975437863958403,-3.789162234131094,7.323646998995414,-4.554912295531497,-2.0305211602578837,-0.058443232946206645,1.2991461653773042,1,left
6.61,0.6579853397934512,0.6948364736811161,0.17237468895446562,-3.7887417835606207,7.321986993637241,-4.5548443591344965,-2.0269441151231264,-0.056166615765915945,1.30099170975711,1,left
6.611000000000001,0.6866181720271447,0.6650382720047201,0.18122692852919933,-3.7958202610565204,7.378722555396177,-4.55931336942951,-2.028019633286302,-0.05753296048680094,1.3002382650827333,1,left
6.6160000000000005,0.7151986478866907,0.6349391786604281,0.1917207796415687,-3.7874119052237907,7.310800624935014,-4.55394299552381,-2.0284667629127515,-0.056493310544313,1.3003934590447466,1,left
6.6160000000000005,0.7436216051520474,0.6048818090336767,0.1990490994564662,-3.7938439419859566,7.3636325681007495,-4.5581509191919505,-2.0274516470880313,-0.05750226228342502,1.3004347163277008,1,left
6.62,0.7726732204903197,0.5805211250564257,0.20165305379926118,-3.790737308962017,7.335348710033854,-4.555805048070569,-2.028486680859219,-0.056827027523958865,1.3002896134311146,1,left
6.621,0.8017616093460854,0.5583840841284884,0.20120729070027585,-3.790596936035029,7.341329499015429,-4.556520743351243,-2.027475651662507,-0.056238457893863725,1.3007954973341063,1,left
6.626,0.8304302944750017,0.5409233580044845,0.19942676504576917,-3.793071681613977,7.349763191960271,-4.556794066053507,-2.0287825515754823,-0.059334120840815636,1.299460361497757,1,left
6.626,0.8623985197980145,0.5287487550371636,0.19638265071473043,-3.7895828424595748,7.335617006984223,-4.556153099898557,-2.026800786549053,-0.05283341505040576,1.3020119156731698,1,left
6.631,0.8979820185918097,0.5185351878756957,0.1903474219843061,-3.792582790397393,7.348732366367452,-4.556811899011397,-2.02951652891905,-0.06239392932837099,1.2983252635617135,1,left
6.632000000000001,0.9290421087108343,0.5127344550423841,0.1821689528802216,-3.791619025981517,7.3405355132291135,-4.556149986509939,-2.0266662950134355,-0.05222768897977234,1.302232765169643,1,left
6.635,0.9584782588748929,0.5082896438986809,0.16921138846172615,-3.789186874813967,7.342501601135062,-4.5570401003897505,-2.0282424773092536,-0.058061607794842485,1.3000106644968155,1,left
6.636,0.9916041871633657,0.5048088930716221,0.1553601969514995,-3.795719809130983,7.346195464843397,-4.55566349181756,-2.029951420153373,-0.06328984381083713,1.297919416754676,1,left
6.64,1.0220006283782495,0.5026573128360445,0.14884059497248134,-3.7857412107119965,7.338725070043797,-4.5575598854321315,-2.023045428178479,-0.04073435644599478,1.3067833354564318,1,left
6.641,1.051285892961026,0.49955137890778273,0.1465083131861648,-3.7964206916865613,7.347052102727086,-4.555567167358599,-2.035749373728109,-0.08250538745481904,1.2903979083680497,1,left
6.644,1.0808499294905771,0.4971793933845251,0.14743976692821836,-3.7901838057969357,7.341667091218462,-4.556673107626894,-2.0194598210735695,-0.02888178180554381,1.3114247394142462,1,left
6.645,1.1030243279515388,0.49278328924737835,0.14916413845074164,-3.785140299015613,7.339872291521813,-4.557853142317794,-2.0330502166146216,-0.07364534378422125,1.2938770774298471,1,left
6.649,1.123511204702388,0.4879993989008252,0.14517240944548745,-3.8077542315374164,7.352383024062151,-4.553058505553756,-2.032717339317707,-0.07245133986049544,1.2943296827783284,1,left
6.649,1.1449271559571326,0.4855286256616887,0.14230305177362507,-3.7657226723872137,7.328346370166231,-4.561884875484799,-2.0066874858096666,0.012964116391372321,1.3278589611766312,1,left
6.654,1.1628321969480844,0.4805087566657946,0.1398807964823382,-3.819709053925826,7.359391328586981,-4.550564112802836,-2.0706254364094825,-0.19695844850083052,1.2454781586998631,1,left
6.655,1.1826495774844445,0.4755808994017606,0.13153895522613243,-3.7746392929886,7.333409483966788,-4.560012770309485,-1.9646226123284394,0.15110113640521858,1.3820570775408778,1,left
6.66,1.1955642252033245,0.4748157529004199,0.1259047422267258,-3.7758713233626757,7.334377410850944,-4.559772095155895,-2.1044407054822254,-0.3079919123446537,1.2019174016053396,1,left
6.6610000000000005,1.1987803483073596,0.473903394052172,0.12327513207180464,-3.8617501507793404,7.38302510579194,-4.5416984185487514,-2.691356920929586,-2.2350046585053285,0.4456798199673037,1,left
6.6610000000000005,1.2080968483158858,0.47124744893810167,0.11792646489252444,-3.6506755879639874,7.263168147582965,-4.586110795831372,-2.8311826394291617,-2.694108723167532,0.26554907016104407,1,left
6.662999999999999,1.2206064934314136,0.4682419524459371,0.11005856265428758,-4.000622286230017,7.461940407453125,-4.512467062024002,-2.7251715637453455,-2.346037219913984,0.4021183288720382,1,left
6.664,1.2265661669568453,0.4654333818170849,0.10334641280612747,-3.5390789398579017,7.199799441143792,-4.60961546614305,-2.7891063817980637,-2.555955251301996,0.3197338627092655,1,left
6.669,1.2292378561198267,0.46440184564220754,0.10151825022286667,-1.6014014286138096,6.099365475339246,-5.0172766742508195,-2.7631038839270365,-2.470579330889043,0.35329515659196176,1,left
6.67,1.2340153097532889,0.45978970542486,0.09555951514985839,-1.1399211467321622,5.837337209323163,-5.114450325893637,-2.7627121403452577,-2.4693002613860893,0.3536788637292343,1,left
6.671,1.2366570693647068,0.44776841453249056,0.08877308289231767,-1.489799616273855,6.035987550334876,-5.040779280401907,-2.776386943941347,-2.514185789528147,0.3362299980914616,1,left
6.672999999999999,1.2352704489875121,0.4340065407736525,0.09049285324786631,-1.2786990924561754,5.916084161834257,-5.085181252607431,-2.7600133313001045,-2.460440731804318,0.3571584357379521,1,left
6.6739999999999995,1.2353355439502571,0.41614049888854715,0.09102345054552827,-1.3648042719387083,5.965136437313067,-5.067198218997849,-2.77275356051024,-2.502264165702277,0.3408154874558097,1,left
6.678,1.2335407322465053,0.3902287881425789,0.08961860802275873,-1.3655492917981362,5.965233934075882,-5.06676253596722,-2.7659197211074,-2.4798129739596937,0.34976384270316413,1,left
6.68,1.228459295659837,0.3576231667633717,0.091671716965008,-1.3211777934829558,5.940500048792112,-5.076490777605144,-2.767396187877341,-2.484705250847255,0.34740050704495007,1,left
6.684,1.2231984567328844,0.3192060294226232,0.09561865043517703,-1.374468865710174,5.970302376153686,-5.064891629455566,-2.7693729660055815,-2.4911180378425097,0.34564727875807955,1,left
6.684,1.2124739311371924,0.2796371944737142,0.09547662041331334,-1.332737292652686,5.946801753409943,-5.073838076742145,-2.766031068951012,-2.480241384813808,0.3489792996239781,1,left
6.688,1.1935270074871274,0.2389267872515342,0.08541589684605032,-1.3559483576557876,5.960379873054089,-5.069282586905613,-2.7691388360635205,-2.490368268753159,0.3457515332166777,1,left
6.689,1.1723850017037973,0.1983168784809992,0.0723809223794864,-1.3489814304056802,5.955147286230106,-5.069692425560402,-2.7671604561974625,-2.4838726232185637,0.34830698204318034,1,left
6.694,1.1513107631702266,0.16239036149379427,0.06448643350063676,-1.3460586163581238,5.955685405785146,-5.072125353436032,-2.767740110326817,-2.4859172239454175,0.3461207221572017,1,left
6.695,1.1248713845586946,0.13063924555361828,0.06502330141959756,-1.35267096649163,5.95674361185727,-5.068504187070688,-2.7683912764975487,-2.4877306573903635,0.34857206122291884,1,left
6.6979999999999995,1.0893787894992077,0.10175549991067728,0.07313626642223797,-1.345934781706572,5.955067767415612,-5.071698711392683,-2.7669464265259083,-2.4834720433462403,0.3455243710998864,1,left
6.699,1.045522218685429,0.06991056542969357,0.08581992413097236,-1.3524968403681505,5.958814442440001,-5.070334009495051,-2.7685751206733427,-2.4883009391696453,0.3486602050010122,1,left
6.704,0.9936500396108703,0.037655273949847565,0.10868281405587599,-1.3440471003190693,5.950024686149812,-5.068814359876901,-2.767494340979959,-2.485054193374694,0.34702677474753946,1,left
6.705,0.9399832059537204,0.0077273269631548906,0.14400316025102944,-1.3568351118905215,5.966406386725696,-5.073658944715451,-2.767253737985711,-2.4845177217504553,0.34473328714481444,1,left
6.709,0.8904703416141041,-0.026163916470012517,0.18828128117008058,-1.339319977359508,5.942856242234896,-5.066103436315554,-2.769438714802785,-2.490568229923053,0.3533225663064318,1,left
6.71,0.8417482609983009,-0.05772633855979758,0.24088191539683873,-1.357700296997456,5.967794268968792,-5.074218514990051,-2.765181480109895,-2.4786796476099235,0.33765373486337447,1,left
6.712000000000001,0.8015631605611835,-0.08712559632042262,0.2953076254386282,-1.3475398937239678,5.95364895002024,-5.069433686747436,-2.7706951731323137,-2.4940944580959172,0.3577166788828511,1,left
6.712999999999999,0.7747792513495031,-0.11910050577299722,0.3435510703498918,-1.3365048594014612,5.94015367314227,-5.065785629587922,-2.7660713997148343,-2.4811656885922986,0.3409876842936064,1,left
6.718,0.7531118464444457,-0.14963327081932082,0.38452469305987835,-1.3810725038451426,5.997080359516504,-5.082530272186084,-2.7662724616773815,-2.4817463206636265,0.3413565576274079,1,left
6.72,0.7411905179097361,-0.17896060647758943,0.4139919327174387,-1.2990945673972978,5.891899265387661,-5.051337692690597,-2.774844543892777,-2.5056398926431074,0.37353758702763523,1,left
6.723,0.7376339162471354,-0.20710071760780907,0.4340925014989544,-1.4042065311619032,6.026863144624616,-5.09142027941604,-2.753681511077411,-2.4466427218023408,0.2945326338496346,1,left
6.724,0.7353083834492781,-0.23594139802668357,0.454969121762311,-1.3165160821160147,5.914235092067344,-5.057947305001355,-2.788800669191662,-2.5445295387248685,0.42551139615857503,1,left
6.727,0.7355306397094141,-0.2543810837711312,0.4676408157170664,-1.3186526448170994,5.917123144071686,-5.0588961122487355,-2.742467544392253,-2.415416134315584,0.25273889011697753,1,left
6.728,0.7343711579986273,-0.258410060141522,0.4702528367302189,-1.4866355692089337,6.132384197712228,-5.122576128733076,-2.548136530901049,-1.873771863127903,-0.47252498699001433,1,left
6.728,0.7279043840357214,-0.27108762582361257,0.4760029357839613,-1.0740354379910424,5.603510972625649,-4.9660135043660105,-2.5017876330584583,-1.7446980746125877,-0.6453461431017751,1,left
6.732,0.7136693053017513,-0.28852872223483284,0.4800414774429687,-1.7580701905307534,6.480324581517236,-5.225606469857091,-2.5369358158355775,-1.84253730928291,-0.5142969618941506,1,left
6.733,0.7031644189896509,-0.2940268883277648,0.4813956415716718,-0.8558413292589223,5.323857185986782,-4.883213511502158,-2.5157369135826233,-1.7835405566738745,-0.5933448825781193,1,left
6.7379999999999995,0.7001864433503007,-0.29640502550145,0.4818115461414778,2.931633948235662,0.46892645829171564,-3.445979487110975,-2.524339717109024,-1.8075418356082027,-0.5612085995653866,1,left
6.739,0.6855130656456125,-0.30085680888902977,0.47505344894984525,3.83388652064178,-0.6874883970166812,-3.10360902031693,-2.5245330201055913,-1.8078676945701042,-0.5606566980497467,1,left
6.739,0.667577184828863,-0.30060384233164106,0.46413353486620035,3.149826114095587,0.18926837386357032,-3.3631776513603038,-2.5198736608068386,-1.795322655095208,-0.5777175737912139,1,left
6.742000000000001,0.6563351630173495,-0.2933902440605418,0.4494454729253675,3.5624164887263934,-0.33962649623198743,-3.2066057720396537,-2.525481139108048,-1.8103323196561347,-0.5572373837907276,1,left
6.744,0.6444260461518826,-0.2799781090543211,0.42667814954363686,3.394518659865838,-0.12417683057366949,-3.270366507595999,-2.52107507945961,-1.7986613202385873,-0.5732473713255806,1,left
6.747999999999999,0.639653908070763,-0.2576858305214391,0.39782707055442657,3.392199002939635,-0.12169456643515483,-3.2711416374114726,-2.52342921700623,-1.8049611752008068,-0.5646451047417732,1,left
6.749,0.6421949483370973,-0.22651980434429447,0.36770354779521747,3.4801519723090912,-0.2337408293170253,-3.237917681318935,-2.523073238014886,-1.8034519473424164,-0.5663417331983143,1,left
6.751,0.6463259997093659,-0.19299529213177608,0.3365683517712196,3.374778592644233,-0.09935625647103942,-3.277752297607372,-2.521947444641559,-1.8019775348791582,-0.5693661086312429,1,left
6.752000000000001,0.6544772616597105,-0.15887988792314534,0.30212766215725256,3.456869326035256,-0.20428745508094237,-3.246666713053682,-2.523890234043031,-1.8045291631451081,-0.5641383397280186,1,left
6.757000000000001,0.6678197957288576,-0.12096182002961234,0.2673241851035193,3.4125261605978636,-0.14686316296941335,-3.263624290107128,-2.5218083916145257,-1.8022386816793734,-0.5694286415829015,1,left
6.757999999999999,0.6828356264886254,-0.0810467966558252,0.2359648193780758,3.4228380832094087,-0.16196110887710619,-3.259290311516607,-2.52334359261115,-1.803718481737425,-0.5656743449204193,1,left
6.761,0.6970412487843498,-0.04064210447973137,0.20611880672597843,3.434244439567471,-0.17334510819773635,-3.255687354767793,-2.523064652764141,-1.802916214317877,-0.5667332732758535,1,left
6.7620000000000005,0.7143118540748803,-0.0006250116122274302,0.1763176396189236,3.4143350217667834,-0.15179575755001856,-3.2623519807237416,-2.521433983447433,-1.8035638437444454,-0.569154752132043,1,left
6.766,0.7308883783870446,0.03701705229395143,0.14791405306104521,3.433069229002842,-0.17264451841703782,-3.2559528431728264,-2.525318015777066,-1.8025229833919274,-0.5630321803542526,1,left
6.767,0.7453647263598246,0.07377515493409527,0.12032151204371203,3.42029207722182,-0.156238208629957,-3.260807733479276,-2.519560575967168,-1.8041782111982734,-0.572029135089215,1,left
6.771,0.7615882593325616,0.11055750714399548,0.09572327979333409,3.4264795499069676,-0.17004224759765668,-3.2571421642466305,-2.5256493800754205,-1.802278016638241,-0.5626197390636394,1,left
6.772,0.7741505649819076,0.14636440469210193,0.07440329026462084,3.425087531820621,-0.15483724080066652,-3.2606816017792637,-2.5221308263798363,-1.8033745888296613,-0.5680583320709951,1,left
6.776,0.783575087413868,0.17988769696471923,0.05497113906571761,3.424110850380706,-0.17360627555329256,-3.256559947025,-2.5192054515508855,-1.8046202584716344,-0.5723443209718474,1,left
6.777,0.7923903028570868,0.2103520866694562,0.04064070027422952,3.4257206057978973,-0.1543272763562215,-3.260738001988792,-2.5321475248449206,-1.799557310967994,-0.5530664004920054,1,left
6.781000000000001,0.7980161957697052,0.23755239652707918,0.028810936975264545,3.4238927354565183,-0.16431536957047066,-3.2586645939615906,-2.5081395618968765,-1.8089274203113614,-0.5888430730046781,1,left
6.782,0.8022132658671277,0.2625649064830887,0.01690968416759506,3.426764235101179,-0.1786274960423033,-3.255189627523717,-2.5389578262924557,-1.7968706415570979,-0.5429378803371259,1,left
6.7860000000000005,0.8057360412018879,0.28451885413446143,0.0066518618149069,3.421476270854198,-0.12532489888249548,-3.267635421180825,-2.5132335685049263,-1.8069478605271283,-0.5812458500812456,1,left
6.7860000000000005,0.8089121895649065,0.30179867441963637,-0.0009266557281861306,3.429969439199443,-0.22249003510070015,-3.245053010821218,-2.513940436696978,-1.8067060529174794,-0.5801687298572201,1,left
6.791,0.8112599545591777,0.31694519938673493,-0.005285011487460127,3.41935796974474,-0.09810373111540556,-3.27393826837836,-2.562945003335532,-1.7873577007432957,-0.5072981218595608,1,left
6.792999999999999,0.8103492496832403,0.32871643262033523,-0.00828137302769752,3.428098551367194,-0.20179396094241148,-3.2498683874558814,-2.4424902938993363,-1.834890718060184,-0.6864341764188631,1,left
6.795,0.8097356590691571,0.3373408008892904,-0.007640517242083887,3.4283176973201632,-0.19957569997523808,-3.2503468502777206,-2.6422087868965525,-1.7560762043362845,-0.3894216193271119,1,left
6.796,0.8102162277809178,0.34343912017969147,-0.004874096614490422,3.4101539415823363,6.942249003254186e-05,-3.29681164615879,-2.378782474964889,-1.8600391107980996,-0.78117355562598,1,left
6.796,0.8098846106114668,0.3448332350254805,-0.00422639618819072,3.454263483372558,-0.4899395671358106,-3.1828099643636416,-1.273019818152739,-2.2964598446450655,-2.425620772203036,1,left
6.8,0.81363619560717,0.3471976980691559,-0.0022514849469239743,3.3812626939713457,0.32233725145214265,-3.3717786604705013,-1.009582948477271,-2.400424978983567,-2.817399824715787,1,left
6.801,0.8186705295150805,0.34994793557283493,-0.0006595872117375155,3.477544557624636,-0.7490349585339924,-3.1225322161989473,-1.2093270974832349,-2.3216130845146097,-2.5203182584621437,1,left
6.805,0.8195580766070143,0.34985503282087915,-0.000984962902824439,3.8823334318777434,-5.246944511078975,-2.0760761793632954,-1.0888263179395172,-2.3691273697433113,-2.6995836716098296,1,left
6.806,0.8218775853748097,0.35083002024176313,0.0012148757476828549,3.978688213521575,-6.318381007629155,-1.8268019006158016,-1.1378969290489067,-2.349823741577772,-2.6265206902001887,1,left
6.806,0.8275526219266656,0.3510049591394596,0.00205802782827961,3.9055986724309557,-5.506042066188195,-2.0158045662886455,-1.1385311276414765,-2.3495102401899857,-2.625663959274171,1,left
6.811,0.8340154990366097,0.35010470360143886,-0.0035176970271933432,3.94971313037406,-5.995998281567954,-1.9018006855519252,-1.1128554763671652,-2.3596706121002304,-2.663810868180911,1,left
6.812,0.8406440052975479,0.3497778979589841,-0.00937213439420256,3.931739074754461,-5.796638138142903,-1.9481937330470607,-1.1436947675592615,-2.347555560079072,-2.617872546775007,1,left
6.815,0.8479597571413244,0.3489285566250331,-0.013849094416104582,3.931501960081051,-5.793842960497837,-1.9488453752107262,-1.119548814094804,-2.3569052706153775,-2.6540228314786134,1,left
6.815,0.857258988038463,0.3494688398252565,-0.022128496050563568,3.940935235576887,-5.898331346882172,-1.9245121351426897,-1.1327698721750563,-2.351997288615525,-2.6339454555424484,1,left
6.821000000000001,0.8635359137617574,0.3516580697910025,-0.029825440637781968,3.929585882873436,-5.77318650315547,-1.9536784501426865,-1.1294568784179937,-2.3529243260232007,-2.6393822664739712,1,left
6.822,0.8650184056907613,0.3579562200023888,-0.03394003977179188,3.9384867699936974,-5.870611600776304,-1.930939842570435,-1.1263160003701715,-2.354467350492124,-2.6436468246345064,1,left
6.8260000000000005,0.8663877789789556,0.3680039547253234,-0.036312492277255075,3.9336265699385113,-5.8181155356102545,-1.9432247724248561,-1.1322496464592784,-2.3521282945441637,-2.6348188043714185,1,left
6.8260000000000005,0.8647713259410208,0.3741904323106027,-0.03490717406813419,3.934765997008913,-5.830096514791984,-1.9404064394469704,-1.1261549528191996,-2.353970241909504,-2.6446371441419547,1,left
6.831,0.8590623028684646,0.3798877139770286,-0.032888030276687324,3.936123550570115,-5.843949778701617,-1.937123046621003,-1.1310977579271966,-2.353307160553162,-2.635562126082487,1,left
6.832000000000001,0.8518414525422988,0.3863406961284354,-0.03291523556618653,3.933610633853111,-5.8200880623377635,-1.9428694694907094,-1.127655837345411,-2.3527444381830476,-2.6432531110556976,1,left
6.835,0.8419161503078744,0.3876863221901959,-0.029989879160672826,3.9362393226034826,-5.842270535781687,-1.9373728873327578,-1.129592983624811,-2.3540280451698035,-2.637630144638535,1,left
6.836,0.8312372017809085,0.388807781718742,-0.024072248635592833,3.934146351844824,-5.827648503672992,-1.9411866732673138,-1.1293580344873102,-2.3529371332533344,-2.6395639229872057,1,left
6.8389999999999995,0.8171379353213386,0.38964282344287215,-0.01631834260884153,3.9353244083869265,-5.833850910931624,-1.9394153352656027,-1.1272930579185885,-2.3527324391102282,-2.644000747970144,1,left
6.84,0.7973394455150886,0.3866929715174483,-0.0030420662481924826,3.935326142438011,-5.833813849711784,-1.9394210338725324,-1.1323989344421173,-2.355181300146486,-2.630429981793779,1,left
6.843999999999999,0.777800335779577,0.3853301663277076,0.01638373895086481,3.933928046394692,-5.831047558855841,-1.9406737505782472,-1.1240763792573432,-2.350186837762352,-2.653892238153129,1,left
6.845,0.7565229236562252,0.3854612562344069,0.039542967637934884,3.9367919172204577,-5.8336836808053105,-1.9386684764172977,-1.1342539493077064,-2.356801443605775,-2.624522568240848,1,left
6.85,0.7320892191397331,0.3838647910505561,0.06402951924115421,3.9327927598492916,-5.83278733459988,-1.9409535002697378,-1.125975366051848,-2.351192317052396,-2.6487173283649312,1,left
6.85,0.7046487365586989,0.3874426316712768,0.09472185606068437,3.9368959460847983,-5.831968250547092,-1.9389306055539284,-1.126009482187294,-2.3514209371509027,-2.648345098481319,1,left
6.856,0.6771314402308884,0.3946566362630859,0.12875513540567987,3.9345767698853336,-5.833007714511024,-1.9399675049643788,-1.1421479240559167,-2.3619729146593604,-2.6016854789453374,1,left
6.857,0.6529064301976457,0.40015936514481054,0.16046958533702171,3.932596960805886,-5.83414374241627,-1.9408061222463229,-1.1028227155627608,-2.3358988553477333,-2.715861537830374,1,left
6.859,0.6219253696565414,0.4122871971345494,0.19834810969998407,3.941196115435405,-5.82849732019732,-1.9372942085804195,-1.167861344010183,-2.3791991920503905,-2.5267970922808756,1,left
6.86,0.6008968143715654,0.42190689601174847,0.22254702710944718,3.9253093839979964,-5.839617882991723,-1.9436554779195776,-1.082158167302299,-2.322049298405525,-2.7760492617921733,1,left
6.867000000000001,0.5955650654166034,0.4258574798749276,0.22871833542441358,3.94566619184003,-5.824890010919366,-1.9355922264399554,-0.7224292752831909,-2.08215964687788,-3.8222695718141066,1,left
6.867000000000001,0.5761316324581034,0.44042308118520634,0.25170225213504793,3.9286920249388992,-5.837378709819573,-1.9422780270331566,-0.636778739945248,-2.0249738255089156,-4.071442852353234,1,left
6.867999999999999,0.5522645527666419,0.4617782141795367,0.28124957498205877,3.929146817001156,-5.8370774067089,-1.9420905817688898,-0.7017055484703572,-2.0683451084725024,-3.882545767700706,1,left
6.869,0.5367950457456925,0.48261501940079715,0.3006830685951538,3.961493009052971,-5.812824341075903,-1.9294393553823361,-0.6625530133475356,-2.0421722233499313,-3.9964638133534294,1,left
6.869,0.5223617828541551,0.5063814647432554,0.3177984858527594,3.882013611081098,-5.872526582983605,-1.9605093189430964,-0.6784797372794918,-2.052829478382516,-3.9501199159334144,1,left
6.872999999999999,0.5119142422095033,0.5386967889483796,0.32850158681705155,4.0137740336731085,-5.773429772226937,-1.9090216626209358,-0.6787017419700674,-2.0529880519806323,-3.9494684297832654,1,left
6.875,0.5057125478878703,0.5605062405658274,0.33243752451432274,3.839998006885463,-5.90422076422049,-1.9769123096089685,-0.6703680425501117,-2.047354085256602,-3.9737433019992605,1,left
6.875,0.503248344400918,0.5657396702599031,0.3332174786274007,3.1104004333993185,-6.453855271473635,-2.261793116310332,-0.6803328541905,-2.054149903749553,-3.9446939072429608,1,left
6.879,0.500169422075835,0.5880294156041663,0.33126656748389244,2.936624764898117,-6.58474439438633,-2.3296630849295754,-0.67259908248331,-2.048786679858911,-3.9672751224261122,1,left
6.879,0.49463906936039775,0.6185198494442068,0.32229675822193016,3.0684055491204907,-6.485447095139033,-2.2782122872196684,-0.6767425302306687,-2.0517494771057505,-3.9551409753481805,1,left
6.882999999999999,0.4919198209448635,0.6398271280967691,0.30681347445929497,2.98885250919216,-6.545443030453301,-2.309239450238984,-0.675807646574194,-2.0510411250197556,-3.95789488090964,1,left
6.882999999999999,0.4928729709533808,0.6629253348449122,0.293039771545029,3.021351503385162,-6.520853421602702,-2.296619790842344,-0.6747441450829738,-2.050164093678796,-3.9610563444446067,1,left
6.888,0.49245128620860934,0.6822623674565524,0.27875837405710224,3.0215787437186696,-6.520816118764559,-2.2964350935575397,-0.6765097744771025,-2.051879745775355,-3.955702950826704,1,left
6.888,0.48966388128526933,0.6957656592966693,0.26255002631945923,3.0048498019853187,-6.533294679115091,-2.303060373624973,-0.6749807199638215,-2.0499348551584564,-3.960524242452957,1,left
6.893,0.49017818393465773,0.7066870323275478,0.24827161203195985,3.025063638272923,-6.5181167338369175,-2.295128067615825,-0.675850131828085,-2.0516487038998275,-3.957537614152602,1,left
6.893,0.49167409856698235,0.7170730727236416,0.23676324638258037,3.0090506362036753,-6.530286055343581,-2.301301576645082,-0.6755929918532805,-2.0505736540566257,-3.9586501973806714,1,left
6.898,0.4907033887149163,0.7269349501853755,0.23083372454931939,3.018205658954696,-6.523056921101475,-2.297979692142188,-0.6755979179829731,-2.05056903699517,-3.9586388955588183,1,left
6.899,0.48896491568158146,0.7306658938364112,0.2302645607797016,3.015180358273599,-6.525903775207374,-2.2987264870006436,-0.6753767677239094,-2.052097041075395,-3.958606624217733,1,left
6.903,0.4878565764014516,0.735182683666904,0.2312143046697937,3.014239559860294,-6.525918254985077,-2.299626284172671,-0.6761769557704661,-2.0488017822200506,-3.9578230547254667,1,left
6.904,0.48427603809826586,0.7430913875604621,0.2318502026057933,3.017100496163376,-6.524315554297903,-2.298085140734293,-0.6747404069275258,-2.0535557347211055,-3.9596981388047308,1,left
6.909,0.47543381028153875,0.7483585362816285,0.23122809553094875,3.013420189638686,-6.5270929814546825,-2.299517988737076,-0.6764137848542988,-2.0485825163024325,-3.9572865446678436,1,left
6.91,0.46736122042538414,0.755080292997405,0.22825839023801087,3.0178332664240077,-6.522744255860543,-2.298582288139335,-0.675401393572987,-2.0514260582617543,-3.958811711465447,1,left
6.914,0.4584338337507894,0.7667071141133684,0.22449301026552304,3.0122950022172743,-6.529256783430218,-2.298946091133603,-0.6745103358334144,-2.053863691105943,-3.960181950256579,1,left
6.914,0.44638518035806396,0.7797546643409885,0.22269578481266342,3.0189556304451957,-6.520747586740853,-2.299028013336511,-0.6784656785683705,-2.0432298686492154,-3.95402767194835,1,left
6.917000000000001,0.4351368277663421,0.79276833757576,0.2206197391968785,3.0124415083617038,-6.529377553773415,-2.29871251165786,-0.6710778488149161,-2.062916419206005,-3.965592025295605,1,left
6.917999999999999,0.42320576934985366,0.8084727078349674,0.2186062217550132,3.0158119448631213,-6.524686022960463,-2.2990472542952363,-0.6806007640304044,-2.0376611589790494,-3.9506383237914844,1,left
6.922000000000001,0.41292521173836494,0.8262870605827873,0.2170653879757282,3.019940503185147,-6.519725422520264,-2.2988618254673776,-0.6726340039559834,-2.0587363048178706,-3.963167650215877,1,left
6.922999999999999,0.4034646427254319,0.8459904440236166,0.21226434653118179,3.0041290222308863,-6.539745553160083,-2.2987996876101917,-0.6728493808508484,-2.0581612483803284,-3.9628362877718115,1,left
6.9270000000000005,0.3941333484500078,0.8656303332291796,0.20846409618246942,3.0329176691652164,-6.503015888622162,-2.2991202298241284,-0.6880689608346803,-2.0180051932142193,-3.938845067259286,1,left
6.928,0.38653199098965996,0.8834695730333073,0.20590650246863576,2.99614495571657,-6.550037274909375,-2.29863623586148,-0.650648634233829,-2.1167041364857146,-3.997835242365593,1,left
6.933,0.3770539977348413,0.9058151105128122,0.1996875320431407,3.026761553696686,-6.510837734473005,-2.2990683398551486,-0.7127053247066575,-1.9530591012405245,-3.9000007907022853,1,left
6.934,0.3713283169238567,0.9212678337360545,0.19575174562841594,3.0260623834397835,-6.511815717676084,-2.2990160873393086,-0.6308436351821044,-2.168904220325077,-4.029063923296945,1,left
6.935,0.3695327419497724,0.9254495512123335,0.19589712156535422,2.9673395532632973,-6.586785378060423,-2.298302468614155,-0.28725807587895846,-3.074797270252155,-4.570930566575271,1,left
6.938,0.3632678445465198,0.9415620332253887,0.19415737226565138,3.11148287290104,-6.402632127461837,-2.300109877873002,-0.20539145787561822,-3.2906341544752955,-4.700015635081948,1,left
6.938,0.3529243186541987,0.9640629622708757,0.19327157494052954,2.872562554804209,-6.707934025072338,-2.2971003686779854,-0.26745094638197686,-3.1270134003592736,-4.602138561992947,1,left
6.942,0.34527758355111754,0.9724054035326619,0.1956296222670863,3.1876638457375703,-6.305239731709836,-2.301063880712764,-0.23004162427282407,-3.2256612858244846,-4.661186612998757,1,left
6.943,0.3434888643231478,0.9763542549361681,0.19594840418923665,4.510442537470842,-4.614975498606033,-2.317747230609686,-0.24522501054187062,-3.1855879231702398,-4.637136192533809,1,left
6.944,0.3368739775548182,0.9880523407800965,0.19736623869176725,4.825517715132022,-4.212228717853252,-2.321671951850451,-0.24550590019287044,-3.1849099310454325,-4.6368400623753345,1,left
6.947,0.3240061330362919,1.0004053111716287,0.2076456744362842,4.58665066019786,-4.517603285200513,-2.318718221564903,-0.23745510481773785,-3.2060726292411315,-4.649392646872483,1,left
6.9479999999999995,0.31217091648004647,1.0083274960843582,0.22371941696017172,4.730716138167226,-4.333415379195053,-2.3204926784083115,-0.24704934165746878,-3.1808051774951416,-4.634323629225171,1,left
6.952999999999999,0.2988590339685086,1.0148815577303398,0.2390250514667709,4.67208222132475,-4.408312640416663,-2.3197406859397867,-0.23965368634362652,-3.2003577283053932,-4.646108879729953,1,left
6.952999999999999,0.28487615847844006,1.0195549248810885,0.255136376002692,4.671313751814374,-4.409523877541409,-2.3198383690846587,-0.24349491278124735,-3.190055267657617,-4.639659256855058,1,left
6.957000000000001,0.26899276338330574,1.0220674710940418,0.2778684104696766,4.701932027773821,-4.369927865043529,-2.320001556268489,-0.24288047668295507,-3.1919775377820456,-4.6413024748056095,1,left
6.957999999999999,0.25015473675582844,1.0254426298426014,0.3022982856961285,4.665279661394006,-4.41742154732998,-2.319852728025709,-0.2414431321254704,-3.195395680417036,-4.642742356389995,1,left
6.961,0.23304375928286317,1.0282272348640509,0.3174417888290465,4.693789792793385,-4.380344181138495,-2.3199035189506674,-0.2435830966267773,-3.190050090324772,-4.640026612093543,1,left
6.962000000000001,0.21827555160887607,1.0293218440437482,0.3230056155617708,4.6783970911798445,-4.40029038607047,-2.3198419270795525,-0.24185675039357984,-3.194603723561256,-4.642754707325418,1,left
6.9670000000000005,0.20360107729249038,1.0339860250443982,0.32768257781490484,4.682074866053643,-4.39613839314389,-2.3201507680632343,-0.24246492325388908,-3.1924512824887614,-4.6405736456927515,1,left
6.968,0.18643284554968553,1.0425919931431493,0.3353491638506233,4.685712122382866,-4.389729832693435,-2.319352332799195,-0.24321659632302486,-3.1917250835801543,-4.64218114012535,1,left
6.972,0.16940172790331443,1.0504019828328772,0.3382773348261777,4.679412011707457,-4.400810679887899,-2.320726379010165,-0.2413409683451171,-3.194796320373178,-4.640972216018591,1,left
6.973,0.15951731034413846,1.0548628506164162,0.33794620095478334,4.685093152946554,-4.389834460462058,-2.3190150759274504,-0.24361653858991456,-3.190795184194963,-4.641825991389556,1,left
6.976,0.1555862635810928,1.0564970812059493,0.3414366144911063,4.681408187584264,-4.397505489241574,-2.320389739212857,-0.24211641052073948,-3.1935942440498764,-4.641624024568708,1,left
6.977,0.14882903680274068,1.0585157015050055,0.3446866014854762,4.683367260196578,-4.395027919517701,-2.320426908838119,-0.24139939130289653,-3.1944923233919957,-4.640544190781258,1,left
6.981,0.14078188865442176,1.0613188185549691,0.34920894536431457,4.681918004596044,-4.391385789148565,-2.3177724834338442,-0.24560051088603746,-3.187767869084725,-4.64359945368657,1,left
6.982,0.13721675708859005,1.0639715002953865,0.3526780812725428,4.684156240524732,-4.401081673803061,-2.323825252924728,-0.23755799898856145,-3.200897774590166,-4.638327555108046,1,left
6.9879999999999995,0.13378110502193752,1.0668407514130511,0.3506746732265283,4.680567680100388,-4.386935602369215,-2.3147923219044912,-0.24797610187422942,-3.1838018812095914,-4.644955795110439,1,left
6.989,0.1316891572760911,1.0697204463599248,0.3491495372607084,4.684724293733485,-4.401593123021441,-2.324425998499782,-0.23923921993878736,-3.1981723149052583,-4.639480290209777,1,left
6.9910000000000005,0.1359039223870141,1.0711638971691442,0.3426904098085505,4.682325736565829,-4.3931186445055115,-2.3188592792298506,-0.23953728563247914,-3.1976347224008332,-4.6395408127292725,1,left
6.992000000000001,0.14183176405321,1.0710976369814953,0.3305539623389385,4.679525502728901,-4.3867541028394985,-2.3140527803520325,-0.256033513050562,-3.170629964875854,-4.650215800425913,1,left
6.996,0.15000135634106143,1.072286350025988,0.3212182945697598,4.690833312130952,-4.415828219419119,-2.3350792242263605,-0.21539740549588768,-3.23721612107457,-4.624102300031624,1,left
6.997000000000001,0.16487753899989183,1.0735069419255188,0.3065676888492104,4.669908929656767,-4.36184725365033,-2.2960848655175417,-0.28280958733210415,-3.126737048624038,-4.667355674426927,1,left
7.001,0.17438155303224767,1.0736012719582617,0.29307923028533045,4.696838991465629,-4.431086075445629,-2.3461575554284764,-0.1938789459455315,-3.2724826603997617,-4.610318045095825,1,left
7.002000000000001,0.17698729906917116,1.0747919876622134,0.2900914624971619,4.674326760187014,-4.3733137236440385,-2.3043520558148263,0.17927901941342705,-3.884316490578991,-4.37098134744863,1,left
7.002000000000001,0.19366945385348006,1.0758332256438061,0.2767953544567032,4.674863532169463,-4.374985201836314,-2.305487382805212,0.26820861377250405,-4.0300741707779935,-4.313952341840486,1,left
7.005,0.21596456889302884,1.0770895616817255,0.2567953090088527,4.718107794659099,-4.484702159964691,-2.385194492147612,0.20080118195539698,-3.9195403794320858,-4.357166626850176,1,left
7.006,0.2350302199487707,1.0779684135603658,0.2430738049593007,4.611868124588969,-4.214939073844677,-2.189275714409729,0.24142490812344503,-3.9862691362212948,-4.331154985302972,1,left
7.011,0.26577893122586027,1.0766899424016876,0.2231821705576903,4.788030132923832,-4.662222959049224,-2.5141242009863825,0.2249513367117077,-3.9590034677721357,-4.341643614784365,1,left
7.0120000000000005,0.28543388262324265,1.0769994950702113,0.2083341261923094,4.5556497515824095,-4.072273347745465,-2.0856458713262294,0.22462216966798726,-3.9588240188494637,-4.341959935961018,1,left
7.013,0.29157638419136855,1.076329027089151,0.20660405691827216,3.5801582141758734,-1.5965152940709002,-0.2872538543117359,0.2333895171328869,-3.9728436627289043,-4.336233895949534,1,left
7.016,0.31519171227595555,1.0726597695098068,0.1968469206826972,3.3477521815154727,-1.0066151756207102,0.1412194878586754,0.22295872346795975,-3.955893836412628,-4.34296643693995,1,left
7.016,0.339385458962,1.0702655790593343,0.17408849846095031,3.5239422184315643,-1.4537875078234541,-0.18360528893167669,0.23097394231421997,-3.9693381369497778,-4.3379191272087745,1,left
7.02,0.3589375516616153,1.0661061784151578,0.14404548183046084,3.417712127865581,-1.1842095107374633,0.012250673697133549,0.22685922768037503,-3.9616185880140375,-4.3402636203768665,1,left
7.021,0.39067269720098174,1.0588882068903769,0.11210691978772448,3.460866342362499,-1.2936805276282843,-0.06734060462696242,0.22742781391624153,-3.9642259864111224,-4.340404662363085,1,left
7.026,0.42525456554477314,1.0511881370681344,0.08806253559102949,3.4615982087893853,-1.2955982112721482,-0.06863581669435322,0.22910995031223036,-3.9649292198729897,-4.33870580659112,1,left
7.026,0.45741486552104915,1.0420419583850051,0.05936126542395626,3.4388051730672005,-1.2376994005015929,-0.026672600810080757,0.22668933555910906,-3.962598065226462,-4.3407522501003655,1,left
7.029,0.49534612117438837,1.030128601148293,-0.00016242705214928807,3.46601620869642,-1.3067811627898482,-0.07681300015535591,0.22856357098072325,-3.9656858099698624,-4.339555281955855,1,left
7.03,0.5487826752827949,1.0125052891356687,-0.07860977607501458,3.4449680745556774,-1.253393468885673,-0.037955332405539936,0.22808133395417463,-3.9618563495723356,-4.338946106495486,1,left
7.035,0.6162215901666558,0.9900504971477556,-0.13883116700968218,3.456040421919382,-1.2813915518146797,-0.05854134634930298,0.22685751565024215,-3.9667938159547815,-4.341829087246736,1,left
7.0360000000000005,0.6927090318587055,0.9672926458802729,-0.16866296558798893,3.4540086373837795,-1.2764100493627137,-0.054495913951883176,0.22950229150736137,-3.96077130627217,-4.337003301923531,1,left
7.04,0.7725268736248215,0.9427007570207727,-0.1699809092061562,3.4502804110025016,-1.266735123664827,-0.04799122600556787,0.22638322752296364,-3.9666996467259525,-4.342339525294973,1,left
7.041,0.8450316978318732,0.9198274608315526,-0.14788693975263215,3.45607469834232,-1.281610046255801,-0.05837946808165114,0.2283863643465096,-3.9636043904844334,-4.3391279786235,1,left
7.045,0.9063787374900275,0.9043365596361048,-0.11633616766288002,3.451172001523073,-1.2691667872952201,-0.049337475746520476,0.22948831855623109,-3.9599097247021056,-4.33675833934209,1,left
7.046,0.9516438758226053,0.8925456450509867,-0.08409630938605145,3.453417682341535,-1.27455876086792,-0.054025949544906665,0.2235130302149793,-3.974185134431722,-4.347864265771491,1,left
7.05,0.9778556779385862,0.8916480670564675,-0.06144263399653054,3.4543639938823523,-1.2776654242683165,-0.054518440334143645,0.234866523464915,-3.948159459501119,-4.327095165673436,1,left
7.05,0.984183958312171,0.9073482848631889,-0.05801328349781968,3.450812035553541,-1.2675974473996896,-0.04983723755776217,0.2201900259815454,-3.9814152014319504,-4.35382513407294,1,left
7.053999999999999,0.9724858623071579,0.9305613662100691,-0.07049757541150611,3.4553809295828524,-1.2803181234234555,-0.05627112587145362,0.23248403868743153,-3.953721800668042,-4.331485130900948,1,left
7.055,0.939239498544925,0.960557578248424,-0.09183934480419881,3.452217517213838,-1.2716351646313613,-0.05158628950207532,0.23208764361509493,-3.954361797022767,-4.332126115403186,1,left
7.06,0.8877425917019228,0.9904926444893054,-0.1184787880743019,3.451118036936071,-1.2682947320622249,-0.05055536440893805,0.20881481696748128,-4.007457377213011,-4.374625826625476,1,left
7.061,0.832988791321494,1.012818207323801,-0.13911247833790036,3.4589309164008037,-1.2905597636837194,-0.06061474868409093,0.2661084166699129,-3.8771167770655888,-4.270117518614034,1,left
7.065,0.7609373791133522,1.0329009132370426,-0.13728672395603186,3.443734951315237,-1.2474630313771713,-0.04065017891720865,0.17107863352908068,-4.093161286547296,-4.4434106718228055,1,left
7.066,0.7063399140199687,1.043141886911343,-0.12826814479719528,3.463498977246025,-1.3034517320823436,-0.0667556128887207,0.2964345017471851,-3.8082316856161373,-4.214840759205524,1,left
7.069,0.6945021698136249,1.0438293201105542,-0.12464137481546907,3.4468976529429707,-1.2564355149576274,-0.04476603677981798,0.8225657620997444,-2.612158215688387,-3.255449748848677,1,left
7.07,0.6396627219032093,1.0453690438377685,-0.10570031548352236,3.4474979155615677,-1.2581297333754407,-0.045659215244286996,0.9479221985664075,-2.327269545803863,-3.0269148816912104,1,left
7.07,0.5560247055662948,1.0426598335264883,-0.07986953765625272,3.4787471026325525,-1.346657864920298,-0.0867932881289905,0.8528854858368373,-2.54323190637861,-3.200149810676706,1,left
7.075,0.4958345887445968,1.0368226688239168,-0.06389761915226293,3.4017324036011996,-1.1284582600637152,0.014733844705422276,0.9102012188398546,-2.4130085790994036,-3.0956990105452666,1,left
7.0760000000000005,0.40856520094992743,1.032564901265125,-0.049133496516986466,3.529490264580419,-1.4904706278547668,-0.15375402438050922,0.886884319514792,-2.465974564131792,-3.1381762082041957,1,left
7.079,0.3453082895002466,1.0281116784620452,-0.0393069916640323,3.3609758968193115,-1.0128985155455053,0.06852265252201126,0.8865519468755755,-2.4667086850027578,-3.13876656584877,1,left
7.08,0.33084034884473923,1.0266873049925678,-0.03735693227348669,2.6536026273521545,0.9914002191895723,1.0013899985345553,0.898778827397202,-2.43902821904537,-3.1165784706230903,1,left
7.08,0.2698399441415764,1.0316156153701117,-0.03910983323231986,2.4851614105234585,1.4689768099553748,1.2236288288037527,0.8841383736485773,-2.4720863422200656,-3.143058083669194,1,left
7.084,0.18697191273329555,1.0409932957027923,-0.046912962708088715,2.6128215682606752,1.1069152130162156,1.055169445095335,0.8955335192140467,-2.446489006922258,-3.12258102593528,1,left
7.085,0.12430904548707392,1.0534857296222255,-0.05810299626795663,2.535842503314946,1.3252701834674392,1.1567562931833244,0.8893954685576024,-2.4601435616142955,-3.1334778773958414,1,left
7.0889999999999995,0.05867141921024989,1.0699243921864394,-0.07218350071830225,2.567218701523148,1.2364340239510474,1.1153953905777438,0.8907949554638764,-2.457088891168401,-3.1310522837302837,1,left
7.09,0.0024639206620094417,1.0874232468269018,-0.0898891670663238,2.5674551463116764,1.2351860483164416,1.114929471280658,0.8924141793102367,-2.4536628291107787,-3.128351131883461,1,left
7.093,-0.04076537278073357,1.105814106449666,-0.10823746768523815,2.5514479531675835,1.2817357899802508,1.1363551133193148,0.889629521572503,-2.459177584786527,-3.132621566169168,1,left
7.093999999999999,-0.07174437686299562,1.126608687601982,-0.12734896789949646,2.570529791150116,1.225995077631817,1.110750454495848,0.8922120410805159,-2.4547088040964065,-3.129301481324895,1,left
7.099,-0.08632365378213622,1.144488993149266,-0.14646467333831287,2.55579635877006,1.269386881058935,1.1306118130120342,0.8905171297761448,-2.4568430456495607,-3.1306885411316694,1,left
7.1,-0.08800685418097641,1.1554924572330154,-0.1644919098076661,2.563807473473939,1.2459824316855785,1.1198623656203073,0.8912301273932639,-2.456591735255352,-3.130746205763562,1,left
7.103,-0.07486073550199174,1.161256500640334,-0.18061864522857807,2.561402765742133,1.2513993534217414,1.1226687384350555,0.8912257926466847,-2.456613861524711,-3.130765828886328,1,left
7.104,-0.05169546455482151,1.1618426369748929,-0.19316544935092286,2.5608666424142124,1.2574093409247866,1.1245485149991885,0.8909252884507814,-2.4547563231198937,-3.1287957343630204,1,left
7.108,-0.018865145453299346,1.1530516791466572,-0.20149164794740868,2.5618096764904785,1.2470079621122605,1.1212870764456508,0.8911807343453078,-2.4599814483446725,-3.1340849082145423,1,left
7.109,0.022707572896580895,1.1383079957222741,-0.20557707737470043,2.5617477790295475,1.2566629851151716,1.1238429100467262,0.891154854499688,-2.451379154979861,-3.1255462722585854,1,left
7.114,0.066917329869124,1.1224115170652613,-0.20295490197321436,2.5613463668738383,1.2502460127212327,1.122400940323516,0.8909749227627872,-2.4610212243212324,-3.135027705018209,1,left
7.115,0.11340686329127708,1.1015019060945994,-0.19150284058792488,2.5602768331030763,1.2532074602399934,1.1237929864311669,0.8911449344757776,-2.455299492503749,-3.1294276327897497,1,left
7.117000000000001,0.15923545338489076,1.0793994200902985,-0.1718313445781982,2.565454719327526,1.2525549416965198,1.1206234398054513,0.891320172925,-2.450303443273193,-3.1245520086464116,1,left
7.117999999999999,0.20292504125522243,1.060544363210484,-0.1450944005123318,2.5541974181858755,1.2524193775281742,1.1271096353141152,0.8904756181379685,-2.472347920635258,-3.1460401382396506,1,left
7.122999999999999,0.24563706970170052,1.0427317470580033,-0.11393266042974887,2.571123555518966,1.25224329248904,1.117257301038207,0.8921172388268874,-2.431293619485019,-3.1060491433942286,1,left
7.124,0.2847694747701004,1.0274707167627815,-0.07590319934782805,2.5529043011145065,1.2529326871859165,1.1279936208618206,0.8899574409331626,-2.4841285971283744,-3.157497830728563,1,left
7.127999999999999,0.3213522067328753,1.0126771862993453,-0.035883099058303086,2.5634272633046704,1.2525397205517537,1.1217925977766527,0.8917822249442675,-2.439967945288246,-3.114500678473372,1,left
7.127999999999999,0.3576965735125933,0.9967907574683318,0.0017304818577293015,2.57289773406529,1.251088504242111,1.1159296604245978,0.8917393240027212,-2.4411535740515067,-3.115666288634626,1,left
7.132000000000001,0.3895998093616049,0.9857448775532841,0.04131581892041895,2.531973220577216,1.255999532750737,1.140918889899251,0.8882030279107149,-2.5254756191206016,-3.1977232979566215,1,left
7.132999999999999,0.4149381093519372,0.9775036529310193,0.07691594493184678,2.6078366805414177,1.2469636739215817,1.0946092688953626,0.8969012336970399,-2.318197911359073,-2.995999118191441,1,left
7.138,0.4347969326937725,0.965698401793361,0.11240196453170705,2.510397992379787,1.2586583183144184,1.1541162271894012,0.8824694556204657,-2.661902564188309,-3.330502485297296,1,left
7.138999999999999,0.4456086770754464,0.9590806584355337,0.1365241438642385,2.5917500771330655,1.2488532257404534,1.1044169577660827,0.9015124274947812,-2.208535834653895,-2.8892671988556,1,left
7.138999999999999,0.4473218357015666,0.9579214091989623,0.14282247929931366,2.589611804354914,1.2490010475738642,1.1057085138869522,0.9815846017411978,-0.3053705148644801,-1.0373371680335048,1,left
7.143,0.4488298814137312,0.9501019863184947,0.16111272679434824,2.4342589567903814,1.268197949551602,1.2007052923333568,1.0006414217459736,0.1480219640460337,-0.5960915537294764,1,left
7.144,0.449008477552746,0.9423523103323748,0.18534067515859715,2.816022727743164,1.221103916015851,0.9672544631399579,0.9861754614661825,-0.19573441791049837,-0.9305895902507682,1,left
7.147,0.43653644015553905,0.9365595848433426,0.2051476053381296,2.183067003915428,1.2991959976754714,1.3543316871520172,0.9949359736655417,0.01161724212268915,-0.7289281203829605,1,left
7.148,0.42412051891693825,0.9299427013587548,0.2192442820678283,3.017920475466732,1.1961645959861906,0.8437646315254639,0.9913091785151598,-0.07278669486348226,-0.810827542736368,1,left
7.149,0.4202993716670008,0.9280800283887556,0.22092401954099888,6.5229734062472655,0.7633480733795855,-1.299458830605703,0.9913673360745163,-0.07391256963371237,-0.812251706966078,1,left
7.151,0.4044426552690581,0.9227282008021307,0.23328907391873455,7.357866951584104,0.660269418012874,-1.8100464705566701,0.993122210528535,-0.02974436132323962,-0.7689482986765476,1,left
7.152,0.37930702519207554,0.9136184684773252,0.2542425876510057,6.724776799351398,0.7384418567787336,-1.422938282036567,0.9909383585754403,-0.08270332462813827,-0.8206214441638674,1,left
7.157,0.35571581591803136,0.9075886008886342,0.2715198497442536,7.106846656714353,0.6912637284492625,-1.6564114338632434,0.992764303675772,-0.041379250615163135,-0.7806830919676739,1,left
7.1579999999999995,0.32828595808177863,0.9024932218099357,0.29280476791425103,6.950972606440034,0.7105044987061554,-1.5614250476309084,0.99153958280024,-0.06381563240239421,-0.8016340300379963,1,left
7.162999999999999,0.2992064719927463,0.8999303097799309,0.313123580982557,6.949511491560338,0.7107005353549272,-1.560068720556097,0.9922499033584461,-0.058414477404187315,-0.7978962173175532,1,left
7.165,0.2682550705481,0.8993996875377537,0.33455428123350983,7.030248361889619,0.700712140209357,-1.6098948142584635,0.9918893734210888,-0.05290412500324661,-0.7906721701352809,1,left
7.167999999999999,0.23624709547272787,0.9049294375671941,0.358750905544445,6.932978004307665,0.7127319332965252,-1.5502191486931363,0.9919449039749969,-0.06280344285187714,-0.8017890774567289,1,left
7.169,0.20576744012065062,0.9197594120648809,0.3816781245499208,7.009593873756991,0.7032909323257862,-1.5966803352783616,0.9923521831078169,-0.05322443430153566,-0.7924810679032925,1,left
7.172000000000001,0.1748505741366783,0.9415062014203284,0.41010547690848886,6.966623716398006,0.7085330424785503,-1.571654458376312,0.9911822655196787,-0.060216774126251885,-0.7965321953078024,1,left
7.172999999999999,0.14450849014843983,0.9736316495680885,0.4487821876988919,6.979413181958626,0.7070651921423717,-1.5773231949402382,0.9933566000275486,-0.05609836676346916,-0.7988157889677245,1,left
7.176,0.11158104651602961,1.0131308595622404,0.4952583749382385,6.986074135708881,0.7061049357614034,-1.5840360672341989,0.9902888416707833,-0.05806489140017056,-0.7913444507290044,1,left
7.1770000000000005,0.07023581840272043,1.0622768836645515,0.5445874409036493,6.970622588219244,0.7081233106982823,-1.572483424168524,0.9934945979559242,-0.05749739099859453,-0.8007963384110597,1,left
7.181,0.01759409575825035,1.123844442155252,0.5916513729943726,6.988288423265928,0.7059425742356621,-1.5832675494280317,0.9916857675286412,-0.05679981490376379,-0.7943378092172817,1,left
7.182,-0.04352440841749453,1.1885824160795044,0.6279623486395046,6.970254481627535,0.7079645634776707,-1.5761430293085477,0.9899914516538939,-0.059386710072598714,-0.7918708744341089,1,left
7.187,-0.11381263475464556,1.2562817364769936,0.6595570872902907,6.989622867251133,0.7060420693941034,-1.5790664740162752,0.9971571146294823,-0.0539476158711837,-0.8083872476775417,1,left
7.188,-0.20226682425427567,1.3336871877618317,0.6925126368724623,6.9684225750051745,0.7079592033065687,-1.5794103780347435,0.9839276603082976,-0.06264400324075106,-0.7764062087094543,1,left
7.191,-0.3106047864586162,1.4287393926249672,0.7122599834035863,6.9882061222464245,0.706264163721174,-1.5773209723626225,1.000892978668587,-0.051979491276086656,-0.8179582259194421,1,left
7.192,-0.4410780159688579,1.5417376973972345,0.735763631731582,6.978665075073683,0.7070088627711737,-1.5796849706303875,0.9867396617651282,-0.060669091956303996,-0.7830631531541627,1,left
7.197,-0.5840579469056337,1.6751961809344456,0.7512516304305124,6.964564853851441,0.7083803443748322,-1.5781264031765483,0.9871060927158563,-0.06076483055790941,-0.7843238504290748,1,left
7.1979999999999995,-0.7173976249315456,1.8279704413966857,0.7353327073197972,7.015432232409271,0.7037253911549882,-1.5783104018703429,1.0141371202731468,-0.043316562648163845,-0.8500203529206656,1,left
7.2010000000000005,-0.8343329320449551,1.98077480656953,0.707267723941583,6.923662583843121,0.712037801588526,-1.5795403122986285,0.9477239457265285,-0.08572077488229256,-0.6880896504678071,1,left
7.202000000000001,-0.918551146271611,2.1168232456267764,0.6310643621989852,7.0405710218918225,0.701482447585311,-1.5773903683077501,1.057828021963099,-0.015598215467063942,-0.9567497627348958,1,left
7.206,-0.9576497300004191,2.1973682383277477,0.5635169883805631,6.943368788054848,0.7102401438982537,-1.5794336333366277,0.9126085536064837,-0.10801724086170716,-0.6023270864348015,1,left
7.206,-0.963193477767706,2.2118621566722396,0.5433094492211925,6.945378147508469,0.7100918827636177,-1.578987612122453,0.30298910410023255,-0.49628760167700525,0.8851268826470416,1,left
7.207000000000001,-0.9614981353800975,2.2297996226184633,0.46101502368764335,7.132370903823649,0.6931604616527057,-1.5761245773534969,0.15777751611421217,-0.588682613767709,1.239558443431618,1,left
7.21,-0.9431034007813005,2.2224664374343273,0.3611322334394338,6.673676854188843,0.7346389405204186,-1.5837403056470505,0.2678714790082227,-0.5186237538288798,0.9708520129707822,1,left
7.212000000000001,-0.8612098641797814,2.103183144423891,0.29105042072736903,7.433852189259873,0.6659287102811902,-1.570876409096392,0.20146068398849856,-0.5609042469180395,1.1329090722975508,1,left
7.216,-0.7933674966954432,2.002223229487445,0.23860971622408947,6.431336551585925,0.7565198059974962,-1.587953112810221,0.2285084024137502,-0.5436452285425871,1.066976421159002,1,left
7.2170000000000005,-0.772407221064572,1.9720788950787738,0.22612579200983685,2.222445119804797,1.1370921612758758,-1.6589268538285729,0.2288311775270976,-0.5435177767983528,1.0660447647429787,1,left
7.218,-0.6718777727865353,1.8503443092564182,0.19786495543872812,1.220003935291519,1.2276428902693923,-1.6760774361290323,0.21474665362432405,-0.5523800717111682,1.1006114191817147,1,left
7.22,-0.50859942128642,1.681698593185852,0.18689305946558335,1.9800292574315814,1.1589849089290776,-1.6630911362542975,0.23163572491115147,-0.5417276027447004,1.0592073689979173,1,left
7.222,-0.3394399547069207,1.5494574087785267,0.24669418091865913,1.5215505981241484,1.2004496264658582,-1.6708268992575959,0.21845354934354402,-0.5500770939351394,1.0914570869422793,1,left
7.225,-0.1426721938936421,1.4089867080401772,0.341896197653217,1.7083033484565457,1.1834359489391928,-1.66791886872053,0.2256515526986348,-0.5454150151481859,1.0740474390963226,1,left
7.226,0.05130490487359047,1.2768040459370105,0.45075928709129215,1.71049026513645,1.1835065031458059,-1.667362471770655,0.22379605676830747,-0.5468534828373118,1.0780736785718752,1,left
7.232,0.22474779330140598,1.1460813434448747,0.5296438724318143,1.6133047338225186,1.1919169729073906,-1.6697298715065043,0.22229730800690556,-0.5473656842219734,1.0825938213271165,1,left
7.233,0.3633701159962322,1.006442810846905,0.5537772586630854,1.729857681743137,1.1817492158408385,-1.6670499598714135,0.22508814606476785,-0.5461302259318428,1.0747260093899114,1,left
7.235,0.4352723953684988,0.8835216476882908,0.5274555452212266,1.6388706659095211,1.1898167055042372,-1.668893298142007,0.2224025344661444,-0.5474089515510578,1.0821220039565507,1,left
7.235,0.4335324747540881,0.786754762239424,0.4557244000527785,1.6885933786793836,1.185007910956885,-1.6686458164619449,0.2244620370320879,-0.5460941040546711,1.0771034977218061,1,left
7.2410000000000005,0.36517967725592604,0.7326481633587293,0.3617189673496396,1.6756860118391594,1.187182892959314,-1.6669519295049353,0.2228542430895497,-0.5479161926241999,1.0794657027459311,1,left
7.2410000000000005,0.2515569030510243,0.7241707405869238,0.2579737266868696,1.6655057713818524,1.1863683058896273,-1.6704150002800984,0.224476586704222,-0.5450588037686344,1.0790744468538234,1,left
7.245,0.12125076296694173,0.7520206744179981,0.14938176689967025,1.6845697265997597,1.1867725732968606,-1.6660571002307365,0.2225478405583758,-0.5490082405985236,1.078459082213464,1,left
7.246,0.011466658746810608,0.7982602337656752,0.042755388136572675,1.6661903773051077,1.1867386188428417,-1.6695836529651928,0.22451233014865632,-0.5448567277742902,1.0793382773073419,1,left
7.25,-0.0417750146346636,0.8330328579944568,-0.05833714700988222,1.6804098207902092,1.1854374693565561,-1.669371734374887,0.2235218830225656,-0.5471629836955183,1.0784776148965236,1,left
7.251,-0.027145260276411762,0.8441196472770502,-0.15368143620016092,1.6690125019824857,1.1896146403313914,-1.6635999943080837,0.22195186950752754,-0.5496080845726841,1.079482840805891,1,left
7.255,0.05632558971611503,0.8276561462763109,-0.23493613295630505,1.6808923451148918,1.1813505392571073,-1.6770285792589814,0.22765047885429351,-0.5396560468063882,1.0779432102464592,1,left
7.256,0.1913381251142997,0.7818164512901704,-0.28282407323302394,1.6665634488172063,1.1933712958545248,-1.656939337206334,0.2172941361702126,-0.5579762828285757,1.0802823915708593,1,left
7.261,0.340474243977987,0.719713817203952,-0.3026868741328425,1.6812055007045115,1.180615261989221,-1.678364299606586,0.23054445401617576,-0.5344836985440673,1.0773945080932572,1,left
7.2620000000000005,0.4906877256045664,0.645051480149198,-0.29843347039234247,1.6737444277755036,1.1878935713926597,-1.6659698464624773,0.219502049501819,-0.5540823527366843,1.079758634284678,1,left
7.265,0.5980428394056567,0.5783213778477883,-0.25225362593483236,1.6623666434700202,1.1946203406921532,-1.6553640191926324,0.21972626476227675,-0.5536032564394282,1.0798744086802632,1,left
7.266,0.6399885795995631,0.5319598312820748,-0.19448545531316386,1.7040630436467001,1.1659246756264463,-1.7019058925856099,0.24102606536394583,-0.5160677818060297,1.0747765892771852,1,left
7.269,0.6394702809275623,0.5030492755135045,-0.13897151077011202,1.6282003190049192,1.2190037649980316,-1.615573658525307,0.1887624423267079,-0.6082614807215742,1.0870947554803867,1,left
7.27,0.5521322620217728,0.5374918630887562,-0.05331027359194901,1.7252806377044245,1.1508826067518483,-1.7264291206360212,0.2753943244309053,-0.4554201568992052,1.0667250191853912,1,left
7.275,0.46500394784808485,0.5808186368867315,0.012549176543691733,1.6443709841580092,1.2077334825862973,-1.633886474841575,0.1611299599683606,-0.6570115895386066,1.0935886042830059,1,left
7.276,0.4392945397115059,0.5975635189011554,0.022891277785554012,1.6460398708455721,1.2062598700413871,-1.636382780016901,-0.318626950898324,-1.5033862111000946,1.2066042268121198,1,left
7.276,0.3414860035908492,0.6717603612685323,0.03674025795110241,1.802017530537214,1.0976589815512394,-1.8128564750794969,-0.43290179447593247,-1.7049883739578864,1.2334908917550391,1,left
7.279,0.22403944622261002,0.7729853362715983,0.03717881248815168,1.4192666057327354,1.3644954322895497,-1.379128770279896,-0.34625495015516156,-1.5521190949728347,1.2130959608869705,1,left
7.28,0.16422178792551323,0.8883627977473669,-0.02795807606450578,2.053714945822367,0.9221072854936437,-2.098249342030081,-0.39852709917792406,-1.6443662756165447,1.2254054222005832,1,left
7.284,0.12781273851866456,0.977471087078622,-0.08194759171551308,1.216904617622507,1.5055950368981632,-1.149749790813782,-0.37723843989388217,-1.6067499498341111,1.220388800077779,1,left
7.284,0.12178661481387926,0.9983032250151169,-0.09972584980875651,-2.2966834257774758,3.9554017054807327,2.832048875953485,-0.3769725712194202,-1.6063650749900091,1.220328777128298,1,left
7.285,0.10716902418306372,1.074418794227759,-0.17164709602351247,-3.1335720912245817,4.538915647086865,3.7805652164672763,-0.388088854238572,-1.6258924754046942,1.222945834622735,1,left
7.289,0.0864878030662429,1.1770320106534744,-0.2662656821963442,-2.498993236307328,4.096429028052217,3.061364705954414,-0.3747472867337183,-1.6023911021973323,1.219804993171056,1,left
7.29,0.07640917142913614,1.2313322768418187,-0.3284935784034749,-2.8818740056100953,4.363503125803128,3.495304306644754,-0.3851758368696099,-1.6208632096393862,1.2222553474539453,1,left
7.294,0.05421922500833222,1.2697678594424926,-0.377379557506556,-2.7258433454698294,4.254484080304893,3.318439779429874,-0.37947992530598573,-1.6105775097801955,1.2209282658592207,1,left
7.294,0.036378634174992375,1.2688237027782607,-0.3941494096260335,-2.7240652685174003,4.25356803819205,3.316483045889985,-0.38091108572668875,-1.613510418534577,1.2212407807727226,1,left
7.3,0.025383624736046488,1.2339902446219426,-0.3781425119906672,-2.8053101969216447,4.309893397710131,3.4084933218288764,-0.38221467884236326,-1.6153094199870233,1.2215782481409174,1,left
7.301,0.017172066641056027,1.1791265274607992,-0.34469946359627923,-2.7076727791377952,4.241953384807526,3.2978666252766486,-0.37978739772475434,-1.611426491819429,1.2209821949143582,1,left
7.303,0.014916854608687618,1.1028660672881618,-0.2938224398397641,-2.78419042057231,4.295589689088301,3.3846597713845883,-0.38220236795120927,-1.6156906414365673,1.2215502049546978,1,left
7.303999999999999,0.014407912974214315,1.0277796612203167,-0.24458846913746687,-2.742017212827358,4.265274417071129,3.336631957784471,-0.38031436728618984,-1.6116184492999082,1.2211528358380637,1,left
7.311,0.0169453407532093,0.957940715048894,-0.20605489252058107,-2.753287627453454,4.274699654442932,3.349805983152086,-0.38163933011067563,-1.615650225451855,1.2213572330832045,1,left
7.312,0.021886846214043278,0.901853273823066,-0.17663187194678942,-2.7618666404170824,4.2787583330797485,3.3590347747519664,-0.3807156978565721,-1.6114930981631823,1.2213002386346532,1,left
7.313,0.03168640632265525,0.8689048355079935,-0.16176164767572265,-2.7448617525058614,4.268434896400011,3.3401572492657174,-0.38131494059961846,-1.6152449372268372,1.2212702873155312,1,left
7.314,0.05057268094635417,0.8565287973981981,-0.16396052457149685,-2.7625548737702,4.280785414925501,3.360214148405528,-0.38122713464928215,-1.6135328947933307,1.2213482587097628,1,left
7.319,0.08148440047465715,0.8654675114476403,-0.17860481479139756,-2.747296395651911,4.267299756510237,3.3421836930047233,-0.3803480209013501,-1.6106401341488645,1.221227036038362,1,left
7.32,0.12359329714704202,0.8924165864183333,-0.19924559801567493,-2.7602714187085358,4.2828521972779985,3.35857344405229,-0.3827131047013843,-1.6206861001313881,1.221409965472251,1,left
7.322,0.17676624337935573,0.9311889962404039,-0.21946879422629947,-2.748626407026885,4.265027076128806,3.34286260148459,-0.37867737690611447,-1.602673390882404,1.2211526857796162,1,left
7.3229999999999995,0.2424153244553626,0.97405295395125,-0.23289515329364857,-2.758218221265202,4.282061928587876,3.3564119782670874,-0.3837330332934449,-1.6255800148029749,1.2214537801157772,1,left
7.327999999999999,0.3107439530894581,1.0136259671524366,-0.2373931467677846,-2.75456824797404,4.273537735991684,3.3507288894612417,-0.3795659574795913,-1.606550403418536,1.2212143050105781,1,left
7.329,0.379440008948717,1.0468897962611183,-0.2220442570986061,-2.7455395540296164,4.262090458090729,3.3391587541661885,-0.3795958637313016,-1.606920727371286,1.2212029803037066,1,left
7.332999999999999,0.446425800143065,1.0739044250225374,-0.19086712694097863,-2.7742007696739543,4.304627039347439,3.3774863370581714,-0.38776187150179364,-1.643591411814918,1.2217073956360198,1,left
7.334,0.507050606339257,1.09015479761048,-0.16095467614035086,-2.723612626423672,4.227528412925049,3.3093173721114715,-0.3678111585897847,-1.5536685628533538,1.2204924009856617,1,left
7.337999999999999,0.566509610889858,1.0896253096134658,-0.11879377606023471,-2.787645863455513,4.3258844343922265,3.3957983930813453,-0.4008442792083402,-1.702685986771526,1.2224989264989063,1,left
7.337999999999999,0.6011278903200887,1.0866040157030135,-0.08738715045562431,-2.734578504510255,4.244041194120799,3.324047962680639,-0.35729142514506024,-1.5061610607470233,1.219853263852463,1,left
7.3420000000000005,0.6085099247845456,1.0838060244856313,-0.08067873296655682,-2.7354125403264984,4.245843879242976,3.3252948528752317,-0.17440737503264575,-0.6811389388491785,1.2087487651376856,1,left
7.343,0.6299433260518725,1.0699938229942443,-0.051570122121648264,-2.838203150736356,4.403001544596621,3.463954012408279,-0.13086089799200523,-0.4846176422829152,1.206096280384796,1,left
7.343999999999999,0.6501154011713695,1.0532955306349832,-0.015059501058797067,-2.5864279085610002,4.017319814939525,3.124159755679922,-0.16387586779109609,-0.6336149574439434,1.2081115432480116,1,left
7.347,0.6389998679727683,1.030757058809285,0.010522127040334927,-3.003553349641712,4.656579509389395,3.687161657305051,-0.14396238315942855,-0.5437479317787739,1.2068945519048355,1,left
7.348,0.6269164626631047,1.0117718529798774,0.03252486349602958,-2.4534871762180424,3.8134714319895053,2.9447204749534706,-0.15206911776697515,-0.5803134777499425,1.2073843872433048,1,left
7.352,0.6222727393910421,1.0077151134333309,0.03873293378354946,-0.1441109349369485,0.2743334521489049,-0.17243262008236615,-0.15217167010242627,-0.5808310797059417,1.2074110497709158,1,left
7.353,0.595396132292237,0.9960583982644737,0.05129558568083039,0.40593355725302177,-0.5687794300542125,-0.9148170932632633,-0.14794437836520968,-0.5616535022029681,1.2071118109281047,1,left
7.354,0.5590829137237163,0.9782733195784956,0.06709680760014339,-0.011098788876070173,0.07043691388417861,-0.35195546248837883,-0.15300510692824132,-0.5846285262810422,1.207479035838997,1,left
7.357,0.5323067133684783,0.9657814955921584,0.068863716259215,0.24043871791748528,-0.3150708768069625,-0.6914935348162412,-0.14906912058712857,-0.566732897657729,1.2071809300938097,1,left
7.358,0.5105113808988118,0.9558165190214686,0.0730318109127634,0.13807880371765868,-0.15828497128068764,-0.5532071103718355,-0.15119497636586232,-0.5763823410820389,1.2073353995846416,1,left
7.362,0.49975298584518163,0.9507246661173502,0.08054677516228642,0.13665778411485177,-0.15591923596168558,-0.5515432078828257,-0.15068241684011968,-0.5741857658037179,1.20735457759924,1,left
7.3629999999999995,0.4972207705744919,0.9482748968138971,0.08798026819512814,0.19029478058827282,-0.23838016101677978,-0.6235833348985182,-0.15019241293545754,-0.5716040862320303,1.2071629855244819,1,left
7.367000000000001,0.49949128866112685,0.9495501848065049,0.09584507452715865,0.1260340289237748,-0.1396459007746526,-0.5371988244492892,-0.15104163861451567,-0.5760727865527973,1.2074931916440583,1,left
7.367999999999999,0.5058813179500978,0.955258411751909,0.10441905975181076,0.1760894841729529,-0.21646791617212569,-0.6046112400511621,-0.15028267615642188,-0.5718677007898548,1.2071052854452229,1,left
7.372000000000001,0.5126467932010115,0.9614475186365882,0.11925935274857252,0.14907727951535596,-0.17526956807833705,-0.5678480960757994,-0.15077115514031753,-0.5746935888345673,1.2074074192328526,1,left
7.372999999999999,0.5241528131580782,0.9679620402945439,0.13671647833250622,0.15529487124887256,-0.18414952244968188,-0.5772127484205274,-0.15050008732732448,-0.5734762700403282,1.207393328234481,1,left
7.377000000000001,0.5346733655722288,0.9741048692709053,0.15135091351651458,0.16236871964853125,-0.1961074984830832,-0.5850870462471931,-0.1507392795824186,-0.5734015844845488,1.206902460789435,1,left
7.377999999999999,0.5416805262341596,0.9785426186264773,0.16542612064338752,0.15008284702291347,-0.17590979215302704,-0.570557300693368,-0.15034124529607718,-0.5742422032813344,1.2080333369735041,1,left
7.382000000000001,0.5495677455107282,0.9792170155161535,0.17947801560460935,0.16162268600974447,-0.19468576429797343,-0.584496563400031,-0.15096941727330518,-0.5731435688539483,1.2063482966109262,1,left
7.382000000000001,0.5536408289560315,0.9765910380045516,0.19000785710616475,0.153834061922612,-0.1827582535445253,-0.5739694760042295,-0.15025410324865546,-0.5741084456452155,1.2081418940042963,1,left
7.388,0.5550005125291686,0.9728486058848101,0.191443307181782,0.15738575166646673,-0.18618169103724622,-0.5817998430975658,-0.15066683807824477,-0.5735485901447851,1.2071053692699016,1,left
7.388999999999999,0.5598103067148836,0.9667668570257046,0.18215298878768016,0.15704160662838182,-0.19026985688852865,-0.5743955770866991,-0.1511243114086389,-0.5735241506436899,1.206218512430181,1,left
7.392,0.5683291435220446,0.9593458537008436,0.1711983135046282,0.15569298085856675,-0.18131798349139733,-0.5829287864366246,-0.14925403033141627,-0.5742245680899054,1.2101088241199787,1,left
7.392,0.5793790158794444,0.9540332629669092,0.1661147504908282,0.157477881606709,-0.19139231978817484,-0.5742999859193075,-0.15271574333196386,-0.5728958130636626,1.2028933745915151,1,left
7.396,0.5920589702654429,0.9507758805622236,0.16731003875016148,0.15589841373464036,-0.18473216949004437,-0.5785474326752567,-0.14826252227119732,-0.5745643734308012,1.2121582982958514,1,left
7.396,0.6044760548490029,0.9467510294433215,0.17500446595812275,0.15725055608301125,-0.18314748321551988,-0.585866601731332,-0.15198383166731333,-0.5731881576074505,1.2044230253136723,1,left
7.401,0.616784362910884,0.9430598171823578,0.1836769691278971,0.1557759135272392,-0.19688667969068363,-0.5598207980425371,-0.15189447395726963,-0.5732747932046229,1.2046346867250057,1,left
7.402,0.6268945640040013,0.9414053358173334,0.18801983555270135,0.15770771962138222,-0.17017899630276967,-0.6070435876597374,-0.14475146802416589,-0.5756905168989904,1.2193774944796743,1,left
7.405,0.6346682664344304,0.9399655509701957,0.18659703081807993,0.15540865551228772,-0.20474880037621285,-0.5466479270546627,-0.1622986846728965,-0.569714148883712,1.1831378088994031,1,left
7.406000000000001,0.6436080761591592,0.9387875287941764,0.17833048772606186,0.15725288958739042,-0.1757761816400356,-0.5969737973761747,-0.133204704940265,-0.5796212356023471,1.243226940655552,1,left
7.4110000000000005,0.6472375083704993,0.936995899401075,0.17258953536510202,0.15748735934524133,-0.17698933230092223,-0.5959821224404882,-0.17158146475317224,-0.5665645289379988,1.1639682429421638,1,left
7.412000000000001,0.6475254923728715,0.9372191755435797,0.16976631316081542,0.153042802863825,-0.23082799625649714,-0.49879934897277667,-0.33271733311527363,-0.5119301821363829,0.8313315596795067,1,left
7.412999999999999,0.6528230460693092,0.9386073588619925,0.16182138974682347,0.16362679880554395,-0.09799268666548126,-0.7372324764007324,-0.3710990722781421,-0.4988940152788106,0.7520749344207449,1,left
7.416,0.6529770104184038,0.9339434693154846,0.15255012534277562,0.14617267207126455,-0.31837169746160976,-0.3420017952126988,-0.3419947207473776,-0.5087630484679166,0.8121554085779858,1,left
7.417000000000001,0.6489672063501516,0.9303438318362722,0.14499048706911574,0.16917534726399147,-0.027679778488110623,-0.8633153144084509,-0.3595575435273694,-0.5028343015161509,0.7759375934940655,1,left
7.421,0.6482247902133462,0.9290390849972223,0.14393277520728143,0.26612517348202425,1.1918932700595777,-3.0520564911800125,-0.35239601021422273,-0.5052081402223985,0.7906409927520315,1,left
7.422000000000001,0.640744201768072,0.9220371551436626,0.14602067436387017,0.28911935910043196,1.4825439261899562,-3.5734683078644993,-0.3523222005393767,-0.5053076683821035,0.7909061503857517,1,left
7.422999999999999,0.6263600886313108,0.9153300224015221,0.14564663732564048,0.27170482058804596,1.262200290829707,-3.1780968230056956,-0.3560406850833552,-0.5039747981936283,0.7831192306989296,1,left
7.425,0.6096493388921684,0.9103060077073705,0.15028621516679594,0.28218462178452786,1.3950854081517021,-3.41661153200054,-0.35156595929054263,-0.5055229604024192,0.7924042864518417,1,left
7.426,0.5877581751987426,0.9029987675620386,0.1539356872043753,0.27793160571540276,1.3410309784768402,-3.3195299599732637,-0.3550821091986025,-0.5043895818237947,0.7852382681755289,1,left
7.431,0.5599556835827113,0.8971974721090281,0.14950849080280104,0.27790227053393146,1.3402368604976709,-3.3181524658169677,-0.35312623779153096,-0.5048628882716869,0.7889773748932627,1,left
7.431,0.5278041213938465,0.8955752825858053,0.14413648054430722,0.28000599634354095,1.3686448723449791,-3.369166088942043,-0.35368040960373714,-0.5050014781021315,0.7883472024751086,1,left
7.436,0.4933293437740186,0.895709222021859,0.14100690823105305,0.277596875234975,1.3345920770291855,-3.307917471122904,-0.3540281501340116,-0.5044834645620935,0.7869991961443134,1,left
7.437,0.4525141914777881,0.8976319741472857,0.14066519489625234,0.27930068010391135,1.3611606627765367,-3.355820474505035,-0.35328468694287984,-0.5050542787315411,0.7890361457367041,1,left
7.44,0.4058787284760736,0.9049959620917007,0.1430487560469591,0.2785553791217177,1.346783977162548,-3.329787733240803,-0.354096508718567,-0.5047817348816906,0.787364648125076,1,left
7.441,0.3560584847818491,0.915835095645015,0.146053455501134,0.27865014859062487,1.3500892862446654,-3.3358273503512716,-0.3533290034180778,-0.5044513205982535,0.7880177728610864,1,left
7.445,0.2993566753891329,0.9264384423193917,0.15152176375757004,0.2786173791597255,1.3539736792156507,-3.34298187050974,-0.354078754606439,-0.5055468519545737,0.7885982090686092,1,left
7.446000000000001,0.23904063607019968,0.9348129591064862,0.16352754626712787,0.27916204188022464,1.3471053178307408,-3.3300397902689003,-0.3533139544014534,-0.5037927126474966,0.7870022554658496,1,left
7.45,0.1784171436580492,0.9369947844741613,0.18550838161623037,0.27781977253675505,1.3538007241770669,-3.343125009322441,-0.35399979440523754,-0.5057064483459672,0.7889707011459767,1,left
7.45,0.12029777414672578,0.9314433896892249,0.22064549883892298,0.2797363509804722,1.3490032853079126,-3.333199580274644,-0.353690343614934,-0.5045713346546936,0.7876542225639901,1,left
7.456,0.07016806901633361,0.9216734682617573,0.26264311518534467,0.27809179199755363,1.351347735191359,-3.3384575045388822,-0.3531536584665513,-0.5036842037197414,0.787076269831811,1,left
7.457000000000001,0.029562497783592365,0.9120444682240565,0.3044150329357252,0.27807472532180055,1.351344686708891,-3.338459400708616,-0.35500440188707694,-0.5077351705322236,0.7906330203884739,1,left
7.46,-0.000697545985130452,0.9068292673569833,0.3435365260232002,0.2813150022194222,1.349362893017322,-3.3329580581801386,-0.351689914769014,-0.5001828961972659,0.7837942962823259,1,left
7.461,-0.021929168715219726,0.9093555815554915,0.3677092093620826,0.2738314612947135,1.3528907798924426,-3.3437364098888933,-0.35590336153532864,-0.5098946034254619,0.7926629797790075,1,left
7.466,-0.03042647337093759,0.9167758454313732,0.37220572215710335,0.2850605731577765,1.348451903240432,-3.3291348585535587,-0.35240386004431884,-0.5017809130202675,0.7852220799320007,1,left
7.4670000000000005,-0.022410615701906292,0.933496590468474,0.35694335207554984,0.27305206962693274,1.3527021959034917,-3.34383650725375,-0.35247056532903703,-0.5020094543859914,0.78548026282389,1,left
7.468999999999999,-0.008446836407352429,0.9604634465828654,0.32919529846521695,0.28000268163567466,1.3504003139139373,-3.335617925615519,-0.35921779782100205,-0.517456725455415,0.7995174597736168,1,left
7.47,0.007271370180988775,0.9862018250148361,0.29838183605044744,0.28599963577647647,1.3484799841855934,-3.3286486101822357,-0.34267470839952807,-0.47947658472818994,0.7649337436141322,1,left
7.475,0.025129812997189947,1.0149487478332764,0.2521127895570993,0.25973997728607734,1.3566989517080248,-3.35881813115809,-0.370088138189847,-0.542453776420884,0.8223059094549405,1,left
7.477,0.03331691033718677,1.036382975173346,0.21899802684719794,0.308452751721953,1.3416337475167732,-3.3031857946866885,-0.3339362233236929,-0.4593861275572507,0.7466213588218731,1,left
7.479,0.03506845200350949,1.0407807953844421,0.21044557081579715,0.24589315969735584,1.360855782914662,-3.3744007280956456,-0.18216315055707502,-0.11071336816001015,0.4289786011144682,1,left
7.48,0.04041868992096907,1.0527128149555125,0.17867677983786745,0.2981263318684385,1.3448617349913206,-3.3150431050305267,-0.14601418105471245,-0.027647301102179913,0.35329276873716586,1,left
7.481,0.04928409541385352,1.06372720182817,0.13840964772112596,0.29670958412056464,1.345302082351827,-3.316662407074296,-0.1734202584682743,-0.09062295164203146,0.4106726120578561,1,left
7.485,0.06167405497888465,1.0597011110024654,0.11915070519995462,0.19711292163742083,1.3756863934494135,-3.4296442997189462,-0.15689071201149318,-0.05264155694914824,0.37606714144182574,1,left
7.486000000000001,0.07724985182923255,1.050873633091296,0.10701862557513717,0.4419155398403516,1.301035117758203,-3.152002710918102,-0.16361809628879426,-0.0680957482210831,0.3901456746477538,1,left
7.489,0.10551269181377519,1.0289517166889395,0.09093437023219851,0.03602235905546125,1.424777706565827,-3.6122867865511403,-0.163707185883664,-0.0683102304260662,0.390345605531599,1,left
7.49,0.12989871290078647,1.0107991509607002,0.078013085816528,0.5713800251234779,1.2615871352696537,-3.005217819586923,-0.16019185967061378,-0.0602160331974531,0.38296365802274557,1,left
7.4910000000000005,0.13626198540415993,1.0057741503942865,0.07309598038961297,2.8180490284973074,0.5767060260785762,-0.45717420727601715,-0.16440074178062403,-0.06990915944369519,0.3918043264086256,1,left
7.495,0.1590381594235119,0.9848972889575182,0.05524358776638896,3.353282781311282,0.41354167006237297,0.14986601954537868,-0.16112596330987786,-0.06236336137849228,0.3849207020262573,1,left
7.496,0.1924446531996022,0.9586301306465831,0.026343894791837026,2.9476600570552485,0.5372369558840813,-0.3103730149550593,-0.16289366574055558,-0.06643383398402,0.388632823586183,1,left
