time,gFx,gFy,gFz,ax,ay,az,wx,wy,wz,subject_number,foot
14.620999999999999,0.35524060358040066,0.9384040364655318,-0.08300608717802554,-0.977157456725503,0.3965273012665782,-1.3467642981195147,-0.6160008700922728,-0.15470941892717288,0.5871669735147413,2,left
14.622,0.3581195434003276,0.9484110213558258,-0.08554936881686398,-0.9709942897873309,0.3991432142464,-1.342707792750689,-0.6156882028471669,-0.1547599397609417,0.5868361119302051,2,left
14.626,0.3559914609713657,0.9587527870078066,-0.06897072833653042,-0.9723734257959384,0.39848892825564375,-1.3438653080491414,-0.615423754058799,-0.15497429775170046,0.5867665204104029,2,left
14.627,0.3456347376220994,0.9629706726433377,-0.04502196908382979,-0.9740532067191086,0.39788544111891416,-1.34457332204653,-0.6161630859211307,-0.1545383559353849,0.5871611577265707,2,left
14.63,0.33023171495900766,0.9638849443590036,-0.026141671624559104,-0.9711843293767107,0.3990045241908555,-1.3430433090223417,-0.615248701467315,-0.1550456053755057,0.5866340102738987,2,left
14.630999999999998,0.3112488315117433,0.9597639071715212,-0.007220055718129769,-0.9738449345099311,0.39789465188524054,-1.3447250865782032,-0.6158617702452742,-0.1547239586230813,0.587010036209573,2,left
14.635,0.2930217051314701,0.9532937980922669,0.0010873593398296132,-0.9721208966811512,0.39875577747730295,-1.34311619022676,-0.616126798183132,-0.154535495749873,0.5871120640841387,2,left
14.637,0.2746987489074014,0.9524823922490342,-0.00021514294735345445,-0.9727652947553922,0.39816189915371225,-1.34471284805805,-0.6144807498203575,-0.1555241750483335,0.5862556897335048,2,left
14.64,0.2596502394067436,0.9508451657575177,0.00027544486785572615,-0.9729644792456666,0.3985639207487473,-1.343063561372369,-0.617648398511303,-0.15365187158386684,0.5879407866170895,2,left
14.640999999999998,0.2514098804017181,0.948926851794609,-0.0004275612001822959,-0.9723275454391852,0.3983124457243471,-1.3445535018233596,-0.6135392737083445,-0.15607008503872,0.5857419440362553,2,left
14.645,0.2407514362041111,0.9506085299042433,-0.007768623170279919,-0.9729802597354763,0.3983390352715705,-1.3438727196590117,-0.6169878006925216,-0.15404511693666595,0.5875927300856256,2,left
14.645999999999999,0.2335260547551289,0.9546745714394274,-0.014857330287345885,-0.9726577009268146,0.39873099144733637,-1.3427258596050746,-0.6168662612872164,-0.15410954565693458,0.5875191246778669,2,left
14.65,0.23095078123880014,0.962340730025926,-0.015736639918930408,-0.9724363615997924,0.39769643672481836,-1.3467116247622966,-0.6103652406791764,-0.15794532526057523,0.5840523446181054,2,left
14.65,0.2279486165715418,0.9734970074222613,-0.010962804386873259,-0.9732325515697595,0.3994541945813563,-1.3395645833801195,-0.6263855640238711,-0.14850318280841793,0.5926077905222216,2,left
14.654000000000002,0.22796380798800314,0.9900897517507238,-0.0004927642837257475,-0.9720713301225125,0.3972550662799748,-1.3486529475334073,-0.5998062584420352,-0.16416457264130446,0.5784086989232584,2,left
14.654000000000002,0.22612571635636752,1.0014739596358484,0.004708677332916912,-0.9730992446249951,0.39906662109518837,-1.3411040589910925,-0.6348720451464196,-0.14350441716557247,0.5971432961991386,2,left
14.659,0.22468474099147334,1.005144538058266,0.004597151997978903,-0.9729815185664259,0.3990550736050267,-1.3412479359783602,-0.782026076983304,-0.05679638397638044,0.6757555029407261,2,left
14.66,0.22434129215569293,1.013037299446701,0.010335984845772661,-0.9712608443806597,0.395501023353801,-1.35580196367872,-0.8170992993207312,-0.036133116737204235,0.6944949925331845,2,left
14.66,0.22117379281156152,1.0253216372075669,0.012119995880226553,-0.9756196429044,0.40418240186528315,-1.3201194456880543,-0.7905056909978965,-0.05180027345063257,0.6802859932605305,2,left
14.664000000000001,0.21824310048559536,1.0419194028725607,0.009059466763579938,-0.9683442511654715,0.389808430450383,-1.3792459573793021,-0.8065451201566107,-0.04235091006172955,0.688855770701345,2,left
14.665,0.21479307876812803,1.050283520722893,0.011174167242937013,-0.9779571339593975,0.4087606649134292,-1.301275955771819,-0.8000250888127072,-0.046193048370540744,0.685372852443537,2,left
14.671,0.21318648792790762,1.0531214107623588,0.010395247832577842,-1.0182435153752367,0.4883390556753814,-0.9739194462037877,-0.7999139252989129,-0.04625550434774798,0.6853114592300857,2,left
14.672,0.21326870174714563,1.0698068141012151,0.007779813824715814,-1.0278563271222687,0.507291351608969,-0.8959674327729275,-0.8033720168995833,-0.04422399038020923,0.687162758417843,2,left
14.672,0.2109032478039781,1.0897528477369751,0.011326500079568015,-1.0205720256032913,0.49292104286487237,-0.9550601330482252,-0.7992228371582919,-0.0466604319766073,0.6849408920069333,2,left
14.674000000000001,0.21090859674187584,1.1084589017037807,0.011723564158204459,-1.0249626843174764,0.5015891872306402,-0.9194210388911793,-0.8024644645113815,-0.04475851802333898,0.6866777297456746,2,left
14.675,0.21499736151393045,1.129435752830906,0.008190593516333408,-1.0231761325110285,0.4980625889346995,-0.9339348417171824,-0.8007221683750888,-0.0457816524538322,0.6857447921991768,2,left
14.679,0.21808924433885168,1.1482097187721267,0.005996785882832952,-1.0231563107215165,0.49801016722026326,-0.9340952662161488,-0.8010724893605636,-0.0455684008763666,0.685927725630372,2,left
14.68,0.22200521299409398,1.1649059777707529,0.0017030217223866551,-1.0240789487226103,0.49986576266441723,-0.9265786967686486,-0.8016661766672755,-0.04524053324377469,0.6862584263398361,2,left
14.684000000000001,0.2279407168184201,1.17877462157566,-0.0011382266280614958,-1.0229787200646452,0.4976409715672984,-0.9355648705692698,-0.8006401015421563,-0.04580737688394092,0.6856870019015203,2,left
14.685,0.22987847200378841,1.191536055617352,-0.0010075642714600008,-1.0238300022635354,0.499376020091396,-0.9285919271838594,-0.8016708520267646,-0.045246309197941384,0.6862661770492648,2,left
14.689,0.2284067355228772,1.2023156903106815,0.00175025497286687,-1.023368702602495,0.49844134415291375,-0.9323658750099246,-0.8009431474891283,-0.045638212200097686,0.6858546822459013,2,left
14.689,0.22653596594534636,1.20929676539129,0.005159908219875785,-1.0234964001855398,0.49864548264378294,-0.9313859853586748,-0.8011583666769932,-0.045511089609321514,0.6859694969427453,2,left
14.695,0.22358017960622967,1.2128998279875152,0.0023924273630049854,-1.0235565264987878,0.49891965823061313,-0.9307100528006857,-0.8015862852319173,-0.04532730754844768,0.68624016648324,2,left
14.696,0.22113235952328922,1.2140354062632714,-0.0003936991408879446,-1.0234522402527202,0.49844508889600264,-0.9318833966897077,-0.800488830182537,-0.04581771716149749,0.6855576858775421,2,left
14.699000000000002,0.2160559703625518,1.2149315546267871,-0.0035365118007115704,-1.0235175642549872,0.4989043017674397,-0.9309505459803844,-0.8020983400156958,-0.04510244885261576,0.6865610781246725,2,left
14.7,0.20422947130471708,1.2144949079101492,-0.012592147604773958,-1.0234912041908748,0.4985887842396346,-0.931485432025702,-0.8004192941874291,-0.04584327584334487,0.6855109940433992,2,left
14.706,0.1900179399230052,1.2127661065124018,-0.02030185462997964,-1.023551930566183,0.4987062316062039,-0.9309973771594038,-0.8013900421811933,-0.04541492467097395,0.6861181722335902,2,left
14.707,0.17550463124603305,1.2131191678319602,-0.026329851397405304,-1.0233475447731757,0.49879222541670054,-0.9320551696765003,-0.8021445236472486,-0.04509402251180108,0.6865972043562529,2,left
14.709000000000001,0.15780931089856115,1.2181021700465644,-0.030601611879362948,-1.023781502074539,0.4985303110938971,-0.9299034004419533,-0.7987354649724716,-0.0465612064159555,0.684442709373458,2,left
14.709000000000001,0.13751869151390828,1.226630570927687,-0.03251739439428669,-1.0231268410736036,0.49890667400603955,-0.9331752998532417,-0.8050634143655045,-0.04383700952358768,0.6884416830878748,2,left
14.716,0.11594051455343703,1.2383164639958664,-0.03706532914933402,-1.0238343627313364,0.498524604571618,-0.9296052877768366,-0.796944240778561,-0.04733120948828776,0.6833098016858674,2,left
14.717,0.09358518689831721,1.2531146761624543,-0.04404395057616427,-1.0234264808517453,0.4987468730479567,-0.9316675734926398,-0.8037202491801009,-0.04441561912328193,0.6875934066297998,2,left
14.719000000000001,0.06832155571967502,1.2715405730445846,-0.0540230257335538,-1.0230499008116962,0.49889025712719476,-0.9336256029086318,-0.8035264133215234,-0.04450022939767634,0.6874708081326487,2,left
14.719000000000001,0.042552314960241214,1.2904111196818318,-0.0683886044379819,-1.0246635818338106,0.49819704230346135,-0.9252886803643481,-0.7906469320773576,-0.050036583621602355,0.6793273023472395,2,left
14.722999999999999,0.02051824304389589,1.306708164651197,-0.08885743597777174,-1.0216746807094017,0.4994889843174921,-0.940739036939862,-0.822313470828264,-0.03642374440904174,0.699350825660665,2,left
14.724,-0.005578035147124222,1.329132307945455,-0.10968858193888464,-1.0255122287682414,0.49783028033146903,-0.9208838184053103,-0.7698063916570281,-0.058995170793974885,0.6661477411378895,2,left
14.728,-0.023772960741813225,1.3452959740806172,-0.11847055192739797,-1.0223107822649267,0.4992183403501374,-0.9374684781307222,-0.8390644711890427,-0.029223548775223797,0.7099453118641943,2,left
14.729000000000001,-0.028123568464404253,1.3492222939423777,-0.11951466841626907,-1.022387835496264,0.49916482011974816,-0.93703485122079,-1.1297337272827872,0.09572311280558905,0.8937522406428755,2,left
14.73,-0.041208706429908565,1.3625432914583941,-0.11832007379141715,-1.0285195272748782,0.4965646141219479,-0.9053388574130112,-1.1989982940303192,0.1254963047334271,0.9375586246972029,2,left
14.735,-0.05653201610266658,1.3802528592974939,-0.10878978015265356,-1.0134654441679387,0.5029826615476441,-0.9832372413808618,-1.1464810744573666,0.10292242435241294,0.904341763643455,2,left
14.735999999999999,-0.06916538897361835,1.394738078065618,-0.09496024854503385,-1.0384137459586253,0.49232249366481506,-0.8540703349354417,-1.178156000738774,0.1165372934017517,0.9243766823422302,2,left
14.74,-0.08065368334487234,1.4035511193757102,-0.08752875607155135,-1.0055203093013074,0.5064036620867276,-1.0244526901050501,-1.1652770063608973,0.11100105689529387,0.916233837278877,2,left
14.741,-0.08308726260930875,1.4066734530661889,-0.08575124887400168,-0.8673700155869642,0.5653812814076657,-1.7396402282838377,-1.1650668943216922,0.11091250793290522,0.9160891275392495,2,left
14.741,-0.09056310702666424,1.4144685744054208,-0.08250163479598391,-0.8345114191178008,0.579516668691499,-1.9100480843356746,-1.171878432078496,0.11383669625094708,0.9204210004075271,2,left
14.743,-0.09997395626987447,1.4210921064173183,-0.07709298704061104,-0.8594052586384686,0.5687717449003485,-1.7808413151671156,-1.1637086481219123,0.11033024865174812,0.9152203620028887,2,left
14.744000000000002,-0.10199386950661454,1.4291618820599605,-0.07008877396882604,-0.8443962297150693,0.5752599093707027,-1.8587726749012665,-1.1700867191063606,0.11306657507552995,0.9192874299460279,2,left
14.749,-0.10438336632937024,1.4417906293762925,-0.058438718557177846,-0.8505305193922654,0.5726637400825796,-1.8270785849348776,-1.1666559436367043,0.111594135325677,0.9171034285919075,2,left
14.75,-0.10753256931514432,1.4566678218421383,-0.045232767809842186,-0.8505201849131709,0.5724742348610923,-1.8265809921074116,-1.1673682612612362,0.11190483451148193,0.9175251831319935,2,left
14.752,-0.11314044060581167,1.4785511534755842,-0.039379416395252595,-0.847509525232159,0.5741591905620607,-1.843305299816727,-1.168475299932107,0.11236616718542816,0.9183175151514553,2,left
14.753,-0.12007151489627055,1.4987749098121605,-0.040148637338865804,-0.8510752811189516,0.5720775248922061,-1.823251143925696,-1.1665614246619018,0.11156851214165883,0.9169484048619229,2,left
14.757,-0.12693315484754986,1.5147510210864037,-0.03897547480569955,-0.8483555768435198,0.5737884006007234,-1.83889853411858,-1.1684590585910066,0.1123535065234522,0.918343232185636,2,left
14.758,-0.1324343177058807,1.5268976103533665,-0.03433203796863518,-0.8498525643643828,0.5729135629273486,-1.8304762076131156,-1.1671319353809804,0.11180751581444165,0.917348724014599,2,left
14.763,-0.13267747313680417,1.5312809188192151,-0.026452625679157765,-0.8492496546112311,0.5727047712771012,-1.8322685615801562,-1.1675578385315533,0.11199081342690693,0.9176166754421271,2,left
14.764000000000001,-0.13172498196156168,1.5335565825753716,-0.014157823824196707,-0.8495735831610326,0.5740658394511036,-1.8348665086643527,-1.1681990767282477,0.11222102738594138,0.9183102340861216,2,left
14.767999999999999,-0.13050932212803323,1.536697742190127,-0.002131850047292087,-0.8490200671675094,0.5717213726716824,-1.8303734754961978,-1.1664977966754289,0.11159352564632921,0.9165761078071522,2,left
14.769,-0.1286498522923337,1.5427177072450329,0.0024055060383178914,-0.8499127700754567,0.5745057559319978,-1.834777955093545,-1.1689809154904132,0.11250605998091966,0.9191283962406611,2,left
14.773,-0.12726142404207663,1.5535445087239594,-0.004238503552796465,-0.8491131002905603,0.5723239881261599,-1.8317232703352868,-1.1664066388468126,0.11156455660794001,0.9164536331643349,2,left
14.774000000000001,-0.12701775925630165,1.5683764926109658,-0.015698868100326994,-0.8488983488938189,0.5723940182289453,-1.8327734125278066,-1.1678947882868158,0.11210888021188024,0.917999571298209,2,left
14.777000000000001,-0.12891101369046523,1.5873401371147602,-0.024079757494525986,-0.851246314521036,0.5760706358830698,-1.8339595780971294,-1.1690164203386733,0.11250879697202457,0.9192302817165965,2,left
14.777999999999999,-0.12840257268973537,1.6078043283202312,-0.0350097105610106,-0.8459921259304701,0.56761979605049,-1.8306678973251673,-1.163899079653413,0.11066887449100142,0.9137122392010096,2,left
14.782,-0.1238511766309334,1.630281785569922,-0.05666100942960868,-0.8538569230468005,0.5802164576325902,-1.835443864956993,-1.173399485076812,0.11408549261070866,0.9239519948736374,2,left
14.783,-0.11353587049354887,1.6579019063837523,-0.08658202491271486,-0.8454377238428639,0.566802020987165,-1.830531227134165,-1.1612140544369332,0.10970408268944291,0.9108121699543998,2,left
14.788,-0.09924020930364066,1.687760131944215,-0.11779309018347794,-0.8503030737320102,0.5745547063469281,-1.833372218083589,-1.1713806358310301,0.11335947581415891,0.9217780357688867,2,left
14.789000000000001,-0.08356734570186827,1.717610715263075,-0.14757098875667857,-0.8545702257262491,0.5811996156543492,-1.8354225771284858,-1.1710894067042101,0.11325258844226219,0.921470596642892,2,left
14.793,-0.06497859834895978,1.7461952223294985,-0.17376938801743738,-0.8359869451433454,0.5520647605350067,-1.8259317632448084,-1.1517736704511763,0.10631554469343557,0.9006064856750107,2,left
14.794,-0.04437993656193147,1.76993738507647,-0.19565621101096953,-0.8704480021058927,0.6061024350926418,-1.843559662335293,-1.1992609474876472,0.12337213418578954,0.9518957598491327,2,left
14.798,-0.016006476084620302,1.7907509226446305,-0.21184921241270935,-0.8261887538747558,0.5367133025718629,-1.8209559201937209,-1.1205260400404113,0.09509279670591052,0.8668569474798694,2,left
14.798,0.001549948436626282,1.8049836179182916,-0.21686677321027859,-0.8631464102070548,0.5946490088363778,-1.8398140814632093,-1.2243749691192813,0.13238820811033788,0.9790194615295095,2,left
14.799000000000001,0.007205210772992744,1.8068510424216493,-0.21800102410308084,-0.8621423312981138,0.5930596093430035,-1.8392560800108508,-1.660321965065566,0.28881844125522593,1.4497824348815371,2,left
14.802,0.03225525386130589,1.8111008265025037,-0.22214216930006228,-0.7916661052598225,0.4826462896757294,-1.8034897506847754,-1.7641851359781038,0.32608605608552377,1.5619376278568833,2,left
14.802999999999999,0.062137143822213844,1.8169045178561454,-0.22475384924595934,-0.9649047832368551,0.7540657669139099,-1.891441850380834,-1.6854152262381725,0.29786549727515854,1.4769122176995395,2,left
14.806,0.08996874070599005,1.803680029074275,-0.22670357566523364,-0.6776512394981646,0.30401706393546685,-1.7456088384939812,-1.7329660439114276,0.31483185229756283,1.5281850895729487,2,left
14.807,0.11068404553962212,1.790592189565524,-0.22803507623732389,-1.056550720995109,0.8976455397610936,-1.937957201555819,-1.7135583422308627,0.3080046585421233,1.5073347298480928,2,left
14.808,0.11691377229510733,1.786524920168306,-0.2274601954028042,-2.6466493122147576,3.388856198584441,-2.745047750592628,-1.7133694057825477,0.3078014441946691,1.5070244426342265,2,left
14.811,0.1419433725652055,1.760967894279656,-0.2252834312200792,-3.0255391060694636,3.9824638105586105,-2.937373087664805,-1.7234658415666968,0.31148284483964994,1.5179729842864698,2,left
14.812000000000001,0.1774957514489049,1.720470889511339,-0.22297211014534682,-2.738338775647562,3.532505828902263,-2.7915967330604645,-1.711254685410358,0.3072155611726255,1.5048771505634666,2,left
14.817,0.206524515699935,1.6771633054520085,-0.22070814094967195,-2.911430082420923,3.8036925094683625,-2.8794458674002357,-1.7209436595365202,0.3103229281316519,1.5150482703889059,2,left
14.818,0.23987413448868136,1.6220976462677124,-0.21358231630981095,-2.841231127060667,3.69370194443566,-2.843828707233046,-1.715439503108049,0.30898410088101524,1.5096068666633595,2,left
14.821,0.27165952004082283,1.562762131774553,-0.20100962485568824,-2.8398389255548624,3.6915353833208107,-2.843104610785341,-1.7171036373853672,0.30880058763801715,1.5107875417122236,2,left
14.822000000000001,0.30241000562428927,1.4998292783138654,-0.18218582743752443,-2.8771861756938115,3.750032460577594,-2.8620769339972787,-1.7180565359053366,0.30976492684893797,1.5123079388042981,2,left
14.827,0.33775007383585676,1.4289260572613092,-0.15686238797669927,-2.832747440305025,3.6804167800648138,-2.8395143805568903,-1.715714672493232,0.30892971380375217,1.5097832191837885,2,left
14.828,0.3764917498046124,1.3524582605199997,-0.12919367803785575,-2.8668988287667423,3.7339348401906958,-2.8568369157993727,-1.7186470653374473,0.3088281862163552,1.5120385188866814,2,left
14.832,0.4140541930235125,1.27076853446734,-0.10383002761532294,-2.8493616759067497,3.706417081006304,-2.8479734194649584,-1.7154880927728544,0.31033197829650716,1.5107101462219965,2,left
14.832,0.44861899801264815,1.1881015517238298,-0.08233981437049087,-2.8517935458634946,3.7103002154541387,-2.849143067499709,-1.718650663082991,0.30753191191294993,1.5110177349762774,2,left
14.835999999999999,0.4812603695451098,1.1073556069440014,-0.057574308952932175,-2.858949938896642,3.7214221471211353,-2.852854357029351,-1.7159620379065084,0.3107623898101014,1.511427418166404,2,left
14.837,0.5097748427777923,1.0309200244678367,-0.03231963056905762,-2.848644367033384,3.7053484413352167,-2.847560959299482,-1.7171670479455496,0.3087698059332157,1.5108138619094804,2,left
14.841,0.5374695732506549,0.9619115466352092,-0.00816137446772487,-2.8566305037670023,3.7178603964068766,-2.8516136597941184,-1.7189395366929108,0.3073185155452365,1.5110789846866106,2,left
14.842,0.5638293269254404,0.9022217186916444,0.021114606112089093,-2.854560673556348,3.71448513832281,-2.8506794783925606,-1.712731139897473,0.31423225881872224,1.511594758655515,2,left
14.845999999999998,0.581216959306581,0.8529869006375449,0.042569660369169524,-2.8493795840890597,3.706671706101343,-2.8477843881225713,-1.7237931920564136,0.30124601174718857,1.5101492632115636,2,left
14.845999999999998,0.5914864489045766,0.8102807010376738,0.06094561720711302,-2.8605999387953833,3.72379656670235,-2.85387471018673,-1.709789189466358,0.3179954129199303,1.5122229765248905,2,left
14.850999999999999,0.6041656670776252,0.7714414710997726,0.09655615642495671,-2.8473603472884577,3.7035392155016877,-2.846734104297242,-1.7213950827524767,0.3039778223218417,1.510397515266825,2,left
14.852,0.6229241068841711,0.7363816557121501,0.1433074668147995,-2.85586898179815,3.716587587071333,-2.8512947063728507,-1.7211543309912862,0.30439208949812435,1.5105308753677618,2,left
14.856,0.6430544096887201,0.7059251130160396,0.18980357095197253,-2.86053338593386,3.723657779454649,-2.853874226543778,-1.698888675978885,0.33105199246497824,1.5138541374247607,2,left
14.856,0.6642888249392629,0.68074212943687,0.227911861888106,-2.8351915058058212,3.6850061003232137,-2.840091027959966,-1.7534836239623435,0.26546034256851525,1.5055343623995519,2,left
14.86,0.6924349523898948,0.6562394809422667,0.2562342236414772,-2.883355552882559,3.7585098425123755,-2.8662414671047545,-1.6630248823443354,0.3742510010801975,1.519404028716964,2,left
14.862,0.7134952855632217,0.6391000235965745,0.2727379974814697,-2.8210855509129775,3.663466507624128,-2.8324503997116217,-1.782310064302529,0.23072981408797283,1.501069202023952,2,left
14.865,0.7176597325192287,0.6357238922831512,0.2752761841940021,-2.8732583618169363,3.7430987034962873,-2.8607511001024166,-2.2829925093598664,-0.37161710179678153,1.4241401228846997,2,left
14.866,0.7412514597451008,0.6230817028038461,0.28600976394127997,-2.871550628685497,3.740497007212036,-2.8598455643721463,-2.402265635539592,-0.5151850657212466,1.405768706544958,2,left
14.866,0.7794258157872775,0.6031792066661356,0.30106263005591943,-2.7728477796455273,3.5898365533203878,-2.806252672234274,-2.311836832496136,-0.4063173072495203,1.4197075483437036,2,left
14.872,0.7959649860300977,0.5964701651881715,0.30264041035111955,-3.015888224234349,3.960798334564446,-2.9381799768457757,-2.3663768986470073,-0.47198353827748485,1.4112980286105274,2,left
14.873,0.8219956319322098,0.5817959253826108,0.30896233041951016,-2.6127317266363246,3.345463725309564,-2.7193610512625632,-2.344191349002495,-0.44529807360851315,1.41470603286189,2,left
14.875,0.8473655525755079,0.5659714688658488,0.3157981538236101,-3.1445830341575833,4.157201906025909,-3.008011509597665,-2.3438606587247985,-0.4448095763170469,1.4148013981508387,2,left
14.876,0.86339487566625,0.5549109372462755,0.3234942879584784,-5.3763972931722135,7.563780797795531,-4.2194869591340005,-2.3555295233256923,-0.4590370619701964,1.4129148560363745,2,left
14.877,0.9200706690056887,0.5148227303817637,0.341096707377192,-5.90831886671602,8.37558561475812,-4.5081459235093195,-2.3415452268567853,-0.4419494093341501,1.415193732470482,2,left
14.879000000000001,0.9745460218649699,0.46798946569774663,0.3369393186984689,-5.505054818807898,7.760129521657037,-4.289301796923944,-2.352445750189485,-0.45532160570331837,1.4133916860076001,2,left
14.880999999999998,1.0025536188440802,0.4326022574315921,0.31779229095393563,-5.74817801910094,8.131238815364963,-4.4212822667757035,-2.346573019312146,-0.44814529283905824,1.4143488708919985,2,left
14.884,1.0444856199963664,0.3895327620115617,0.3038341720540054,-5.649497128193415,7.9804568697038265,-4.367603080503537,-2.347870876150407,-0.44949100761137195,1.41425459980378,2,left
14.885,1.0841698564737177,0.3488195356904905,0.2851880440452833,-5.647588350204646,7.977875648663117,-4.366805173903895,-2.3495492153690227,-0.45220557322710275,1.4136570422045587,2,left
14.889000000000001,1.1182392327646156,0.31443721406952163,0.2716586903671069,-5.700172551833388,8.05767137793972,-4.3950140384658205,-2.346645712448299,-0.4475155534317426,1.4146878636826328,2,left
14.89,1.1561716953667025,0.2805721267615283,0.26133129862314886,-5.63733908597235,7.962224259777014,-4.361236374046803,-2.3494324147352947,-0.4523359090354124,1.4135426945208074,2,left
14.894,1.1771813998996807,0.25735853967792277,0.2472100872136626,-5.686031866129449,8.03634963926773,-4.387525958941259,-2.347530508747523,-0.44887810789061133,1.4144063586244493,2,left
14.895,1.1936617056673786,0.24086511493018128,0.24019743351803025,-5.660515729061641,7.99701375034615,-4.373397300808568,-2.348267329700514,-0.44975437965227116,1.4142978360062208,2,left
14.899000000000001,1.2256769432446926,0.21842207731983923,0.23462773202439158,-5.664609263917399,8.004514356953692,-4.376515119891655,-2.348660141121905,-0.4523959331643176,1.4131786327089113,2,left
14.9,1.2473710292442162,0.20413081192722216,0.22482072851597668,-5.674744304800987,8.017828027920263,-4.380474379555421,-2.3473563374141806,-0.44587067621160187,1.4157991273420065,2,left
14.905999999999999,1.255739140511806,0.19934531654521878,0.22361551846319305,-5.658826034346593,7.996175668823177,-4.373725357597811,-2.3492067641828918,-0.45549119303815566,1.4119041508837675,2,left
14.907,1.2699935054849227,0.18335982946901824,0.23102930941434496,-5.673201966166621,8.016010558450796,-4.380021081041669,-2.347359667627887,-0.4453866539709366,1.4160372722877488,2,left
14.909,1.2816675270202875,0.1629338798837517,0.23460341310447275,-5.665700532208832,8.004542350656049,-4.375936116284281,-2.3484278625716137,-0.4512260862699332,1.4136484404581993,2,left
14.91,1.2890198351221436,0.1507495663866644,0.23158044570948455,-5.663163166312215,8.004579020082707,-4.377355043491322,-2.349072121570325,-0.4559272680545994,1.4116335952730965,2,left
14.914000000000001,1.2928623565131627,0.1450124626584822,0.22356268010249308,-5.6764756764410595,8.015963683938516,-4.378190735386378,-2.3458955472703087,-0.4349236467513233,1.4205102735550121,2,left
14.915,1.2938710837485323,0.14464585910043437,0.21379858366114055,-5.654815710421435,7.996232515737119,-4.375967080009106,-2.3518033120920903,-0.4738949954807154,1.4040442038669507,2,left
14.918,1.3036445452077818,0.14861541283221913,0.2053178091425507,-5.6782419006369445,8.017779122594622,-4.378519813378293,-2.3442416225029836,-0.42388320686762115,1.4251853688136245,2,left
14.919,1.3198809271669032,0.1534616700086252,0.19940471283058409,-5.664174765904947,8.004519094678876,-4.37675684382843,-2.350542300224303,-0.465620545990832,1.4075350190704357,2,left
14.925,1.3307370359789925,0.1623769713531934,0.18950124561770149,-5.654677422039921,7.997098472026343,-4.376662438869607,-2.3503465800529275,-0.4644612497187458,1.4080226882309557,2,left
14.925,1.3333293827083834,0.1789746240477615,0.17455324829456326,-5.70054866468789,8.036141993261596,-4.379409726235988,-2.3384472397973535,-0.38501301521902564,1.441645837330797,2,left
14.927999999999999,1.3348721528763363,0.19874275111839546,0.16293516401438343,-5.614699103389952,7.962545837572652,-4.373892380190862,-2.367708656778474,-0.5803028883033445,1.3589903480439964,2,left
14.93,1.3377144146869249,0.22194655708426453,0.14395109608808532,-5.725114554264442,8.057319839830278,-4.381073402055489,-2.319199328780507,-0.2565132613884037,1.4960436211334245,2,left
14.934000000000001,1.338774857874482,0.2377129976597145,0.12641515744477208,-5.6328535782894855,7.9780784716824975,-4.375036820197776,-2.38317169072329,-0.6835759028490169,1.3152668657377227,2,left
14.935,1.3385589666588897,0.2411646647245753,0.12126256518892174,-5.635645423258019,7.980663851139214,-4.375354655831287,-2.6517311585127383,-2.476227488453962,0.5566322301469347,2,left
14.935,1.3380251149569078,0.2515210609583054,0.11041095081585514,-5.810622303573204,8.13033940579259,-4.386365086142927,-2.715696173392068,-2.903281835055399,0.3758632199467775,2,left
14.939,1.337391416251231,0.264036370276755,0.10106253072942883,-5.380184820368063,7.761914659184916,-4.35911487195946,-2.6671867397658326,-2.5794895886024483,0.5128865229463582,2,left
14.94,1.3305087186435265,0.26683187080529563,0.09463969874276669,-6.093983616072887,8.372941590173415,-4.404351667902871,-2.696479709906881,-2.7748239413820848,0.43030431995154667,2,left
14.944,1.322653641173397,0.26755905547965,0.08776201397762906,-5.152456371702356,7.566962845241678,-4.344673432830323,-2.6844951846654705,-2.695261275085515,0.46379760831092814,2,left
14.944,1.3203807888571375,0.2666604620282109,0.08403973714143212,-1.2015309538721468,4.1853185150450685,-4.094620116271912,-2.6844434576780722,-2.694291634083191,0.46445936466226695,2,left
14.945,1.3099419232484277,0.25841008241879193,0.0679265175877417,-0.2600656830617969,3.379424208078798,-4.034969379812969,-2.690569136099568,-2.735802327026521,0.4466437332742135,2,left
14.949000000000002,1.2926263898416184,0.24314729189853218,0.046803227295796515,-0.973702616190894,3.9902502475445747,-4.080146204821615,-2.683142417233106,-2.6859596724097825,0.4678441555725237,2,left
14.950999999999999,1.2717918445891185,0.22632683124939254,0.03428803916802138,-0.543575455177781,3.6221787317213585,-4.05299171246167,-2.6890649055841105,-2.7249630659704307,0.4515481089340664,2,left
14.953,1.2407732547742585,0.2068222063168286,0.03398568083655808,-0.7180824173783356,3.7713574726985364,-4.063880164074563,-2.6856043167449783,-2.7035722161686175,0.4599232125364655,2,left
14.954,1.2006228839920343,0.1826659089145512,0.04753116758884289,-0.7214228302848612,3.7744774611954983,-4.064313033007165,-2.6868742302633284,-2.709104432460898,0.4587487221711045,2,left
14.957,1.1475631686203847,0.15850651195507448,0.06579993879461547,-0.6287456176472318,3.6948973769231044,-4.058229542127549,-2.6870286227697417,-2.713748346330057,0.45535210780711854,2,left
14.958,1.0858646187474186,0.13130626181832855,0.0916899176532866,-0.7391130168408024,3.7894743025980606,-4.06530985111781,-2.686128529432703,-2.7048598967877853,0.4602545319528795,2,left
14.962,1.021808542378393,0.09803107522055031,0.12767993879270417,-0.6541431004591988,3.7169554798499687,-4.06010972205061,-2.687484711230618,-2.7138861823687153,0.4564447266698327,2,left
14.963,0.9540372081876326,0.06093785225557778,0.16830897871390724,-0.6980764713843615,3.7538817448224893,-4.062312682422202,-2.6855759863541566,-2.706491357500745,0.45745778227445755,2,left
14.968,0.8880265365744108,0.022453936008847042,0.21330121788886455,-0.6914166826727672,3.7493477587636774,-4.062886471124035,-2.688264140790567,-2.712219034250146,0.459870367116772,2,left
14.969000000000001,0.8279139876900734,-0.016307533955164925,0.2614570387212486,-0.6743933412809844,3.7333471470760093,-4.060588287961158,-2.6848434919933264,-2.7076087180782533,0.4546063822002278,2,left
14.972000000000001,0.7749025826762439,-0.05703109130185739,0.3115296182255769,-0.6993945391831657,3.755885313547325,-4.063143509514241,-2.6882740311762525,-2.7110837512453028,0.46082692936511604,2,left
14.972999999999999,0.7289738548034016,-0.09482688659619845,0.36153627915304554,-0.6795463686948898,3.7389074625917837,-4.061895565460997,-2.686436974117796,-2.7100412392427753,0.45682452994048933,2,left
14.978,0.6911091352583847,-0.1304142245892542,0.4076446976085881,-0.6858124675539565,3.7421573110422868,-4.060488901191556,-2.6844021979069694,-2.706141175120027,0.45464342758278287,2,left
14.979000000000001,0.6608740138561588,-0.16661952965782706,0.449230657575451,-0.6961174045446492,3.7558055825907655,-4.065262037326038,-2.6924745656851408,-2.717672495089171,0.46652989927649013,2,left
14.982000000000001,0.6309890428507491,-0.19686465928944386,0.48562250170753335,-0.672071847984678,3.728023696504427,-4.057592871014463,-2.6777016004465213,-2.6975957853008072,0.44393369261311455,2,left
14.982999999999999,0.6015586554008805,-0.22507419680382887,0.5138334009217788,-0.700879083251499,3.760354336289045,-4.06596870674636,-2.69659889732413,-2.7229037979316635,0.4731468746410726,2,left
14.988,0.5741256686237605,-0.2544519261306573,0.5365432205104261,-0.682104377020124,3.739854392735732,-4.060995184399108,-2.6808541200200384,-2.701974551922137,0.4486753161436875,2,left
14.989,0.544144565450968,-0.27908044828862044,0.553105326408788,-0.6725426545310665,3.7278398754706656,-4.057124580973545,-2.6812303155671655,-2.7022341996733994,0.44946457731566125,2,left
14.992,0.5136093240997988,-0.2987805595154074,0.5614984255202058,-0.7266085320604718,3.7908555564383315,-4.074832215763919,-2.7113839911207593,-2.742958281467213,0.49578833027662794,2,left
14.992,0.4836505295585489,-0.3154291412224097,0.561900367411187,-0.6234534227130759,3.671529465278529,-4.04181268442891,-2.6373450202376896,-2.6433070943414823,0.3817488319091448,2,left
14.995999999999999,0.45434813799255847,-0.32781734449199385,0.5480292757919902,-0.7569547109591708,3.8256343275277898,-4.084275179548296,-2.7600724402472196,-2.8083660930731353,0.5708967706067629,2,left
14.997,0.4366999010138294,-0.3349650968228822,0.5367226972483536,-0.6450533376958771,3.6966114955130127,-4.04880043496803,-2.598214107898534,-2.5907144790985708,0.3213929342895949,2,left
15.001,0.43369866123694534,-0.3359192810689038,0.5340911383592195,-0.6487793270541904,3.700665949546675,-4.04979689784114,-1.9187775229882837,-1.6768851821717838,-0.7257986774537869,2,left
15.002,0.4264942870555156,-0.3340653585395572,0.5157423612802114,-0.860303431534911,3.945186314014572,-4.117341801598807,-1.756952107588538,-1.4592423966418666,-0.9752838923316726,2,left
15.002,0.42029205783669765,-0.3298875297339403,0.4948884544903698,-0.3393829647857874,3.343381919801992,-3.9512760339669915,-1.8796170119296458,-1.6242573211688778,-0.7861568672779496,2,left
15.007,0.43886178126117537,-0.30949417872584506,0.4845700161199038,-1.2034936503830327,4.341491084645092,-4.226633944953985,-1.8056597822060163,-1.5247247804759523,-0.9002013135562313,2,left
15.008,0.4559610095902577,-0.2884827859065122,0.47679322661092766,-0.06357025660721688,3.0249016142316703,-3.8634399062960556,-1.8357351515351539,-1.5652284558285552,-0.8538163265596849,2,left
15.012,0.461918932619787,-0.28339364327692673,0.4745786219546031,4.720351494468131,-2.501313220901605,-2.3388550659606464,-1.8361485960035706,-1.56579392431096,-0.853162558358544,2,left
15.013,0.4935472318648308,-0.26196345327841924,0.4682918613747301,5.860352716835384,-3.8178804311730308,-1.975676067744216,-1.8204554849259829,-1.5445610252630613,-0.8774368499877444,2,left
15.013,0.5420955729879515,-0.2238091691145695,0.4575352503584008,4.996079523109604,-2.8197283347832682,-2.2510226606365595,-1.8391700781383666,-1.5700029960806199,-0.8484238547845988,2,left
15.017000000000001,0.5908140475999817,-0.19142039230437152,0.44599937061832556,5.5172453140744535,-3.4217792597987495,-2.0849331543562735,-1.824719697166359,-1.5501812283371432,-0.8709267088408335,2,left
15.017999999999999,0.6460180086188326,-0.1579246363147867,0.42571661781320624,5.305428742507981,-3.176689643282738,-2.1525682166162614,-1.8323872642322596,-1.5608768858955975,-0.8588844305618552,2,left
15.020999999999999,0.7013080366140165,-0.12186886031001043,0.40311102833338086,5.301950047021163,-3.1735330828131403,-2.153394862704559,-1.830690226316102,-1.558428957252185,-0.861595058156595,2,left
15.022,0.7529249496922017,-0.0846536019415641,0.38188781926012993,5.41380267297021,-3.301530256443508,-2.118144249691548,-1.8288196676850816,-1.5555882030696537,-0.8646694649022615,2,left
15.027000000000001,0.7996199758588145,-0.04662682779766418,0.3605986489161569,5.279967927411729,-3.148119800273844,-2.160407728014717,-1.8317090795158295,-1.5605225845415416,-0.8596041927611795,2,left
15.027999999999999,0.8401924347318581,-0.00926389159370507,0.33899985613825245,5.383976274866387,-3.2677533742123672,-2.1274291833046073,-1.8295893357154522,-1.555865764775736,-0.8639229759624734,2,left
15.030999999999999,0.8750087961428386,0.031068823463417578,0.3142883309973363,5.328562214516131,-3.2027424831523317,-2.145411142766993,-1.8302880581870413,-1.559021290798908,-0.8615569371051242,2,left
15.030999999999999,0.9031155266267374,0.07210352258298747,0.2912154468603487,5.339654798417698,-3.2187774544984595,-2.140834797310922,-1.8305546404896424,-1.55761350566466,-0.8621730930805566,2,left
15.036,0.9261768615242786,0.1120376804912074,0.2703418323665872,5.357388207161478,-3.2337163089912755,-2.136976280898878,-1.8305709602692524,-1.5576199541268037,-0.862157406143036,2,left
15.038,0.9438886528918531,0.15151238803273004,0.24838736024726935,5.3281633757907905,-3.2067593925042095,-2.144091011945921,-1.8287560992542944,-1.5584557385806739,-0.8630487649516003,2,left
15.040999999999999,0.9532025844179611,0.18675744432177432,0.22962966562447618,5.35507521758027,-3.232425274570008,-2.137266957034654,-1.8334600969186254,-1.5572940095463592,-0.8601532633465315,2,left
15.042,0.9528455893677018,0.21783177810707488,0.21799068627855164,5.3389630056098865,-3.2137660965038926,-2.142416705203745,-1.8259841592018828,-1.558410598715518,-0.8651798600657332,2,left
15.045,0.9458574289403606,0.24713328982525196,0.21285959187041048,5.340760809542002,-3.2258968819598417,-2.1385949090214322,-1.8342214651633757,-1.557580500362739,-0.8594082617009527,2,left
15.046,0.9354054978195713,0.272052386019594,0.21262106402839454,5.352755505537207,-3.216775733489434,-2.142197180444498,-1.8293768131343815,-1.5579455483719706,-0.8628747730138449,2,left
15.050999999999998,0.921247008231909,0.28969129834538754,0.21665323326977748,5.331005286661835,-3.2259281084566687,-2.1380523131697906,-1.8251631995138333,-1.5582101403374338,-0.8659193329956691,2,left
15.052,0.9031070423164367,0.30036546444285006,0.2231422318947524,5.35490935622666,-3.2170008236438328,-2.142241901904537,-1.8437033890419277,-1.5571863864958595,-0.8524388352011862,2,left
15.055,0.8803006920164287,0.30653718270173963,0.22956230415746798,5.339963302717974,-3.2208490746942284,-2.1401826834202433,-1.8092234154001203,-1.5589542248582364,-0.8775892528295145,2,left
15.056,0.850576501940558,0.30754671785538124,0.2337645494742171,5.332698702295987,-3.2306558603675635,-2.136616920822115,-1.8535641101450246,-1.5567742190223883,-0.8451909180617955,2,left
15.062000000000001,0.8170036873477285,0.3052484140018829,0.23574983285210754,5.373689733825907,-3.198358540248325,-2.149291236087529,-1.8165185630590872,-1.5585565855620747,-0.872282983738329,2,left
15.062999999999999,0.7787043153040747,0.3034756899936176,0.23600869603470748,5.296011487009784,-3.256337680547807,-2.126315711248063,-1.8175124371181495,-1.5584971723325616,-0.8715596727251284,2,left
15.065,0.739309972717934,0.2978320842858281,0.23436875166766513,5.396126623776479,-3.182318943216854,-2.155698594351821,-1.888224996902046,-1.555196665555672,-0.8197948945063174,2,left
15.065999999999999,0.708534863933588,0.28894214044835553,0.23308108140500156,5.312394524322403,-3.2439405670998496,-2.131216512677569,-1.7144151657555968,-1.563298062565389,-0.9470445253340066,2,left
15.07,0.6732039642245973,0.2805906117627678,0.22919862223528226,5.315239970898266,-3.2429380335577505,-2.1316944849348487,-2.0026107219508806,-1.5498813359260066,-0.7360364372442809,2,left
15.071,0.648484819262865,0.27590768601293075,0.22304195468324317,5.4730007900838515,-3.1232523463121966,-2.1789824353258758,-1.6224755479993616,-1.5675678807933286,-1.01437092523117,2,left
15.071,0.6445556685450243,0.27486962808097354,0.22140784012446377,5.084561116801149,-3.416644102232111,-2.062972326584128,-0.026724382317005135,-1.6416323690116739,-2.1828264003384334,2,left
15.075,0.6203120531984091,0.26614775345772124,0.22139095523244307,5.728788735510538,-2.93038449750612,-2.255265831389263,0.353412627692296,-1.659315340913753,-2.461172655552332,2,left
15.075999999999999,0.5975064250619423,0.25661554572942513,0.22159522808424362,4.87903985832889,-3.5717493980939974,-2.001636822594504,0.06520589762989103,-1.645914836554625,-2.250137671887488,2,left
15.08,0.59522493792507,0.25624426771067244,0.22279294892195783,1.3130405958131548,-6.264818686507052,-0.9367696808173734,0.23904751508142627,-1.6539739366500712,-2.3774326304345,2,left
15.082,0.5769798690618055,0.2530532872245195,0.22342075303467307,0.46335246332594054,-6.906289220823732,-0.6831202702942922,0.16827445687987935,-1.6507508367452184,-2.3256066538376663,2,left
15.082,0.5577067427424538,0.24773380619382615,0.2286393224390229,1.10752348218996,-6.419901468246346,-0.8754336625253774,0.1673659330729912,-1.6505851531931883,-2.3249459201560825,2,left
15.085,0.5482471590744604,0.24607351091980936,0.23898778823456962,0.7190265027920434,-6.713298845625156,-0.7594396914910315,0.2043249900927009,-1.6524716264175785,-2.3520035864513247,2,left
15.085999999999999,0.5347349205441192,0.24547410283385943,0.25162662830419924,0.8770719371970729,-6.593891063471974,-0.806638460701635,0.16002559436394856,-1.650248242212041,-2.3195703963167515,2,left
15.089,0.5248728557875291,0.24842785695429553,0.2649767369275857,0.8793494989642316,-6.592222972285427,-0.8072976536941749,0.1945709970630059,-1.6519228319793768,-2.3448641983229503,2,left
15.09,0.516599260055405,0.25325325474452454,0.2778706280340041,0.7963960015917136,-6.654853002463275,-0.7825642762455634,0.17580350560964733,-1.6511943402707154,-2.3311178741055256,2,left
15.095,0.50513063674218,0.25893837258867525,0.29232335984362134,0.8957803212131735,-6.579762482148021,-0.8121867319254211,0.18041932312031944,-1.650951642918984,-2.3345099751472635,2,left
15.095999999999998,0.494161549178653,0.2670239066100588,0.30748983470214664,0.8183347520497951,-6.6383296562479375,-0.7891276431108214,0.18475825811078322,-1.6519388662790968,-2.337666414930366,2,left
15.1,0.4842095407266907,0.27496987344284296,0.3239115287858315,0.8601438177018244,-6.606663304766715,-0.8015505911336271,0.17694277101003003,-1.6506126096211626,-2.3319688267386125,2,left
15.100999999999999,0.4753627743244838,0.2860340716538146,0.3404610472201661,0.8505717546475184,-6.613939771621602,-0.7987160358837466,0.18437928794851752,-1.6517254796293752,-2.3373941093907384,2,left
15.104000000000001,0.46651716159996215,0.3002240917145978,0.35661946301179526,0.8394155902917588,-6.6224303999287715,-0.7954414800797349,0.17899179814968336,-1.6514825088076464,-2.3334489615708076,2,left
15.105,0.4565605738919224,0.3141152489236759,0.3739777172550964,0.8588659249774306,-6.607505836421307,-0.801075286455291,0.1824464799639242,-1.6502181043657713,-2.3360157961536148,2,left
15.11,0.4462814558307008,0.3294461121415484,0.38727319335445254,0.840371675264117,-6.621887355426487,-0.795849654637392,0.17992267349085922,-1.6533563775482287,-2.334082875270286,2,left
15.110999999999999,0.4354933869611507,0.3438375020771097,0.3977573815090858,0.8530736717198861,-6.6117823118297,-0.7992797539196896,0.18240134991026208,-1.6486153213737642,-2.3360244631143283,2,left
15.113,0.42667041331613753,0.35846259378289075,0.408111996784393,0.8472737292174303,-6.6165724525235206,-0.797836330911624,0.17999852334555405,-1.653680120916634,-2.334130068355188,2,left
15.114,0.4188618088246836,0.3745191312527164,0.41575795436743407,0.8472936581045758,-6.6165596596297895,-0.7978457516869049,0.18100871796078175,-1.650736676298603,-2.334947758348733,2,left
15.119000000000002,0.40670876898688646,0.38838745044294565,0.42195961087067024,0.8511274006304139,-6.6129064855415365,-0.7984533700162084,0.1837529964116077,-1.6482846693131015,-2.3370243980648997,2,left
15.120999999999999,0.3949801349349603,0.40220013443407865,0.42814043557806414,0.8452906378312939,-6.619048326368746,-0.7979366050343976,0.1748090587461864,-1.6591546304572482,-2.3301812148479133,2,left
15.124,0.3882242215152,0.4157728485307582,0.43420906751715294,0.8515899164953995,-6.611704012310783,-0.7979892567904692,0.19084255690689644,-1.6389719910353941,-2.342466994719273,2,left
15.125,0.38193605105721207,0.42782277836299376,0.4380495359267945,0.8462818470455679,-6.618470112889222,-0.7983526100388298,0.17037841756564687,-1.6648917395354141,-2.326781943799319,2,left
15.129000000000001,0.37506998774416944,0.43717876546635703,0.4406107626021314,0.8489003704080333,-6.614900743707597,-0.7980097186711945,0.18741349163229765,-1.6432525614167255,-2.339840517757083,2,left
15.13,0.37342769382902724,0.4444834896990382,0.43967556133611785,0.8509657055084305,-6.611964141221529,-0.7976538535561006,0.1871432213701774,-1.643841885612193,-2.3396265623706967,2,left
15.133,0.3756896755542013,0.4524793610291086,0.4329672246171017,0.8424583324635964,-6.624404975711456,-0.7993637590630992,0.15403297230206725,-1.685087075740594,-2.314267347553165,2,left
15.134,0.3757997965866293,0.458608233822341,0.4237129915788783,0.8577220336151974,-6.601725073731513,-0.7960419269029364,0.2351907536137709,-1.5837112171649799,-2.3764342198869706,2,left
15.138,0.37922819692731013,0.46722246310462195,0.4090145018618525,0.8384769443639988,-6.630575615128254,-0.800410831254984,0.10068316037330842,-1.7517927848624246,-2.273399213537464,2,left
15.14,0.3835269577904543,0.4744746285014109,0.39956297375069894,0.8543922594175031,-6.6066097233034355,-0.7967212595735532,0.2780956419639321,-1.5300991232781191,-2.4093003604670837,2,left
15.14,0.3840677145322671,0.4764077863410952,0.3957209557878282,0.853929296567079,-6.607270504575782,-0.796804989020359,1.0229968278341268,-0.5994009137136317,-2.979894143435562,2,left
15.144,0.3899747081592432,0.4850108014347803,0.3805858210320436,0.8239362050515673,-6.6527287704832165,-0.8039607855447614,1.2004318141747277,-0.3777028016762642,-3.1158115215713216,2,left
15.145,0.39643413738615396,0.49850626237600165,0.36230651499106004,0.8975926579783912,-6.541073068146133,-0.7863686823300138,1.0659073901363882,-0.5458085038783335,-3.012765308354018,2,left
15.148,0.3988962117022403,0.5150332990910516,0.3455264743997031,0.7755392961694518,-6.72612215523798,-0.8155447332741663,1.1470292823975503,-0.4443660467902588,-3.0749029947820627,2,left
15.149000000000001,0.40190452225883755,0.5277813857415705,0.33545872435391383,0.936485936394958,-6.482111647967355,-0.7770691356165698,1.1140546973221852,-0.4857363395576581,-3.0496484318578725,2,left
15.149000000000001,0.4021627615706045,0.5315169892626144,0.333233945230152,1.6118997154737325,-5.458160779497849,-0.6156062512132685,1.1135292035829087,-0.4861507360386869,-3.049240302827516,2,left
15.152999999999999,0.4029402138918916,0.545564126779998,0.32154094579514797,1.7729047102204354,-5.214256601127653,-0.5772276823232101,1.1309008541597891,-0.46468691412243335,-3.0625524649779496,2,left
15.154000000000002,0.40427566252465663,0.5683042440446435,0.30721564256265377,1.6507335226415523,-5.39911146401672,-0.6062186492082867,1.110138230882829,-0.49052629417290877,-3.046645892353649,2,left
15.158,0.4006170930887043,0.5870111170281405,0.2937844055058775,1.7245596785936825,-5.287692477680803,-0.5888703559735982,1.1262324134430908,-0.47020331433371065,-3.058969690458331,2,left
15.159,0.3958138751593653,0.6043302342128667,0.27467633424374066,1.6943766424996327,-5.33295412809293,-0.5957894194636567,1.1177017194414227,-0.48154557127584563,-3.052449372181931,2,left
15.162,0.3952358880245348,0.6228724495335125,0.2550201127703737,1.6940555912720978,-5.333651673581977,-0.5959917440893436,1.1193848092436474,-0.47826596870932636,-3.0537141692865246,2,left
15.165999999999999,0.39969782400228493,0.6415378410613247,0.23398551507188867,1.7099809762583245,-5.309942321004534,-0.5924449483978955,1.1220702003014122,-0.47635461990549255,-3.0558011466054684,2,left
15.167,0.40285072686666523,0.6582327025365466,0.21098572578447652,1.6904592133190934,-5.338151133937901,-0.596281009229729,1.1177742774007329,-0.4805711130469601,-3.0524866106392636,2,left
15.17,0.40404237161419215,0.6754661071024285,0.1860266875105835,1.7063372764427664,-5.316465383449959,-0.5939144119536344,1.1215189908278431,-0.4758813182030522,-3.0553548209488706,2,left
15.171,0.40967618939107814,0.6912594509651043,0.1621019911453378,1.6969272539427074,-5.327804601415277,-0.5944108164901465,1.1195664830125114,-0.4804591662528918,-3.0539034926223523,2,left
15.175,0.4196786662918995,0.7055833602558803,0.1427878398859176,1.6999377476782684,-5.325573229768217,-0.5950884137082071,1.119386818786497,-0.47579768401579703,-3.0536647290084655,2,left
15.175999999999998,0.431374477293187,0.7208889489651937,0.12368301089143742,1.7020431416943755,-5.322403177732427,-0.5945983257692918,1.1212896774783216,-0.48070896460190277,-3.0552731231852017,2,left
15.181,0.44201000421402326,0.7332902196924652,0.10677130331667932,1.6961777007651109,-5.3269641402296815,-0.593405501364836,1.1186629269388608,-0.4762211101750059,-3.0531003720512233,2,left
15.181,0.45330407744398366,0.744760859718828,0.09747413292403409,1.7046998756648275,-5.323941235274917,-0.5972976658377962,1.120581755765295,-0.4783126300663857,-3.054662857091477,2,left
15.184000000000001,0.46634506471849,0.7573081431906683,0.0954618582659451,1.69477856573161,-5.324218100744636,-0.5908240697668821,1.120988972729422,-0.4816749410764626,-3.055055181371777,2,left
15.185,0.4789058642942874,0.7680410564552893,0.09803138279050005,1.703922860317733,-5.326093731501402,-0.5980671436337059,1.1169064241119697,-0.4698370463324904,-3.0515771945619123,2,left
15.19,0.49174227181994135,0.7735549320930817,0.10474720246615568,1.6992113806920384,-5.324143055874622,-0.5937457752239812,1.125021048819834,-0.49111032910924346,-3.058443017821406,2,left
15.190999999999999,0.5033478631392782,0.7751495145738929,0.1168799317015723,1.6946137054881416,-5.323273242786451,-0.5901473704807985,1.1144056330868055,-0.46404014981413205,-3.049477399893152,2,left
15.194,0.5132610814824498,0.7768718333251774,0.13063343334884725,1.7130517190806636,-5.329629771798496,-0.6062951624412468,1.1233505731433846,-0.48653489537001077,-3.0570250186476553,2,left
15.195,0.5176986680543237,0.7766939959243613,0.14605880900681242,1.6795612420121286,-5.316776703445453,-0.5761820258455341,1.1229811837041874,-0.48608850856802804,-3.056724702313438,2,left
15.199000000000002,0.5156324673179836,0.7750101487972608,0.16327388239490076,1.7221759702575663,-5.333869097245264,-0.6149406131981004,1.1062635981301336,-0.4427643194960668,-3.042588819659639,2,left
15.2,0.5120227574817098,0.7745690567389232,0.1764897500731692,1.6867695246551762,-5.319342209523171,-0.582543754098166,1.1475372989019468,-0.5490129531901848,-3.0774709144818893,2,left
15.204,0.5009337392157833,0.7749175307630727,0.1882726009116013,1.6876678223474002,-5.319823941446055,-0.583431606663922,1.079034434294087,-0.37294004361091154,-3.0195842925637084,2,left
15.206,0.4911625077902612,0.7742742781882719,0.1962453993367472,1.755125443946969,-5.347613548556365,-0.6452271061492473,1.169414165828744,-0.6051419177810666,-3.095952650799389,2,left
15.21,0.49067514521020894,0.7745258675275042,0.1981706941250843,1.5895063392289384,-5.279037043908156,-0.49330445349552454,1.548685773250536,-1.579962580890797,-3.416449307627002,2,left
15.210999999999999,0.483192656305203,0.7782799209022251,0.20210043470951838,1.8639860303834832,-5.392924464401413,-0.745223256284178,1.6390689172700743,-1.8121442655335531,-3.4928130593406364,2,left
15.210999999999999,0.4759754052039358,0.7801526629477993,0.20459001862846254,1.5020330234697163,-5.242584176728563,-0.41292974390585335,1.5705480134496401,-1.636118790809018,-3.434923906973703,2,left
15.214,0.47410552242218273,0.7806059775123624,0.20397439610881604,-0.017157237055561825,-4.611349694918237,0.9819282319543658,1.6118711279124487,-1.7422850880333796,-3.469834513593571,2,left
15.215,0.46575962921610053,0.7835054047095836,0.20557975172305065,-0.37901845832533776,-4.4608804739178325,1.3142282865586414,1.5950610232692015,-1.6990753131307292,-3.45562722663112,2,left
15.215,0.4585081022759304,0.7869884816684292,0.20630481550541763,-0.10470051864025245,-4.574997140748525,1.0622948894597917,1.5948207103112653,-1.6985075919614891,-3.4554438881321654,2,left
15.219000000000001,0.4509082005157195,0.793195346679282,0.203892379463972,-0.27013620864074367,-4.506155797320114,1.2142414722770445,1.6036366155250632,-1.7210763554974005,-3.462853132308988,2,left
15.22,0.4429544769480139,0.8009870214715145,0.20101586706796398,-0.20280517428611944,-4.534138051881159,1.1524145668959958,1.5930796993067846,-1.6940573194727087,-3.453988649420302,2,left
15.224,0.44468293463726705,0.8063174449192138,0.19837719426741748,-0.20193913186497905,-4.534643094594552,1.151557623987899,1.6012990551122548,-1.7150766902339094,-3.4608789036353373,2,left
15.225,0.44659146598978783,0.8093253510975358,0.1943337827532034,-0.23705545784860627,-4.51973228387608,1.1839395145102873,1.5968667853442182,-1.7037291100256806,-3.4571572281714102,2,left
15.229000000000001,0.4474539285458497,0.8107667526521825,0.18833219054350056,-0.19503422054932665,-4.537644750395868,1.145159180698937,1.597885317830607,-1.7064310448144133,-3.4580647007624656,2,left
15.23,0.4548391691592597,0.8107070943183219,0.17925314416142357,-0.22770305188123768,-4.523625001791039,1.175349745914058,1.5990433356327638,-1.709138675872128,-3.4588927730833983,2,left
15.232999999999999,0.4638219943238041,0.8078707465351711,0.16587962407386264,-0.21005850006081941,-4.531150134672465,1.1590638657607237,1.5970396207968487,-1.7044487720855597,-3.457458582362708,2,left
15.234000000000002,0.4751242475225037,0.8030668921071888,0.15019884286340562,-0.21434230750664668,-4.529738286920061,1.1628373160578547,1.5989099564415796,-1.7086933808715914,-3.4587213864407222,2,left
15.239,0.48997316187751794,0.7969180176977938,0.1347799786380416,-0.21832133641608056,-4.526891569462232,1.167010348750643,1.5976612333368498,-1.705931575092144,-3.457919425686767,2,left
15.24,0.5062563805229319,0.7903445427923745,0.11841887609340183,-0.21142896164817662,-4.5318115907515235,1.1597862992271897,1.5982213158548544,-1.7073747052955754,-3.4583947894972944,2,left
15.244000000000002,0.5278760108537319,0.7853544779654986,0.10187666723571642,-0.21753189628542424,-4.526753381835954,1.1664887594502327,1.5981616146174487,-1.7063929763203416,-3.4578749579803274,2,left
15.244000000000002,0.5526749280622028,0.7781005825944249,0.0882374192161886,-0.21363635890546112,-4.530382602727451,1.1620358831439297,1.5979902957030885,-1.707845493851666,-3.458803129638853,2,left
15.249,0.5772376065621843,0.7685656803825606,0.07416488468289867,-0.2158886289707855,-4.529463511144294,1.1640969356073512,1.5981742139556399,-1.7054945144978086,-3.4573577002816145,2,left
15.251,0.6022219207655655,0.7620548386466901,0.05717304587070925,-0.21360134196795577,-4.5266873499714,1.163619691695554,1.5980731442370368,-1.7082450194718632,-3.458979101626512,2,left
15.253,0.6273420306071236,0.7560544481678555,0.040694234939086665,-0.21759629822707366,-4.5335446715658145,1.1635779567972266,1.5981324976288955,-1.7066575580951977,-3.458042572307905,2,left
15.254000000000001,0.6521373153454562,0.7487824976085874,0.028488499013974503,-0.21134940854191908,-4.523433786342537,1.1633771257640386,1.5979733048726317,-1.7047509232629081,-3.4570590658995783,2,left
15.26,0.67051022389423,0.7415410468337374,0.01891995512978721,-0.2183895446738547,-4.5340542034631675,1.1639403014031016,1.5983978308414926,-1.7124006768130677,-3.4611366370589547,2,left
15.261,0.6819285439832181,0.7339016135955789,0.007555462511807974,-0.21432455382951948,-4.527916014873483,1.1636184998947625,1.5976239554295306,-1.6982465872135513,-3.453584698571008,2,left
15.263,0.6892136966377608,0.730126449949748,-0.0033106165408346567,-0.20998152762061223,-4.5229752978177,1.1625674890334703,1.5986352430805528,-1.7164684429395072,-3.463298034910447,2,left
15.264000000000001,0.6902441880731369,0.7282567725622779,-0.008448951861428793,-0.22790589197317573,-4.545052042318926,1.166166092494021,1.5977828296411405,-1.7012317366226326,-3.4551798213889233,2,left
15.267000000000001,0.6856580868773824,0.727186370072259,-0.010989674209446625,-0.19471572669460985,-4.504087924093742,1.1595418820193713,1.597784185041545,-1.7015962233321196,-3.4553863616575837,2,left
15.267999999999999,0.6764760461896691,0.7316457509795682,-0.01633506082618771,-0.23740704246441569,-4.556658797459647,1.1681123193605134,1.5995029944475785,-1.7308702878637197,-3.470932473673785,2,left
15.273,0.6647052284296856,0.7369231710486308,-0.022654945741092475,-0.20172885296898493,-4.5127831952561825,1.1609273959702744,1.5952942970398576,-1.6589439180130974,-3.432725521055973,2,left
15.274000000000001,0.6454826988335934,0.7449723377343682,-0.03123177087727931,-0.2026190114514781,-4.514007826975007,1.1610419783907158,1.6022747205164207,-1.7782170153882975,-3.4960829481540694,2,left
15.277999999999999,0.6314923038995087,0.7516067302322289,-0.037511828718460566,-0.27099621320341444,-4.597511954130082,1.1750857831184072,1.593061690189158,-1.6208735713364728,-3.412504803358556,2,left
15.279000000000002,0.6298117491657105,0.7520714983520013,-0.03986147317657268,-0.10297511916469747,-4.392240771819943,1.1406264677062048,1.5543406656596432,-0.96053188525649,-3.061796794511433,2,left
15.28,0.6087864441347646,0.7620330015775039,-0.05059676242384812,-0.38158540671618735,-4.7325872096875745,1.1977696626788312,1.545119267122589,-0.8031754768061883,-2.9782171679192144,2,left
15.282,0.5862539105209534,0.7722470287380513,-0.0598639758471899,-0.014065137789692622,-4.283680995316564,1.1223764718279492,1.552112313331341,-0.9224422423197178,-3.04155991324016,2,left
15.283,0.5828000981425825,0.773317159192053,-0.06018362441360671,1.5284565806636807,-2.399514996151116,0.8057321937890417,1.547894418359604,-0.8505933176241887,-3.0034112522396965,2,left
15.284,0.5651374874798312,0.7811472045257153,-0.0632694366600366,1.8959978838307603,-1.950623943612388,0.7303082165129954,1.5496092558907857,-0.8796721916861043,-3.0188331294113198,2,left
15.287,0.5389117603889041,0.7918050063609967,-0.06535680516685431,1.6173936286413424,-2.2909437876180876,0.7874978715243346,1.549636567629518,-0.8803573404259483,-3.0192275332987,2,left
15.288,0.5153776759767033,0.7996181746124028,-0.06170130255091299,1.7853040920548313,-2.085702458635282,0.7530046429387409,1.5487329986120608,-0.8647403809467405,-3.010903564153714,2,left
15.292,0.48400338515121055,0.8075901680546521,-0.056811370791705576,1.7172126117428026,-2.1691865920896616,0.7670339910498064,1.5498126393229423,-0.883241575719663,-3.020742345552935,2,left
15.293,0.4515407389102202,0.8129989915152755,-0.05204222294229317,1.71584813396484,-2.1704045335017934,0.7672438350088682,1.5489769338402977,-0.8691513725130275,-3.013283803403195,2,left
15.297,0.4185762760097289,0.815841437842341,-0.04391034222611265,1.7520939604128007,-2.126578322516999,0.7598709596781408,1.5494172804328752,-0.876136327112919,-3.016913727932663,2,left
15.298,0.38011865085939217,0.8172014211842432,-0.03215885435090296,1.7089778408374467,-2.1790502984860067,0.7686927231719478,1.5493353097622062,-0.8756401267104343,-3.0167874037258926,2,left
15.300999999999998,0.3379143833899074,0.8204268047817573,-0.018100659399638376,1.7420905107216165,-2.138221173224784,0.7618409099059857,1.5491888490177093,-0.872037512520327,-3.0147059380084835,2,left
15.302,0.2965803035599336,0.8252367225239461,0.0019022106970457801,1.7251318361271237,-2.1601701068530508,0.7654982851047428,1.5494176063815024,-0.8768201855745463,-3.017379803971715,2,left
15.307,0.2563334481553765,0.8297528085218121,0.026974747133402976,1.727397942272039,-2.155275137464743,0.764730308501341,1.5492232229903937,-0.8735080337723271,-3.015622273997997,2,left
15.308,0.2119362453799043,0.8351303382907364,0.0535318936219582,1.7344545577707686,-2.1492658644866927,0.7636527200539518,1.5493139882273206,-0.8734344567005741,-3.0153342509809855,2,left
15.312000000000001,0.16648827175516123,0.8397270445269421,0.07931920973620199,1.7243665042336214,-2.159507487485734,0.7654280675459997,1.5493474850694549,-0.8777188794259012,-3.0181778843855653,2,left
15.312999999999999,0.12302210371597179,0.8467292351674889,0.1031359645054718,1.7321114122059487,-2.1500280729847416,0.7638357830051943,1.5492128247202337,-0.8698772629791118,-3.013166202253692,2,left
15.318,0.07892379035734287,0.8567552106992038,0.1262263455297899,1.730275970676781,-2.1561326321825733,0.7647598428942,1.5493870895725588,-0.878767725683131,-3.01879009526424,2,left
15.319,0.03625430409285216,0.8661874105854943,0.14708141328217006,1.7248581615195777,-2.1539243022469527,0.764621247794731,1.5492662392413268,-0.8732738840951819,-3.0153523036362633,2,left
15.321,-0.005019861364319483,0.8774362061393793,0.16325104081147893,1.7363253577461903,-2.1530833090854333,0.7641331309257169,1.5492246855914606,-0.8696478163265243,-3.0129743012754555,2,left
15.322000000000001,-0.04435752588573591,0.8903140304534727,0.17566197456960042,1.7228632283454157,-2.1554932299382337,0.7649075912996715,1.549521526477271,-0.8875656330364694,-3.024461190294187,2,left
15.33,-0.07902198903327162,0.9041064843143166,0.18509486871731942,1.7314705961766756,-2.1530856783230377,0.7642900377892509,1.5489446870613024,-0.8538513550787294,-3.002904247210931,2,left
15.331,-0.11299975911255662,0.9175523958991602,0.19106794782327635,1.7363131893832282,-2.154166412851806,0.7642863105712769,1.5496936586651793,-0.897319388106784,-3.030675114492649,2,left
15.332,-0.14554881715983897,0.9296859989505466,0.1915503297532889,1.710366553491676,-2.1552595599033415,0.7652775503270606,1.5490668770111413,-0.8609514669599968,-3.007453888893857,2,left
15.333,-0.17746402461395894,0.9436567810467045,0.18656873433627794,1.759605778813937,-2.151856053097256,0.7632094690781221,1.549083970278854,-0.8620611373597167,-3.008137269910729,2,left
15.335999999999999,-0.2092840783163672,0.9547852086663405,0.18583250046846728,1.6959791981849497,-2.1567230590873607,0.7659470250737936,1.55027707162814,-0.9310773034058537,-3.052268158543364,2,left
15.335999999999999,-0.23556834645221847,0.9617053442138206,0.19108724670337013,1.7492625039003626,-2.1524487747548573,0.763628202172929,1.547348142689717,-0.7612557209105539,-2.943723502317951,2,left
15.341,-0.2627231631962974,0.966730659033165,0.190771300421281,1.7475715028213101,-2.152890993486739,0.763741031339414,1.5521980773106652,-1.0429081491838095,-3.123720287473052,2,left
15.342,-0.27924523687572034,0.967401227322313,0.18885276564087888,1.6466373223036217,-2.1601737614110874,0.7680281791872126,1.5458097726114972,-0.6713687058823566,-2.8863015713188607,2,left
15.345999999999998,-0.2822863339599435,0.9676441294238188,0.18976706753367362,1.8950712599471307,-2.1417989380270153,0.7574211186263318,1.5188850120911512,0.8878584112076189,-1.8896944946498297,2,left
15.347000000000001,-0.2992406311851543,0.9649271886820122,0.18280701985936776,1.4830381494758735,-2.172447838562772,0.7750307019696703,1.5125132892574773,1.2594338609058076,-1.6522868579777694,2,left
15.347999999999999,-0.31370233596328245,0.9589986202433232,0.17492803686460412,2.0265309301782404,-2.1319508143421952,0.7518009152447009,1.517346050408738,0.9777293841427754,-1.8322786063062646,2,left
15.350999999999999,-0.3143085543787488,0.9578068335455967,0.17311925190777577,4.307788961441229,-1.9622553772882534,0.6542935716076672,1.514407581320928,1.147582522180203,-1.7237047722744478,2,left
15.352,-0.3239883612088469,0.9537009872401407,0.16783087397314347,4.851216725702711,-1.921727980105054,0.6310822800024696,1.515665793927417,1.0785999783959794,-1.767926177582409,2,left
15.352,-0.3366131308400555,0.9444981277647744,0.1625590839051217,4.439258935129201,-1.9524564959946593,0.6486683541232219,1.5155465339650078,1.077354098876004,-1.768448707163791,2,left
15.355,-0.3466690054808987,0.9372528352181846,0.16091758480043816,4.687702000446897,-1.9339285677719047,0.6380660754091942,1.515112259403442,1.1139684485042447,-1.7454309638960197,2,left
15.356,-0.35471031976698975,0.9286423981867957,0.16113547185254962,4.586570821064803,-1.9414437375253026,0.6423940519413183,1.5156732761108023,1.0701911553044012,-1.773033113057112,2,left
15.360999999999999,-0.35684250992150557,0.920177074972651,0.16445141229686033,4.585327965940007,-1.9416139951943818,0.642401964701462,1.5151705870239505,1.1041574751211847,-1.7514860032856843,2,left
15.362,-0.3584028230426004,0.9137370504707483,0.16749815993811565,4.637949279276825,-1.937547042727358,0.6402472370386246,1.515644838489403,1.0862319372345723,-1.7632628597100717,2,left
15.366,-0.35519861497084815,0.9060901274046942,0.17019952256005327,4.5750061995250455,-1.9424356824759403,0.6428043151556522,1.5150593425640286,1.0894127206405535,-1.760200397751225,2,left
15.366,-0.34737219669341163,0.8995298356618537,0.17349357794396195,4.6239053739819465,-1.9385992766680857,0.6408458162925353,1.5158600887317175,1.095940724031655,-1.7578002517226445,2,left
15.37,-0.3394463006113103,0.8939428649786865,0.17597962839534476,4.597475840699006,-1.940649848244876,0.6419189584108976,1.5149199331757088,1.0854976002515242,-1.7623011959563704,2,left
15.370999999999999,-0.32684330559991803,0.8907460886638169,0.17932206859597455,4.604052855566917,-1.9403255224014346,0.6415257098831524,1.5156489254158259,1.0950006393994651,-1.7579599108167292,2,left
15.375,-0.31420046415810676,0.8923272004497551,0.18365662934203006,4.609570330147948,-1.9393857398737462,0.6416506372336621,1.5157472581173677,1.089755801061301,-1.7613272653826944,2,left
15.377,-0.30320829425170914,0.8931530134968014,0.18423912466511688,4.6000077070498815,-1.9410066404551807,0.6414382167649069,1.514104210291359,1.088983790254811,-1.758607230616129,2,left
15.38,-0.29056275644903307,0.8947681341280042,0.18323684176247912,4.608206046991995,-1.9392823162021606,0.6418498036705405,1.5177685696925785,1.0959965231125324,-1.7614689525729559,2,left
15.38,-0.27820463804744766,0.9007500435159881,0.18443701432488985,4.603126397042329,-1.9405479403056392,0.6414595402429439,1.5123236352168679,1.084277850842248,-1.7580030468650414,2,left
15.386,-0.26192638890174763,0.9059833688769274,0.1799719203775264,4.6065164309955176,-1.940303481625099,0.6413092514480582,1.5181241115251296,1.0970042725026017,-1.7615483379230596,2,left
15.387,-0.2407709279484351,0.9092093449400713,0.16826444930761777,4.6016494132167125,-1.939019865120909,0.6426441525331408,1.5147787484212907,1.0892811004215708,-1.7597358438793713,2,left
15.39,-0.2159819669702687,0.9124097419917631,0.15292779743812046,4.610920527698385,-1.9420907977616313,0.6396726603313857,1.5118641334290137,1.084455469928056,-1.7570039780723254,2,left
15.39,-0.1881599858957418,0.9169176740094085,0.1361061369298805,4.596659053659469,-1.937541789326949,0.644123994259856,1.5245697209429416,1.1085734804154899,-1.7670461526340708,2,left
15.395,-0.15951159610113938,0.9214442532148905,0.12293257875495167,4.612433352482917,-1.942348543659276,0.6393543635972794,1.5010157853871036,1.0633049408674478,-1.7487677618588053,2,left
15.395999999999999,-0.12935647122084357,0.923788433769285,0.10890114390966757,4.603324295197153,-1.9395706612313623,0.6421100380393981,1.5312587285081443,1.1215537885669427,-1.7721613841315986,2,left
15.399000000000001,-0.10212074459977505,0.9269717572467241,0.0923356697411246,4.5942086038675605,-1.9372707541614789,0.6445394531184672,1.5060103183783253,1.072874887585714,-1.7526613832050537,2,left
15.4,-0.07220681492582182,0.9320092537599343,0.07898469476669716,4.632469555893591,-1.9474590878807647,0.6339769221762842,1.5066926350841534,1.0743827084457007,-1.7530715483468442,2,left
15.405999999999999,-0.039438670593815416,0.9374277986391327,0.068058770530592,4.561593573567336,-1.9285583220955274,0.653561879643749,1.5548417659662968,1.1665809130624119,-1.7906426801603752,2,left
15.407,-0.009756873393729102,0.9440557595851853,0.061472096316936,4.65270906483903,-1.9528203916120295,0.6284092107014402,1.4364963822610486,0.9397433390488703,-1.6984334176626295,2,left
15.409,0.029549151503618816,0.951702630328108,0.05649796393396423,4.5765899755462005,-1.9325681182532395,0.649410191131047,1.632721143459196,1.3159105050031055,-1.8512888834371775,2,left
15.409,0.05892571210034414,0.9568352404677636,0.05038384978186602,4.578525501761632,-1.9331278141309565,0.6488468729953908,1.373897532304282,0.8197400588539389,-1.649670644154924,2,left
15.415999999999999,0.06569358015631871,0.9600011204006969,0.04926517779554723,4.724216743886707,-1.9716985111869076,0.6087794003621438,0.28750575891782315,-1.2626446136167881,-0.8032380497830774,2,left
15.415999999999999,0.08936902143170625,0.9670923769325378,0.046637325084722125,4.366210029256287,-1.8768858437471203,0.7072571586240659,0.02867034641595404,-1.7588015756991124,-0.6015903684250569,2,left
15.417,0.1284475522242556,0.9770063053579491,0.03950491336960064,4.959822296027209,-2.034090904220357,0.5439753793150253,0.22491335505064436,-1.3826438791407423,-0.7544844380580489,2,left
15.42,0.14549972614892037,0.9829700353961265,0.03647998741495508,4.176809741732573,-1.8267391360555156,0.7593451528952511,0.10655342026129785,-1.609505135067995,-0.6622633840678438,2,left
15.421,0.1518945003764383,0.9847195615321997,0.03688702820390122,0.8900039666377582,-0.9564596612769148,1.663354283916913,0.15470020737404938,-1.5172211543592706,-0.6997781377389587,2,left
15.422,0.17502529045364984,0.9903662413555676,0.03577544399509329,0.10694773888527873,-0.7491137186529937,1.8787255856681702,0.15541429635414492,-1.5158729167363831,-0.7003425339092129,2,left
15.424000000000001,0.2014869386030786,0.9989357163340409,0.030881629830829007,0.700605634473142,-0.9063037253978686,1.7154434064306918,0.13009893069388595,-1.564343003551338,-0.6805950349117919,2,left
15.424000000000001,0.22167812173513574,1.0024430988165658,0.02526629167942227,0.3426226400863366,-0.8115196566011733,1.8139160960907428,0.16043528027755602,-1.506277113178065,-0.7042680440974425,2,left
15.429,0.24201986140831472,1.0039797346688981,0.018064674401929628,0.4881452909949812,-0.850047359972115,1.7738632609180676,0.13679139708301932,-1.5515130958732701,-0.6858079489100157,2,left
15.43,0.25677661364716614,1.0054440390985695,0.007565672293791015,0.49043564611327894,-0.8506568724657984,1.773274563141207,0.1495311734895088,-1.5271310886851037,-0.6957511310039195,2,left
15.434000000000001,0.26748565960437687,1.00363485433129,-0.0007482858015795552,0.41381413879629136,-0.8303673502694122,1.7943070374736945,0.14670321953712256,-1.53262324948785,-0.6935805646853863,2,left
15.434000000000001,0.2757895654785818,0.9985229021975432,-0.008174357944278383,0.5054220278291962,-0.8546238198083327,1.7691291216289318,0.1430968335270842,-1.53930233269887,-0.6906633289019987,2,left
15.440999999999999,0.2780939978295235,0.9916570524993399,-0.015167096473843154,0.4343482525953142,-0.8358047486730669,1.7887136189350286,0.1493362436424009,-1.5277464603781294,-0.6957105027817163,2,left
15.442,0.2764519370481522,0.983733987696549,-0.018861813104053517,0.47215260426659555,-0.8458152132859661,1.7781989284073965,0.14336425790172866,-1.5386974017732022,-0.6908290502599619,2,left
15.444,0.27460519832630503,0.9736171634991804,-0.020882037550980566,0.4644495773602797,-0.8437740013368904,1.7805192454854721,0.14743154208544335,-1.5312969591300702,-0.6941802811843014,2,left
15.444,0.27237380023216484,0.9637569876687481,-0.021583276921632824,0.45293956240940947,-0.8407287876794232,1.7834373434550654,0.1458316220975382,-1.534367252158817,-0.6929354326819244,2,left
15.449000000000002,0.2657141331612312,0.956381952982055,-0.019138329481654434,0.4716250699383547,-0.8456741536335247,1.7784955296997926,0.1450917268751642,-1.5350508714127744,-0.6920203471642611,2,left
15.45,0.25728398599501306,0.9506362781825629,-0.010978757349250128,0.4550958582108497,-0.841297705420744,1.7830435525161017,0.1476645203975089,-1.5317980678914438,-0.6947986173579277,2,left
15.453,0.24740141689737474,0.9467030713164706,-2.4070460485184873e-05,0.46422350237293863,-0.8437184925143166,1.7801663935572773,0.14403127446964795,-1.5362580971518605,-0.6908137187724148,2,left
15.454,0.234770407299276,0.9438994629712902,0.011710416058556897,0.46384905108760294,-0.8436097824663016,1.7811073408090077,0.14763256187701718,-1.5320242623865583,-0.6948496412706275,2,left
15.459000000000001,0.22542625766378677,0.9413462338725396,0.02892967101924104,0.4571927384103407,-0.841862020152158,1.7816880187063182,0.14554879095688678,-1.534477026789121,-0.6925159485977099,2,left
15.460999999999999,0.22021435823206942,0.9390768646231769,0.048517802434338286,0.46692947614271824,-0.8444239670320783,1.780342594898118,0.1443555371274065,-1.5354329153669921,-0.6909722527064505,2,left
15.464,0.21538797387876804,0.93840948559618,0.06453471905121766,0.45953153440305294,-0.8424752121299343,1.7816074715246746,0.15035849522977468,-1.5297475555114095,-0.6983326760669415,2,left
15.465,0.2125940797793952,0.9387145479117274,0.07710274523435356,0.4586636976419324,-0.8422518467916738,1.7811821625490298,0.13918703574558927,-1.5403679893413678,-0.6846539619492713,2,left
15.468,0.21439400202907033,0.9375437339749684,0.0845034468478313,0.47262758664567006,-0.8459163019939968,1.780246760341015,0.1534818294321833,-1.5268241965590277,-0.7021776279333728,2,left
15.468,0.2171188507152928,0.9391096561534618,0.08710219808189498,0.4443272038879875,-0.8384859639098619,1.7826430287777222,0.14157044532882607,-1.538091261303076,-0.6875679710912854,2,left
15.472999999999999,0.2222850936852699,0.9454249854645378,0.08511568785640392,0.4815362366826412,-0.8482552243324504,1.7793265324292649,0.1419566395125863,-1.5376561369139443,-0.6880076519032368,2,left
15.474,0.2311534035064412,0.9495810860365641,0.07823885736422781,0.45009902195665535,-0.8400034573040794,1.782198408408207,0.16439783280840278,-1.5167112706762373,-0.7156669420748236,2,left
15.478,0.2443696564223893,0.9546229145168362,0.06999023517253955,0.4515313708187883,-0.8403739798086127,1.7819597349730572,0.10919131191728174,-1.568300710019213,-0.6476568000602285,2,left
15.478,0.2656430328336469,0.9632904383807332,0.05878996252234978,0.5099340548573851,-0.8557164546213062,1.7769101374460168,0.20072227248908703,-1.4827585702929784,-0.760409248771208,2,left
15.485,0.2798152416297156,0.9661135409582754,0.04990214732527702,0.3655357773914798,-0.817794767205852,1.7895577210204046,0.08000801141051378,-1.595572392398275,-0.611709155978827,2,left
15.485999999999999,0.2875060357078768,0.9675728198681628,0.04642914001546529,0.6052904203514733,-0.8807491235868619,1.768493557009943,-0.42651377548311864,-2.068632353452532,0.012418019536442837,2,left
15.485999999999999,0.29877592016227045,0.9726493701059563,0.040992147547582486,0.2889150647416462,-0.7976860145344049,1.7963172086017445,-0.5472068852205183,-2.181425878688603,0.16108758653407662,2,left
15.488,0.3065084127888724,0.9747671519463565,0.03817355825379896,-1.0382985081042366,-0.44911290536966786,1.9128774442014833,-0.45571055951213824,-2.095928227160533,0.04837731740181939,2,left
15.488,0.3198041431873584,0.9764699981994844,0.0382859108282748,-1.3547416587911782,-0.3660493983470786,1.9407222902836436,-0.5108841635537884,-2.1474462228016717,0.1163676016597202,2,left
15.489,0.33463169920061,0.9797856788783192,0.03731729795902877,-1.1148485137372806,-0.4290214356606027,1.9196172793548365,-0.4884528650713174,-2.1265930196560485,0.08866559269072265,2,left
15.493,0.3408319190591369,0.9821083964489921,0.0380903788782271,-1.259449664979608,-0.39103881079449354,1.9323196000058285,-0.48810270429878655,-2.1260705722405744,0.08836247686590146,2,left
15.493,0.34418010364038576,0.9834014746220141,0.03676562987268395,-1.200814532279336,-0.40650582342105723,1.9272152410930856,-0.4999165285574047,-2.1373748490337,0.10274057866649795,2,left
15.497,0.3411624235655768,0.9841384753376979,0.02950614248842644,-1.1995644921553952,-0.4066925400087175,1.927006994277077,-0.4857762146922112,-2.1239039163579023,0.08549214890714978,2,left
15.499,0.3323221470087878,0.9844081447933225,0.017921189813666333,-1.2309947742435654,-0.39863693967923813,1.92990521753096,-0.4967745522440532,-2.134288791819522,0.09896917499146125,2,left
15.503,0.32233995772405316,0.9848366288640512,0.004611097042202807,-1.193474799789651,-0.40829501489129993,1.9264750822966945,-0.49088427686288805,-2.1290112308250206,0.09156349956886675,2,left
15.503,0.311945196709716,0.9869296887886948,-0.010149959574414131,-1.2224995735645483,-0.40075637711728507,1.9290826866884379,-0.4921365874912614,-2.1294626301375548,0.0935816976735599,2,left
15.507,0.29764682057894987,0.9919133973948635,-0.024758585459364685,-1.207442675452472,-0.4048764005568561,1.9278708834901694,-0.4938790460136841,-2.132325369565179,0.09491121010518257,2,left
15.507,0.27966477044531973,1.0014894608618152,-0.03714668491133599,-1.2094916472329467,-0.4038050200444364,1.927692543604197,-0.49095096780525727,-2.1280760070698785,0.09230577255603778,2,left
15.512,0.2602992114595093,1.0145269395394743,-0.046843062735061884,-1.2161827726843697,-0.4029657286530184,1.9288971520051887,-0.49366766698677855,-2.131820192116326,0.0948543628505337,2,left
15.513,0.23384697279415298,1.0332664452162272,-0.04959926972054332,-1.2059026998866194,-0.40453961738707567,1.9272377508840637,-0.4919608850033609,-2.1302370092482352,0.09274420400700834,2,left
15.517000000000001,0.20245165124234657,1.057678356994367,-0.04517278202468794,-1.2151000816001418,-0.4030214739940041,1.9286483854908478,-0.4923965899792762,-2.1284048943097282,0.0947629284887484,2,left
15.517999999999999,0.17137938529749658,1.0808436061463387,-0.03730207374400776,-1.2106439448222646,-0.4041998033687151,1.9282621648518659,-0.49310540808205633,-2.134183222885339,0.09225002006904343,2,left
15.523,0.14208324647621862,1.1055047587672817,-0.03312514192630328,-1.2079361326927622,-0.4032461564957086,1.9269068845319657,-0.49163988825972776,-2.125182281547287,0.09549583110779569,2,left
15.523,0.11442285843898677,1.1309675511144506,-0.03816307616082437,-1.2185930764959536,-0.4042516476833993,1.9303965476943512,-0.4932780299550583,-2.134847941948013,0.0921293389402213,2,left
15.527000000000001,0.08666802191004003,1.1517640627407029,-0.044064009158799905,-1.201624573017327,-0.40303293633069237,1.9250967912610548,-0.4922116022701869,-2.129151615780523,0.09392662652206576,2,left
15.527999999999999,0.05994162631405355,1.1711339381312522,-0.04533400426081029,-1.2199129704741423,-0.404279433401981,1.9307637354155684,-0.4918866951699132,-2.1247950109999083,0.09620860464895281,2,left
15.530999999999999,0.030882222894332744,1.1915460164719056,-0.04589999609263838,-1.20903015894713,-0.4036425074732002,1.9274619542728104,-0.4942812824421726,-2.144767019951284,0.08742072780815507,2,left
15.532,-0.0031851929301059314,1.2088524231429334,-0.046087663397805345,-1.201211712117441,-0.4026819321915449,1.9247521355220876,-0.48966521308932176,-2.107566304430967,0.10350164413955185,2,left
15.536,-0.03569145254340833,1.2177587602360087,-0.040242780641009925,-1.2379883978356205,-0.4062113285078657,1.9368344653783374,-0.49563145560242317,-2.155368979576731,0.08290129182799374,2,left
15.536,-0.06419904193508111,1.2227862246839138,-0.021980223571938788,-1.1693221332781127,-0.39978876724076995,1.9143878080068373,-0.4906352202189937,-2.1154484756191736,0.10008021205157805,2,left
15.540999999999999,-0.09427003715399673,1.2213620510095797,0.0063393204850481395,-1.2575992652284818,-0.4080067508107871,1.9432188914465713,-0.49083018694834046,-2.116580424045419,0.09968976003655601,2,left
15.542,-0.11619022748649432,1.2123927197699038,0.03338285976490181,-1.183854793198844,-0.40115954479140514,1.9191464289289721,-0.5001597392489475,-2.1925271554452546,0.06668774282557699,2,left
15.547,-0.1281812174373157,1.1988394062798524,0.060611069633767625,-1.1860218968013116,-0.4012967086303741,1.919810200130376,-0.4771596247919879,-2.0058031856113514,0.14771558209522773,2,left
15.548,-0.1470241904090797,1.1727127039770917,0.090912992132832,-1.3260856481652026,-0.41450567648715686,1.9656697636548486,-0.515311453318751,-2.3154098410582584,0.01338939141998155,2,left
15.550999999999998,-0.15932594007986473,1.1534342084665146,0.10541921211377504,-0.98161563996181,-0.382101469212471,1.8529397983931486,-0.46498947931219037,-1.9070446777579189,0.19056411533149267,2,left
15.552,-0.16449238731402896,1.1442703343675882,0.11165379932301478,-1.552827508985001,-0.43580711886234635,2.0398525844596502,-0.2538081880694325,-0.19285345823712685,0.9343329501322815,2,left
15.552999999999999,-0.17559355506857405,1.1294491941375475,0.12424730244741905,-0.7993818348369669,-0.36497990451601836,1.7933181578954407,-0.2034925294929742,0.21551028611974926,1.1115163118695741,2,left
15.556,-0.18044685995380602,1.1202035032181088,0.13046292369612814,2.3627792830472942,-0.06751693194356773,0.7584798660440353,-0.24164277899381237,-0.09411521255554253,0.9771842955419271,2,left
15.556,-0.19556157422166454,1.10349110740521,0.14045943805554073,3.116233149706024,0.003300120667520133,0.5119517870249577,-0.21862145648047118,0.09268152211046878,1.0581961127879809,2,left
15.557,-0.2262805381173234,1.077546125601079,0.15732380768593765,2.545012439069973,-0.05039453890913614,0.6988577074021313,-0.22801203895451116,0.01658089027229788,1.0252507988655362,2,left
15.561,-0.25860965509888845,1.0625631839681606,0.1685808358438598,2.889478997660445,-0.017986135058926656,0.5861251232979263,-0.22810132162680233,0.015680665357206573,1.0247555138803723,2,left
15.562000000000001,-0.3094145753455687,1.0555230892787848,0.1747312094370942,2.7494448099349835,-0.031231603234531793,0.6320074815398664,-0.2232360960418784,0.055348515660313326,1.0420709957807914,2,left
15.567,-0.3782428762407366,1.0523335761697088,0.16494545627166501,2.7472142045083405,-0.03129025284828155,0.6326222165139765,-0.22909751110588422,0.007698014609929492,1.02135182845712,2,left
15.567,-0.4522691416951483,1.0417132437110959,0.14162323519447217,2.821049638740347,-0.024555603628308692,0.6086200544016942,-0.2244790771911766,0.04501768169107723,1.0374521237143393,2,left
15.571,-0.5165671381549871,1.014057117570328,0.12151215238642182,2.732682035503845,-0.03266152493659291,0.6373811427967221,-0.22707335263472583,0.02448960987682325,1.028839751138697,2,left
15.571,-0.5410179300466571,0.9774239268635456,0.10135072450443909,2.8013871360333287,-0.026287277796309533,0.6149646693699451,-0.226293871920146,0.029905614987962133,1.0306827891991261,2,left
15.575,-0.5207252232837265,0.9388886851022852,0.07355761490455083,2.764688601567716,-0.02991299238367931,0.6271071453995309,-0.22590357714781617,0.03419202784313272,1.0331646242350248,2,left
15.575999999999999,-0.46817120256495426,0.9051661085602833,0.03849388785218574,2.7722560974267383,-0.028642302803150985,0.6242036491759636,-0.2268256993035166,0.025815418624216158,1.0290342397566477,2,left
15.58,-0.3997644369762604,0.8897323792763844,0.003575332811741931,2.783570856124042,-0.02853962955800092,0.621235542648997,-0.22576104377298445,0.03444797937852628,1.032775180555484,2,left
15.58,-0.34953189243888494,0.8963978322155052,-0.02397711571267385,2.7647528310625473,-0.029130557319035875,0.6264930266282798,-0.2268647998562609,0.02714836060697976,1.0305288875380136,2,left
15.585,-0.33661060899043604,0.9164902062689774,-0.03881922651873536,2.782142862296174,-0.028434358920257967,0.621519648516778,-0.2256586468142438,0.03314704880973793,1.0310271763013097,2,left
15.585999999999999,-0.36056465300871543,0.9496237806471972,-0.04224291447280834,2.771491325481252,-0.02944482557180568,0.625012365424605,-0.22699448912471434,0.02796045736256831,1.0319163305493113,2,left
15.59,-0.42542990830293786,0.9979453430345272,-0.07369422140388916,2.773413106986651,-0.02752080075282373,0.62305108028438,-0.2257400721475996,0.03211260448352436,1.0303709649460702,2,left
15.591,-0.5226539971970846,1.0447208133075727,-0.13877376673522202,2.77966259177841,-0.0309161879279791,0.6240495184785583,-0.22635109090666727,0.03063694910111788,1.0316646857145737,2,left
15.595,-0.6344434182783549,1.0851083015194454,-0.1869685474245112,2.7677922240526365,-0.026091017724869107,0.623394679076259,-0.22723161204407022,0.026493790711754957,1.0315338132042107,2,left
15.595999999999998,-0.7351637338764594,1.1202922389618322,-0.21140517390523772,2.7809188293558336,-0.031189709319695058,0.6239368615096472,-0.22403078541460728,0.03932910031040051,1.0298074228193337,2,left
15.6,-0.7850301553474306,1.126162789704065,-0.22182620096916494,2.772588004480566,-0.02831477773400551,0.6238698587472042,-0.22981247887484071,0.016777788496451503,1.033552579740165,2,left
15.600999999999999,-0.7711964057489584,1.119780670057941,-0.21747939074118802,2.7691097678906913,-0.02548548722496255,0.6225938788501726,-0.22244417982903417,0.045283062203766204,1.0285472412240222,2,left
15.605,-0.687417113163129,1.1096979455082545,-0.1820881120312439,2.790388546400293,-0.03729236156492852,0.6261827725955036,-0.22857194864574376,0.021677125141393385,1.032809676657445,2,left
15.606,-0.5571287022508224,1.1142722812910328,-0.14467127089503934,2.7498391281910086,-0.015501140287617994,0.6198887049601036,-0.2284426844575789,0.02201979353836838,1.0325644858400853,2,left
15.609000000000002,-0.44134695648851513,1.1586550537018885,-0.1589745059189377,2.8021433723036115,-0.043457458153028476,0.6278875288447147,-0.21666104361608002,0.06781881214668778,1.0247814659161307,2,left
15.61,-0.35024137081296075,1.21417974410146,-0.1989696593034022,2.75839115580141,-0.02012970178106896,0.6212460104432882,-0.24556569104323375,-0.04431940618619287,1.0441004915569998,2,left
15.614,-0.3296139009810859,1.3708083447163868,-0.3036081021894016,2.7599261945386826,-0.020720087078254137,0.6212921104211245,-0.19766090924226065,0.14144613080574212,1.0119950009219632,2,left
15.616,-0.3492942039041256,1.5135164310963267,-0.4007617610242311,2.842173951077009,-0.06533150131530456,0.6343871300291434,-0.26083912394898023,-0.10351443162767243,1.0543719110816752,2,left
15.62,-0.34889032770191936,1.5376581255965234,-0.4202215151110862,2.639632462094412,0.04426529333471902,0.6023658557453069,-0.5260615062339788,-1.1319898978057072,1.2321243448193646,2,left
15.620999999999999,-0.45273504037132184,1.7246277375878682,-0.5563954021241126,2.9755230020766663,-0.13743252329534625,0.6554075345465938,-0.5892365463587039,-1.376927521691751,1.2745179259144837,2,left
15.622,-0.5674205757979087,1.909552994279836,-0.6920684884293516,2.5325248479594027,0.10221733212197041,0.5854619554396253,-0.5413403290429573,-1.1912270794994169,1.242373689189689,2,left
15.625,-0.5952312614904296,1.9320369099583992,-0.7019182331292511,0.6730350374209777,1.1082852397773924,0.2915360740773814,-0.5702281129261859,-1.3032320754761626,1.2617592074428183,2,left
15.626,-0.703534791822181,2.0750360995125785,-0.7928972181793754,0.23016574984842217,1.3479268307404983,0.22159682458866575,-0.5584725378140498,-1.2576448434450487,1.2538847941161373,2,left
15.627,-0.8138308259733964,2.2365976067645446,-0.881318054148367,0.5659168617448164,1.1662379663087532,0.2746316571381945,-0.5583122147887036,-1.2570429732052901,1.2537352210434205,2,left
15.630999999999998,-0.8229201975551224,2.299024185401707,-0.8649005645615799,0.36332235533942436,1.2758381241844021,0.24260777124037133,-0.5644644803794814,-1.2808632453794697,1.2579414438519256,2,left
15.632,-0.770530167316796,2.329370975231635,-0.8352314921303625,0.44603257673133173,1.2311971272398052,0.2557255215342218,-0.5570968138311845,-1.252341032071867,1.2528910484725402,2,left
15.634,-0.6288245729449192,2.2826581442815868,-0.8103406693557709,0.4465725502302345,1.2306704445494434,0.25572272326096745,-0.5628317612981208,-1.2745347693604803,1.256843263740429,2,left
15.634,-0.42158161084888135,2.183548186315595,-0.8064991099297176,0.40424706635162294,1.2539068229343937,0.24915130727180512,-0.5597374774139285,-1.2625547901925314,1.2547232441058593,2,left
15.639000000000001,-0.16340392006061988,2.050231355089948,-0.790210472616979,0.4551305688080077,1.2260415501588584,0.25708033347489917,-0.5604590208116342,-1.265389144615042,1.2551166215561305,2,left
15.64,0.1438763632050261,1.8916050845876966,-0.7449783585256335,0.41519419977274985,1.2477933911816308,0.25081636424865117,-0.5612393793304171,-1.2682987650014579,1.2559292517140803,2,left
15.645,0.45052701468791556,1.7480645549073304,-0.6960415452726065,0.4376929271529299,1.2359085565401629,0.2544652355565103,-0.5598882097228375,-1.2632588617810474,1.2545259307201602,2,left
15.645999999999999,0.6934846986709117,1.6369544816078903,-0.6234723807396136,0.4302847997373233,1.2389893590430547,0.25299612282431005,-0.5611352485132122,-1.2678503032945867,1.2559716836871537,2,left
15.65,0.7902845431676357,1.5776792383700575,-0.5396763944430574,0.42872539571773627,1.2414307091683932,0.2532618553896494,-0.5603103359984689,-1.264845957554032,1.2549328572465848,2,left
15.651,0.6815988474212993,1.581662300947206,-0.41340709165462963,0.4335417125477988,1.2368643597439255,0.25339573130810716,-0.5607023987758557,-1.2663679160744548,1.25519149623719,2,left
15.654000000000002,0.34234833517659397,1.662141140243257,-0.1944786043443627,0.42829679259606857,1.2412647791934193,0.25306634908034253,-0.5605714459510291,-1.2654999845276436,1.256004384463619,2,left
15.654000000000002,-0.17603586286861683,1.8139889701544911,0.0671081370481238,0.43460512679401186,1.2378663934410632,0.25406783606160643,-0.5606553730324327,-1.266648376509055,1.2540022991549316,2,left
15.658,-0.7319237748481402,2.0025336230625377,0.3104390410042297,0.42423227267827157,1.2405768394491725,0.25150224796641596,-0.5604801815118168,-1.264741406853576,1.256955584622136,2,left
15.658,-1.2000022214355033,2.1970290199620357,0.4835712588366038,0.44167841886745074,1.237767710889561,0.2563757286479946,-0.56073328455717,-1.267031560069921,1.2538516383007692,2,left
15.663,-1.5261546881686519,2.3912568399353686,0.5303832298130233,0.41715098956669283,1.241148367100013,0.24934269159374745,-0.5605877503105807,-1.2657109080173718,1.2556459759179122,2,left
15.664000000000001,-1.685800370844023,2.544914296037504,0.44278448763208106,0.4430183222093612,1.2376943353938337,0.25679555553206534,-0.560315152541943,-1.2640024666571357,1.257092723392967,2,left
15.668,-1.663034034719769,2.6033941605327935,0.2754194849509492,0.4285136054825527,1.239453702272524,0.2525594288378717,-0.5613176954498272,-1.27074195548234,1.2506305584375488,2,left
15.668,-1.4648258863703576,2.5519983066035166,0.11468615726252297,0.41382457896876057,1.2421449972801253,0.24856137004504172,-0.5594679277123271,-1.258279728013779,1.2626222015675763,2,left
15.674000000000001,-1.1329666649678085,2.3761408701830757,0.0292642312932213,0.47453234474746075,1.232286268469068,0.2654910317167556,-0.561855349913766,-1.2743297244950664,1.2472313786622382,2,left
15.675,-0.7536923768307577,2.1247338812058114,0.0696522694031285,0.3625959481283214,1.2502262186487636,0.23419797069725287,-0.559856608377114,-1.260907954952303,1.2600783993382558,2,left
15.679,-0.37635357812829445,1.81247294163775,0.22336516586036959,0.5061814728642343,1.2272629766666325,0.27435576192448863,-0.5598953313884631,-1.261213284087102,1.2597162658668393,2,left
15.68,-0.049104398805124225,1.4797683674880748,0.4269133952736224,0.3863698471591551,1.2464104778682858,0.2408408932998375,-0.5637723075340081,-1.2870569379723396,1.2352735359527462,2,left
15.683,0.20363544304926312,1.1715255054064584,0.6083328024997058,0.3893831639766083,1.245994789196899,0.241708925964439,-0.5542546941615087,-1.223577693923803,1.295366788680529,2,left
15.684000000000001,0.4290662408692254,0.8239025962496637,0.7103205323663366,0.618588630863405,1.2091303980534938,0.3057400056178755,-0.5700366023929634,-1.3288366653330161,1.1957239932744355,2,left
15.687999999999999,0.5483946103454693,0.6164438046107158,0.7508055755634563,0.05550434695234474,1.299634961516879,0.1484087394735397,-0.5492164712139269,-1.1899830110094984,1.327156082452003,2,left
15.687999999999999,0.5863122402363224,0.533760973486417,0.7265736435385051,0.9890476882598418,1.1495789801888545,0.4092543766354826,-0.46178511527717403,-0.6070245093245206,1.8787416190561723,2,left
15.689,0.6546416458901148,0.39090504893605305,0.6793174047248609,-0.24227717798568646,1.3475355602304004,0.06520787165993572,-0.4409592447503815,-0.4681442039524517,2.010180660761778,2,left
15.695,0.6920854549950746,0.30974936221806704,0.6515315948425118,-5.4111198055080525,2.178433554198705,-1.379011147407529,-0.4567502296864649,-0.5734431264113169,1.9105322665577418,2,left
15.696,0.7525111810610987,0.1823184357917002,0.5328078953872182,-6.642452053443101,2.376499468517645,-1.7230453064651716,-0.4472248226728167,-0.5099354747343299,1.9706158457062448,2,left
15.697000000000001,0.8621934677948762,-0.004318271716901266,0.34959378433201366,-5.708911022452551,2.2262800757041656,-1.4622211564760077,-0.45110213716194913,-0.5357646550689328,1.9462121124652858,2,left
15.697000000000001,0.9556621307112518,-0.09483567946753753,0.20266393112177983,-6.271955797298682,2.316899461034401,-1.6195287073369693,-0.4511541190056961,-0.5361553556395995,1.945775455754236,2,left
15.698,1.0735659442520622,-0.1738787573917709,0.08335709251206083,-6.042852011749547,2.2800979899309293,-1.5555126843106022,-0.44912516861523966,-0.5225677623788114,1.958721815228522,2,left
15.703,1.2073653588578623,-0.2288274239566907,0.016982358605975512,-6.039670146579028,2.2793268137034337,-1.5546519151503988,-0.45155666111481313,-0.5388371212762566,1.943241455820181,2,left
15.703,1.3526670139804424,-0.2565488357565226,0.0006432028354698422,-6.159683218876166,2.2991602380405873,-1.58812461629597,-0.44966190011474205,-0.5261795219607781,1.9552543051841822,2,left
15.707,1.521346206559494,-0.2884980143473377,0.0032071105493458587,-6.015947333587788,2.2752938248733674,-1.5480484798148582,-0.4506864610842434,-0.5329627379206581,1.9489091843835011,2,left
15.708,1.6951861422429468,-0.2974779407844259,0.024297813686578938,-6.127855312249933,2.2940322820483345,-1.5792326482291728,-0.450445913992218,-0.5315127019208428,1.950047982341077,2,left
15.712,1.8731217315025173,-0.2981938744482961,0.055986045506061996,-6.067491648639639,2.2840070874551275,-1.5624026071001866,-0.4501867039854108,-0.5295201798460945,1.9523337178409728,2,left
15.713,2.031387555628684,-0.2780317461657156,0.08261990188912996,-6.081442056043574,2.2856140925112727,-1.5663717525654923,-0.4506413726631098,-0.5328754934678901,1.9486683341936564,2,left
15.718,2.162958609462933,-0.23487788966804643,0.09269957078097751,-6.097009524113816,2.2901615664683646,-1.5704919594983138,-0.45021280484667914,-0.5297599935032463,1.9520070509263723,2,left
15.719000000000001,2.267705999319495,-0.16631573345690098,0.08992909706454248,-6.070060799625034,2.282309253702521,-1.5633573213011493,-0.45050777248992924,-0.5317246169747658,1.9501514926465542,2,left
15.722999999999999,2.324223149170387,-0.06263303891671085,0.07721731283656573,-6.095117522408895,2.2906548884466544,-1.5698738628045446,-0.4503577875928567,-0.5312025492747594,1.9499209192132863,2,left
15.722999999999999,2.3332533116463785,0.06366645488109224,0.0666862386531234,-6.078442131374002,2.2845333823866216,-1.5656005894663227,-0.45040629544906985,-0.5304334247642719,1.9523045614503147,2,left
15.725999999999999,2.3003151549019676,0.21474234058837388,0.06631442262059371,-6.086075735076718,2.2857290480063055,-1.5677374359921719,-0.45040437123388694,-0.5320507196629808,1.948303848530979,2,left
15.728,2.2267270928707465,0.38417425290389795,0.06441730008308005,-6.084637453739791,2.2918833373416865,-1.5666182833174758,-0.4503933735933937,-0.5302392868252443,1.9526516422402598,2,left
15.731,2.1242298107702564,0.5637935387185731,0.055870359096045125,-6.083732028019106,2.2771470843541173,-1.5680035164738984,-0.4504203007397277,-0.5314238026075242,1.9500084084525613,2,left
15.732000000000001,1.9956270898498558,0.7541996418119464,0.030558890881956548,-6.084104847566243,2.298972044815172,-1.5656645678053867,-0.45034134097598466,-0.5317613772027656,1.9483786787292965,2,left
15.735999999999999,1.8523215126078891,0.9440764988545707,-0.015378997214304527,-6.085004750973534,2.275916707082823,-1.568519428942177,-0.45051989488645683,-0.5291657007277737,1.9565735671034674,2,left
15.737,1.7120944810731848,1.132091419062014,-0.06884947301403946,-6.084491570615254,2.2892359906306643,-1.5668734713944015,-0.45021866115780784,-0.5341806865536587,1.941183851758761,2,left
15.742,1.562503296248078,1.316382089563818,-0.1148999889981993,-6.081203199961051,2.3002698018896695,-1.5646541516890236,-0.45059908771434143,-0.5276967971347614,1.9609887635670027,2,left
15.743,1.4136255817306207,1.4877804843189313,-0.14269010585527142,-6.091928484491026,2.2514120210484756,-1.5733314574645139,-0.4502836147753021,-0.5331268253074418,1.9444360374157117,2,left
15.747,1.2592847174093977,1.6410396805368428,-0.13639108185539014,-6.07220319307422,2.3420369411836637,-1.5572900690367897,-0.450283022261095,-0.5329126115485919,1.9449535515468228,2,left
15.748,1.0935336841743704,1.763856813137513,-0.09598012974413685,-6.097789637389999,2.225720568098286,-1.5779553461549307,-0.45091584012227276,-0.5227822159334372,1.9762908323896338,2,left
15.751,0.948703030377943,1.8567341564884798,-0.04656170638279892,-6.076289535556283,2.3227914271300167,-1.560671307587199,-0.44936990789590114,-0.5477577744516301,1.8991832430623092,2,left
15.752,0.7730955388174396,1.9032997390511823,0.02087549423785943,-6.07664337768656,2.3201593169040473,-1.5610580625053267,-0.45193235644916196,-0.5063312434781584,2.027056106188442,2,left
15.755999999999998,0.6487802663233373,1.9115762350925882,0.06881747918345109,-6.118746683191293,2.1351646331581557,-1.5943669467072967,-0.4485500053103629,-0.5609681319796673,1.8583854931094324,2,left
15.757,0.6280368390315285,1.9164469509267035,0.07750590813123548,-6.015347839029374,2.589810930693627,-1.512555316913634,-0.434352373001507,-0.7902389762468646,1.1505158866236789,2,left
15.758,0.5160686925409075,1.877163578693949,0.1302146397405664,-6.186905970432914,1.836047193474494,-1.6482132228479105,-0.43096162120957404,-0.8448513590069129,0.9818392732226966,2,left
15.762,0.4089336288435438,1.827829393925879,0.17901595083334634,-5.960474930555453,2.830202583803975,-1.4692571667574317,-0.4335365504520183,-0.8034587943307391,1.1097256217547096,2,left
15.764000000000001,0.40207486706122103,1.811900680137029,0.18405258414273812,-5.011352040240236,7.0042993779377,-0.7179516796825656,-0.4319820614578909,-0.8284180392336291,1.032595730582591,2,left
15.764000000000001,0.33428448431029734,1.7441366534251737,0.22515090101674207,-4.784879976015175,7.998481943236246,-0.5389655645066085,-0.4326094974869282,-0.8182541164884769,1.0639625445192697,2,left
15.765999999999998,0.2641276904889265,1.638701219228213,0.27431525869830553,-4.956279033695333,7.244539494298714,-0.674663308753798,-0.43263703080335975,-0.8181483975634738,1.064450631182983,2,left
15.767000000000001,0.2448904147361501,1.5444153602370692,0.3038551710665259,-4.853617729671596,7.699703470172378,-0.592838133481664,-0.43226798366492425,-0.8233937573846715,1.047912782917289,2,left
15.770999999999999,0.22891123974681857,1.44476486586598,0.3346525302637168,-4.894088094155551,7.51371601622673,-0.626092564378775,-0.4327183071680069,-0.8171301206669453,1.0677370004693905,2,left
15.770999999999999,0.2333800960236384,1.3542037165908898,0.35720740935136364,-4.896962876047645,7.512491592774397,-0.6266321747553925,-0.4323561830313847,-0.8219825456562058,1.0522755900287957,2,left
15.776,0.24343628957925162,1.2731923956459363,0.3734193642348287,-4.872642887572823,7.608127264859039,-0.6091003947553518,-0.43254553089851633,-0.8193533386610752,1.060599915351716,2,left
15.777000000000001,0.25070855007852644,1.198783548722249,0.3787819355915404,-4.900044801207018,7.49251163308647,-0.6300480711126912,-0.43255362051139223,-0.8200665997130334,1.0588044153838516,2,left
15.780999999999999,0.2510156055043993,1.136173208674784,0.3742704361706625,-4.881379262502506,7.584186810699418,-0.6138185300653487,-0.43236141144884055,-0.8204518559360228,1.0563042363160533,2,left
15.780999999999999,0.24099176572474687,1.0796633069528143,0.36846808520195506,-4.886298716239795,7.5316105622912755,-0.622406128874973,-0.4326927610359434,-0.8197826239995499,1.060627835862614,2,left
15.786,0.22972582772584452,1.030221016163023,0.36148736340895776,-4.894406143655689,7.549260590542168,-0.6207385974664404,-0.43230826435299297,-0.8202483957110277,1.0564203496677536,2,left
15.787,0.213687153972497,0.9851159486673076,0.35472358557416706,-4.878405749422809,7.554224017839456,-0.6179927395444749,-0.4326056907563247,-0.8200234509167689,1.0593224288714924,2,left
15.790999999999999,0.2016915537111249,0.9402460388400375,0.34650221256468294,-4.893906219387796,7.538190232402128,-0.6223557370798865,-0.4325869082436026,-0.8203666127111802,1.0582822342806093,2,left
15.790999999999999,0.1981991149341451,0.8946944337966505,0.3421768459207497,-4.889222979446933,7.5592482292579515,-0.6185781688172447,-0.43212416302722423,-0.8193478145530135,1.0573328350448183,2,left
15.795,0.20255406811525276,0.8478467944631614,0.34321990723933815,-4.873111297256957,7.533382048971044,-0.6204940864996369,-0.4331932477870926,-0.8214900953535886,1.0600769868356605,2,left
15.796,0.21981739228736535,0.7987559599443741,0.3457486695260922,-4.915845219827007,7.566481256228121,-0.6207985057556007,-0.43160100943280466,-0.8182508806827293,1.0561167892492667,2,left
15.8,0.25065562461140556,0.7479692544138186,0.34952271196795803,-4.850012365628733,7.526264584728594,-0.6186948282344431,-0.4332948585144534,-0.8217613700996184,1.0601613087702861,2,left
15.800999999999998,0.29371549721542745,0.6988999600629291,0.34782349522504885,-4.920951226070088,7.5657835172235135,-0.6215414254685486,-0.4323160332486916,-0.8197335565970845,1.05782241412559,2,left
15.807,0.3426212093379555,0.6536211028396726,0.3414113932511487,-4.879456264390825,7.545198284231415,-0.619491082476976,-0.4314804073200269,-0.8178585136528882,1.0561993538318388,2,left
15.808,0.39635913823039975,0.6128792595907417,0.3315740377971267,-4.845261278733268,7.520461878316966,-0.6189845363671453,-0.4351482536130923,-0.82590031832612,1.063811761038806,2,left
15.809000000000001,0.45440634364471105,0.5804924869481456,0.31236140909898963,-4.997815845709589,7.615820717836797,-0.6235284616901685,-0.42834546155408393,-0.8109947330496912,1.0496689400932109,2,left
15.81,0.5109660289082758,0.5597538334613879,0.2838805240015878,-4.714222140153995,7.442025759850077,-0.6145507685937761,-0.43708016136918215,-0.83014496008776,1.0677967030973652,2,left
15.817,0.5670801949300806,0.5455138614103459,0.24495610195612955,-5.0786072920698775,7.664086467086187,-0.6262787518043472,-0.42978792850390624,-0.8141523151925156,1.0526771299675446,2,left
15.818,0.6233488774688726,0.5387706036101769,0.19914063246704777,-4.77431296941584,7.479166615049586,-0.6164004640152083,-0.4299870213890056,-0.814572463361485,1.053128820786988,2,left
15.819,0.6781184750168471,0.5437872641968087,0.15522096350346903,-4.7826708593622875,7.483448845212824,-0.6168049024491631,-0.4438861238002162,-0.8451226718081721,1.0817797200517019,2,left
15.82,0.7271662160099582,0.552683709991693,0.11617875439622488,-5.3625630045826265,7.837974203316581,-0.6352787105317289,-0.4097214912392705,-0.7700428462431432,1.0113258722738985,2,left
15.824000000000002,0.77735903158699,0.570801272925701,0.07952767600419686,-3.937109018866747,6.96764487706772,-0.5896687712270927,-0.466369093103608,-0.894530468971859,1.1281399281428204,2,left
15.825,0.8180529838718612,0.5932379159846559,0.05492706397461308,-6.30059678384975,8.410286960842384,-0.6653765495777302,-0.39165054366019225,-0.7303280036811626,0.9740719112902603,2,left
15.825,0.8181519103063264,0.5935470770350967,0.05480127536200628,-3.183213340495421,6.507605978102662,-0.5654768305555076,-0.07804929675061681,-0.041073384392249696,0.3275235371693664,2,left
15.83,0.819974092129397,0.5940695563355385,0.05384853175500888,9.90226660952376,-1.4795177196882052,-0.14633509227183408,-0.0033320748626193553,0.12313361826470948,0.17347331824313605,2,left
15.831,0.8575092349209356,0.6226759109087177,0.033740010771193124,13.01946230384509,-3.382138528859036,-0.046389219090975986,-0.05997460594247134,-0.001359262644132532,0.2902539510548878,2,left
15.832,0.8864937450810122,0.6578858850552437,0.01053534460907561,10.656251821501074,-1.9396616975628604,-0.12218195722715747,-0.025822300440579517,0.07371993214011326,0.21984295890589534,2,left
15.835,0.8979774833859617,0.6942614978760981,-0.010978041436671224,12.081520422428273,-2.809661055925474,-0.07646695424102584,-0.03969962764983543,0.0431834590212263,0.24845428331438418,2,left
15.835999999999999,0.8993123961434121,0.738679463005593,-0.03516861047203204,11.501495929221527,-2.4556510499367596,-0.09503087331900315,-0.03992784255236073,0.04273205467765197,0.24892201344784295,2,left
15.839,0.8825386548064678,0.7815504946885259,-0.06510742536153662,11.493784537445258,-2.4507485332846732,-0.09541228612826255,-0.032608049527514914,0.058770878263857886,0.2338347751921484,2,left
15.84,0.8550700893923091,0.8248286550227601,-0.09939279128905515,11.796862291829935,-2.636166602850101,-0.08543021778471657,-0.04135246273821691,0.039572962845508416,0.2518612225965148,2,left
15.845,0.8162540743490754,0.8718227535024796,-0.1315441424408305,11.434050376714193,-2.414098358535094,-0.09743241926797405,-0.03457840493044534,0.05450229042025089,0.2378904686064237,2,left
15.845,0.764742784287594,0.9165764349642546,-0.15924429601677556,11.716293383757616,-2.586989279565714,-0.08801908844890219,-0.038162042187849396,0.04649413941281298,0.2452941176912577,2,left
15.849,0.7075006341046404,0.95976248958557,-0.18280249319197797,11.56393611444975,-2.4937275374352157,-0.09305873419196314,-0.0374671553148192,0.04824822814756867,0.24383472830229996,2,left
15.85,0.6498549722949967,1.0012838027991746,-0.2030320309670117,11.60015887555404,-2.5153052367149904,-0.09221321283358634,-0.03631993022513989,0.050491563973080744,0.24150264729845233,2,left
15.854000000000001,0.5943450151751741,1.0352702319992755,-0.22035963563300331,11.636648229577673,-2.539291236303921,-0.09003289176594342,-0.03814175058594063,0.0467090390957951,0.24523211137238293,2,left
15.855,0.5456635117895325,1.0615794936471155,-0.23439030761299176,11.573457280490251,-2.497767125800868,-0.09379721591470888,-0.03656507016747325,0.05017635518329043,0.24198121827921043,2,left
15.857999999999999,0.5089161011920367,1.0817565077408822,-0.24157344989500248,11.630716772396159,-2.536342769724062,-0.08982931295078217,-0.03736357463991696,0.048010343885765146,0.24367712304400685,2,left
15.859000000000002,0.47856828151396963,1.0913512094995022,-0.23998062216771177,11.593421073629184,-2.5106874185797134,-0.09272415765523892,-0.03749309380228612,0.04866481406612773,0.2438306267714774,2,left
15.864,0.4526025258721219,1.0916593220748374,-0.2297140115967572,11.61279513971703,-2.5224869903172813,-0.0921190945663894,-0.03661163612857557,0.049201256372385926,0.24218279698436163,2,left
15.865,0.42994116729009485,1.0873315424656487,-0.21109052367334996,11.600013806266613,-2.520051241024227,-0.08937380072608676,-0.03780309338014207,0.04807580456627805,0.24445847483664596,2,left
15.869000000000002,0.40247552741151627,1.077193925890682,-0.1867356114065548,11.618600215570769,-2.519133578746959,-0.09598671881882924,-0.03694586933041756,0.049097328510377916,0.2427956558763656,2,left
15.87,0.36892014812125595,1.0647132993885484,-0.15730040172493848,11.58840475347815,-2.5189964863389784,-0.08620142289550739,-0.036731740995206735,0.048823715649736955,0.2424440881838271,2,left
15.873,0.3314389040568647,1.0514068009275754,-0.12309254675991346,11.623868156129042,-2.5211412467516237,-0.09652685821006339,-0.03863702413264529,0.047891775328538166,0.24597830591259204,2,left
15.875,0.28904906821205534,1.0357073266858077,-0.08620450389844077,11.60341173081951,-2.5199225913338648,-0.09056123384887979,-0.03487502036637445,0.050123238727634106,0.23895289004394685,2,left
15.878,0.23864559317528242,1.0228435335145094,-0.049782050965162035,11.578519035982307,-2.514442945429,-0.0856466741389797,-0.03978786686971738,0.04707648765029193,0.24814323271054275,2,left
15.879000000000001,0.1887307330987935,1.0118714062722256,-0.014675903310919022,11.67806636966464,-2.532692923640946,-0.1074463469781236,-0.035651878907574826,0.04969689596075297,0.2403998560551959,2,left
15.883,0.13642715917896225,1.0001167768148742,0.020898946356895657,11.493920167667877,-2.4991310309395836,-0.06700779123642192,-0.035816702557226604,0.04950737436666386,0.24071774311250949,2,left
15.884,0.0786147417335058,0.9925994312024067,0.05249829960815389,11.73097758870827,-2.5425963427675677,-0.11890956357109424,-0.04356236630402601,0.044826128691838885,0.2551941893236124,2,left
15.888,0.029179480987922377,0.9890935566157906,0.07651315147276605,11.532792051039678,-2.506137946335298,-0.07559387548141236,-0.024448412071074222,0.05650383845750023,0.21945743023755307,2,left
15.889000000000001,-0.034708328725038956,0.9861896859907573,0.09700275705331354,11.537401599931094,-2.506667743225118,-0.07677780403908047,-0.056168442714303005,0.03707653250400629,0.27876785991559794,2,left
15.892999999999999,-0.08130382458240852,0.9847526367265035,0.1080446603438741,11.918537517971926,-2.5781531639588176,-0.15929831640553668,-0.014320081532534865,0.06272494645277786,0.20051820097172887,2,left
15.894,-0.08843946034223793,0.985590350337533,0.11047585088180893,10.982312284331288,-2.4027852086688872,0.0435186089478324,0.161319894681706,0.17027482086766582,-0.12791776224724127,2,left
15.895,-0.13658112998029845,0.9892627854899373,0.11912264071003165,12.534685408340334,-2.6936013658756557,-0.2927375860021364,0.20317090939077853,0.19592653941176727,-0.20617366384609137,2,left
15.897,-0.1840375180241267,0.9924051352039818,0.12636323920291936,10.486915557362657,-2.3098890993676733,0.15075230808470563,0.17143884999452147,0.1764842530948934,-0.14683492317557117,2,left
15.898,-0.18904903947124815,0.9918083039861365,0.12583510835652792,1.8895665697972812,-0.6981653451059571,2.0123672670581176,0.1905841495235006,0.188200999878673,-0.18264546837551796,2,left
15.898,-0.22228592654210555,0.9930620455769792,0.1256671394002224,-0.15849901772891073,-0.31425702638048525,2.4557866714183767,0.1827811365124185,0.1834483319878995,-0.16803401319374195,2,left
15.902999999999999,-0.2638697387071603,0.9948352744566056,0.11971696363205309,1.3943363853094028,-0.6053796411481833,2.119640663851514,0.18269503224102013,0.18335684693782464,-0.1679014535989382,2,left
15.902999999999999,-0.28976336205035114,0.9937717561304141,0.10558371635687319,0.45772877543824086,-0.4297581992437645,2.3223664424844523,0.18675391969649713,0.18588123458939493,-0.1754633015648663,2,left
15.907,-0.31516279116143936,0.995989048197813,0.08985673895575871,0.838842516753637,-0.5012289152445936,2.239840656917692,0.18187317282713872,0.18287446071557917,-0.1663485584968207,2,left
15.908,-0.3319327192324425,0.9971612703513463,0.07336002943920991,0.8441940303510697,-0.5022505864313904,2.2388335591284543,0.18570428841474246,0.18519199466940633,-0.17353664183206352,2,left
15.913,-0.34600151647876887,0.9941890057819478,0.05894854883917261,0.6443888240775401,-0.46471846033740605,2.281763214373255,0.18358027646681568,0.18398765190797384,-0.1694875179561648,2,left
15.914000000000001,-0.3591240389329209,0.9921103121454474,0.04523226124323988,0.8837534332154697,-0.5097132760446823,2.230411355859199,0.1841701149225217,0.18418194527273318,-0.17072358982585745,2,left
15.917,-0.37201199879964775,0.9879489617975937,0.027015166417635565,0.6973222931177714,-0.47463663516287125,2.270305278768656,0.18456668505402457,0.18462977363339989,-0.17130187423907042,2,left
15.918,-0.3855038893216694,0.9821788260104277,0.010146472776279072,0.7978597097788775,-0.493542956249808,2.2487416415775643,0.18374226648077774,0.18396143115917893,-0.16989040971087171,2,left
15.923,-0.39472580224337567,0.9762782494799249,-0.003732128446655562,0.7748890384376728,-0.48933749614485983,2.2541142348868783,0.18462738993528383,0.18450243513298442,-0.17154668532064743,2,left
15.924000000000001,-0.40036460429424753,0.9694178701348612,-0.016524163640040765,0.7482196124451075,-0.48400003669590874,2.258599085127206,0.18381573092424455,0.18430737801715544,-0.16978747007417877,2,left
15.927999999999999,-0.401500123041579,0.9620653501157883,-0.025162918939863492,0.7943881790081226,-0.49324158165148363,2.2508251567362656,0.18457561828985689,0.18408217246121003,-0.17176025158209107,2,left
15.927999999999999,-0.3975705277083339,0.9510783690542776,-0.03466319179926366,0.7510578647901396,-0.4843970141095652,2.2574797451182373,0.18382767184893117,0.18465441607128183,-0.16953835718559607,2,left
15.931,-0.3863558485073848,0.9400143763489779,-0.04427421752769424,0.7801144884730726,-0.4904203236839577,2.2533625646226687,0.18448378514620256,0.1839578970298829,-0.17164293675176373,2,left
15.932,-0.36748326262382036,0.9322946539728694,-0.050059015087087516,0.7674245198387151,-0.4880452291708507,2.256129292275852,0.18419952190795882,0.18441845431846615,-0.17060415630577805,2,left
15.936,-0.3425328687296434,0.9235824029786192,-0.058961433472834834,0.7673782316198852,-0.48697035357806,2.2521060034228553,0.18365958861870824,0.18463472726270724,-0.16915758219579946,2,left
15.937000000000001,-0.3103079301033704,0.9144365968837184,-0.06997355587441656,0.7744645204199376,-0.4907372533332332,2.2597891115338786,0.18547837533989253,0.18335469533462972,-0.1744714726461079,2,left
15.940999999999999,-0.27374681754416086,0.9071815118790469,-0.0797302710858589,0.7655148008780612,-0.48542079741905736,2.247976285172454,0.18223426793352043,0.18580747972089973,-0.1648574810391763,2,left
15.942,-0.23507437211038912,0.9016281281827756,-0.09159675265458012,0.772902587584695,-0.49068533436344064,2.2610347637410366,0.18635302129118964,0.18262928560588,-0.17711500437245215,2,left
15.947000000000001,-0.195549855599091,0.8969655302562716,-0.10402009081712599,0.7686144283170783,-0.4876389950338427,2.2534945097032075,0.18293493053272347,0.18529514089017443,-0.16691964459507558,2,left
15.947000000000001,-0.15454872344018716,0.8955188293280814,-0.12362090041246937,0.7696773474033347,-0.48590773159820366,2.2459618859669637,0.1829952086762367,0.18520319217247377,-0.1671362670741281,2,left
15.952,-0.11609844163376586,0.8965050749570421,-0.14634376282354727,0.7711775028488195,-0.49464312411385286,2.2775914287761667,0.18959800866569704,0.18017224984194616,-0.18673378025768844,2,left
15.953,-0.08256184643374517,0.8963366185292299,-0.1628441467602437,0.7680985779468208,-0.47838550701343957,2.2190004517702144,0.17341699687886392,0.192567091408618,-0.13865306439600342,2,left
15.956,-0.04533342908040898,0.9034113894640179,-0.18797687923801465,0.7716458017594505,-0.49918690224920853,2.2943200477338213,0.2002261339002561,0.17200374199775542,-0.21833767533654264,2,left
15.957,-0.02285421760067493,0.9113282163179333,-0.20386877966716768,0.7688803895611582,-0.4818547564600042,2.2314000341946945,0.16487429515744295,0.19913243685195087,-0.11324994951388645,2,left
15.962,-0.01702148606706945,0.9141223029995609,-0.20917420526902183,0.7694204707249886,-0.4824176692361567,2.2329954883281244,0.016423910427754755,0.312966415287663,0.3279525212583221,2,left
15.963,0.002344818153475206,0.9244200260342614,-0.23480035569137137,0.7726407162160606,-0.5150659799732218,2.3534321353622802,-0.018921383397729072,0.3400992754069455,0.43303052619819715,2,left
15.963,0.026606992172579058,0.9376218370134946,-0.26303369610619975,0.7644196216481236,-0.4347497430985739,2.05749373953493,0.007877191513781868,0.3195292882871274,0.3533629412366929,2,left
15.967,0.043816381284149455,0.9572663176153359,-0.2959469199755854,0.7779582717087832,-0.567910499414622,2.548182576218754,-0.008294183891497062,0.33192996451561063,0.4014246034752862,2,left
15.967,0.05275623625543277,0.9748051425468429,-0.3252873642165015,0.7602778679172466,-0.39229518329996266,1.9009387102624205,-0.001693313611128646,0.32689840855121866,0.3818397306885829,2,left
15.968,0.05386067215981749,0.9786096114227968,-0.33161316134887253,0.6867441736248094,0.3446044567400544,-0.8161270797311759,-0.001645864589462759,0.3267973836370799,0.3816276619539276,2,left
15.970999999999998,0.05583096273387205,0.9991113446848902,-0.34956821198081867,0.6693350502304376,0.5201860763191242,-1.4634128224060223,-0.005031965718815396,0.3294845758966763,0.3917910722842233,2,left
15.972000000000001,0.05201134243256211,1.029893131010288,-0.3655424637040777,0.6824872295172318,0.38707919918444106,-0.9726585436560039,-0.0009620490900205346,0.3262747377316062,0.3795971162082032,2,left
15.975999999999999,0.04486183201793344,1.051502805841331,-0.3529951162922905,0.6744837820745954,0.46734759383749225,-1.268651023206842,-0.004153549962236044,0.3287604825159811,0.3891247170360992,2,left
15.977,0.035034084800150606,1.0762426432068795,-0.3287842993351924,0.6779987848988138,0.4347055672249816,-1.1482176428000956,-0.0023654892273680442,0.3274631368048137,0.3838921045427564,2,left
15.98,0.014561292964796066,1.0964929427523187,-0.2991988888535068,0.6774511496344571,0.4342141231422847,-1.1465169379234315,-0.0029314529988935497,0.32765864787195076,0.3853105974724734,2,left
15.981,-0.011498775136062362,1.1121650434246564,-0.272158320384648,0.6766083984001712,0.45137575129389396,-1.2096665000683342,-0.0030998951413850483,0.32819842899920326,0.386265064884167,2,left
15.985999999999999,-0.04608513935753611,1.1309184679184598,-0.2498079515448779,0.6777874871797218,0.43082915652474196,-1.1340200870363835,-0.002661297783247759,0.32735853534248494,0.3844048929411041,2,left
15.987,-0.08918938957589478,1.14928260277132,-0.22702901595223096,0.6765726712860244,0.4468189803109417,-1.192934507770075,-0.003123210163405274,0.3281140342594836,0.38622135819348186,2,left
15.991,-0.13500632976670196,1.17322009979058,-0.2056744825816396,0.6781654144679281,0.43822853259209354,-1.161165228665459,-0.002620070362364742,0.3277317106870721,0.384729794100665,2,left
15.992,-0.18115280647986082,1.1991485224639256,-0.1830761216957611,0.6755911595525603,0.44011861971497107,-1.168424828094424,-0.0033675962392109306,0.32756082263551844,0.3861289712553697,2,left
15.995,-0.21746794886155096,1.2203249347741625,-0.16130204426846162,0.6794652205018809,0.4425361257682958,-1.1768459861402896,-0.002158918921216864,0.32833441733723795,0.3844164773617675,2,left
15.995999999999999,-0.24135438946638915,1.2375107024949226,-0.1420981429989951,0.674823782967751,0.4384204092379421,-1.1622706236663878,-0.0038423432327901923,0.3270886916669372,0.3866154426169155,2,left
16.003,-0.2500547376745538,1.2435450318188035,-0.11715325562570186,0.678469344447125,0.4422578165405142,-1.1759436155180323,-0.0020701064297404008,0.3284336227933954,0.38433766057370267,2,left
16.003,-0.23758276643288084,1.2337699564388482,-0.08598219624589568,0.6787518925475257,0.43977382899627304,-1.1667791999798403,-0.0030588693754852415,0.3276297285763834,0.3855489969196801,2,left
16.007,-0.21207617492902486,1.2077952879581109,-0.05175730396532839,0.6711949174851246,0.44062064782412,-1.170786130906298,-0.0040856293677632265,0.32706985357507207,0.3871117892919653,2,left
16.008,-0.1759866303816815,1.169217212868511,-0.010389644755185928,0.688219045676781,0.44116505171715215,-1.1707748339127804,0.00012238155897766013,0.3297377015044428,0.38112138899414827,2,left
16.01,-0.13099600901938607,1.1238018413629796,0.041008283862573415,0.6628807174814827,0.4397593185737099,-1.1686011587522973,-0.007629805184118969,0.3247511929979492,0.39207712866673283,2,left
16.01,-0.08547967660676178,1.0709868972708252,0.09759394370091673,0.6898808797705225,0.4413680883034109,-1.1713263115861818,0.002312719215739797,0.3311624399288645,0.3780442090171916,2,left
16.016,-0.042332130124811185,1.0158367156159736,0.14491643941997606,0.6742981347740726,0.4402643438481033,-1.1691075617670128,-0.00598297231744882,0.32580720150763576,0.3897450534920632,2,left
16.017,0.0001319965267625716,0.9596143821095987,0.17371684741228582,0.6607772368104115,0.4401768173134372,-1.1703857060661687,-0.0057767045583760595,0.32596412014258125,0.3894831365192616,2,left
16.02,0.03941034094808342,0.9052163303429617,0.19083978896762493,0.719805845526364,0.4419732358571363,-1.170014684466543,0.010101150255179516,0.33613461466488337,0.3669935309116299,2,left
16.021,0.0719724770005281,0.8605177956289333,0.20027540589163045,0.6103639956256857,0.4383874488363314,-1.1697602279374952,-0.02890287812191093,0.3111242027653427,0.4222044656872612,2,left
16.025,0.10723884452239135,0.8180588302114398,0.19791137677353,0.7508850457900421,0.44304777810481766,-1.1702982537671769,0.03576164274428388,0.3525940237586658,0.33068061160157136,2,left
16.025,0.1278022133272685,0.7924985291906345,0.1933914757960738,0.6335763070713939,0.43913590191220353,-1.16976380367755,-0.049529618153343745,0.29789798973456055,0.451396634485001,2,left
16.03,0.13403884811678007,0.7865183035276342,0.19110993353241473,0.6367356538808053,0.43932609536668515,-1.1701059325756946,-0.40756990693197226,0.06830005055762586,0.958202400253867,2,left
16.031,0.1619441176135957,0.7678694513528109,0.1817664832875308,0.8604658193401171,0.4465046225835857,-1.1700492825432556,-0.49286269333407173,0.013610312007383175,1.0789215238312422,2,left
16.032,0.1981594629591103,0.747551595949448,0.16499627043632764,0.31058834573895466,0.4287649933482096,-1.169803206994083,-0.42819652255803653,0.05507332159359023,0.9873943156733018,2,left
