time,gFx,gFy,gFz,ax,ay,az,wx,wy,wz,subject_number,foot
7.7829999999999995,0.3018989930434156,1.2751067988046183,-0.02168406783403631,-0.611930067528015,0.5430603306597003,-1.2986756597850964,-1.0960830971518323,-0.37062540689208034,0.6599796420790525,2,left
7.787000000000001,0.2917952447263019,1.299915288627699,-0.027829463862665473,-0.6131054449685103,0.5447300652843728,-1.3018835463696297,-1.0972001154269642,-0.3705078624499375,0.6604585888906486,2,left
7.787999999999999,0.27899880956214185,1.3219454355769167,-0.03389656012317614,-0.6129268276892865,0.5449153620550382,-1.3016085222534932,-1.0968889987044304,-0.37028470208651176,0.6603916162386425,2,left
7.792000000000001,0.2633577607182307,1.3362249414042462,-0.03952821865093571,-0.6124412681545843,0.5433725750068352,-1.2998695181077138,-1.0962139258838506,-0.37094205349089837,0.6599499624187615,2,left
7.792999999999999,0.2442891136717703,1.3453588308992415,-0.03996431223039167,-0.613197364888818,0.545512997080835,-1.302451225644235,-1.0977090708859318,-0.36990950119901167,0.660818251451154,2,left
7.797000000000001,0.21844080983452327,1.3544083379565992,-0.03989123842278809,-0.612517065419538,0.5436870502571349,-1.3001763355636098,-1.0959367597964071,-0.3710292358657682,0.6598160366915944,2,left
7.797000000000001,0.19022576294250002,1.3637862825182872,-0.03978189036122643,-0.612863204468442,0.5442139163963118,-1.3011384320851107,-1.0970802542711364,-0.3703694606734493,0.6604464350503152,2,left
7.801,0.15976991216355022,1.3739324556352077,-0.03914162536869768,-0.61301064947113,0.5458828414012852,-1.3022510044847109,-1.097694606153236,-0.36984051139592217,0.6608303011713037,2,left
7.8020000000000005,0.12461198852893267,1.3852611586571917,-0.04717530060710462,-0.6123272437674618,0.5415345900141304,-1.2987414138293945,-1.0943210521201667,-0.3722288981381344,0.6588560280505134,2,left
7.808,0.08916867459431821,1.3973166349618964,-0.06216652469902163,-0.6134293546183156,0.5481487417086102,-1.3042083323892535,-1.1007387480728181,-0.3677821861822478,0.6625867779039922,2,left
7.809,0.05656871841610487,1.411534844744284,-0.07682929817968812,-0.6122395783662384,0.541075035718027,-1.2983378660654812,-1.0924405293532407,-0.3734983724409169,0.6577714160708935,2,left
7.811,0.02788243202530742,1.4268970022878773,-0.0887193207532335,-0.6129506073193913,0.5451983498838731,-1.3017971923368594,-1.0993916634347731,-0.3687233273886644,0.6618018286709206,2,left
7.812,0.004579874972851305,1.4417715013998285,-0.09193093641776791,-0.6134450667188418,0.5485708173996284,-1.3044439411964497,-1.0991685568856635,-0.36885723358142253,0.661677079836103,2,left
7.817,-0.012766479811506247,1.4562707362545237,-0.08897104882479347,-0.6110884637359855,0.533515852032344,-1.2923129018897561,-1.0860079694884377,-0.37795003773158986,0.6540337300859753,2,left
7.818,-0.023299781239220115,1.4707748658665112,-0.08468820900779206,-0.6154922249660117,0.561486304196789,-1.3149076505910133,-1.1184038377587222,-0.355593943229093,0.6728423991743957,2,left
7.82,-0.02782275851288716,1.4847793762451262,-0.07494797822780888,-0.6098318913617181,0.5255627628009774,-1.285874608327879,-1.0646740267008137,-0.392664518143036,0.6416488986706733,2,left
7.821000000000001,-0.03139934312069463,1.4923927081907986,-0.06799721426764649,-0.6145572615185413,0.5555523217095608,-1.3101188657840817,-1.1355460853556294,-0.34376686644407767,0.6827951493253804,2,left
7.8260000000000005,-0.031614547929083886,1.4937875075593567,-0.0659152244352062,-0.6144247722734163,0.5547357420960268,-1.3094348812444816,-1.4330563063478767,-0.13853365722423056,0.8555053419897181,2,left
7.827000000000001,-0.029278081837440805,1.498368152711811,-0.06102811714419869,-0.6054364837299713,0.4975803820009497,-1.263303297915702,-1.5039216704933533,-0.08963421872018132,0.8966504383329665,2,left
7.827000000000001,-0.029508563784504692,1.5027841331544025,-0.05876978803765845,-0.6275273295416981,0.6380548304671667,-1.376715883677227,-1.4501946927687974,-0.1267071931470454,0.8654562955973197,2,left
7.831,-0.022035498098668123,1.5011188730258849,-0.058771582278535656,-0.5909080253540536,0.4051580177596064,-1.1886728334914227,-1.482608935016969,-0.10435018223255242,0.8842721380794286,2,left
7.832000000000001,-0.012519914064209254,1.4996188139181963,-0.05922910213448023,-0.6391968111484461,0.712325993692229,-1.4366906904702113,-1.4693921212913805,-0.11343997883913967,0.8766108362420006,2,left
7.832999999999999,-0.009366538222692466,1.4983423892802854,-0.05944342609720374,-0.8420100023359558,2.001886198227795,-2.477816188635459,-1.4692684808504564,-0.11358263093214221,0.8765154880718034,2,left
7.835,0.0027350136140735226,1.494553159674476,-0.05753483758015483,-0.890276899580416,2.3090150079499816,-2.7258119464080526,-1.4760942233935475,-0.10879322481351088,0.8805111321289034,2,left
7.836,0.024071492687655377,1.4889161758442895,-0.061452605944967625,-0.8536812801642549,2.0761605721870477,-2.537792808248768,-1.4678993557820341,-0.11452598656580179,0.8757211666658429,2,left
7.84,0.04464803014087894,1.4791634393391528,-0.07382668541737199,-0.8757811230815901,2.216651131389679,-2.6512144801418205,-1.474312405846637,-0.11006789825566154,0.8794580904697633,2,left
7.841,0.06350936737183621,1.4695645346093809,-0.09107323227490059,-0.8667142996221211,2.159355220768916,-2.60500360104877,-1.470758052945203,-0.11245178528579985,0.8774225329971133,2,left
7.846,0.08395906886976316,1.4620455466646805,-0.11030516776658436,-0.866750801701242,2.158841061336941,-2.604490241668157,-1.4717964465777684,-0.11195407675538598,0.8779358988079612,2,left
7.847,0.10622553532547473,1.4503895551080894,-0.12868636878863093,-0.8712338617513492,2.1883970046806502,-2.628489849012355,-1.4722992048272747,-0.11123096539816665,0.8783817202193533,2,left
7.851,0.127197303958673,1.4357120059659572,-0.14389017017588468,-0.8658148319821952,2.1529052618738596,-2.599700437517543,-1.4712177519550904,-0.11243852658760024,0.8775650780578508,2,left
7.853,0.14896194382318623,1.418881745825019,-0.15174558006536076,-0.8701144499374978,2.180689386127929,-2.622190044898641,-1.4723047806013958,-0.11132086810944204,0.8783466041134536,2,left
7.856,0.17014756803597048,1.3956076229369736,-0.1503105581905404,-0.867550694445939,2.1652636643827785,-2.6098498411380326,-1.4712975883722668,-0.11201219679632052,0.8777633055588363,2,left
7.857,0.18940683254102117,1.3671251706793583,-0.14304872067988084,-0.8687125485414751,2.169830498607759,-2.6131704419965276,-1.472497506445791,-0.1118672722141283,0.8781805614906267,2,left
7.86,0.20683233347799307,1.3376211433392853,-0.13405240978156385,-0.8682735724109438,2.1718958364578738,-2.61546865047867,-1.4707568647863671,-0.11150795575208669,0.8778082927679034,2,left
7.862,0.21900614332734483,1.307450391710145,-0.12333255506905874,-0.8684952001965114,2.1673478177300547,-2.6110232118853025,-1.4731136740161377,-0.11220920243263349,0.8782244716861966,2,left
7.865,0.2283758572431826,1.2763720505577922,-0.11313506046687025,-0.8684719829629046,2.1719483186168267,-2.615353962479633,-1.4706460188633113,-0.11143113619552765,0.877806680795618,2,left
7.865,0.23623690683440302,1.246483555021229,-0.10430166171001395,-0.8677787526896716,2.1675822395118303,-2.611834400775474,-1.4720011443486238,-0.11192887578514195,0.8780072374418337,2,left
7.87,0.24255231378600917,1.2148221221732656,-0.09532716512473977,-0.8700140415555049,2.1729876996495916,-2.615055047790587,-1.4735191643212748,-0.11211843184374898,0.8783826311597235,2,left
7.871,0.24982715766266464,1.1808825757951058,-0.08696589847347053,-0.8655883931087526,2.164975127924116,-2.6111992125539025,-1.4674484877121958,-0.11089751375304235,0.8770710527397165,2,left
7.874,0.2532910474372472,1.1519948417684032,-0.07577723578255552,-0.872027121955615,2.1758888053300485,-2.6161121200664494,-1.478602996778144,-0.11323161132103718,0.8794437504413499,2,left
7.875,0.25451275743720814,1.127689123968111,-0.06085247234199697,-0.865193801440752,2.1644482759957686,-2.6110311841112566,-1.4643035950423795,-0.11021980347341498,0.8764102574675123,2,left
7.879,0.26101611355736537,1.1048103155690132,-0.038542032443344976,-0.8690939746701929,2.1707528225071058,-2.6137200854307867,-1.4762315589176225,-0.11273890997443062,0.8789377166157233,2,left
7.88,0.2739187606956561,1.0858532766190265,-0.009977930843300507,-0.8726942460624862,2.177702009510685,-2.617260725025946,-1.475945814612727,-0.11264985280915783,0.8788893155684918,2,left
7.886,0.28852485494977487,1.0739872613844317,0.007524046087754801,-0.857327769374538,2.1497682237875515,-2.6037667202931507,-1.4530809420475097,-0.10791868662483786,0.874003476555544,2,left
7.8870000000000005,0.3016903540165061,1.0670813095605152,0.01163182391480226,-0.8857546006467679,2.2011241732742364,-2.6284301589445866,-1.5092351844697354,-0.11956804190193514,0.8859895578014048,2,left
7.888,0.3231051511690257,1.0607640008799615,0.011688972053437253,-0.8492690162847267,2.1352810872732597,-2.5968423186093723,-1.4161419223333636,-0.10025278827058401,0.8661207698816236,2,left
7.888999999999999,0.33806875823707705,1.059310166734667,0.008661813653747723,-0.8797225538764823,2.1902095080614137,-2.62318021606236,-1.5389279526898236,-0.12572071739753113,0.8923291948928009,2,left
7.894,0.34198599181154654,1.0599826643896322,0.006844353772173562,-0.8789228667631268,2.188878637817149,-2.622594409982182,-2.054372954042629,-0.23258853566538967,1.0023681378500935,2,left
7.894,0.3615107406938307,1.057198333313277,0.010866233536598985,-0.8207735579421449,2.0836299441728166,-2.571956938157124,-2.1771547014120287,-0.2580218989830555,1.0285862064312923,2,left
7.894,0.3881232300928905,1.0545408008207247,0.017345147022163904,-0.9636683544423775,2.342134629765572,-2.696267971506118,-2.084072184216827,-0.2387656340082867,1.0087021894957808,2,left
7.9,0.42155629471214096,1.0473744989272877,0.025077491794194565,-0.7267499664951261,1.913569690278996,-2.4901919142991993,-2.140206543690155,-0.25035273822053056,1.0207012875231873,2,left
7.901,0.44891572156341786,1.0399499457085088,0.031291612825071105,-1.039243061266563,2.478840100439517,-2.762006809513146,-2.1173709238178504,-0.24565517876638823,1.0158150419464125,2,left
7.902,0.4559887034851761,1.0384573716916539,0.032869412505804364,-2.350956532389576,4.851755180597129,-3.903279158468523,-2.1170520507195274,-0.24559914061404856,1.0157441222687562,2,left
7.903,0.48586284313111117,1.0296149079885346,0.037151813453314364,-2.663450341178274,5.4170391967991645,-4.1751485533292545,-2.129003645557029,-0.2479865736760148,1.0183225984708248,2,left
7.904,0.5297860178832301,1.013354095298642,0.04197998312375019,-2.4265338181381164,4.988466464574831,-3.9689715053809986,-2.114710529244138,-0.24521123040217865,1.0152149059405526,2,left
7.9079999999999995,0.5654438166669598,0.9958206985789997,0.04570562300339456,-2.5694189789733435,5.246941011784784,-4.0934089688185775,-2.125806952899306,-0.247247659890336,1.0176630706215986,2,left
7.91,0.6096257236244842,0.9720192848057536,0.054558780390413675,-2.511291491865828,5.141791739438008,-4.042660206769879,-2.119858480911639,-0.24627451367579026,1.0163150794970188,2,left
7.912999999999999,0.65123666662081,0.9425141840888467,0.062445579469314026,-2.510457718696747,5.140280749045514,-4.042108842681481,-2.121202346069058,-0.24644143673177904,1.016635527976767,2,left
7.912999999999999,0.68858448082738,0.9067258631236641,0.06879709097114281,-2.540949828338128,5.19544036789052,-4.068561487971385,-2.1227329660561063,-0.2465380190327108,1.0170285160312516,2,left
7.917999999999999,0.7280469992023657,0.8654072071063184,0.07711938866287073,-2.5044386998221597,5.129400852756572,-4.0366543784671585,-2.1201821830055723,-0.24671951384386734,1.0162707893916625,2,left
7.919,0.763560120245429,0.8241187453024836,0.0851103638908079,-2.5328526633137227,5.18077880334322,-4.061836241430894,-2.1224077990101,-0.24595808890333767,1.01711293256592,2,left
7.922999999999999,0.7971448056683694,0.7817954480075158,0.09198341679149165,-2.5175631666588245,5.153158288572811,-4.0477392902599,-2.1211203823883737,-0.24719114228341285,1.0163878993814708,2,left
7.9239999999999995,0.826737969833986,0.7395334463590482,0.09835890052480815,-2.5210101688397715,5.1593471186580775,-4.051713129424606,-2.121521685360897,-0.2460788296969708,1.0168323885072361,2,left
7.928,0.851469680065279,0.7038086744443195,0.10396653614901727,-2.5251206563248787,5.166820533019015,-4.0545124765881395,-2.1215147699736843,-0.24606680357820504,1.0168340878162803,2,left
7.928999999999999,0.8736441003880764,0.6758707452535613,0.10548021386908582,-2.5180863578399664,5.154095582366329,-4.0483856676529655,-2.1217717120519035,-0.24833790423973645,1.0162232959991062,2,left
7.933,0.8903387784844543,0.6548412111946672,0.10672439752031442,-2.524599920735244,5.165808942889209,-4.055493096849011,-2.120762061683842,-0.2430602708978153,1.017528924160135,2,left
7.933,0.9062387066117896,0.6435281326184455,0.11250604391539792,-2.5203716215183047,5.158320148802458,-4.048522865968581,-2.122616278474614,-0.25100562067170573,1.0156554775297395,2,left
7.938,0.9244603510132277,0.6410563748794152,0.1208567635175648,-2.5220166325004216,5.16105584502645,-4.054863769946398,-2.1204362278878612,-0.2424936063313066,1.0176091627991808,2,left
7.94,0.9374642732517325,0.642677313549447,0.12703332003620432,-2.522316048422148,5.16185502683525,-4.049891304799004,-2.121760838785843,-0.24742526882581367,1.0164942126089473,2,left
7.943,0.9449507535972144,0.646484655505863,0.12981667117717055,-2.5210966893484494,5.159497737449197,-4.051852583631233,-2.1229298816690703,-0.25168220821008697,1.0155388741659008,2,left
7.944,0.9507422632717161,0.6539576012282233,0.13744721625467482,-2.522246435096288,5.161455344153357,-4.055462504715338,-2.117735656865584,-0.23303591002453253,1.0197031602769737,2,left
7.9479999999999995,0.9546174275728028,0.6642753298333728,0.1507612936129848,-2.5218605074162053,5.161309902676891,-4.043715313438944,-2.127443050811589,-0.26763099279978186,1.0119964508199022,2,left
7.949,0.9557952105911943,0.6705670848940162,0.16356442743300567,-2.521223723082607,5.159125591757301,-4.064319859414388,-2.114926624677593,-0.22319865367117656,1.021881119398972,2,left
7.952999999999999,0.956915346865605,0.6749475339537088,0.17095230661263155,-2.522637899408914,5.16301683308461,-4.03838564082302,-2.125398490343475,-0.260297427941547,1.013633913760662,2,left
7.954,0.9638235281352044,0.6826280403579348,0.17264641952427165,-2.5212091441262987,5.15930850088643,-4.059815019041227,-2.125118313119976,-0.25929454951370323,1.0138572498278084,2,left
7.957000000000001,0.9711419435534159,0.6881075205431969,0.1730250736494359,-2.521448468484347,5.1597970433974,-4.059423263239514,-2.1051025052506662,-0.18854313085532842,1.0295743939816728,2,left
7.957999999999999,0.9743446793471864,0.6951074445216301,0.17031298672982,-2.5238133434718084,5.166157435690133,-4.018216221530354,-2.154311218241216,-0.3624431705815896,0.990946929705389,2,left
7.9639999999999995,0.9822137617005741,0.7100597494556291,0.17051424187160996,-2.5176462194742486,5.149831984775927,-4.119161886482381,-2.0727072745461426,-0.07410612740768158,1.0549904191250363,2,left
7.965,0.9900219428795616,0.7217902872335568,0.1756134369095107,-2.528028320672659,5.177222559273968,-3.951946775053007,-2.180353057561663,-0.454424697660616,0.9705176814122084,2,left
7.966,0.9887250327953068,0.7223329574987667,0.17674493320701803,-2.5142755540861224,5.140949137951247,-4.172430297969806,-2.63224396255303,-2.050871644840446,0.6158857158815787,2,left
7.968,0.9901188314937894,0.7219613218091356,0.17588591054156016,-2.4561182114757796,4.9883598940949625,-5.097775224424728,-2.73990120565408,-2.431205531834702,0.531398253143418,2,left
7.968,0.9986934966182057,0.7297429639900881,0.17328486012671987,-2.4423721165908368,4.952033295458433,-5.318229386270964,-2.658276445041818,-2.1428360067360743,0.5954746733564984,2,left
7.968999999999999,1.003923545317552,0.7400499976330281,0.17042180115212746,-2.452806568774355,4.979589170863475,-5.15109787100861,-2.707510258487096,-2.316786098185023,0.5567930563168264,2,left
7.973,1.0074998533849144,0.7442629271985346,0.16860408342805983,-2.446425702935354,4.962903889550082,-5.2518720364176215,-2.687474110675591,-2.245973468957372,0.5725814875554602,2,left
7.974,1.0117775192136236,0.7419046626247514,0.16347477578542358,-2.4492495128965226,4.969860374846997,-5.210938093553186,-2.687196631914302,-2.2450246781644942,0.5727343675063743,2,left
7.977,1.0106285362384755,0.7348629159434332,0.1537375005922014,-2.4487919767672017,4.969592063393206,-5.210211569499318,-2.697697507140399,-2.282108039424684,0.5645217918035561,2,left
7.977,1.0071675565733003,0.7221255543349587,0.13583307237077596,-2.448129730686624,4.966548025449283,-5.231918518406744,-2.685111122802623,-2.2376134356522788,0.5744548982262541,2,left
7.982,1.0049524518916266,0.7021317859313523,0.12019201049785366,-2.4490712075207965,4.9703034613976325,-5.205960724987854,-2.6949249736292114,-2.272379502782126,0.5665733153676886,2,left
7.984,0.9996162690609203,0.6742691452077472,0.11649743642435881,-2.448098809096531,4.9672016061123045,-5.226105975854905,-2.689615067247892,-2.2534545999545585,0.5710507800467535,2,left
7.987,0.9929979372506929,0.6398620126870616,0.11385253387762323,-2.4493620504927835,4.969421949394399,-5.215460746518243,-2.690854410041439,-2.2580376826556843,0.5696970011171576,2,left
7.9879999999999995,0.9874338733464132,0.6021884104218252,0.10754200146027713,-2.447338385122864,4.967628392048761,-5.217382034767079,-2.6922295043504985,-2.262731777965781,0.5689219757518141,2,left
7.992000000000001,0.9796812324563412,0.5629592495433318,0.0996644168779867,-2.45037237673772,4.96953724715708,-5.221196141104651,-2.689805299158044,-2.254166712537118,0.5708267441286436,2,left
7.992000000000001,0.9696368659423636,0.5223287997298525,0.09137624719247328,-2.446742214022481,4.967435160120945,-5.215072482811177,-2.692126268691477,-2.2626694025650154,0.5684417993970524,2,left
7.996,0.9547468880632345,0.4857013995119026,0.08448259532486514,-2.44959134139784,4.968994632612921,-5.220653045660201,-2.690494544766342,-2.2562105857869277,0.5710108678581423,2,left
7.997000000000001,0.9314373020965925,0.45518917769745704,0.08002618891895001,-2.449816011733172,4.969531772734948,-5.217541085528511,-2.691321665537861,-2.260169544889923,0.5684389124066308,2,left
8.001,0.8993191481584705,0.42619275625179354,0.08091294669135718,-2.443899703930266,4.964983576556468,-5.217188868005447,-2.691148076556371,-2.2584495751108755,0.5706256180040223,2,left
8.002,0.856603217639518,0.3990195975679228,0.08909896952381491,-2.4572235933657445,4.974861759722211,-5.221107356894695,-2.6908864862937056,-2.258167041406333,0.5696450322954012,2,left
8.009,0.8080564382551871,0.37523651334725805,0.10613132051889582,-2.4373939165808913,4.960249140822711,-5.214516106678827,-2.6914236052238314,-2.260611023388101,0.5682047190442946,2,left
8.01,0.7607380377168209,0.35746101549529474,0.13440478975706965,-2.458523975317659,4.975803031285784,-5.2216811934209115,-2.6906827417190975,-2.255588162487599,0.5732521382181918,2,left
8.011000000000001,0.7168995868712027,0.34125715554270736,0.17448350359301934,-2.446328713832783,4.96685297981423,-5.217322162610842,-2.6915868854371663,-2.2632492348583026,0.564257329019164,2,left
8.012,0.6815199127503935,0.3209883114219837,0.2231131223811944,-2.435748232880354,4.9589560020643155,-5.2146501798424385,-2.690635226161911,-2.2541457855787757,0.5756457844498057,2,left
8.016,0.6565252711582114,0.305145596273368,0.27229759769816153,-2.4819425068725383,4.993218267403751,-5.228120583477626,-2.691338705395499,-2.2614324323824815,0.5662053340204037,2,left
8.017000000000001,0.638149225859578,0.28705222213239523,0.3112921987381908,-2.3962945582541533,4.929733510735833,-5.202819390032495,-2.6914015305834367,-2.2615058312027236,0.5664062422240865,2,left
8.021,0.6270638825610237,0.2627320520895544,0.33581627679748244,-2.506266655238849,5.01123738397439,-5.2353786388888155,-2.6899059125093974,-2.2471107653815183,0.584505531332449,2,left
8.022,0.6219191199942806,0.24407827970909318,0.34835427090919424,-2.414457517229895,4.943201078270504,-5.208168397688494,-2.693433760657202,-2.282007240011822,0.5401159360794316,2,left
8.026,0.6150469413218895,0.22087394485459688,0.3483481499803031,-2.4169372922977095,4.945018888175931,-5.209014543971591,-2.687658683204299,-2.2243782367652285,0.6136739007039689,2,left
8.027000000000001,0.610370100538171,0.20449198259608353,0.34511655280664416,-2.5920175960992817,5.074823171771394,-5.260537110199579,-2.695234366164703,-2.30027904567923,0.5166655898011512,2,left
8.031,0.6093764360675404,0.20245226822281126,0.34486758986234367,-2.161695858183168,4.7558131059717486,-5.133773894751868,-2.727076323996802,-2.6188332544826856,0.10953925946354372,2,left
8.032,0.602538134853708,0.18189598362180281,0.33547661605821577,-2.8751905058417897,5.284731051594178,-5.343982949755019,-2.7346106217753077,-2.6946795607979253,0.012515754119570389,2,left
8.033,0.5976833976833511,0.16334282029489355,0.32659635577684176,-1.9340899138736107,4.587103457058049,-5.066720659349823,-2.7289117357283956,-2.6371763783510964,0.08608844746802569,2,left
8.036,0.5970862517121545,0.1609756845407828,0.3246527460326127,2.016184652468196,1.6587870058838765,-3.903070784662352,-2.7323453395779373,-2.671858486485924,0.041711164045545764,2,left
8.037,0.5923757094038204,0.14209661038812646,0.3105477364382965,2.9573050632616065,0.9611960665454201,-3.625838382088602,-2.730930597580709,-2.657755993069543,0.059743429362190854,2,left
8.038,0.593523373707184,0.12114164947823287,0.29111072060216614,2.2437759634805365,1.4900475131023565,-3.836004386338127,-2.7309726615625403,-2.657526010284764,0.06008020399977438,2,left
8.042,0.6069830404834746,0.10924681276542905,0.27430236771250105,2.6741356257729194,1.171117433575791,-3.7092668216789737,-2.7315832124127715,-2.6649865549294516,0.0504516249502021,2,left
8.043,0.6317257238613183,0.09671271101860113,0.25103209682084915,2.4990314520106516,1.300857273841311,-3.7608184155972304,-2.730877346742869,-2.656036046056766,0.0620190856968654,2,left
8.045,0.6694126622197605,0.09170864499027721,0.22798863858098944,2.4965395708689977,1.3026828027868647,-3.761549837641676,-2.7313908478400775,-2.663025597010669,0.052962495442444704,2,left
8.046,0.7184672996892292,0.09206238408372794,0.2047738513327672,2.5884168799701026,1.2347402656733153,-3.734545935645605,-2.7310946676706065,-2.65926662044207,0.057820613976757404,2,left
8.051,0.7758392834393332,0.09473744744426957,0.1700601857692474,2.4783134231538315,1.316019804689502,-3.7668474376939907,-2.7313274954462714,-2.6600397738740957,0.05692878878622391,2,left
8.052,0.8361910523323044,0.10224986168421105,0.12638566160484271,2.5641359324702107,1.2528750519417728,-3.7417545396347673,-2.730949705331839,-2.6612730686907318,0.05503804793295555,2,left
8.056000000000001,0.8983997314154513,0.1121187191357418,0.07573554855110126,2.517782813756164,1.2867695092668634,-3.755222557465322,-2.7315990355525384,-2.659141002152774,0.058304445203555655,2,left
8.056000000000001,0.9611261007261567,0.12190881561850347,0.018742395296257788,2.5284076958997677,1.279093267130922,-3.7521734257773582,-2.7307535020267695,-2.661263660391227,0.054927860276525506,2,left
8.062000000000001,1.0187210629462622,0.13342342439912663,-0.037725494788378625,2.540791666975039,1.2703100586748897,-3.748682658276339,-2.7314476579192446,-2.659774836025165,0.05735963699539612,2,left
8.062000000000001,1.0736381200061407,0.1493089138125504,-0.09323766361820526,2.5191484791021828,1.2850783398027175,-3.754550307626112,-2.731501483747348,-2.6602404584995787,0.0567680601825242,2,left
8.065,1.1256244285339927,0.16719853859125688,-0.1441205820724851,2.5398076234531155,1.2719593481245388,-3.749339641150476,-2.730015243883669,-2.6610099582024227,0.05480708474868837,2,left
8.066,1.1691891577495628,0.1867273075689565,-0.18454921558129178,2.5255237907578283,1.279855080194735,-3.7524737776678414,-2.733386110330141,-2.6589937602577156,0.0596191407197936,2,left
8.068999999999999,1.210286554854177,0.20794670105772972,-0.2168610533989196,2.532119243719725,1.277112042768822,-3.7513865540132727,-2.7283512892518345,-2.661941039237499,0.05251701783618194,2,left
8.07,1.2504922055371668,0.2285549453892911,-0.2389813440771701,2.532098423174583,1.2771465377347688,-3.7514004311331153,-2.7337266250491465,-2.6588794128579263,0.05998643035262412,2,left
8.075,1.281561294211326,0.24857744067898163,-0.24947235307461713,2.5275355436466915,1.2765475560456179,-3.7511568278175798,-2.7306204906710434,-2.660648246420037,0.055669008979855626,2,left
8.076,1.3046249881822436,0.2685597614495681,-0.25042272114617536,2.534723539808449,1.2803176438611206,-3.7526674038637546,-2.727926472265537,-2.661999643000412,0.05217482214591681,2,left
8.08,1.3224972088354359,0.28801831664225686,-0.24241049220762856,2.5266685170535994,1.272715561661609,-3.7496283421665226,-2.739696372560692,-2.6558634602916036,0.06776288915843884,2,left
8.081,1.3338266413396394,0.3028119003085093,-0.2271224799531757,2.533695372257677,1.2819759109777848,-3.75332699791727,-2.7178691140927436,-2.667251585299905,0.03883869450039284,2,left
8.084,1.3381358651328266,0.31283277867774306,-0.2061143591521124,2.530134564221263,1.2762550304304503,-3.7510438135686357,-2.7458988755064997,-2.6526462296501983,0.07596151718990538,2,left
8.085,1.3342984975403052,0.3220334608507234,-0.18421598784296822,2.527269609227618,1.2711723665291168,-3.7490123478550217,-2.7224959601045216,-2.6648284370332096,0.0449757706000813,2,left
8.089,1.3234741004714654,0.3246425385830016,-0.16226046104121003,2.5392023634989775,1.2938664451088218,-3.758074938928099,-2.7231314193702545,-2.664490598107565,0.045843751398837854,2,left
8.09,1.3094497185707934,0.32107405586595983,-0.14080028764078523,2.5176486112636214,1.2513529390494367,-3.7411014592279885,-2.767754458960466,-2.641315219561062,0.10481236459061456,2,left
8.096,1.2913161773413084,0.3161461541663738,-0.12260941380629649,2.54492528889956,1.3062388673738172,-3.763011068130883,-2.6580704140055733,-2.6982712725866476,-0.04015394059319034,2,left
8.097000000000001,1.2681700029585532,0.3049364326580096,-0.1044689195906314,2.522331174178321,1.2602847766598722,-3.744671720253417,-2.839936705335361,-2.6038505289239993,0.20021218629933435,2,left
8.099,1.2522144763111016,0.2951793497872961,-0.0936513830027586,2.522955539335634,1.2615210341833019,-3.745154188462335,-2.6000517833404126,-2.7283761250543663,-0.11682901257159621,2,left
8.1,1.2470096636979118,0.29171013885270014,-0.0914477831020056,2.565699369903056,1.3493924124711705,-3.780248164514693,-1.5932481149315978,-3.2513250917266268,-1.4473739817788893,2,left
8.101,1.2330183268320496,0.2819422968187575,-0.08316838832498764,2.4607579291283104,1.133324383096339,-3.6939764261066257,-1.3533667512500132,-3.375854467342391,-1.7643995685195308,2,left
8.104,1.2054202331982498,0.2669633476633922,-0.06900277701349161,2.6346357231401605,1.491666362932837,-3.83704103067591,-1.535214779859932,-3.2813953439129717,-1.5240770620249617,2,left
8.105,1.1880289650390619,0.2585876302694899,-0.06036756488782886,2.4053836443899095,1.018945258671788,-3.6483224940126817,-1.4255803214068985,-3.3384712999775035,-1.6689551163700054,2,left
8.107000000000001,1.1825783099111362,0.2550883653424386,-0.058570416861651764,1.443096759275282,-0.9652309024092823,-2.8558840389384965,-1.4701108853128715,-3.3150590874313686,-1.610125655018183,2,left
8.109,1.1642981076120122,0.24744967749415628,-0.05156586691699922,1.2139102026659785,-1.4379981375145447,-2.667135419863353,-1.4708750070532017,-3.3150635460635556,-1.6090886649762686,2,left
8.11,1.137504900086009,0.23972631495638302,-0.03843009574480792,1.3877056434649928,-1.0796061928691478,-2.810273139161721,-1.4473439071432508,-3.326888894387559,-1.6402123415475973,2,left
8.113,1.1150690128344944,0.23625379791373108,-0.0281943893411772,1.282777840883608,-1.295655431496829,-2.723870088364405,-1.4754310006104052,-3.3124716108207837,-1.6030825694427207,2,left
8.113999999999999,1.0928757070151343,0.23247858845787767,-0.016474343002065343,1.3256731232048187,-1.207949217179306,-2.7591523349281286,-1.4537095725571996,-3.3240892259402317,-1.6317676127124403,2,left
8.119,1.0703963814916948,0.2317627802298235,-0.0019049557253268483,1.3259156988730192,-1.2063573209849638,-2.7594276182216557,-1.4651293817785165,-3.3170757599715843,-1.6167434881488019,2,left
8.12,1.0476375966519056,0.2347550983101992,0.01446977774510709,1.303913774579078,-1.2528215470727537,-2.7412268854261472,-1.4630455096334818,-3.32002169785764,-1.6193809777292674,2,left
8.124,1.0262567595678806,0.23544927045280573,0.03651270105606112,1.330544796946927,-1.1974273381486347,-2.7631963822896326,-1.4591819189321102,-3.31974219491091,-1.6246295746469543,2,left
8.125,1.0062080211760511,0.2353156350381385,0.06166588155117101,1.3093735829331723,-1.2401607299694928,-2.7458295216015696,-1.4651747508063617,-3.3184518458427648,-1.6165961161600988,2,left
8.132,0.9863842711917602,0.23507182314216676,0.08935664325749126,1.3216211676581175,-1.2179017431756627,-2.755687608319098,-1.460113947438482,-3.321096495684147,-1.623283271998053,2,left
8.133,0.9662220511480902,0.23357576268163574,0.11986408233952088,1.3173300621695716,-1.2215806475847995,-2.7525505982456595,-1.4624109246722732,-3.316522935599253,-1.6204581671904288,2,left
8.133,0.9435654448279144,0.2328301403264914,0.1529437148914155,1.3164601751521987,-1.2297212998615472,-2.751345246438524,-1.4634363491491178,-3.3237157263162698,-1.618622069755014,2,left
8.134,0.9238059364163049,0.2311470768026288,0.1930171279297205,1.3199370715206202,-1.2174906138369028,-2.754599362104382,-1.4596967490332011,-3.3141333487409694,-1.6242815594356905,2,left
8.138,0.9051446354260828,0.22914485198192514,0.23628094796203786,1.315080946136651,-1.2274609503390383,-2.750602844671347,-1.4644919954409976,-3.3239280268135643,-1.6171796813762471,2,left
8.138,0.882912253858052,0.22883078007471436,0.27503638226834903,1.3214507814055465,-1.223713253031391,-2.755124677606421,-1.461178792649366,-3.3185508659314467,-1.6220000329651256,2,left
8.142999999999999,0.8606479195835424,0.22661535872748387,0.308635853862494,1.3128898504633506,-1.2199111980038762,-2.749730460353614,-1.460009473505349,-3.313038276936994,-1.623926340168855,2,left
8.144,0.8368035189352367,0.2212038560932924,0.3344133402659125,1.3235495500655947,-1.229938570144251,-2.7560376262805306,-1.4682390503363671,-3.3355448406544332,-1.6113835108919479,2,left
8.148,0.8108672708661967,0.21583885307725786,0.35371156727960995,1.3129589935820292,-1.2176552733992283,-2.7499514052197966,-1.4522415649994125,-3.294189493703641,-1.6356163382283313,2,left
8.148,0.7835206214217906,0.21271476474233292,0.37536186797347093,1.3185595614320995,-1.2258215586405186,-2.7530398080893645,-1.4730488350906854,-3.3471525529057757,-1.6041492263687807,2,left
8.152999999999999,0.7542568907537424,0.20999464221514386,0.3989276164577735,1.325000054353733,-1.2295375499570005,-2.7570333741557054,-1.4555646091247256,-3.302996977345263,-1.6305689798192051,2,left
8.154,0.7234566055055893,0.20986582932554923,0.42255227824464714,1.2997889937489662,-1.2071427389812406,-2.742012935666226,-1.4562136256681772,-3.304096629801461,-1.6296222048037574,2,left
8.158999999999999,0.6943163086272728,0.21365357595834628,0.44553912042400323,1.3458394834320782,-1.2501233236134937,-2.7692861999505967,-1.4890856492214377,-3.388545113506387,-1.579860553892854,2,left
8.16,0.6687917419852973,0.21904229438108636,0.46651281240978626,1.2869629386209465,-1.1944112182408158,-2.7344782857754852,-1.408034411154242,-3.181122087176629,-1.7025054900788152,2,left
8.163,0.6409253700859383,0.22809163505447166,0.48850187588595045,1.3360069837948454,-1.241144455822566,-2.7634440985452216,-1.5425194788323089,-3.5249823053588183,-1.4990253375226499,2,left
8.164,0.6218717266417224,0.23475007212211227,0.4992732895166196,1.3348490949863292,-1.2395363139340159,-2.7628083071766953,-1.3650969924074798,-3.0714560658424626,-1.7674633880008392,2,left
8.165,0.6167564198671824,0.23811619294395728,0.5012060753712935,1.2408823475130988,-1.1513374261754141,-2.7071858087636507,-0.620603148875122,-1.1675441569200002,-2.893936379620812,2,left
8.166,0.6021483139121633,0.25009075838788464,0.5113123736881907,1.4715928607350213,-1.3686180688460525,-2.843676806032324,-0.4431786484545281,-0.7140147532488481,-3.1623777406107862,2,left
8.169,0.5789707410178586,0.269089309329499,0.5161716512446269,1.0891622642557788,-1.0081655804447645,-2.6174636494772416,-0.5776728534783524,-1.0578893155596154,-2.9588825705864723,2,left
8.17,0.5679349531420841,0.2802669189439402,0.5153436799949764,1.5935446342051827,-1.4836745415216384,-2.9157870040194918,-0.49659779755410927,-0.8504289097799035,-3.0815666501087686,2,left
8.175,0.563512073014318,0.2841421332818417,0.5150243861111761,3.710862021928733,-3.4793195123177547,-4.168230264840544,-0.5295134044892875,-0.9349457833464438,-3.0317333740108614,2,left
8.177,0.5516284716102176,0.2973157887173012,0.5040493403735212,4.215216299261654,-3.954858391965234,-4.466488037271588,-0.5301025909224224,-0.9359515612392243,-3.0308849224753294,2,left
8.177,0.5387550005293078,0.3164913241917515,0.4896798246367582,3.832846025101132,-3.594325289423508,-4.240390913891888,-0.5126769724468363,-0.8918879303538246,-3.0572083637758105,2,left
8.179,0.5292435091491541,0.33290147181410334,0.4730247142945749,4.063462092750878,-3.811764502983607,-4.37674923184303,-0.5334598279448532,-0.9448127085858451,-3.0257813695973503,2,left
8.18,0.5206040602329821,0.35008665353838764,0.45079900397724426,3.969613064684798,-3.7233206993081756,-4.321220533358958,-0.5174098402741307,-0.9033749464310499,-3.050100485022145,2,left
8.184,0.517911033866763,0.36573267783414576,0.43042436594354916,3.968347886572152,-3.7220041734409284,-4.320602824441487,-0.5258056337776549,-0.9261423467706843,-3.037284491760003,2,left
8.185,0.518860265535432,0.3800992539042969,0.40881392904414976,4.017428873185664,-3.7685077188516374,-4.349366648616996,-0.524350772911687,-0.9201817164927145,-3.0396800557138652,2,left
8.19,0.5225084484122485,0.394183348469007,0.38961710937485183,3.958661551228774,-3.712788975196919,-4.31497979853269,-0.5213877032500027,-0.9153538967665178,-3.0439250106972997,2,left
8.191,0.5316401920685194,0.4066561427133599,0.3782617938728171,4.004393775110738,-3.7562094897362517,-4.341662973054815,-0.5259039212085042,-0.9247108679491383,-3.037281664698133,2,left
8.193999999999999,0.5435798353884201,0.4189258395205713,0.3690003790887293,3.979713700697488,-3.732813268052309,-4.327222060742399,-0.5221616499615895,-0.9151241285169216,-3.0429455751789813,2,left
8.195,0.5606980663027432,0.4296519114708186,0.3604079735043304,3.985518564694836,-3.738022489991118,-4.3309677788562295,-0.5237053823756764,-0.9231303733347435,-3.0402576619447643,2,left
8.199,0.5791853037836325,0.4378097168016749,0.3526245329125446,3.991604188027227,-3.7445994723598925,-4.333564225452589,-0.5248180425895524,-0.9166984081039808,-3.039378872281537,2,left
8.2,0.5935251117744644,0.4436022180387665,0.3426798689659912,3.981066294634514,-3.733222071208296,-4.3290575817704,-0.5215240330823498,-0.9221152235629302,-3.043162511593309,2,left
8.204,0.6077693182851824,0.4482936442470426,0.3296112862198852,3.9907160481452584,-3.744087829692802,-4.332647859481305,-0.5256333468250384,-0.9178698704762366,-3.0382243370053956,2,left
8.204,0.6209807427502108,0.4541207673301314,0.31875895142853783,3.9843744341973557,-3.736700351577791,-4.330584485764884,-0.5228582059952037,-0.9192974850947004,-3.0416843209114877,2,left
8.21,0.6332499527018363,0.4614400586993831,0.3117465612677631,3.9875063824009844,-3.739639944586754,-4.332451921825222,-0.521712138299446,-0.9237159161880724,-3.0427804551558326,2,left
8.211,0.6440071450826166,0.46813442884141576,0.3049674392172389,3.9860086031136914,-3.7408427356954186,-4.32843532729302,-0.5290266624602094,-0.9102600028382217,-3.034503070569092,2,left
8.214,0.6475139169129513,0.47565732112170767,0.3011602793524041,3.9877127462642648,-3.736474654958796,-4.336597799569265,-0.5149189746487276,-0.9338244668092727,-3.0506757429536604,2,left
8.215,0.6470801388530749,0.48745390351566226,0.29763617873204173,3.984771102267453,-3.7426140579334817,-4.324184602361413,-0.5332291822602313,-0.9040675290481563,-3.029612970688457,2,left
8.218,0.6465376849504001,0.49799801433335283,0.2893840461709884,3.9884369256981818,-3.736569209304557,-4.337730938726946,-0.5178610242097355,-0.9286982210073746,-3.047322363863301,2,left
8.219,0.6431074735152311,0.508110311096832,0.27790428796736827,3.9863239945216864,-3.7400666572819166,-4.329906572794229,-0.5184025445563457,-0.9283582813927941,-3.046650176573673,2,left
8.222999999999999,0.6365046376875766,0.5210607889954173,0.26391564208272666,3.983329351308759,-3.7419757612608233,-4.32246904629187,-0.5473720009534166,-0.8805236313224138,-3.0133949818458188,2,left
8.224,0.6273010021309009,0.5309242888940423,0.2500008029796109,3.9949177909435947,-3.7321906487439858,-4.354124101525766,-0.4759881949188014,-0.9976224259526355,-3.0954110118460587,2,left
8.231,0.6158155485797845,0.5419217126342257,0.23712954303276854,3.9735011232794313,-3.7504069271311735,-4.2954623379743175,-0.5944123602421854,-0.8036462757144762,-2.9593195578023384,2,left
8.232000000000001,0.6087897317548887,0.5504490506187656,0.22940275353018214,4.001100123681313,-3.727109808377568,-4.370846547418,-0.4381892811979208,-1.0594342137165917,-3.1388615488969696,2,left
8.232999999999999,0.606333031296196,0.5524523369466031,0.22776689027872257,3.978012390542705,-3.7465151971447916,-4.307882658532702,0.21749047587038028,-2.1333670898866743,-3.892337959581777,2,left
8.232999999999999,0.5997072864155943,0.5601876309929011,0.22696011221144918,3.9785192570530357,-3.74587898184351,-4.309521347096431,0.37371302571665554,-2.3891423801084106,-4.071886535158908,2,left
8.234,0.5925498776826832,0.5688169088044766,0.23033833532998288,4.023056547814445,-3.709360352487404,-4.429874057941605,0.25527467622109035,-2.195217646426686,-3.935765632166938,2,left
8.24,0.5883508336771597,0.5735064443435391,0.23717875008626174,3.9136721285604996,-3.7991961127968605,-4.134102529149237,0.326710968744062,-2.3121879960758016,-4.0178580283252305,2,left
8.242,0.5815559624827331,0.5787448565492275,0.24892309282897196,4.0950529079666635,-3.650260241476241,-4.6245204440224,0.29763185606816567,-2.2645834860143963,-3.984463442408509,2,left
8.243,0.5757388017069558,0.5799859175305515,0.2602899024836299,3.8557766559334627,-3.8466716503597365,-3.9776363548041487,0.2972542868577256,-2.2639324425608685,-3.9839822643317526,2,left
8.244,0.5750547257478099,0.5797916002780837,0.26174996821490804,2.851236249859637,-4.670940510744697,-1.262370933738569,0.31244500673602904,-2.2888618248023436,-4.001504982344551,2,left
8.245,0.5709957830753034,0.5821530779744754,0.2688500130179337,2.6119167952649267,-4.867311266765514,-0.6154661919667224,0.29423949977845776,-2.2589915317935727,-3.980519187208692,2,left
8.247,0.5613719842384179,0.5829562175926366,0.281813079107892,2.793352092919285,-4.718426452937546,-1.1058941351415772,0.30843569506528956,-2.282263081218935,-3.9968608912359844,2,left
8.248,0.5519477901274834,0.5831969418513552,0.2912603914243179,2.683957908937769,-4.808253886353722,-0.8101747298815919,0.30072322411946184,-2.269692153143052,-3.9880513834413818,2,left
8.252,0.5385852378745803,0.5873617037797632,0.30165002042330064,2.728396931558625,-4.7716410122154445,-0.9303633834418568,0.3026212435457292,-2.2726148532911257,-3.990059897933841,2,left
8.253,0.521966469090736,0.5931093734783324,0.3093391236313303,2.7291531688811728,-4.771242085591009,-0.9322949791206794,0.30440160192339627,-2.275850381321189,-3.9924029761615607,2,left
8.257,0.5072398870344437,0.6002487380421613,0.3163028467065725,2.7056775147688574,-4.790279619278584,-0.868959221992438,0.30119359981091487,-2.2702033077077215,-3.9883521099391754,2,left
8.258,0.4898981428711383,0.6116789256563916,0.3242382173216568,2.73370074948142,-4.767383327321669,-0.9446536556304841,0.30424647139684136,-2.275516866516533,-3.992150633654043,2,left
8.263,0.4714812567864783,0.6243327171209317,0.3304218525086089,2.7120305563424782,-4.785362542907347,-0.8859695931318585,0.30203242169511146,-2.2718947036078045,-3.9896089728958373,2,left
8.265,0.4560637107844271,0.6406614556491149,0.336106076181738,2.7234171180104516,-4.775380990099896,-0.917101215239597,0.303458303531699,-2.2736435697968966,-3.9907090771380753,2,left
8.267999999999999,0.4410469674795313,0.6617914141582293,0.34052701602475804,2.7213521340407776,-4.778177015437792,-0.9109075664223713,0.3024070038951556,-2.2732610252543477,-3.9907312273009223,2,left
8.269,0.425279852512441,0.6817909583628567,0.3440910471814731,2.717478855101112,-4.780002068576097,-0.9011910730646935,0.3034466926553856,-2.2729660134849348,-3.9900909632828117,2,left
8.274,0.4074831522056189,0.7034662077006077,0.3478626626235778,2.7234732342761587,-4.776162643279523,-0.9167927068744479,0.3024368896375452,-2.273441736231682,-3.9908863583928826,2,left
8.275,0.39012902266853394,0.727781997642811,0.35275717362309644,2.7184242335157687,-4.780315535989729,-0.9031397945925432,0.30286468264463373,-2.272912399731951,-3.990248464655551,2,left
8.277000000000001,0.3750037109375231,0.7496305371569397,0.35302580932115823,2.720686637828455,-4.776454614852145,-0.9103724633320387,0.3040042503584689,-2.2737166083415348,-3.9905826002973326,2,left
8.277999999999999,0.3563331792172012,0.7694069419055662,0.3478216824914392,2.7217769055976535,-4.780140837795347,-0.9107652550760431,0.3002789304412756,-2.272260148698553,-3.990566727704137,2,left
8.281,0.33621769200586915,0.7869092601984461,0.34231375570653366,2.7179454832576737,-4.776450892546976,-0.9042199857864266,0.30695949382634835,-2.2745889850489487,-3.9903356453945222,2,left
8.282,0.3193834981413486,0.7994163138053303,0.32942861994335304,2.722836742719117,-4.779722127198617,-0.9133778771463825,0.298432927075731,-2.2716818686521503,-3.9906900919188355,2,left
8.287,0.3034518197708904,0.8071167751786605,0.3129441083711586,2.719469580257411,-4.77827666867451,-0.9066245778175883,0.30552984062391464,-2.2740755938299557,-3.990371786938444,2,left
8.289,0.290058326813702,0.8109912083082382,0.3000577514037018,2.7182488317901172,-4.775647988941845,-0.9053480650554309,0.3054189512068971,-2.274139292489798,-3.990468399295922,2,left
8.291,0.281017015534864,0.8125659573520172,0.2869489832036459,2.726694251070281,-4.784600915694062,-0.9193193754586597,0.29162184437045413,-2.269152234218084,-3.9907838601599686,2,left
8.292,0.2743947006160438,0.8114908568619363,0.2763618240863634,2.710299028006636,-4.768601362602063,-0.8914288965214937,0.3254361774517561,-2.281259568325752,-3.9899074842707494,2,left
8.297,0.27052574601194546,0.8052851129037815,0.264756370820433,2.7316155020122976,-4.788926596197431,-0.9279547502000096,0.26939744293254775,-2.261222386342017,-3.9913833831294903,2,left
8.298,0.26940524025618584,0.8006358268035831,0.25582623261125587,2.713707847613215,-4.772052886724287,-0.8971609518645471,0.343307447328827,-2.287650340421269,-3.9894393791662783,2,left
8.301,0.2686319892428033,0.7986071243572544,0.25301047883455735,2.7143644847418287,-4.772360974609619,-0.8984558711997472,0.653690969004955,-2.3987435169087803,-3.9813545525232166,2,left
8.302,0.26894254337223134,0.7907806510340508,0.24372746884634386,2.748053419567981,-4.804929138564624,-0.9559450901006388,0.7276060610027131,-2.4251912039907912,-3.979430043621072,2,left
8.302999999999999,0.2698770749933753,0.7817358936791382,0.23144414891015658,2.6650015261732496,-4.7250998179488715,-0.8139783603470387,0.671561821293313,-2.405132672048661,-3.9808848457942916,2,left
8.308,0.26743417437883177,0.7738491102091373,0.21906267532869989,2.8027991108948003,-4.857371993281305,-1.0496139694616384,0.705374063474415,-2.417231886650683,-3.9800004630616024,2,left
8.31,0.2648663975743458,0.7680657694102151,0.21046275180276752,2.6210108474881824,-4.682945129479192,-0.7387252062018763,0.6915952100215852,-2.4123156466682314,-3.980385857861296,2,left
8.311,0.2634886543320556,0.7678662758171856,0.20919589147926937,1.858089607342046,-3.950548569546037,0.5659267369902173,0.6914450425638226,-2.412226970229418,-3.9803319776024004,2,left
8.312000000000001,0.26085391737595987,0.7649826908804376,0.2002724476409667,1.6762954169232356,-3.7761456088030076,0.8768226494280648,0.6985982757193792,-2.4148391708680332,-3.9802294652495314,2,left
8.312000000000001,0.260915224222738,0.7612041276203709,0.18960725907634846,1.8141193325781382,-3.9083755917841536,0.6411254866097297,0.6900156228131489,-2.4117144978954324,-3.9803690064265504,2,left
8.318,0.2640249975944866,0.7599566931305756,0.1848214186813546,1.730999326987191,-3.8285942793578185,0.7832799019956522,0.6967203929825885,-2.4141372070183253,-3.980230690650889,2,left
8.318,0.26719299983703754,0.7561041517419302,0.1783387907845872,1.7648124384843724,-3.861128977129682,0.7254233435792301,0.6930432195919674,-2.412867563127408,-3.9803992702664868,2,left
8.321,0.2710633745762421,0.7566747426705737,0.17482815861118656,1.7652990618051039,-3.8614294047788933,0.724656255970717,0.6940276677871895,-2.4130699824571087,-3.9801390807235757,2,left
8.322000000000001,0.27727296306245525,0.7603825844841169,0.1719263764302304,1.7475573790232315,-3.8446304607138724,0.7549034474419041,0.6947227530757303,-2.4135775561667376,-3.98052532117146,2,left
8.326,0.2848302271843376,0.7595688453968238,0.16513470820459564,1.7688057513456514,-3.864801573803601,0.7186593452427437,0.693384899634228,-2.4127807280345257,-3.9800637545326976,2,left
8.327,0.2935047412424744,0.7602680718191488,0.16012401696545703,1.7522594695389038,-3.849016464357361,0.7469158073676379,0.6946861495980678,-2.4135002580685514,-3.980425738880587,2,left
8.331,0.30502268665089277,0.7624576032746412,0.15639750114150783,1.7611791525112923,-3.8577608395531713,0.7315791151037119,0.693637126590205,-2.4131267486408947,-3.9804565036230897,2,left
8.332,0.3188141137443735,0.7630918304383759,0.1519819293636514,1.7591459766391129,-3.855217490120502,0.7353211571518985,0.6945777446634309,-2.4129929067291043,-3.979697427098876,2,left
8.336,0.3376372542755639,0.764426826385184,0.1481585738371118,1.7567725644590553,-3.853957957267733,0.7389235088990753,0.6934727822313522,-2.4136733699929342,-3.98140518768991,2,left
8.337,0.35906895939206374,0.7663739928221232,0.14356220322266822,1.7608755449978695,-3.8566473952911458,0.7324672522517109,0.6948709976994223,-2.412568097897842,-3.978863804513367,2,left
8.34,0.3769579031532888,0.7702891689044449,0.1329737816772727,1.7570281515250745,-3.853949642917448,0.7385998708083292,0.6934269928884549,-2.413763669173207,-3.9815719936861376,2,left
8.342,0.3973375518079146,0.7742173645489634,0.11692754558404932,1.7596020052909984,-3.856428216413615,0.7341943989110561,0.6941879671068365,-2.4130455265447157,-3.980008775895194,2,left
8.347000000000001,0.41951979975012443,0.7763771363893504,0.10220552949975112,1.7584897432033622,-3.8535171976684928,0.7369258617948962,0.6952076934169427,-2.4125599943900724,-3.978652779867506,2,left
8.347999999999999,0.43981445428860577,0.7804327579105159,0.08659306526213346,1.7584628940588871,-3.8577048139175902,0.7350759658026977,0.6913399929527585,-2.4149049510990706,-3.9845739108536296,2,left
8.352,0.4622539267765225,0.7824692690831578,0.0687988464125036,1.7591183666062267,-3.852048102600374,0.7367837645031488,0.698405609992918,-2.4105149614461743,-3.9735950060819643,2,left
8.353,0.4824523625660616,0.7802069831685456,0.052375215768283245,1.7583046198351093,-3.857968254434869,0.7351592273232913,0.6893565654828953,-2.4161632137530233,-3.9876927241161675,2,left
8.355,0.5031449041263897,0.7788094961549923,0.03766862169056337,1.7589565803814926,-3.8547212197158216,0.7357880754554886,0.6969022726308495,-2.4114404817123267,-3.9759222109761785,2,left
8.356,0.5237628853326133,0.7724528210769062,0.02473931078525,1.7586196433564707,-3.8510622847042004,0.7378642254361708,0.6967334953554367,-2.4115903620478223,-3.9762427622633374,2,left
8.36,0.5351925469733309,0.7620307683313171,0.011578343785794218,1.7586215499361868,-3.8656679242013947,0.7312896333548796,0.682227138273803,-2.420531223084458,-3.998683017167738,2,left
8.361,0.543413884711115,0.7535573174688978,0.0044677499516161045,1.7588851551890787,-3.8388356804959853,0.7430283026509836,0.7178420785536782,-2.398521901378456,-3.9435226374264625,2,left
8.366,0.5463740887629526,0.7391640583265622,0.004524637693475279,1.7584849198458141,-3.8732326179418726,0.7280580569717403,0.6587987798452692,-2.435032994988066,-4.034985746625134,2,left
8.367,0.5435696774515488,0.7288439570199561,0.0024020389768045058,1.758846511973303,-3.8445393299413273,0.7405130829585729,0.7366796521488762,-2.386858274804843,-3.9143407496486313,2,left
8.37,0.5415777223026228,0.7270762290384694,0.0002155944601201012,1.758736676948792,-3.8452276773094587,0.7403377818178218,1.0636160282554696,-2.1847530369184325,-3.4079633981678077,2,left
8.371,0.5359524810979632,0.7177146341956295,-0.003986602555202775,1.7583683166131205,-3.9002298441318333,0.7160613310332822,1.141511874620692,-2.136537375787544,-3.287303480297776,2,left
8.371,0.5252763783486301,0.7042191919818724,-0.007280692704176215,1.7593985952961475,-3.765145020331119,0.7755356268613411,1.0824474795227452,-2.1731132932082673,-3.378789852438084,2,left
8.375,0.5093778578911693,0.6910705227906613,0.00041730916714700526,1.7576492225600682,-3.9890954128169134,0.6769791705601884,1.1180735977990763,-2.1510481064942937,-3.323610395099104,2,left
8.376,0.499593739910296,0.6831461990256333,0.006630137884084235,1.7599736700918855,-3.693707527592633,0.8069632507317943,1.1035852333795924,-2.1599919377041834,-3.346049088786966,2,left
8.38,0.4972815380084774,0.68165623138676,0.00874995457930237,1.7695192232792265,-2.453696430197124,1.3528361023649589,1.1033538608681108,-2.160235572521679,-3.3464077308800833,2,left
8.38,0.4857249908014475,0.6725984549003976,0.021386918888537373,1.7718706890975007,-2.15829566310098,1.4828200713194768,1.1110084375177267,-2.1552982355526327,-3.3345547957789505,2,left
8.381,0.47163192131360615,0.6617089007870436,0.03868454214365279,1.7700734026074618,-2.3822607408922707,1.3842735000564734,1.101827096942515,-2.161260347387751,-3.348769324913761,2,left
8.385,0.4618770299610303,0.6560470365524738,0.05197976437263342,1.771158734517571,-2.2471785685990366,1.4437132548589537,1.1089941529003542,-2.1565489333532,-3.3376755111666956,2,left
8.386000000000001,0.4536115454575296,0.6518313377296872,0.06476427311834745,1.7707509218752802,-2.3021399657394914,1.4195077086985717,1.1051378458810854,-2.15905298333566,-3.3436449819555056,2,left
8.391,0.4473060064075874,0.6506013297683544,0.07705741154568602,1.7706348368912797,-2.30291968302581,1.4192274833067695,1.105945043225431,-2.1587922793013767,-3.3423889792615187,2,left
8.392000000000001,0.44061731436463486,0.6499708539491458,0.08467407297893177,1.7710783575868263,-2.2740924677347425,1.4317948101934708,1.1071720157734426,-2.1572682404168395,-3.3405083247747203,2,left
8.394,0.43521839321368144,0.6514908996616229,0.08642762618016628,1.7705053904209436,-2.308626418073068,1.4167603782633509,1.1050501553533763,-2.159897174365796,-3.3437601863524247,2,left
8.395,0.4308274522578346,0.6554886866681621,0.0818365180889111,1.7710127943723275,-2.2817282789170896,1.4284382683051722,1.1071470332545603,-2.1569855817126706,-3.340555224983575,2,left
8.399,0.42658534845374596,0.6592362143257267,0.06885849541578869,1.7707729752834471,-2.2962318802258617,1.4221226695324938,1.1056841018354104,-2.1591771584543378,-3.34278672856501,2,left
8.401,0.42430316239606797,0.6659450341514503,0.0532425657862306,1.7705437168916225,-2.2929285022210815,1.4237152474567367,1.106163522087868,-2.1588924883789438,-3.3420442327714226,2,left
8.404,0.4225551908979882,0.6756015306491692,0.038798115856734344,1.7713910037799012,-2.289053579771598,1.4249782386224488,1.1068293547477532,-2.156092409376112,-3.3410759954131155,2,left
8.405,0.41828383113088524,0.6887597121451143,0.021319609783853555,1.7699331860066008,-2.29576049599736,1.4227868016229634,1.105042225165371,-2.162654871718501,-3.3436992535849335,2,left
8.408999999999999,0.4139490924770103,0.703543860021837,0.00606283426802053,1.7717060258973258,-2.2894523613587054,1.4246309174243943,1.1076467017452751,-2.1529034580611555,-3.3398817452876948,2,left
8.411,0.41314360894566665,0.7171343350298733,-0.0031928809273009816,1.770299303748104,-2.2936898148192757,1.4235086849535283,1.1049520262776178,-2.163247586080381,-3.343824093039461,2,left
8.414,0.4125888921522981,0.7318178384952692,-0.010357492390920592,1.7703012831659708,-2.2918600417202546,1.4243209631496723,1.1065099723551053,-2.157270957863995,-3.3415456494173084,2,left
8.415,0.4158644611291973,0.7457328341106879,-0.014722131676604171,1.7728506984018932,-2.2917666407477757,1.4229832583777744,1.107671257654875,-2.152228873039771,-3.3398600958330373,2,left
8.418,0.42318492343080294,0.7595497635227116,-0.018428766104984926,1.7670168366265555,-2.2929868460430463,1.4255966301048417,1.102353487188964,-2.174435821195595,-3.3475954004002273,2,left
8.42,0.42581864088621896,0.7725017085190679,-0.021334149070762233,1.775718117323212,-2.2914003305218715,1.421595345866912,1.1122272539619416,-2.1332476209621043,-3.333234305499553,2,left
8.424,0.4284137901126288,0.7805717038762441,-0.019168019567038355,1.7664446010206807,-2.2927812997295343,1.425997142533776,1.0995636779748346,-2.1861239946734794,-3.3516491685172536,2,left
8.425,0.43124814189141103,0.7868292965452033,-0.016952471439438597,1.771803315820627,-2.291980156712354,1.4234554681026284,1.1101293445508524,-2.1419872525985135,-3.336289317965843,2,left
8.431000000000001,0.4221933997193458,0.7914292651924946,-0.01693012758567297,1.7764157929985716,-2.291977292994929,1.420961015869645,1.1098234921210195,-2.143187133905081,-3.3367272663127174,2,left
8.433,0.40993660217545763,0.7940084286204458,-0.015575495130379318,1.756219335817038,-2.2928798545944846,1.4314845459512082,1.0897602016042147,-2.22731234398451,-3.365906927982347,2,left
8.433,0.3987441476031597,0.7960889543536386,-0.01681080000156536,1.7936755359304686,-2.2911620714816054,1.4119885879222354,1.1390893760260543,-2.0205471942042372,-3.294179370625251,2,left
8.434,0.37390714587110574,0.7956739736554181,-0.020842196380988057,1.7455789826231578,-2.2933103624376985,1.4370469768555258,1.0572995073866194,-2.3633623466123046,-3.4130935275515695,2,left
8.437999999999999,0.3577422507793047,0.7946819163094246,-0.02245128290975547,1.7857343931400187,-2.2915434009175124,1.4161162387197077,1.165176583865336,-1.9112038188278235,-3.256264793173589,2,left
8.437999999999999,0.35336672919479145,0.7950751901597097,-0.021792408125716693,1.7846416092965929,-2.291662334905406,1.4166492828277129,1.6179245763215389,-0.013189957973651356,-2.5979265028691403,2,left
8.44,0.3308976382535118,0.7957273580430915,-0.017566544551187162,1.7080888708809607,-2.2947259022107502,1.4566998381624634,1.7257971324655044,0.43894808708891,-2.4411269567430267,2,left
8.443,0.30316486976807167,0.7949245432350978,-0.010627987793453902,1.8962568818504053,-2.287143730215013,1.358287723603509,1.6440156927229204,0.09615728580158919,-2.560004060060809,2,left
8.443999999999999,0.2722388300881756,0.7918758597664641,-0.005149647781663949,1.5842588740903167,-2.2997082458541254,1.5214597583428904,1.6933341948929268,0.30292310651463705,-2.4882838803397096,2,left
8.448,0.24766399386265983,0.7902385787932421,-0.002106350460290347,1.995787686210531,-2.2831548494527665,1.3062304348838611,1.673280517994778,0.21874037940693422,-2.5175283240964568,2,left
8.449,0.24200229145590244,0.7892817926667404,-0.0032658889100122173,3.7230127999780365,-2.213837438455382,0.40267311498738756,1.6729712412849433,0.21767493758909018,-2.517800182274275,2,left
8.449,0.21906847019037146,0.7864192576461049,-0.005493563800449993,4.134535377955167,-2.197311546944081,0.18742947280669237,1.6835279980666602,0.2616103664292221,-2.5026998510200302,2,left
8.453,0.18347189322096352,0.7829772808999338,-0.006157147887025385,3.822564953959527,-2.2098341269908195,0.35063000046399606,1.67089055718479,0.20894514437329975,-2.5208295802829785,2,left
8.454,0.1522993187959231,0.7788401253036483,-0.008414608126975939,4.010661718554523,-2.2022837684345213,0.25217772812756467,1.6807209889414465,0.2500223925377224,-2.506641111452036,2,left
8.458,0.11318310007553233,0.7755906553610392,-0.012691522500235117,3.9342387765143867,-2.205357127930033,0.29227183139196034,1.675454649181998,0.22767985353441111,-2.5145069770059743,2,left
8.459,0.07227474705510348,0.773483113221721,-0.01919663271604533,3.93296837803968,-2.2053955882489356,0.29277460004890943,1.6765773421560088,0.23323737628931773,-2.5122042494776204,2,left
8.464,0.03344620713618632,0.7730879296016797,-0.02576521600785149,3.9732970629133257,-2.2037915713255845,0.27183649253248177,1.678129651959837,0.2382812337389403,-2.5111008155393133,2,left
8.465,-0.0037279626186113067,0.775426016855514,-0.0295777501378058,3.9251296268029807,-2.205718190902135,0.2969656480973749,1.6755184759734956,0.2291292533469534,-2.513482654519513,2,left
8.468,-0.0411288614417006,0.7770789154862565,-0.03190853585484214,3.962427628729819,-2.2042063886801584,0.2773213687547609,1.67794201145096,0.23785943435548831,-2.5110861978536745,2,left
8.468,-0.07935077667359491,0.7810654584752119,-0.031351420079475965,3.942727039570661,-2.2050450534774857,0.2880555452372789,1.6764164938482367,0.2314508051335884,-2.5133148972894164,2,left
8.478,-0.11132357803708665,0.7911754353063882,-0.024968202447221973,3.9464905546426823,-2.2048106522885216,0.28534946260786376,1.6768143614286917,0.23577230918897796,-2.5106435882574534,2,left
8.479,-0.1435847380343036,0.8036831746617499,-0.016002311380717192,3.9528872027028896,-2.2046567084584807,0.2829073782726452,1.6774285264684854,0.23228435868507236,-2.5145321200146604,2,left
8.479,-0.17501782946597108,0.8176543680877767,-0.006357011577716947,3.942791115815209,-2.204979846380037,0.2874684171334805,1.6761477057983407,0.23595807240407138,-2.509262162074293,2,left
8.48,-0.19761352388382275,0.833121804178077,0.005234357914959073,3.9514739848277136,-2.2046302712462778,0.2829197196073927,1.6775806270493985,0.23232630905415286,-2.5147807800040303,2,left
8.482000000000001,-0.21769354020737658,0.84998781955545,0.012320382166220379,3.947192248779072,-2.204955701178006,0.2864961029445309,1.6766460333001882,0.23397552585845027,-2.5117489432147817,2,left
8.482999999999999,-0.2324634323656916,0.8725996431480054,0.01402633053799575,3.946214223411873,-2.204644376062202,0.28395384254760914,1.6763699698697774,0.23762374264722902,-2.508359989161051,2,left
8.488,-0.24128723309860312,0.8984400685415078,0.016972984610832503,3.9514631766356936,-2.2049564260059387,0.2857634190473395,1.6784439815418954,0.22530082185363054,-2.521921281320771,2,left
8.488999999999999,-0.24624713066266776,0.9222903102819835,0.01756540487669061,3.9444816851923994,-2.204679833232566,0.2845599258634034,1.6744425053571175,0.24749743351586392,-2.497002177056526,2,left
8.492,-0.24092413629527984,0.9484712663895541,0.010862599473764726,3.9494437913927376,-2.204801529292778,0.28476895623609394,1.679613975123958,0.21914149504855557,-2.5289462585581397,2,left
8.492,-0.23271677302723665,0.9759410685659391,0.0012341314526522237,3.9508354275894555,-2.205025092493563,0.28646116025375157,1.6752850305623725,0.24275780885254547,-2.5023014386376436,2,left
8.498,-0.22286230294170487,1.0031148872237072,-0.010052157472941692,3.9394225738043405,-2.2042661738458666,0.2818446043037972,1.6754506333294379,0.24234067503402806,-2.5029362272233104,2,left
8.499,-0.2079233278894445,1.0310727149265702,-0.02558260797705312,3.9618430181653137,-2.205620816217518,0.28974730292209533,1.6835405730222184,0.19657397623702874,-2.5540199611688483,2,left
8.503,-0.1935724372839344,1.0561556183741794,-0.041295782286174504,3.9326050037858873,-2.203901768552173,0.27983685155766524,1.6636047763674169,0.30880757412293086,-2.4285699241365055,2,left
8.503,-0.17799009996599852,1.082967895375769,-0.05652017918402869,3.9571987947128617,-2.2053261037236815,0.28801113973854947,1.6966661471932256,0.12277735818622347,-2.636537234677826,2,left
8.508,-0.16848605780917342,1.101520873855811,-0.06565345519166055,3.9562544066886316,-2.2053065347856142,0.28794241939043014,1.653066834399207,0.3681563624126332,-2.3622417621559197,2,left
8.509,-0.16750687643806342,1.1053710799547494,-0.06576173508371042,3.910105436412199,-2.20254219820238,0.27194933733276083,1.470025969207403,1.3983286240803303,-1.210655978932973,2,left
8.51,-0.16268179714149048,1.1171257214530037,-0.06894524672523597,4.023926188003607,-2.209304638085494,0.3110391853070173,1.4264497748665164,1.6437558589686638,-0.9363677629907204,2,left
8.511000000000001,-0.15832424311251392,1.1312398182512724,-0.06621634598555495,3.8350735500700215,-2.1981106674326485,0.24630715931527805,1.4594861310030813,1.457673457754299,-1.1443272225721808,2,left
8.512,-0.15872943094446482,1.132867061596815,-0.05784805040139499,4.0841953315770585,-2.212859568340178,0.3316619381383046,1.4395408284640263,1.5698872191540794,-1.0188741988505177,2,left
8.517000000000001,-0.15752134955828823,1.1333461643111469,-0.05556150030643475,5.129827030403191,-2.274850171732534,0.6900354166447857,1.4477137225718115,1.5242935933953186,-1.0699839771135724,2,left
8.517999999999999,-0.1573269879643805,1.134403672275143,-0.041529942973654435,5.37887569123677,-2.289563701622236,0.7753958474798164,1.4477008286025397,1.5235040573358622,-1.0705627289908368,2,left
8.517999999999999,-0.16203564554928634,1.131467608010868,-0.021469133374235217,5.190107892262773,-2.278426204363252,0.7106703979902367,1.4436278200190924,1.5476543313951794,-1.0439982535956527,2,left
8.521,-0.16918574611964626,1.12825869671216,-0.009661879025012915,5.303938446999581,-2.285138719309587,0.7497129661476627,1.4485444211250762,1.51876666620117,-1.0758623296476635,2,left
8.522,-0.1783087849483072,1.1287990292424985,0.0003511533670783021,5.257568875196492,-2.282380371595102,0.7338328457389194,1.4446529343173895,1.5411927336238205,-1.050977744524525,2,left
8.527000000000001,-0.1921774903421325,1.1341796817959318,0.003197312998218828,5.257127080154172,-2.28243672404284,0.733582987730051,1.4469457626014859,1.5293263539965007,-1.0646077422886004,2,left
8.527999999999999,-0.20905981754075698,1.1429845203570297,0.00032483825379375927,5.28097787954877,-2.283681101137132,0.7419674226052269,1.4459647584269306,1.531503825291908,-1.0609974754907836,2,left
8.531,-0.22588883204800397,1.1555317873319078,-0.005086800466395225,5.252507689301641,-2.2822300719383772,0.7319096224533029,1.4462448476930718,1.5356872545287035,-1.0583469657827558,2,left
8.532,-0.24434146405977203,1.173136749224157,-0.014125994064818466,5.274544890785956,-2.2833041294208978,0.7397609313172606,1.4461870053065828,1.5289453174455918,-1.0633976040800528,2,left
8.536,-0.25990155121576375,1.1909566368789668,-0.021423850863342614,5.262592422147721,-2.282695137538351,0.7355358136096134,1.4460947574694167,1.5350987006113015,-1.0585007356381528,2,left
8.537,-0.2689423037257149,1.2055455772196404,-0.028066393131686754,5.265928166227916,-2.2830895756973266,0.7364228446089995,1.4467193672055068,1.5316326438045602,-1.0623926070717875,2,left
8.541,-0.275023828287012,1.2169719868870068,-0.03164142744904166,5.267423779164186,-2.2825457186357685,0.737760457183642,1.4449118957704024,1.531353004865346,-1.0590289085509492,2,left
8.542,-0.27595404413138586,1.2233162341514559,-0.026805023698818015,5.264820194302113,-2.283479960458436,0.7354467766194392,1.4484265785802424,1.5354598877294734,-1.0628399210727097,2,left
8.546,-0.27323769524427644,1.226422654239313,-0.01673286357741769,5.266394722733467,-2.282238187154768,0.7377306810097577,1.443330739615114,1.5285023365499404,-1.058082932532837,2,left
8.547,-0.2687862838379407,1.222402652758373,-0.0048106656834526465,5.265806748682532,-2.2832674539125692,0.7361385548916222,1.448735658303881,1.5360742152036795,-1.0629811267308171,2,left
8.551,-0.2619235355498173,1.2088293238037289,0.008094476210873898,5.2673760166120855,-2.2833696850634206,0.7366640940744487,1.4456558772704704,1.531454526339695,-1.0604238100038983,2,left
8.552,-0.25542531943775715,1.19170990879317,0.018131026781019008,5.261916279444529,-2.281072598236813,0.7373732030032423,1.4427867571540074,1.5286832678560094,-1.0568675646124537,2,left
8.555,-0.2472390009862012,1.1715137848140866,0.027191278768949934,5.273544830012679,-2.286272087086826,0.7354615972229561,1.4549929596639923,1.5427945015224689,-1.0702189390774854,2,left
8.556000000000001,-0.2399619150521896,1.1483127210932362,0.0392450074447728,5.2559996545749295,-2.2785034634871586,0.7382459325517379,1.4324193471388091,1.5162665597248515,-1.0458577239191194,2,left
8.561,-0.2343098360623409,1.1218343119864542,0.04831011215022151,5.2749651083085976,-2.286800831074145,0.7353673244243923,1.461391338272652,1.5504110524451435,-1.0770496022219243,2,left
8.562000000000001,-0.22893241773117196,1.0959055536915638,0.0565524990518112,5.26400917099499,-2.2820060959928004,0.7370316601219751,1.4372088816102977,1.5218713420998085,-1.0510445095822982,2,left
8.565,-0.2225619301955564,1.068585187756151,0.06695343030299215,5.253986229102691,-2.2778407531731366,0.7382671978794682,1.437843613011352,1.5227724793383521,-1.0516112259523172,2,left
8.566,-0.21255313401831802,1.038454908002016,0.07333276708267994,5.297103534768672,-2.296030380850336,0.732601798595348,1.4840215858387646,1.5767732433942168,-1.1016493843712225,2,left
8.57,-0.20125507171414264,1.012278480231731,0.07887249177507247,5.217178035550091,-2.2622978182860844,0.7431214309931657,1.3705433641717182,1.4438913180729016,-0.978821717951328,2,left
8.571,-0.17859877201357227,0.9796610150024393,0.08617828048439188,5.319855877074664,-2.30561693057052,0.7296299081091617,1.5586917206406277,1.6642586651887878,-1.1824360725896645,2,left
8.575,-0.16075128826623566,0.9564940344602,0.09126565576027318,5.234111062504544,-2.269447579266445,0.7408862376976987,1.3105232696857696,1.3735884310198472,-0.9138709725154177,2,left
8.576,-0.15592252930719502,0.9508193755552219,0.09223471923409082,5.236376440119109,-2.270430391255603,0.740559577908175,0.26887742826252103,0.15380627942279415,0.2135655859671359,2,left
8.577,-0.13241589009554944,0.930663408892247,0.09199683015656103,5.400121168230454,-2.339395221692773,0.7191878837173091,0.020708758760164682,-0.13684330768376093,0.4821462627337143,2,left
8.58,-0.10261222576145365,0.9073430824023325,0.09193251936351479,4.997692066957896,-2.169876467092699,0.7717347892595214,0.20884832637741585,0.08348540052768427,0.27852275896369727,2,left
8.582,-0.07376395898517332,0.8918984851980961,0.085631131871128,5.664949620233413,-2.4509561938996107,0.684609803542674,0.0954021625127402,-0.04934728542168846,0.4013167285048599,2,left
8.585,-0.04852914426124697,0.8799122218670075,0.07792557573082678,4.784819906455516,-2.0802053390466324,0.7995230808891345,0.14151344613073177,0.004608551050229864,0.35139072806476473,2,left
8.586,-0.04271667078597454,0.8791767396853732,0.07526903559383227,1.0904862267011037,-0.5241944754818691,1.2817792600453393,0.14224763936980644,0.005526838316138795,0.3506202715265442,2,left
8.587,-0.02619196029653006,0.8759682249108068,0.07137044352784712,0.21033865246866032,-0.15345038665706678,1.3966829812347785,0.11795782421692236,-0.022973799285952185,0.3768873977826761,2,left
8.59,-0.0007278015735624763,0.8743819061094292,0.06811288242081473,0.8776073142850063,-0.4344952733719535,1.309577415570726,0.1469926920336035,0.011052264991675203,0.34547217189313517,2,left
8.591000000000001,0.017925475832439502,0.8813691831169392,0.06654718237972276,0.47521466136765317,-0.2650712100765149,1.3620960885906843,0.12447371124291602,-0.015276911457810667,0.36985996690604317,2,left
8.595,0.043021738818951265,0.8847606464382933,0.059997163408624515,0.6388353000188783,-0.3338593677727361,1.3407564093243476,0.1364375222424287,-0.0014042383479687254,0.35686119735800104,2,left
8.595,0.06514065035428793,0.8907341662659753,0.0490809813378571,0.6413275953704008,-0.33508806340729747,1.3404051652578828,0.13402509471009041,-0.003992397935519983,0.35955826616477043,2,left
8.599,0.08380396583047126,0.8993140454510451,0.035703335731733656,0.5552895108712672,-0.2986736467417322,1.3516612762539806,0.13034242218246436,-0.00859524571921536,0.3634389129630683,2,left
8.6,0.10476791751355122,0.9035207252119954,0.018768548524862715,0.658219315232449,-0.34210253848017214,1.3382142741958627,0.1362918097744254,-0.0013969905037987793,0.35708347710785415,2,left
8.605,0.1224513743208418,0.9063959738770873,-0.00012263412130585983,0.5782595063184286,-0.30857191290643793,1.3486324254838227,0.13105389390952313,-0.007529306618902999,0.36275300226688667,2,left
8.605,0.14067308801541548,0.9054484782286041,-0.018813242277537657,0.6209890073721149,-0.3260928154383866,1.3431183717734827,0.13389500784858832,-0.00462927687114081,0.35952398940732305,2,left
8.61,0.16066887756951903,0.9007064702218153,-0.03388174061822933,0.6119203151425274,-0.3230933353640653,1.344192515923719,0.13389374272016605,-0.0036544247660800083,0.35987756445370156,2,left
8.611,0.17939181964243062,0.8965779240739478,-0.04459294573242854,0.5994876749010638,-0.31685084507458444,1.3459498020008067,0.13160949258300325,-0.007785985726665609,0.36182437236964193,2,left
8.613999999999999,0.1955812138868247,0.8930753183356853,-0.053923043011016324,0.6200874199517294,-0.32632906595421274,1.3431537193530305,0.13488108330892146,-0.0024019476964820697,0.35884372976308776,2,left
8.613999999999999,0.20947791082113149,0.8889400845910371,-0.05524998604227638,0.6015054267469598,-0.318509385200983,1.3455785737107009,0.13242984910388766,-0.006169967496119824,0.3611727702274221,2,left
8.619,0.2199518229489007,0.885888659124882,-0.047000222360509894,0.6125116904516219,-0.32165839153334974,1.3443398380558633,0.13206073310756916,-0.007374884217034614,0.36129391889361506,2,left
8.62,0.22643813245333871,0.8875980591369905,-0.03747859180160458,0.6103832605626105,-0.3241597290248729,1.3441650721817395,0.13689342724920647,0.0016679680117115971,0.357283459946357,2,left
8.625,0.2308976693380952,0.8929695439535454,-0.027814582842181558,0.6054495805897732,-0.31701270266629805,1.3454843575518791,0.1271710729333931,-0.015992926725753108,0.3655428141601249,2,left
8.626,0.22924538028705232,0.9033239568217211,-0.020978860495908802,0.6136767940941655,-0.32588170386692955,1.3436904902772706,0.1399289117938043,0.0070059555905835555,0.35464170801019906,2,left
8.631,0.2245996821643449,0.9185932563718178,-0.01929642797314198,0.606932248476926,-0.3199184078460471,1.344987037479103,0.12916243512950645,-0.012331112690842846,0.36386654392279116,2,left
8.632,0.21717950256746416,0.9361504084677803,-0.02001438153948876,0.6073080185665707,-0.31738584350556454,1.345296118488036,0.12963187821392677,-0.011596685892639284,0.36342666583385574,2,left
8.633,0.2080908320787054,0.9558066509201567,-0.023013855199752367,0.6170839181153633,-0.3332815226297438,1.3424514528300227,0.14968772330616437,0.024714374026915654,0.3463434101336093,2,left
8.634,0.20106155873783593,0.9747523317043226,-0.02821145784477777,0.5962545551402585,-0.30266496367846174,1.3480798178248232,0.1001356492944002,-0.06484018326434605,0.3886053678440734,2,left
8.641,0.17597975336561572,0.998484757657748,-0.033502265964972,0.6239758670947787,-0.34238965658820897,1.340724930915063,0.18239205509236803,0.08376262207763166,0.3184321512531895,2,left
8.642000000000001,0.15505443185859696,1.0165924854985866,-0.03546753428861536,0.6004167510986552,-0.3090492225729706,1.346920152140021,0.07386149017617993,-0.11228838259981422,0.4110240759121941,2,left
8.644,0.15026707275213871,1.0216823820584287,-0.03574776897776942,0.6016997255882008,-0.3102259601672119,1.3466666084699983,-0.3815612659935274,-0.9350092827991305,0.7995776910612375,2,left
8.645,0.12044946924807276,1.0370582802390165,-0.03617244232517286,0.644909025301639,-0.37307178894994486,1.335081106899222,-0.4900971798611108,-1.1310732075752972,0.8921689498896732,2,left
8.645,0.07932961125357521,1.057770937952653,-0.030978107862998334,0.5377653120378592,-0.21820317905910527,1.3636829068203986,-0.4078143420892677,-0.9824322483879999,0.8219741065472281,2,left
8.648,0.03568472673014133,1.0700966523759412,-0.022578984007268283,0.7157791530847599,-0.4751398736394595,1.3162097281745981,-0.4574373393220098,-1.072067118140368,0.8643154923913223,2,left
8.648,0.001826054239954373,1.0774225487171538,-0.02086223908592824,0.4808349676550137,-0.13617676007695573,1.3788480192004382,-0.43724993815771546,-1.0356258943730228,0.8470666631483378,2,left
8.654,-0.006328256588724676,1.078078638574035,-0.02101360227101695,-0.5046230442518832,1.2862696067863033,1.6416491081669013,-0.43696284265937646,-1.0350535972611126,0.8468740207429405,2,left
8.655,-0.035301669088285526,1.0762997405515207,-0.015090789248746678,-0.7396219510747543,1.6252626154564123,1.7042987698795984,-0.4475485008804494,-1.0542526238591692,0.8558316507439341,2,left
8.655,-0.07186375727102767,1.0713115694167326,-0.011189533134218194,-0.5614756786498092,1.36826273224408,1.656803733061452,-0.4348700039885064,-1.0312732638236963,0.8450876053739428,2,left
8.658,-0.08995507308437786,1.0601888259383856,-0.01379764980906164,-0.6688562442963715,1.5232282910429662,1.685434701031868,-0.4447451482327373,-1.0491447419174458,0.853481637480834,2,left
8.658,-0.10961114306759809,1.0474951488410857,-0.017214239978633254,-0.625308616735212,1.4602645215023702,1.6738202285518553,-0.4394133737028865,-1.0395804823258015,0.8488698237288639,2,left
8.664,-0.12530973201864318,1.0392564065540173,-0.014772054038643264,-0.6243963749815009,1.4591910808647142,1.6735824029932362,-0.4406487697160122,-1.0415968173157104,0.8501255703444399,2,left
8.665,-0.14320649616139974,1.0393099819273854,0.0015115172584441003,-0.6477099313503484,1.4925038738151968,1.6797924092517516,-0.44202827460919764,-1.044459614484237,0.8509552669775866,2,left
8.668,-0.168022629218888,1.0457896467210075,0.026071342094210085,-0.6198759105900848,1.4526562328538748,1.6723761814331928,-0.43962493195291874,-1.0396630339942523,0.8493307998239077,2,left
8.668,-0.19091195258815152,1.0569234604149464,0.04705533360575691,-0.6414172760835871,1.483605263446485,1.6781175818082854,-0.4418849019578428,-1.0441083941518468,0.8509194066551309,2,left
8.674,-0.20822736967477534,1.068198922922733,0.0601391338465522,-0.630209598548997,1.4671713075831263,1.6751261174616952,-0.4403481062986365,-1.041335514346823,0.8496051324156647,2,left
8.675,-0.21110259023203365,1.0765866102780954,0.06305946844122055,-0.6318162713707145,1.4703301365585908,1.6755649083929791,-0.4410805204745577,-1.041985014262825,0.8508602792244917,2,left
8.677,-0.20117747697861443,1.084766290176044,0.06059462147092596,-0.6366379309332209,1.4758432037927494,1.6768327849171492,-0.4409399338159306,-1.0432704695524757,0.8493001243804008,2,left
8.677999999999999,-0.17989623470086508,1.0966145955408004,0.05597202284847663,-0.6291849699702086,1.4668588630690729,1.6748671863374973,-0.44078253563603476,-1.0406894191878835,0.8513142918240855,2,left
8.682,-0.1468143429616725,1.1156751248455656,0.050078001200664315,-0.6358705024931339,1.4750957543189562,1.676632547734755,-0.44101866198682727,-1.043564549090998,0.8492255364272255,2,left
8.683,-0.11122152666558908,1.1407850162670679,0.04227895345943439,-0.6325598580116245,1.4703065335469545,1.675749936972964,-0.4407742130514932,-1.0417078200406311,0.8503401164664839,2,left
8.687000000000001,-0.07749502493765997,1.1680656701953063,0.025894244534902498,-0.6308179935870476,1.470406689641217,1.675316620986441,-0.4410986042348021,-1.0410749956464995,0.8517579217462272,2,left
8.687999999999999,-0.0374173134327295,1.1891204903611285,0.01001366585459396,-0.6381174044879923,1.4749666233258156,1.6771913929594775,-0.44055481738534935,-1.0454290943895526,0.8463012075733423,2,left
8.692,0.011599333672083509,1.2017256436707457,0.005085861320518727,-0.6264330897134498,1.4670169298806521,1.6741828848917906,-0.44140516139932606,-1.037067775663119,0.8562854383956864,2,left
8.693,0.056879499731001586,1.212975912133789,0.0008616257916925949,-0.6390372836543996,1.4757054885683853,1.6774292579741337,-0.4403488052675604,-1.047869278415333,0.8434958982361471,2,left
8.698,0.10269738143339453,1.2205540480266113,-0.01594965219838889,-0.6315195781171614,1.4703469574380896,1.6754914843644124,-0.4412162320222862,-1.0388240527938608,0.854160335532303,2,left
8.699,0.14321817668597914,1.224974209964635,-0.04629578226294763,-0.6262013583620814,1.467401856704519,1.6741289058355648,-0.4412481191018939,-1.0391722555036358,0.8539202141641051,2,left
8.702,0.1709909567302424,1.2234308653408248,-0.08540309208776511,-0.6513805541483311,1.483032643457715,1.6805956069914414,-0.4394127022813771,-1.0560839133105535,0.8334274121685467,2,left
8.703,0.19867837153638332,1.2136193970079856,-0.12760277812052145,-0.6043398341615923,1.4535488246484247,1.668512655431182,-0.4438584771168577,-1.0143920696765623,0.8837377531036232,2,left
8.709,0.194863729612722,1.2136635541824192,-0.15261031408793432,-0.6648227736287409,1.4915210162798946,1.684047420020343,-0.4365043123998945,-1.083555176809273,0.8003375093500391,2,left
8.71,0.17867334988527667,1.2186224379808634,-0.16262137504919674,-0.6142920970467238,1.4597709418916058,1.6710710857815414,-0.4462026944924985,-0.9923210546025674,0.9103385510709245,2,left
8.711,0.17029617128789143,1.22313965907952,-0.16172287256232243,-0.6157917443780474,1.4608120490764338,1.6714514641562417,-0.4869953815744512,-0.609578231265087,1.3721608034312327,2,left
8.712,0.11387613337831885,1.2554173607090395,-0.13167558107707542,-0.7117218109360017,1.5207653241401822,1.6960967297903904,-0.49669994497119646,-0.5183464036492833,1.4821639195811178,2,left
8.713,0.01627050646032206,1.3128358987929374,-0.09820795417079535,-0.4757712577010549,1.3731852072712347,1.6354895707501709,-0.4893390890055575,-0.5875070260344475,1.3987614278425542,2,left
8.717,-0.11078078389736803,1.3562627813381285,-0.07473158439709096,-0.8670437343776919,1.6179468612578922,1.735984602277621,-0.49378233260771665,-0.5458142458076196,1.4490709278741523,2,left
8.718,-0.20131585518258036,1.3725247534508522,-0.059260510290370806,-0.35093482222983746,1.2950884068066717,1.603435479071365,-0.49196907429937314,-0.562734122916269,1.4285855445443298,2,left
8.722000000000001,-0.22235628658744414,1.3712938068276745,-0.04733058917087264,1.8150290048203708,-0.05968715025198412,1.0470612208339016,-0.49195326758031743,-0.5630646302798082,1.4283294434823357,2,left
8.722999999999999,-0.27403454824838464,1.3340715606702966,0.003375375501968779,2.3311565986200415,-0.38254963889042287,0.914522696442983,-0.4928890911446798,-0.5540447845850511,1.4390168064258009,2,left
8.724,-0.3220861347585442,1.2537005116387134,0.07335495544744007,1.9398639383368477,-0.13778363097902208,1.0150062721089,-0.49176460910216263,-0.5648210037466037,1.4262044196078165,2,left
8.727,-0.3525840529960974,1.1633511114532111,0.13423612030733512,2.175806702471406,-0.28536204954546174,0.9543947114758992,-0.4926443796829773,-0.5564706138816959,1.4361985408332427,2,left
8.728,-0.45440744849831205,1.0830389986958864,0.1954975898147765,2.0799438917673223,-0.22542333156009053,0.9790780979283351,-0.49215902077430945,-0.5608463791014292,1.4307613704829347,2,left
8.731,-0.6267765130510783,1.0271999438167623,0.24676408601761662,2.0782996751471177,-0.224350955694468,0.9793765100253249,-0.49229507467250405,-0.5601436838976102,1.4321160909419195,2,left
8.732000000000001,-0.8756324133251459,1.009258745026326,0.2808782828291414,2.1290375225296843,-0.25614582082451687,0.9665176543809265,-0.4923752095160072,-0.5584073889315224,1.4333394418515448,2,left
8.736,-1.1984654424775656,1.02610345148922,0.20734130316713967,2.0683484243636014,-0.21812907967686762,0.981935490289923,-0.4922129150670953,-0.5611346695419772,1.4311171197103891,2,left
8.737,-1.5263383366809689,1.0639322271731273,-0.061536082078428894,2.1154778376894336,-0.2476320228853146,0.9699028882544107,-0.4923732693808479,-0.5586715612219957,1.433237888968356,2,left
8.742,-1.7830014154237488,1.0887776735776358,-0.42593570389528573,2.090476272652624,-0.23203971689510328,0.9764702348688736,-0.4922352561133022,-0.5599579076197758,1.4316784171361845,2,left
8.743,-1.8974000389517496,1.0602890511308414,-0.770847044903074,2.095223326989676,-0.23486124859259705,0.974783858151961,-0.4923785982630379,-0.560388905351179,1.4327363517364935,2,left
8.747,-1.8428905983898,0.9633728732612387,-1.0741382667996782,2.1037245882285194,-0.24043247396354672,0.9734037703027122,-0.49218849636184725,-0.5581156654811746,1.4318732569825348,2,left
8.748,-1.6592071015759147,0.8285974391752418,-1.2697473745884258,2.089913947428756,-0.23148312015911704,0.9759659695681876,-0.4924390432663146,-0.5618154124789239,1.4327883899822105,2,left
8.753,-1.4164126768926817,0.6998172201840083,-1.2795886275581299,2.102559169683536,-0.23964038239655222,0.9735025497611822,-0.4921782515164551,-0.5578139555823113,1.431882335214719,2,left
8.754,-1.2098945617769856,0.6308778087889209,-1.140648307696056,2.0952704634637356,-0.2350831034585129,0.9753830266983163,-0.49231902537547273,-0.560216856682046,1.4322961322147894,2,left
8.756,-1.0713409574779744,0.6997414801053463,-0.9060753389461492,2.0952242247784176,-0.234595907806356,0.9739362273364421,-0.4924889864217033,-0.5618382257778656,1.433195868530749,2,left
8.757,-1.0236014417649595,0.9462618654071064,-0.5805038149957328,2.1026173955714507,-0.24026818275333633,0.9753682256396827,-0.4918250868096252,-0.5540056427947141,1.4301474074098413,2,left
8.76,-1.1176413208656681,1.3053291717669655,-0.28670113908961425,2.089844508678694,-0.23071508766317733,0.973681799379602,-0.49304149817969123,-0.56866438785437,1.4356399668208883,2,left
8.761000000000001,-1.2694743488908395,1.6781620476657515,-0.17772595416133,2.1037829260525776,-0.24110110183384054,0.9753943770610287,-0.49148338061868757,-0.5498116962355583,1.4286238055509166,2,left
8.766,-1.4638423903124806,2.105266183485125,-0.2648432044364917,2.095220515479907,-0.23478059987206185,0.9745396141777343,-0.49278196172886174,-0.5655634799695312,1.4344658191093902,2,left
8.767000000000001,-1.6069291017152327,2.5324552451823985,-0.47454069067669613,2.090368619990226,-0.2309180329978846,0.9731404011744597,-0.4927538845078168,-0.5650895247692647,1.434365541574779,2,left
8.771,-1.6329318445828598,2.8763369471644316,-0.7332059380773639,2.115735584151458,-0.2504156551565008,0.9781756079843726,-0.49025645302628584,-0.5352090968618044,1.4230379993684439,2,left
8.772,-1.595241889176417,3.1374143862290005,-1.0255590800831929,2.067953775405237,-0.21379180186654514,0.9690386515789006,-0.49638468998412816,-0.6087087271769211,1.4508098659142128,2,left
8.776,-1.208619693064534,3.0816525856194077,-1.2754286596960072,2.1294636842411596,-0.2609193967944821,0.9807198420445817,-0.4862285787708982,-0.486826921731756,1.4047828628862877,2,left
8.777000000000001,-0.8167285782689941,2.9181139718623896,-1.41174547939731,2.0780627007625747,-0.22153903041915574,0.9709967824666582,-0.49962101199825226,-0.6475915438924127,1.4654878352196317,2,left
8.78,-0.6894353614079838,2.8416523415147594,-1.4212235418983004,2.0796722908335177,-0.22275305926320282,0.9711661377768183,-0.5558805150450322,-1.32230912757668,1.7204115819431003,2,left
8.781,-0.18485764024794793,2.475914633750619,-1.3188441244095017,2.176928711966102,-0.29734355551191355,0.9899903871214651,-0.5692680421413401,-1.4830715918166353,1.7811184256587538,2,left
8.782,0.47565182793370725,1.9599696020646984,-1.1431113711120315,1.9376639889924263,-0.11384802054384152,0.9438556550594946,-0.5591172416856713,-1.3611921249591319,1.7350894021486223,2,left
8.785,0.8803298597042509,1.4587218821175203,-0.7940007407414873,2.334388339439487,-0.41811757715038955,1.0202879881406015,-0.5652474881169447,-1.434692629577262,1.7628604836463178,2,left
8.786,1.1126328791926618,1.1105249023956443,-0.5095392977400367,1.8111721007923807,-0.016807957782103117,0.9195167263003675,-0.562732468448368,-1.404804485335002,1.7515396884961445,2,left
8.79,1.1387962146956863,1.0368558121336775,-0.41879031204565653,-0.38541717514550194,1.6677268076862541,0.4959645605634592,-0.5627422473151844,-1.4043471516187225,1.7514249144661818,2,left
8.791,1.1044057250972614,0.8170403119459898,-0.09319305636329908,-0.9084886081551891,2.068975869691349,0.3952534164915224,-0.5639865401624005,-1.4200750884531037,1.7572876965261552,2,left
8.792,0.9258339074370788,0.5787636744273787,0.28812331420667814,-0.5119209586636385,1.7647718461873518,0.47162069313419946,-0.5624824952657269,-1.401246162186983,1.750250874813081,2,left
8.796,0.5197129725949706,0.5905599172083309,0.4117957810438827,-0.7512451593753875,1.9482922505391973,0.42546126885551827,-0.5636755513564424,-1.4158946179923753,1.7557523104743837,2,left
8.797,0.03403060500368174,0.7196121780894087,0.3950354272475055,-0.6534692730546885,1.8734845235916524,0.44450117892322816,-0.5629652740462137,-1.4080417079458298,1.7527216790855176,2,left
8.799,-0.4846158693679797,0.9968932089522005,0.1912975245505879,-0.6529775272637883,1.8727379620701594,0.4442064500383709,-0.5632847252223445,-1.4097286946108274,1.7535641329598353,2,left
8.8,-0.9197694486491548,1.3573362100442246,-0.12269617536817465,-0.702775629300096,1.9114480206785658,0.4351488434045575,-0.5631678676007633,-1.412018455308934,1.7540765436740742,2,left
8.806000000000001,-1.196493690049477,1.7270282595630624,-0.4111912194900673,-0.6428620052227503,1.8649879804500578,0.44616731868814186,-0.5632233113003651,-1.408155933480495,1.7530495568246698,2,left
8.808,-1.294433871150944,2.0770780504127946,-0.6586252597067884,-0.6899547693070626,1.901323669875305,0.43731642846424,-0.5632216549006839,-1.4117447901450269,1.75406096578656,2,left
8.811,-1.1888762887325162,2.3226703183388926,-0.8265486077353015,-0.6632176957909313,1.8812531018679146,0.44292044731214497,-0.5630295013893676,-1.4094708488144962,1.7531990441895342,2,left
8.812000000000001,-0.9162004282913412,2.4455905117153867,-0.9071143104967335,-0.6724841887169942,1.886961785414905,0.4396884715163324,-0.5636404168245,-1.4101069719593933,1.754077593071913,2,left
8.815,-0.5314107771411776,2.4311884388371574,-0.8547887120332252,-0.6734394422220191,1.890101068043727,0.4419918972572431,-0.5624334876306509,-1.4109240183200376,1.7529275054300244,2,left
8.815,-0.10470942020407581,2.294133279361284,-0.6503141454024994,-0.6688375725355322,1.8836195078725204,0.43982830812814566,-0.5641887758833783,-1.409161446554974,1.7544379984706424,2,left
8.818999999999999,0.3024921854997845,2.0694713424812328,-0.35301262454710786,-0.6741659302617743,1.890059335748938,0.44123256321627946,-0.5623258945184423,-1.4111414272907652,1.7528656834610667,2,left
8.82,0.6291636391500111,1.7903306294123849,-0.03216397746067329,-0.666708677491651,1.8843603473361576,0.4426911518545691,-0.5633892136163072,-1.4098377907259991,1.7537144251724275,2,left
8.824,0.8461112106189961,1.4965769477855406,0.240949907985127,-0.6805648098193998,1.8906225800994338,0.43551104953059566,-0.5643709716413567,-1.409505334523441,1.75474318585394,2,left
8.825,0.9575056179259973,1.2114940620268575,0.4327087785904599,-0.6562892146487136,1.8819801085497194,0.45049575876657055,-0.5601805669118459,-1.4122550286685835,1.75072618409305,2,left
8.83,0.9764793543357823,0.9577568055991772,0.5498977678047396,-0.6907360914160565,1.8935162292810763,0.42848156729039216,-0.5679329815140972,-1.4069225871511208,1.7580892438143176,2,left
8.83,0.9534791883214678,0.7444544404295707,0.5945767766701173,-0.6543414007292194,1.881470129404681,0.4518870538773291,-0.5579820962912365,-1.4138212429063404,1.7486526297637726,2,left
8.834,0.9026600447535069,0.5726525109274171,0.5835210999515403,-0.6748553182733656,1.8880330714038647,0.438460957435247,-0.5662889826564176,-1.4080420624484997,1.7565256031987884,2,left
8.835,0.8611059423575658,0.44343188432113667,0.543971368620987,-0.695099924346248,1.8956622521640814,0.4263991196157264,-0.5660682309450173,-1.4082767768706703,1.756336693008337,2,left
8.84,0.8612425297045561,0.34691644747874206,0.49943895752209366,-0.6106836163983722,1.8654977866470068,0.47839233757789523,-0.5502128705659677,-1.4190367251075608,1.7412393215714916,2,left
8.841000000000001,0.8799578157097323,0.2781529258960571,0.4639366047804669,-0.7664884557207775,1.9208593557709233,0.38210953160983385,-0.5891808852276177,-1.3925006489175784,1.7783239328487823,2,left
8.844,0.9763631255411396,0.23610706739388349,0.4118650640494127,-0.5665823785939853,1.8498978128258914,0.5057162025008808,-0.5245680336114524,-1.436518356410832,1.7168351133821063,2,left
8.845,1.062843325754181,0.21287547381531485,0.3743562859959034,-0.7334284227410648,1.9090953882357724,0.4025249283070258,-0.609796098482033,-1.3784623979377852,1.7979480931265566,2,left
8.847999999999999,1.0907911517804596,0.2099239005908154,0.36061463286570417,-0.7291228441152144,1.9076771713366854,0.40529386332215733,-0.9675014153152934,-1.1348317952262226,2.1383453283243847,2,left
8.849,1.21648897595633,0.21571324960816707,0.30274007706318273,-0.41024214214171695,1.7941781309829201,0.6021617654693834,-1.0527374671553438,-1.0767944912770395,2.2194794413337338,2,left
8.849,1.3845106562982858,0.23036785687373795,0.23014994045048742,-1.193810749265991,2.072944654010645,0.1182900440243991,-0.9881159733247229,-1.1207920140131304,2.1579677568017273,2,left
8.854,1.553047267257365,0.29219083871581136,0.1614027393684992,0.10538601737976477,1.6107686645373906,0.92059752265297,-1.0270807043613395,-1.0942482679219667,2.195043672781627,2,left
8.855,1.677702473542215,0.34586742162246104,0.1087432789435081,-1.60832716619766,2.2204020508834184,-0.13768272580621257,-1.0112540021262895,-1.1050751519270445,2.180022144162841,2,left
8.859,1.7066515194117782,0.36215404739415263,0.09677180708048419,-8.801017311089645,4.779273957025811,-4.5793930187182035,-1.0109715847526561,-1.105165836968954,2.179670047410992,2,left
8.86,1.8116010440044956,0.434399104007767,0.05571342935465091,-10.514908857058554,5.3889844169228045,-5.637751185370744,-1.0193668904051698,-1.0995931723218544,2.187776998193661,2,left
8.86,1.9479202045306692,0.5404695527546911,-0.003672673209083561,-9.215519118905954,4.926725037350517,-4.835359409334092,-1.0093279539770892,-1.1062861728037217,2.1781073903719097,2,left
8.863,2.0201136516771636,0.6353800911085496,-0.038680085535758954,-9.999014313592431,5.205459850633929,-5.319199050309452,-1.0171183685603244,-1.1010424837435284,2.1855709847491807,2,left
8.863999999999999,2.0877067942979233,0.7470917318805065,-0.06358496550581426,-9.680773768265446,5.0922374063665945,-5.12261082331342,-1.0130035571131102,-1.1039687395810176,2.181754052499647,2,left
8.868,2.1076777848445496,0.8618312555327552,-0.06400560919360501,-9.67509083654885,5.0902240507609635,-5.119240156496989,-1.0137417786479976,-1.1030674662575986,2.1821383258578653,2,left
8.869,2.0703604786653234,0.9777407733623596,-0.04981546888135924,-9.843911705725272,5.150274940163863,-5.22329417230228,-1.0152247380475374,-1.1027439610272058,2.184097550592819,2,left
8.873,1.998446335092201,1.0920558868743058,-0.03921884665158355,-9.642039139769512,5.078463667260266,-5.098828415417529,-1.0128468350864253,-1.1035210371247153,2.1811623899208,2,left
8.875,1.883181182330048,1.1886022647238197,-0.029399234366583964,-9.798692436604064,5.134191892683623,-5.195481855391242,-1.0150127498301915,-1.1027175352350285,2.183759415955699,2,left
8.878,1.7319181461222488,1.2680836775168423,-0.014093716612451542,-9.715964881696236,5.104757069013262,-5.14422644994354,-1.013809419257068,-1.1035429991646553,2.18261899595002,2,left
8.879,1.5546942538587634,1.3216886655408364,0.013996244731497411,-9.730769733412625,5.110035819524956,-5.153911772422436,-1.0136584596567215,-1.1023996385345232,2.1814812612753807,2,left
8.884,1.3683235664395188,1.3426980653346452,0.05078230985698561,-9.760656467985783,5.120648680042463,-5.171432599749297,-1.015207554215375,-1.104192644036757,2.1852272457034045,2,left
8.885,1.1839061326934863,1.329888355429339,0.09959060671868458,-9.712759095587785,5.103632284445273,-5.143001963010551,-1.012608150021543,-1.1017140884828753,2.1793643850954885,2,left
8.888,1.0165451409774748,1.2879974821137417,0.16118295441361358,-9.756376292673096,5.1191310094927776,-5.169022279938536,-1.0154329636091064,-1.104319803629072,2.185665561373916,2,left
8.889,0.8752386399245,1.225891450797345,0.22892089007137845,-9.732182818765178,5.110523748903258,-5.154073656233935,-1.0137157969814703,-1.1028718673945692,2.181943762354008,2,left
8.892999999999999,0.7599396609269204,1.1468260026322596,0.3005193299570883,-9.729020344167735,5.109432669407713,-5.153818566112928,-1.0126562459972135,-1.1013379139796322,2.17913615613366,2,left
8.892999999999999,0.6757721599332835,1.0570417635065879,0.36953853484622523,-9.760455544278255,5.1205386304524545,-5.169351167323343,-1.0179822021389087,-1.1075835862473413,2.1920797981683817,2,left
8.899,0.6208307674926291,0.9636273057426418,0.43170822637484796,-9.707763260404047,5.1019080548588125,-5.14259937639256,-1.007980561921597,-1.0960851547445345,2.1679568358093713,2,left
8.9,0.5898018165700989,0.8727450772048957,0.4861783659794868,-9.765012067891782,5.1221523252260335,-5.171783358090376,-1.0208514882926019,-1.1108310337124478,2.1989591349569992,2,left
8.902000000000001,0.5703039283877784,0.7895504463634004,0.542043672850284,-9.730231647471895,5.109849298037888,-5.153868909742531,-1.01009421188379,-1.0985276900567582,2.1730650533063836,2,left
8.902999999999999,0.5544927877619568,0.7184014717915501,0.5934460796718232,-9.70868743096341,5.102246505950721,-5.143639306030227,-1.0104302622099641,-1.0988322181660903,2.1738095891188034,2,left
8.908999999999999,0.5452074604668782,0.6629466162709395,0.6286671701024888,-9.816780890385704,5.140433723823326,-5.196940179651202,-1.030796444988482,-1.1223865575191152,2.2230433962165,2,left
8.911,0.5371714871724467,0.6228035309973728,0.6534857299056251,-9.613833926958348,5.06872956016056,-5.096555234483074,-0.9806844993642385,-1.0645255373294238,2.1019790009424586,2,left
8.912,0.5309413549874734,0.6033110526098946,0.6481448406480165,-9.874978801854196,5.160998213279252,-5.225797093444491,-1.0637882835663177,-1.1604544752989028,2.302726040840172,2,left
8.912,0.5268896571574295,0.598647222187901,0.6333983582171125,-9.65674810118833,5.083890240127866,-5.117763937967997,-0.95417063793904,-1.0339234952149658,2.037935878115893,2,left
8.918,0.5255469088983269,0.5999511579895347,0.6275666939042754,-9.66349526161348,5.086279473313127,-5.121215085267579,-0.49413001647364535,-0.502779062894118,0.9265661640898112,2,left
8.919,0.5292382550149626,0.6109383499847072,0.5956832948161548,-10.076833974924714,5.232311008940333,-5.3254744175908435,-0.38450934510496276,-0.37623932682512795,0.6617680104973465,2,left
8.919,0.534105671832284,0.6310863359918314,0.5496561944771565,-9.059932807254162,4.873033496120667,-4.822817576303428,-0.4676205217514524,-0.4721801386487491,0.8625300756960629,2,left
8.922,0.5554286728468275,0.6687406013675796,0.48175326205518537,-10.746220105316258,5.468814761455527,-5.65639305514914,-0.41749523236399255,-0.41431421904474774,0.7414463715733479,2,left
8.923,0.5781067935248954,0.6983668751482985,0.42468517995441135,-8.522040457812464,4.682986136921608,-4.556914034046946,-0.4378806323230069,-0.4378546628002755,0.7906980862518256,2,left
8.927999999999999,0.5864641099214225,0.7067382361605732,0.408897204244279,0.8131970184410924,1.384796323186088,0.0575425665402729,-0.43819542748807483,-0.4382007993306819,0.7914352142611751,2,left
8.927999999999999,0.6183070023568601,0.7432840277781054,0.35028258311599825,3.0371949658870645,0.5990240439592308,1.1569299273502958,-0.42745253942784434,-0.425828421941777,0.7655268359511715,2,left
8.929,0.6664786411559067,0.7970153386268324,0.27021447665151077,1.351104265728793,1.1947443499476655,0.323453624789812,-0.4403292335681699,-0.44065475586525715,0.7965744981287554,2,left
8.931000000000001,0.7081115665493654,0.8406464921642156,0.2195284886641507,2.3680801652127195,0.8354436422266968,0.8261481629881845,-0.43028778585005834,-0.42909986000276434,0.7723741583743443,2,left
8.932,0.7476961101548123,0.8896125451334784,0.17130113345830839,1.954089428216136,0.9816774131238506,0.6215599158636024,-0.4356947846478917,-0.4353265631381937,0.7854120473314621,2,left
8.936,0.7771829054592034,0.9362169342829978,0.13442899457529095,1.9487452287467186,0.9836315244459434,0.6188164984452618,-0.43452210641922884,-0.43393993059291175,0.7825299838008146,2,left
8.937000000000001,0.7972157730689498,0.9748150113648762,0.10613988011355935,2.164964328307813,0.907147417464121,0.7258348903338316,-0.43291589363195526,-0.43218921697644774,0.7788064159250727,2,left
8.941,0.8052482619215864,1.006907933927843,0.07897044782555881,1.9058226379776524,0.9987948429317635,0.5976035522898104,-0.4356936882811613,-0.4352184721925654,0.7852478485342382,2,left
8.942,0.8031489624129948,1.028084712879922,0.055906414028178926,2.1079051721226745,0.9273587036177781,0.6975524241078188,-0.43299863066407285,-0.4323246563786838,0.7790669461980267,2,left
8.947000000000001,0.7986277552073869,1.0378236072993894,0.03430024940735102,1.9980917671489344,0.9660794319895053,0.6433839248020341,-0.4348532913958355,-0.43429254232292136,0.7832847157452671,2,left
8.948,0.7834763731852021,1.0385770533544365,0.017652820794934042,2.025176765637958,0.9567581509170714,0.6564085960759856,-0.43417702326749064,-0.4335101930836077,0.7816485733109177,2,left
8.951,0.7582994159374621,1.034663073684758,0.0006946432568375209,2.0504099832180924,0.9474160972162364,0.6695069103763569,-0.4336181730469789,-0.4331865744400253,0.780785940879061,2,left
8.952,0.723423224016243,1.0255537105788153,-0.01648976282931377,2.0048782027343397,0.9640265693148296,0.6462336550936808,-0.4352686261077038,-0.4343572451554277,0.7836593708520483,2,left
8.956,0.6750898074131673,1.0127362141794727,-0.03327244111966565,2.048228786751579,0.9482929451719749,0.6682729474692501,-0.4328932983697685,-0.43271106162065714,0.7795824201887951,2,left
8.957,0.6208860187089044,0.9980233639687208,-0.049006955605043506,2.016711073098633,0.9594249255107604,0.6526987688979169,-0.4353102833469954,-0.4343329155819131,0.7836504033849381,2,left
8.961,0.5639583336732843,0.9829115921433647,-0.05880763185753052,2.0372075863339107,0.9529574042953941,0.6616980511963843,-0.4339125483139419,-0.43339458699395916,0.7812969550086234,2,left
8.963,0.5006581433461215,0.9704975603403906,-0.06519395840671267,2.021785681799118,0.9566367331480439,0.6566625282899755,-0.43296290304142837,-0.43287983211356895,0.7798849786333057,2,left
8.966000000000001,0.4354902496466664,0.9580339119424464,-0.06832691875897542,2.0372692648734274,0.9538061576027157,0.6604559207622376,-0.4374493472552371,-0.435512860184588,0.7868628577871928,2,left
8.967,0.37304024097570654,0.9460993748632721,-0.07096505089544666,2.0221624832759604,0.9563288722732515,0.6571036856782937,-0.4291128208084899,-0.43061147335805994,0.7738826126296241,2,left
8.971,0.30865955596116645,0.9412859564631608,-0.07508828818891503,2.028681351865001,0.9556527891892227,0.657948055305345,-0.43979609761007,-0.4368800777931068,0.7904987268359852,2,left
8.971,0.24745919578006872,0.9421393720002236,-0.0742890288113538,2.045253872214774,0.9511976634307429,0.6640909319189179,-0.4308868742970785,-0.4316587056469102,0.7766500466719606,2,left
8.976,0.1863422366476961,0.9453050658631273,-0.06889206717233515,1.9906481231926556,0.9643576429285207,0.646068108627411,-0.4311547439236293,-0.43182910057046964,0.7770898332413392,2,left
8.977,0.12189469518444143,0.952268940387582,-0.06209283135550616,2.088685444803655,0.9410955530888406,0.6778945697736787,-0.4480285842815073,-0.44165759036984503,0.803219558033647,2,left
8.981,0.06509735470687535,0.962987995349763,-0.05573946200690442,1.9635181177397094,0.9707095717382717,0.6373830941416561,-0.4065346609070518,-0.4174807875771959,0.7389465854060644,2,left
8.982000000000001,0.005305502454137918,0.9780409364072051,-0.0542087257863466,2.067733456621072,0.9460886700379503,0.671064406618127,-0.47533135755197153,-0.45756183513050586,0.8455095683622496,2,left
8.987,-0.035128862717353465,0.9891437765347127,-0.055380438575450996,2.0660098415729906,0.9463599481249706,0.6706974400461307,-0.3845954909744418,-0.4047055564839902,0.7049689600984315,2,left
8.988,-0.04530607266221724,0.9921860140771538,-0.056681070954044774,1.8636646390750085,0.9946066703962608,0.6046751809070856,-0.003801854528760515,-0.18288991603211,0.11522490114376446,2,left
8.988999999999999,-0.07591809629349196,1.0017716716681788,-0.06009027420343646,2.359738720745093,0.8764844747633939,0.766319447459725,0.08692436868564185,-0.1300494696359227,-0.02529329127742915,2,left
8.99,-0.11287674213457641,1.0171360546087127,-0.06145456340418173,1.5375189409252612,1.0722211886537103,0.49845464359948144,0.01814308273931091,-0.17010764327546604,0.08123341732506212,2,left
8.991,-0.12374741405331967,1.0244408594344028,-0.060823428634492666,2.62204519013697,0.8140490953883677,0.8517744665012654,0.05962334491695004,-0.14594467258647226,0.01699380245470209,2,left
8.995,-0.12787156789153828,1.026218730181191,-0.0612144562265278,7.175384897771581,-0.2701304850947791,2.3353929372173905,0.042751240261085996,-0.15578803527369345,0.04311618888715644,2,left
8.995,-0.13593417537475522,1.0281685148715338,-0.05964048262193878,8.260135737977759,-0.5283623645709854,2.6888174765705504,0.04250391676021853,-0.15589840570623656,0.04351311761000144,2,left
8.996,-0.1438713064856253,1.0276358892761572,-0.05905513506931673,7.437672954460138,-0.33256095823567505,2.4208393639333416,0.0513642410444049,-0.15078553325127536,0.029772842113069076,2,left
9.0,-0.14375839346338282,1.0250084096271002,-0.058277830575195116,7.933654657122553,-0.4506585794191734,2.5824405843623772,0.04075394123880068,-0.15691806751023119,0.04622235324801035,2,left
9.001,-0.13936728325557016,1.0200610333353475,-0.05299739538820475,7.732115404164517,-0.40262636643466704,2.5167940489099,0.04901388286600189,-0.15212744071119466,0.03342291986899905,2,left
9.005,-0.1361747544768841,1.0133148053263583,-0.04603896219366159,7.728657634459488,-0.4018935073208122,2.5156186051735583,0.04456869066715119,-0.15475737656293811,0.04029286054513744,2,left
9.005,-0.13112785146599187,1.0087609235232993,-0.03764078469867707,7.835359441244704,-0.4271762523476094,2.5504591580646783,0.04556421672390501,-0.15404626101633634,0.038796797724339666,2,left
9.01,-0.12665652387898776,1.0027654564527888,-0.03140263982597048,7.70771605859506,-0.3969031386523679,2.508793260687651,0.046781427855373814,-0.1535633809362777,0.036833321463461174,2,left
9.011000000000001,-0.12088907756103061,0.9959224576240674,-0.028896756835169665,7.8068218497555595,-0.4204496849064123,2.541117945261872,0.04469372003742914,-0.15450194993106842,0.0401625039023662,2,left
9.014,-0.11359574385027706,0.9912521800949045,-0.028822878779818456,7.754342094246089,-0.40785551881412285,2.524086179795568,0.04664564510012817,-0.15358620181757549,0.03706316501993866,2,left
9.015,-0.10902165363920134,0.9860697600750152,-0.034024889745433266,7.764065820238046,-0.41048773046381976,2.5270361440673517,0.045361698780503584,-0.15433602354115486,0.03905093836771563,2,left
9.021,-0.10444585193248838,0.9818085191234791,-0.03732414951760436,7.782385662455465,-0.4143049250506837,2.5333822846282503,0.04585698115656399,-0.15363711881805936,0.03842548260585613,2,left
9.022,-0.10040754392845735,0.9802523635701045,-0.0374516214078304,7.752795900820256,-0.40792711554009853,2.5232777328824594,0.046006616390582275,-0.15448790350765784,0.03787022576608319,2,left
9.025,-0.1026970474009481,0.9827834746208723,-0.041888466876659515,7.779826351427789,-0.41383140248516137,2.5324547920903675,0.04547655622465027,-0.15339739054715956,0.03917371823624,2,left
9.026,-0.10757944311533853,0.9861572906892468,-0.04717800270846681,7.764506574575769,-0.4101789048401603,2.5274663403049367,0.04609865401020505,-0.15452668230001096,0.037695842260903764,2,left
9.03,-0.10993026706027104,0.9883702135999508,-0.053878853827394574,7.763576926455581,-0.41094371543062197,2.526477037661942,0.04564908751646046,-0.15392666547706538,0.03868933984454309,2,left
9.031,-0.11177635546116782,0.9932420249092431,-0.061619977292106574,7.78102652051991,-0.4128453423395415,2.533731741350577,0.045708278009898726,-0.15314923570438155,0.038853831769569996,2,left
9.035,-0.11313133907530533,0.99715301481386,-0.06387606452891392,7.751324710558959,-0.4091341263036068,2.521712731783979,0.046180218590843994,-0.1561258706668773,0.03700171094184692,2,left
9.036,-0.11219083067049877,0.9982611455217143,-0.06343876584236546,7.783669904070842,-0.4132533170290645,2.5347480541940817,0.045173312836538825,-0.15068237137633955,0.04064048681076064,2,left
9.039,-0.10763258549443754,0.9971068497738195,-0.06546121170851427,7.763903992779977,-0.4106162083395667,2.5268647650511094,0.04649545036348344,-0.15765507605669882,0.035922805836029865,2,left
9.039,-0.101809919148247,0.9924668860141039,-0.06957807869793799,7.752203700137872,-0.4096159004096054,2.521810361556514,0.045380269396067575,-0.15184053869356767,0.039879105966336495,2,left
9.043,-0.0936645063878965,0.9849645683365815,-0.07060844897537458,7.812144028316768,-0.4160773844015422,2.5467805345566568,0.045455098279642676,-0.151971949160784,0.039702643297008976,2,left
9.044,-0.08309909918100997,0.975388781638514,-0.069407981840956,7.699411981596721,-0.4037184687651396,2.499959241989709,0.04743380944238336,-0.163145054281571,0.03238811791130871,2,left
9.05,-0.07377246408187024,0.9621373999945446,-0.06681707464087433,7.844512263197669,-0.4196721829783918,2.560194683194145,0.04251897147697903,-0.13571280157315738,0.05044642053401585,2,left
9.051,-0.05913374744202206,0.9420509635769753,-0.058332479742488105,7.723243024123973,-0.4063192988456051,2.5098616864998884,0.05067981216001773,-0.1811899019426192,0.020486269646093777,2,left
9.055,-0.04681400818672003,0.9286013160768113,-0.05226057684408911,7.727049873452493,-0.40681118864765614,2.511400343889833,0.039916785110021225,-0.12120514798681313,0.06000225096592142,2,left
9.056000000000001,-0.04313007762547905,0.9252408680476796,-0.05051539485670717,7.956542103842857,-0.4318438906014521,2.606794092332355,-0.005219699785850903,0.13060339401533708,0.22580206241535383,2,left
9.056000000000001,-0.028377561725447403,0.9121733136143214,-0.044654854135177,7.391882384099357,-0.37016336546045425,2.3721227960062032,-0.015973363479327794,0.1905937827344822,0.26530418688041113,2,left
9.059,-0.003647366112076037,0.8939146712081545,-0.0368601395715861,8.328241011699557,-0.4724713316099688,2.761268241693047,-0.007822653912194737,0.14511058488674433,0.23535902984127083,2,left
9.059,0.007987938429991305,0.8859603325850893,-0.03235424085641234,7.093215924756281,-0.33752548140878763,2.2479878395281334,-0.012741342795407708,0.17254052258537395,0.2534230286665052,2,left
9.065,0.011563391278329272,0.8829580218090859,-0.03144807671423554,1.909542191284983,0.22873101632721826,0.09370292701973537,-0.01072903191183093,0.1613876323925026,0.24605878470176512,2,left
9.066,0.028633223391830796,0.8764655728050867,-0.026625306317899052,0.6746516486717417,0.3636590880475121,-0.4195478161938276,-0.01072649984665319,0.16121272193836206,0.24598930577140832,2,left
9.067,0.05095609994663634,0.8703259627619118,-0.01951898723187281,1.6108647324630343,0.26137034757866406,-0.03043444626724215,-0.011738019623010167,0.16708963347318623,0.2497922065718893,2,left
9.068999999999999,0.06702562095985859,0.871304757449243,-0.01919364570571468,1.0461495623366681,0.3230582220013635,-0.2651179941146505,-0.010519109786076345,0.16005481211693523,0.24522728725625573,2,left
9.07,0.08310270406845834,0.8771204962585873,-0.02382091514616199,1.2761248335775355,0.2979616461011536,-0.1696177063445003,-0.011481469546500787,0.1655251229216299,0.24880013455281186,2,left
9.073,0.09845694416567766,0.8842175804498635,-0.033003846491041273,1.2788924788640128,0.2976071428790342,-0.16830821684505248,-0.010920898021302004,0.1626018068033454,0.24681686947537881,2,left
9.074,0.1122383425928308,0.8968525698226768,-0.04578871549418012,1.1591131519770652,0.3107630795870556,-0.21831268526561667,-0.011147232550630841,0.1632074450158203,0.24740387144676557,2,left
9.078,0.12279867880825611,0.9144927186004617,-0.05794693259975246,1.302729911327056,0.29500543762109505,-0.15840432472746177,-0.011104816082901496,0.16410348672903846,0.247669333668049,2,left
9.079,0.12824496797549928,0.9315561027558743,-0.07163071339419999,1.1906377553383298,0.30727983767023187,-0.20508460862845962,-0.011086516799419483,0.16261087611598288,0.24708497444609687,2,left
9.083,0.12999067769661815,0.9522475290724843,-0.09034330682560998,1.2518525122330162,0.3006497860660476,-0.17983328975444718,-0.011135181729171204,0.16399107736061783,0.2476760603444284,2,left
9.084,0.12607629192246422,0.9750687024018468,-0.11126296585016648,1.2360478137918527,0.3021927557706704,-0.1857928632132244,-0.010981297657364119,0.16314279848221847,0.24711457408795784,2,left
9.087,0.11763100448764532,0.994649397170147,-0.12973252112968472,1.2233534637974253,0.3038950293105561,-0.19211677859972215,-0.011379263271006995,0.16330429205151706,0.24781088323027467,2,left
9.088,0.10604016893315776,1.0173883262527739,-0.14426384280701787,1.2470206118204286,0.3009229098586901,-0.1809949098693288,-0.010621766091045832,0.1637827711210332,0.24677776759454093,2,left
9.093,0.09314299413863034,1.0409702597865254,-0.15367974218858046,1.2242365611510535,0.3037199328730459,-0.1914888534959971,-0.011715403234909895,0.16286598347647457,0.2481852784246796,2,left
9.094,0.07758146967708515,1.0579220768599427,-0.1614869486888984,1.2417496400720722,0.30180945100238815,-0.1842195652048878,-0.010556395069300364,0.16388107711873934,0.2467098374318653,2,left
9.097999999999999,0.056856109714943454,1.069858994807407,-0.16848255465088696,1.2279782457020523,0.302742765193254,-0.188041266883479,-0.011215240893857718,0.16323491172545507,0.24752280654138806,2,left
9.099,0.03552378817607928,1.078292123627567,-0.16829331426980626,1.2420027980077117,0.30251576759530174,-0.18655854805338046,-0.011836618966190624,0.1629734366829198,0.24841909455059002,2,left
9.103,0.012945238129126645,1.082896325788853,-0.16207365360043274,1.2252589474229612,0.3023980272472255,-0.18703397828273255,-0.009204826327170866,0.16460144028326099,0.24481683256718767,2,left
9.103,-0.010749187678168348,1.0803198943778405,-0.152436308629829,1.2423303623547297,0.3026085026124171,-0.18685051828936342,-0.014069489460029068,0.16149508895890785,0.2514390852107569,2,left
9.107999999999999,-0.03243707197776778,1.0720162472650192,-0.1375715266106582,1.233695295862098,0.302352592147238,-0.18644568909645837,-0.007826896622901718,0.16550323531068567,0.24294934308453897,2,left
9.109,-0.05202917098695413,1.063209252019381,-0.12018858928240216,1.2201642499082133,0.3027972640563449,-0.1886271134317551,-0.013036573887786864,0.16214933655213998,0.25003082376770136,2,left
9.112,-0.06925167558434073,1.0513338838419113,-0.10160467152571781,1.2694186408177566,0.3019401635840705,-0.18322213071334167,-0.012902248822217063,0.16227001027993704,0.24986141521477392,2,left
9.113,-0.08537416337947926,1.0384927361633727,-0.08003768079237746,1.1798739543817889,0.3033330464688915,-0.19249804746307392,-0.0029475976533491844,0.16856665145280192,0.23628736927308197,2,left
9.119,-0.09688101869908432,1.0256694177713417,-0.055575508133925144,1.294450637077677,0.30158874294777416,-0.1807552371167232,-0.02740600493292409,0.15305552630096794,0.26962261668050863,2,left
9.12,-0.10357572386468902,1.0099621696390746,-0.030989110810469542,1.198959039232665,0.30302690415623057,-0.19049049611740743,0.013143617216277737,0.17878206766215055,0.21436073115767393,2,left
9.122,-0.10604735985765057,1.0001725732806492,-0.017411687896004183,1.200918378202401,0.3030569650206223,-0.19048821979382657,-0.040339113377552,0.14484902476486924,0.28724699329472997,2,left
9.122,-0.10531049108188328,0.9972987668213973,-0.016073042221590693,1.385054530699672,0.30008882720897434,-0.17106871090498513,-0.26486163725441647,0.0024493595688785605,0.5932539772908728,2,left
9.123,-0.10570407681530355,0.988759996996842,-0.010953682708934251,0.9332055565949992,0.3073023722388647,-0.21849101474111432,-0.3183419567055613,-0.0314784933440567,0.6661371217685415,2,left
9.128,-0.09735079144294642,0.9725004208497167,-0.0013681043826935671,1.68220448905993,0.2953637383592411,-0.1399431279348286,-0.27779494227816215,-0.005757566091957564,0.6108786080530091,2,left
9.128,-0.08693537347768493,0.9620687634862477,0.0023035651652297505,0.6942898820977081,0.3111078538416486,-0.2435393495515501,-0.30225434518732464,-0.02127083083610834,0.644215142948215,2,left
9.132,-0.08367437682384825,0.958362830150114,0.003653139043084063,-3.453362092949594,0.37729064470385565,-0.6787523110177545,-0.2922910335915492,-0.014955555311411406,0.6306298986463276,2,left
9.133,-0.06921694149937588,0.9445452856821321,0.009302621835962989,-4.4413676284724195,0.39303886598551185,-0.7823741315625417,-0.2921753377530658,-0.014874970287349853,0.630484578443689,2,left
9.134,-0.04557021506790078,0.9254979096575998,0.01623054635040709,-3.692262924527121,0.38109899016858284,-0.7038038603890395,-0.29735830830929655,-0.01817139434810315,0.6375315263928335,2,left
9.137,-0.022526436153346423,0.9129187187956009,0.017745386556553874,-4.144100667281633,0.3882995102817173,-0.75119681524374,-0.2911423050049863,-0.014220475343321928,0.6290761653264123,2,left
9.137,0.00043585975061734023,0.9028489671333167,0.014172222392230358,-3.9602368631951257,0.3853694766004334,-0.7319079668917218,-0.2959955041152843,-0.01730214426172517,0.6356835949469524,2,left
9.142000000000001,0.019382767294594327,0.8968936054614112,0.011499045747403323,-3.957655467865286,0.38533316384608796,-0.7316504721134587,-0.29334085829645,-0.01562497551431,0.6320517824271727,2,left
9.142999999999999,0.040457953804393626,0.8957937625502105,0.006471647581119711,-4.054067843210419,0.3868539914392795,-0.7417309144212563,-0.2940358175737736,-0.01604478480525474,0.6330432141716978,2,left
9.147,0.06749667213930736,0.8974457066080643,-0.00800282113655635,-3.9385381880433212,0.3850429842257805,-0.7296702919527638,-0.2945678999099781,-0.01641815658215206,0.6336922731880037,2,left
9.148,0.09729525794606353,0.9030120053205752,-0.028814739838065692,-4.028561050909113,0.3864356501376457,-0.7390352053568134,-0.29356444107474455,-0.015737824740118277,0.6324179627818136,2,left
9.151,0.12980662541421417,0.9091341603983403,-0.0501919965758745,-3.9799706255502487,0.38570265256969305,-0.7340140498785297,-0.2945340985431275,-0.016387760556398796,0.6336651647266454,2,left
9.152999999999999,0.16197691592018443,0.9153016216058084,-0.06820814336833364,-3.9910973223312234,0.3858625044419764,-0.7351498619536458,-0.29377542339151214,-0.01590681948226877,0.6326305235091133,2,left
9.156,0.1909644320269619,0.9256894695201017,-0.08115814608144847,-4.004025890447997,0.3860321088029013,-0.7364383731116118,-0.29440363023014815,-0.016240724954898436,0.6336245459988454,2,left
9.157,0.21846160282851337,0.9392937990246035,-0.09232547849261409,-3.9815252914294432,0.3857896275984015,-0.7342917173934036,-0.2937237010478392,-0.015957004454117643,0.6323828617177807,2,left
9.162,0.24444554409213934,0.9528476249387322,-0.1043309561031989,-4.0028364260367235,0.3859295947764847,-0.7361606523185953,-0.29455703344282724,-0.016265440530887895,0.6339885513750844,2,left
9.163,0.2646296581641149,0.967180635085211,-0.11328005742972405,-3.988302893370879,0.3859428553087514,-0.7350853380359093,-0.29370239033877876,-0.015958072513551247,0.632322773568508,2,left
9.166,0.279986435594835,0.9830274864538543,-0.11554756602304941,-3.994859217631749,0.3858522085119982,-0.7354152302389854,-0.29414298448787346,-0.016101791724703447,0.6332127754273787,2,left
9.167,0.2932227289274415,1.0002316275566605,-0.11625741780999675,-3.9948327650005426,0.3858498659836124,-0.7354089018558472,-0.29478641212778844,-0.016393304630783395,0.6343391108126604,2,left
9.172,0.30165247982668764,1.0200222144293054,-0.11784205568480463,-3.99072859097345,0.3861470237921209,-0.7356432815859208,-0.2924019673231625,-0.015392049518665562,0.6299974912164614,2,left
9.172,0.304152306326649,1.0404454410380568,-0.11442985946848816,-3.9967085208466178,0.38541401293435873,-0.7347515660005468,-0.2967460857318893,-0.017199148472905677,0.6379430923237038,2,left
9.176,0.3007156500080329,1.0602277755471414,-0.10724158144461918,-3.990587968552822,0.38655201839845177,-0.7363754045177013,-0.29118545892694114,-0.014890169091831463,0.6277641694390903,2,left
9.177,0.2931840880130621,1.0804849405444452,-0.10291469660859662,-3.995475429535098,0.38531294146923445,-0.7344727355127565,-0.2958207446206329,-0.01681281371289064,0.6362527204593706,2,left
9.181000000000001,0.2792967262669024,1.1002071111678553,-0.09945344062024436,-3.993174845039231,0.3860369639253478,-0.7356268724003481,-0.29572224736798813,-0.016779231848315784,0.6360591763133994,2,left
9.182,0.25973841463309766,1.1168872359598492,-0.09629801471254482,-3.9914089893703784,0.3866653706779418,-0.7366449513182831,-0.2867950774708469,-0.013053608686198134,0.619753766957959,2,left
9.186,0.24002972045974078,1.1295624513944782,-0.09185668399422198,-3.9985066681956813,0.3839068243393289,-0.732124012616773,-0.30870534167375235,-0.022188057298574152,0.6597884003742183,2,left
9.187000000000001,0.21328088898330438,1.1374831816006816,-0.07981963220069908,-3.9859461850797384,0.38903147542435423,-0.7405710126511542,-0.27238511808719024,-0.0070495510428525265,0.5934193523304421,2,left
9.19,0.19298837825853077,1.138975561428704,-0.07267228714715254,-4.001657251397727,0.38244520687454403,-0.7296811470631679,-0.3202908569944417,-0.027015551618694233,0.6809596963422924,2,left
9.191,0.1878530998304616,1.1397248179774389,-0.06866602095560208,-3.988724364686259,0.3879456819006138,-0.7387914468856023,-0.5214080754864617,-0.11088366833221733,1.0484388900589794,2,left
9.191,0.1763646511601157,1.1334542594704022,-0.03855839655132183,-3.9890955610156733,0.3877994421448223,-0.7385478760610679,-0.5693170949716188,-0.1308532126967033,1.1359831156921674,2,left
9.197000000000001,0.16051106322294978,1.1180229528622165,0.0039205199717737855,-4.013381457976744,0.3772996563346305,-0.721135179540132,-0.5329939855209627,-0.1157062430509024,1.0696128093391928,2,left
9.198,0.15088039897478955,1.0999434429543653,0.03775694191837072,-3.953798760515577,0.40310392621586555,-0.7639432931474914,-0.554900549629475,-0.12485563031685246,1.1096354271499231,2,left
9.2,0.15535520623238408,1.0617573359053178,0.08277678087299209,-4.052472659663129,0.3603209355959728,-0.692954430124845,-0.5459899984004162,-0.12110892157542975,1.0933654268810478,2,left
9.201,0.1654620096267971,1.031527079152667,0.11626440956564794,-3.922413589259917,0.41674938996300614,-0.7865967521293449,-0.5458589808017279,-0.12109812504005649,1.0931100445099171,2,left
9.201,0.17081797534058002,1.022361031209119,0.1263925739803729,-3.37676150048606,0.6536520392215092,-1.17970122099717,-0.5505383026442239,-0.12300618027038945,1.1016757711241194,2,left
9.206,0.19704848139624556,0.9798465916000898,0.16512332067556706,-3.2467950282506406,0.7100761028760778,-1.2733513731156796,-0.5449370619559766,-0.12068914512422117,1.0914343468553975,2,left
9.208,0.24235848696043819,0.9182418573294244,0.2241611805064695,-3.345312654867478,0.6672969686524294,-1.2023481560216354,-0.5492926936542923,-0.12254165710284264,1.09938026989827,2,left
9.211,0.2877071767859508,0.8641091339617237,0.2684332143735805,-3.285890516285806,0.6931062120853794,-1.2451738831500558,-0.5469569748786343,-0.12145068659654554,1.0951537202149582,2,left
9.211,0.3357469591235617,0.80655800262232,0.3024033799760729,-3.310099176859589,0.6825841399129375,-1.2277463336269696,-0.5474672705720215,-0.12186495204786685,1.0960150138206841,2,left
