time,gFx,gFy,gFz,ax,ay,az,wx,wy,wz,subject_number,foot
7.779,0.04300281131323616,0.9860284750892547,0.02804279902195094,0.2609825709018847,0.6595603582464737,-1.0545556831271954,-0.2845461737984593,0.01779963611512627,0.28049974004634803,3,left
7.7829999999999995,0.043139968230306996,0.985843923463181,0.039616356370540354,0.2707856727399056,0.6616126983929357,-1.0616976358403791,-0.2840705021433,0.01608762422914024,0.28054216952297284,3,left
7.784,0.050946162329299154,0.9814324232263106,0.0542826533947081,0.2656827781411041,0.6604232048674354,-1.057741516019676,-0.2843930740658306,0.017718117728026804,0.2803954856005273,3,left
7.789,0.06192370030909194,0.9732383300731943,0.06632113586198932,0.2664188668819373,0.6608893132192923,-1.05889194136875,-0.28441832808403483,0.016577306568953232,0.2807025135613319,3,left
7.79,0.07247485533983894,0.9662068384602489,0.07559022802203735,0.2686060616042415,0.6608273993452239,-1.0594620493592835,-0.28395964241055577,0.017165191608720848,0.2801813170226548,3,left
7.791,0.08658712398814966,0.9583090216735209,0.07995231754827434,0.26522229223616967,0.6607529947343231,-1.058245090796835,-0.2847851449609604,0.016999293428893218,0.28089529596258855,3,left
7.792000000000001,0.10182100997442575,0.9510241639072792,0.07443714788433752,0.26825870377100774,0.6608851223666296,-1.0594657375956813,-0.2838534448315786,0.016915912835701454,0.2801574292085406,3,left
7.797000000000001,0.12002662445234744,0.9491569589422644,0.06807927097134919,0.26675196268246626,0.6605575641682349,-1.0583442671669308,-0.28442647612307514,0.017138612903167663,0.2805681957427409,3,left
7.797000000000001,0.14355436087691842,0.9475349359994061,0.06251291698339112,0.26597041075885897,0.661352190097036,-1.0596614435735467,-0.2848125709080528,0.01678797945860836,0.2809706916117344,3,left
7.801,0.17017305542599065,0.9443694100678575,0.057574988387428444,0.2692669371462647,0.659860114588247,-1.0577666108867079,-0.2829237873382285,0.017321439730174394,0.27929846874061925,3,left
7.803,0.20261823120033992,0.9415815558431692,0.05821107715455756,0.2639873625203192,0.6620083499635749,-1.0603261478170531,-0.2864736421566798,0.016568701067643302,0.2823785515774707,3,left
7.807,0.23927281231391417,0.9393556118969275,0.05795854099853043,0.26968290901801484,0.6597328820029167,-1.057647514654852,-0.2818983940961256,0.017449921270212457,0.2784311259728892,3,left
7.808,0.27474402433648015,0.9350699834221017,0.059219590335030575,0.26628547924750345,0.6610246104054766,-1.0591164531960893,-0.2857254044662788,0.016750412664554085,0.2817235199409166,3,left
7.812,0.30954113288334034,0.9274131790540222,0.06276499570252381,0.2638843731674529,0.6622517628935269,-1.060772484963004,-0.28561028308825637,0.016713447470274107,0.28163911019853943,3,left
7.813,0.34315089445284785,0.9209847730685508,0.06322338925658472,0.27525649301952193,0.6570675483250753,-1.0541632447745806,-0.2783435267662334,0.01819587138359483,0.275348615291101,3,left
7.817,0.3730294877363916,0.9154829471814238,0.06579833409603095,0.25401065088430763,0.6666477124698318,-1.066304576721969,-0.29622126037273394,0.014633293771927998,0.29080320058390857,3,left
7.818,0.40083004293259505,0.9110211399512871,0.06615973254811212,0.28132674588075046,0.6543544518484202,-1.0507409286647298,-0.2665724803382401,0.020509398660539014,0.2651811725985268,3,left
7.822,0.41718034626325873,0.9092553634803305,0.06428774063065262,0.25850702086945937,0.6646134733458262,-1.0637228633692526,-0.3056817517602486,0.012770229070435147,0.2989757584050794,3,left
7.8229999999999995,0.4207636488523474,0.9092649489408015,0.06303249816944835,0.25918075251697414,0.6643497286258695,-1.0634137489423423,-0.46981826347881267,-0.019770327549187665,0.4408242739138255,3,left
7.824,0.43041502021036865,0.9126018183060531,0.05239710879525107,0.30251086759662615,0.6447440641026743,-1.0385230058025199,-0.5089273195020922,-0.0275080947046106,0.47461840188950905,3,left
7.827000000000001,0.439401725259415,0.9178957418165221,0.03971968826878413,0.19594333192620136,0.6929142289771011,-1.09964995110944,-0.47927951487049375,-0.021638351160013187,0.44899844815539125,3,left
7.827999999999999,0.437255916026032,0.9254708365690874,0.031545591304486656,0.37265594206752084,0.6130524254692276,-0.9983137011595103,-0.49715470766915587,-0.025184348283363335,0.46444762930801,3,left
7.832000000000001,0.4362768619734967,0.9320632846316979,0.024826277778482855,0.139569933990588,0.7183871879441327,-1.131972592864618,-0.48989259915961075,-0.023732263223361506,0.45816702085488525,3,left
7.832000000000001,0.4355044641202186,0.9332796838298896,0.02425609261869177,-0.8386722455042384,1.1606121791678885,-1.6931256483920152,-0.48977109888040765,-0.023727581173824216,0.45806904159053186,3,left
7.832999999999999,0.4288743034213113,0.9386587401654365,0.02050095907160327,-1.0717491654920446,1.2659508568050093,-1.8267920012204226,-0.49360435592699226,-0.02446788455093595,0.4613747248527108,3,left
7.837000000000001,0.4212951882418657,0.9472012752697925,0.012079557498593555,-0.8950538029011161,1.1860764232546486,-1.7254396004335104,-0.48902650906223477,-0.023569672732794665,0.45742176858888584,3,left
7.837999999999999,0.41299755093345236,0.9510806978202913,0.010679522200692747,-1.0015988147286445,1.2342747091647928,-1.78659208940629,-0.49257076008653067,-0.024285860297735395,0.46048993419451567,3,left
7.841,0.4031394125583876,0.9567966037946967,0.01222537658321328,-0.9582902284389352,1.2146218000674252,-1.7616691330487917,-0.4906997044227105,-0.023868106914495202,0.4588554194451885,3,left
7.8420000000000005,0.39407908232563427,0.9640121219938257,0.014841718384643742,-0.9576063468423452,1.2144187588771214,-1.7613899204093513,-0.491055352240372,-0.02401997456734741,0.4591931488792014,3,left
7.845,0.3823895900645887,0.9699430669939537,0.020303957632178064,-0.980411665176509,1.224623528131069,-1.7743605332835224,-0.4916657097116219,-0.02404099629456656,0.4596833197535114,3,left
7.846,0.36619848632480867,0.9783562566313926,0.026461186840380763,-0.9531460894610987,1.2123433408409423,-1.7587687489987391,-0.4907042756413942,-0.023930159004346058,0.4588821929477075,3,left
7.851,0.34540351957962745,0.9871142524432264,0.03211646564939419,-0.9743029612326966,1.2219939076471868,-1.7709954047301033,-0.49152946576045503,-0.024094176916566977,0.4595955227273282,3,left
7.851,0.3196869348847009,0.9971924114095561,0.03634014288349211,-0.9630422405091437,1.2166232445914855,-1.7642416933887053,-0.4911260759630007,-0.023867108587819826,0.45919193453321294,3,left
7.856,0.2932059687280011,1.009176540347601,0.039154983944718405,-0.9653507807907709,1.218149550078044,-1.7660729952954346,-0.49102503106666395,-0.024183503251362426,0.4592303102078392,3,left
7.857,0.26577996610739274,1.0200555115513812,0.037649994372717696,-0.968756531231664,1.2190969648923276,-1.7674046388657487,-0.49153597847000985,-0.023782864411153796,0.4594843451470776,3,left
7.86,0.23907632176317478,1.032090414003715,0.032066087118928444,-0.9632113303626394,1.2170622941175941,-1.7647195754123897,-0.4908595357160188,-0.024183808010447425,0.4590996596785486,3,left
7.861000000000001,0.21599156908277942,1.0432443962625089,0.02288116805982221,-0.9681311473810307,1.2192901320813427,-1.7675456022275617,-0.491338678113249,-0.023969694508823407,0.4593982516397775,3,left
7.865,0.19678795936921475,1.0524678351055852,0.010242477236918438,-0.9653837502554804,1.2171734836421828,-1.7650513797797225,-0.49147719111391813,-0.023730586376538826,0.4594183609440691,3,left
7.8660000000000005,0.18456101292972998,1.0611299041569617,-0.00030668239659472143,-0.9655656247929271,1.2192550523556405,-1.7672547258542206,-0.49036462629696054,-0.024676362649962147,0.45889264565077925,3,left
7.871,0.177837415016652,1.0664398780411228,-0.006683842512398027,-0.9674414132624078,1.2171200736230023,-1.7651990959071533,-0.4925474005827133,-0.02294626450208625,0.4599709256352882,3,left
7.872000000000001,0.17830750412607105,1.0684074587940184,-0.00829755218274789,-0.9646560438547658,1.2190411112530621,-1.766940020015868,-0.489701718609916,-0.025159108947275452,0.45854923474151377,3,left
7.875,0.18411136590154953,1.0671733442294213,-0.004714404675212875,-0.9667924536855279,1.2181688217142685,-1.7662358536417584,-0.4920952677205063,-0.02331552564863007,0.4597516302541657,3,left
7.876,0.1909456255367314,1.063454187263787,0.001185484062741321,-0.966995459774269,1.2166779502670928,-1.7646907869427486,-0.49200331612457104,-0.023359408753807785,0.45969540913527507,3,left
7.88,0.20150021520427597,1.0579789195958553,0.0067173059558297,-0.963083799175654,1.2218398121203276,-1.7697224533170628,-0.48751181343800876,-0.026890628290394188,0.4574658239063635,3,left
7.881,0.21046019079561346,1.0516666071069118,0.007268390009683839,-0.9710525183529021,1.212588556892751,-1.7607994656285937,-0.49859011802057607,-0.01822028854350343,0.462979756507082,3,left
7.8839999999999995,0.21870454348176394,1.046849253462002,-8.763393976389208e-05,-0.9605624292826055,1.2243525641698765,-1.7721106491624286,-0.48020789429623567,-0.032592372784473536,0.4538250927830402,3,left
7.885,0.22457851348490415,1.0440614311801197,-0.006136397556517708,-0.9694296276707273,1.2145786705507264,-1.762728057664769,-0.5044580608319099,-0.013637470015203773,0.4659039077646876,3,left
7.89,0.2255808587745272,1.0424825050121842,-0.008828012216078675,-0.9690201241856151,1.2147718064614001,-1.762890132397366,-0.6062426172349,0.06593784265119235,0.5165965194902887,3,left
7.891,0.23181033350612718,1.0393704349602477,-0.017430625934538542,-0.9525625259701128,1.2335997279125084,-1.7810263367887966,-0.6304913348072129,0.08489140371668169,0.5286745921344596,3,left
7.891,0.24328282297647905,1.034399597717953,-0.02714649093703593,-0.9932595425041919,1.187423780068487,-1.7365802118223883,-0.6121074260818922,0.07052141618412353,0.5195179208482239,3,left
7.895,0.2627074537601809,1.0268037274336934,-0.0320431284478511,-0.9256875954323878,1.2639509141048992,-1.8102279422406071,-0.6231978479981073,0.07919002316887438,0.5250421145703701,3,left
7.896,0.27808224409174254,1.0206290978098473,-0.03380022052049424,-1.0148508598376544,1.16302032497589,-1.7130994705204177,-0.6186773933060905,0.0756586988928934,0.5227893406361441,3,left
7.9,0.28276369541303026,1.018751340079752,-0.0347395778484797,-1.388947088619329,0.7393829980796118,-1.305403711931258,-0.6186318679326783,0.07561818801957496,0.5227693013097962,3,left
7.901,0.3017572063648631,1.0121763140238325,-0.035492981532466175,-1.47812129025488,0.638443698910473,-1.2082675101116302,-0.6209715550826986,0.07745441680420642,0.5239307971494698,3,left
7.901,0.328632205425089,1.0016040888594264,-0.03298790843902308,-1.4105181228483952,0.714971492195621,-1.2819124834646938,-0.6181636401496349,0.07525204290223457,0.5225361216765245,3,left
7.904,0.35131814061362737,0.9913129551176887,-0.028890004162843076,-1.451279307932658,0.6688301723719867,-1.2375089285847531,-0.6203595853185722,0.07697177938785842,0.5236282078515395,3,left
7.905,0.37290171623490687,0.9810839347415757,-0.02422733895077662,-1.4347193939723724,0.6875628345601806,-1.2555361859427623,-0.619146691378216,0.07603047746368952,0.5230206217140843,3,left
7.9110000000000005,0.38739799174672496,0.9714541226429378,-0.016298011230083793,-1.4344354597599436,0.6879181769182132,-1.2558784243479022,-0.6194915814920278,0.07627833830608126,0.523203520715579,3,left
7.9110000000000005,0.39828379605827036,0.9605767073466448,-0.0042959299284215935,-1.4431983357865887,0.6779459429681968,-1.2462809475096426,-0.619681443634025,0.07646421875789419,0.5232789245720694,3,left
7.915,0.40573364767765907,0.9528679168696524,0.00956832246884045,-1.4327175507104601,0.689864698429964,-1.2577518604589017,-0.6192895879804211,0.07611189227078202,0.5231072846388319,3,left
7.916,0.4087320501420254,0.9479954633832672,0.023933123875073927,-1.4408578853079033,0.6806260709640799,-1.2488606953838541,-0.6196788845484487,0.07645290091879403,0.5232824061077606,3,left
7.917999999999999,0.40943139093730335,0.9425608530551695,0.036913060730685954,-1.4365335425846473,0.6854720953558917,-1.2535230648872435,-0.619334460076965,0.0761840267695287,0.5231107052123346,3,left
7.919,0.4075996800733088,0.9394943880539408,0.04591408114775483,-1.437369686174451,0.6846838738318524,-1.2527682438991787,-0.6197127511874211,0.07641150131434665,0.5233339512805897,3,left
7.9239999999999995,0.40709872530327607,0.9377553139886368,0.05711725522031461,-1.4388104368009729,0.6827795798734307,-1.2509291779249452,-0.6191908356537943,0.07615943444050782,0.5229943617035624,3,left
7.925,0.4052981150852615,0.9388388510685783,0.06968342856459736,-1.4364590190825148,0.6857773637543706,-1.2538221089085988,-0.6198874227324713,0.07647136338927069,0.5234601578312591,3,left
7.93,0.40096175205735773,0.9427835750158104,0.079819371182153,-1.4386160751094494,0.6830675117723548,-1.2512078317042437,-0.6191600775442088,0.07615073919679813,0.5229711475367663,3,left
7.93,0.3976623963705087,0.9467361107042416,0.09447586821383919,-1.4373563067747277,0.6844910850446743,-1.252577820450302,-0.619556282003602,0.07631721724808392,0.5232417943820639,3,left
7.934,0.39200881767348633,0.9538079083855125,0.10908696392352066,-1.4374004456845246,0.6849392170398322,-1.2530209540509314,-0.6200171286141967,0.07655389479512914,0.5235342818480986,3,left
7.935,0.3834377237987898,0.9644097327694435,0.11992445954578476,-1.4385589979703077,0.6824893728174104,-1.2506360423910399,-0.6181954193130372,0.07567046120096592,0.5223509189567173,3,left
7.939,0.3734673678484397,0.9772701127452008,0.13091651130500054,-1.4365291091207568,0.686485534897507,-1.2545226326488303,-0.6215386930905971,0.07728142895880628,0.5245282051474156,3,left
7.94,0.3564389934295106,0.9932965475479993,0.13642879742279634,-1.4387491086536122,0.6821620135025099,-1.2503181271743151,-0.6172534780227936,0.07521882677054262,0.5217360956054716,3,left
7.943,0.3337603045639284,1.0153506952095512,0.1451596934473852,-1.437377700511933,0.6847604658864872,-1.252844333652405,-0.6208280882778566,0.0769386226049342,0.52406594319866,3,left
7.944,0.3095028144019546,1.0418084949518405,0.17377950554559707,-1.4366350004554365,0.6865032514630772,-1.2545426340290677,-0.6207429413280319,0.07690091502656766,0.5240079784700018,3,left
7.949,0.2892568315244181,1.0626426229701433,0.21774336662443947,-1.4406047218518345,0.6780624125478333,-1.2463251594695786,-0.6138881594779521,0.07359189111351166,0.5195477600582754,3,left
7.949,0.2737777422659283,1.0682392954276931,0.2508316623472363,-1.4331130461590527,0.6938626951970714,-1.261706507412915,-0.6307233393298173,0.08171535546871847,0.5305053636085555,3,left
7.955,0.24490980175838697,1.0541403630641855,0.24951392722228966,-1.4427618163328502,0.6735416839476718,-1.2419238440682687,-0.6028123867021654,0.06824788358866188,0.5123372683160932,3,left
7.956,0.22057665717186914,1.0384026340807018,0.23771863877167088,-1.4346947752679937,0.6905196051093195,-1.2584530341648947,-0.6396278495295503,0.08601267152236164,0.5363027271780048,3,left
7.957999999999999,0.21379558861721695,1.0342992837119644,0.2357459935231372,-1.434958337182225,0.690009814815163,-1.2579545112546808,-0.7941706895938163,0.1605858809057686,0.6368956049870008,3,left
7.959,0.19076955288792752,1.0245056076349777,0.2332796289474921,-1.4501921671431912,0.6578020800413369,-1.2266028145332837,-0.830991222700499,0.17835573262788623,0.660866974942701,3,left
7.96,0.16360380775166744,1.0178377133097762,0.2439132154368906,-1.4126960498736065,0.737023138599145,-1.303723246708286,-0.8030731015833923,0.164880937603546,0.6426900166016277,3,left
7.962999999999999,0.152782427256367,1.0304941108637526,0.2565902959256017,-1.474879987020897,0.6056569509604689,-1.175836266708301,-0.8199121554845377,0.17300885134401234,0.6536539281759102,3,left
7.962999999999999,0.14695051806829712,1.0409810936376709,0.25413069027376267,-1.3928586809318948,0.7789280142966992,-1.344522567038029,-0.8130632822679394,0.16970453216922482,0.6491969048313689,3,left
7.968,0.1471902672287968,1.0426799507696423,0.2503299310195452,-1.0486395597585727,1.506174681659965,-2.0524777954617943,-0.8129572129247635,0.16964770380483646,0.6491200274792179,3,left
7.968999999999999,0.15101112142954234,1.0505690996505639,0.23091901741970988,-0.9666239072837803,1.6794370866039774,-2.221162932723396,-0.8165683942605535,0.17140211906401287,0.6514866300416872,3,left
7.97,0.159667542338308,1.062867674589179,0.18892083838533397,-1.0288017189633165,1.5480802569119694,-2.0932772046575887,-0.8122385517718298,0.16929604407175392,0.6486458806708995,3,left
7.972,0.1766560585426556,1.0738999294666112,0.1419545014712958,-0.9913033058253146,1.6273049132921555,-2.1703981382008326,-0.8156163284554945,0.17094248144188617,0.6508665123037007,3,left
7.973,0.19307308037917384,1.0887254549053431,0.10250131532786666,-1.0065573629140938,1.5950660325633867,-2.1390422204221715,-0.8137978068625897,0.1700578684289985,0.649673395818708,3,left
7.978,0.20935365845257414,1.1084630597621168,0.07609513845138696,-1.0067773615453528,1.5946232085536436,-2.1385527482798974,-0.8141879452284556,0.1702320985119571,0.6499086731989596,3,left
7.979,0.2267549412311458,1.1300485449929853,0.056459205629031534,-0.9987728150659514,1.6115051522179735,-2.155068986527181,-0.8147402893605016,0.17054377866354822,0.6503282024879408,3,left
7.983,0.23554273526773137,1.1573930610912337,0.04475818887077855,-1.0083593116080938,1.5912796663510549,-2.1352991891491064,-0.8137848988648633,0.17000503287784216,0.6496030655731988,3,left
7.984,0.2384877495874754,1.188574987610266,0.04156032482030495,-1.0008945839523093,1.6070388210295572,-2.150675043925313,-0.8147176899520057,0.1705504803504085,0.650336878735091,3,left
7.9879999999999995,0.2433977966389035,1.219604203084002,0.03628868076072488,-1.004917600440418,1.5985157471970703,-2.1424463869628765,-0.8140726891470972,0.17016327629978983,0.6498160980896969,3,left
7.989,0.24451001331103706,1.2517609632939286,0.02136809400557594,-1.0040029126080525,1.600523079358439,-2.144180477981412,-0.8142997902274729,0.17027213222764526,0.6499630419815163,3,left
7.992000000000001,0.24103736242856957,1.27929806967268,-0.00047653576397740927,-1.0029280222695358,1.6026659084039356,-2.1466451468101884,-0.8145280541806144,0.17052333595619185,0.6502988385563433,3,left
7.992999999999999,0.23591880250246802,1.303212019879334,-0.021964368545063673,-1.0047839335979099,1.5989013370901042,-2.1425160242192796,-0.8138807760728014,0.16988874904676377,0.6494496528483522,3,left
7.997000000000001,0.22557972196992848,1.327210587740129,-0.044086316639705386,-1.0030445920164142,1.602452196882638,-2.1463427236049,-0.8148173820915368,0.1708213483130056,0.6506976149005712,3,left
7.999,0.20919059604105913,1.3485741179583175,-0.06126712275971408,-1.0042050923086254,1.599997648360863,-2.143956799412947,-0.8138574573786279,0.16984587227079762,0.6493923055345894,3,left
8.002,0.19115826822574572,1.367937313879742,-0.06919101893019346,-1.0037115232858702,1.6012738319310855,-2.1445121730356327,-0.8144127735909035,0.17040964471243483,0.6501470049549015,3,left
8.003,0.17396943289546268,1.3836047142150125,-0.07696917234346495,-1.0036817594623546,1.6008063670272552,-2.1456265245106767,-0.8148049010588465,0.17085442328906053,0.6507410471291103,3,left
8.008,0.15685830459784134,1.3956121100933834,-0.08578027998122469,-1.0040029166694393,1.6009165666688165,-2.143392920592637,-0.812976042703701,0.16885466483906153,0.6480674932131685,3,left
8.01,0.14029408753687792,1.4036157702659033,-0.09340171131776084,-1.0036097516589975,1.6009094191155313,-2.145880896979167,-0.8163739149431881,0.1725657398182595,0.6530298395137502,3,left
8.012,0.1205632711367926,1.407918129612871,-0.09914822794011721,-1.0039170901908658,1.6007391140685154,-2.144274355738242,-0.8120172639625284,0.16780413407286415,0.6466619385774535,3,left
8.013,0.09527412120755058,1.411845342709336,-0.1027213763217444,-1.0037822601973958,1.601452759102971,-2.143724558956496,-0.8156522874241492,0.17177755266316225,0.6519770448401081,3,left
8.017999999999999,0.06346867518828034,1.4146822327930713,-0.1068082556961533,-1.0037201099491613,1.5997408835257585,-2.147499286415945,-0.815542214209406,0.1716662269117913,0.6518249778203185,3,left
8.019,0.028383250923070185,1.4182660135057823,-0.10917638052284874,-1.0039508423967356,1.602657710403288,-2.140250242104174,-0.8086559663179922,0.16410688709061544,0.6417209074385626,3,left
8.023,-0.006091367812456786,1.4243740646014682,-0.10659029835075096,-1.0036317059611866,1.59897448147693,-2.149616609589893,-0.825593495402851,0.18268900001601168,0.6665644264206598,3,left
8.023,-0.04847079638240931,1.4322161882995508,-0.0989359087415457,-1.0039032220003907,1.6020184097965744,-2.1417701701441914,-0.7975075197851832,0.15188008468019565,0.6253701550665115,3,left
8.027000000000001,-0.07914478753674745,1.4375498630392518,-0.0914999697764288,-1.0038676135360607,1.6020427370130461,-2.1420788785677614,-0.834553156494569,0.192515240095936,0.6797060168376987,3,left
8.027999999999999,-0.08696765725428,1.4399573670490131,-0.08852870320219312,-1.0034544176820255,1.595905051763964,-2.1567338744274327,-0.9899480198544219,0.3630851870756401,0.907694794999532,3,left
8.029,-0.11421382232593977,1.4483927674717834,-0.08168304022369921,-1.0044919860263986,1.6108491319582985,-2.120591135238608,-1.0269871714885803,0.40371920381956633,0.9620257759110129,3,left
8.032,-0.160213267126091,1.4629043693194665,-0.06945144032327766,-1.0027795503176806,1.5861266691733142,-2.18055987819724,-0.9989202818406662,0.3729104786094002,0.9208469225707957,3,left
8.033,-0.18098491636989195,1.4727350624887507,-0.06325072935024667,-1.005018564321904,1.61870438474141,-2.101442816455015,-1.0158177288641688,0.3914967503307942,0.9456565436195223,3,left
8.037,-0.18777704931729433,1.4752173321134339,-0.05985732097312399,-1.0145938166574402,1.7559072979105976,-1.7696625198308724,-1.008996341361279,0.3839257161480546,0.9356089808831265,3,left
8.038,-0.21008107938012485,1.4802801760911124,-0.05039154619612813,-1.016793058163537,1.7884474845744864,-1.690528315853721,-1.0088055921033865,0.38383446987929043,0.9353847833819136,3,left
8.039,-0.2316781268441176,1.4863445339045045,-0.03778775681915401,-1.0151236506602581,1.7637656214232265,-1.7505156043657708,-1.012509149064524,0.3877831674900425,0.9407637175100326,3,left
8.04,-0.2438447494150132,1.4832704232644394,-0.024165807992925253,-1.0161775958819408,1.7787251593433813,-1.7143799234285186,-1.0081431351100583,0.38304109644454065,0.934381712417838,3,left
8.041,-0.25420732104948995,1.4766563287140777,-0.010957252951710197,-1.0156216392695985,1.772452756921352,-1.7289733889877796,-1.0114357047740357,0.38675317964509603,0.9392583077610502,3,left
8.046,-0.2575140821263586,1.4689224528088725,0.005659141519406215,-1.0158931836370138,1.7727669245793836,-1.729414481586474,-1.009866839122167,0.3847149020730523,0.9368084795825005,3,left
8.047,-0.2587368499005955,1.4581664022848626,0.023524467047120468,-1.0157243168211432,1.7753952969827216,-1.7213782349275673,-1.0098549081125192,0.3852463503766852,0.9370458936335669,3,left
8.051,-0.259957552577516,1.4530533587557115,0.027621465051308566,-1.0158436948369598,1.7721258544566834,-1.7309336047500294,-1.0108603611405131,0.38568202949385244,0.9382084005352576,3,left
8.052,-0.2571755279299409,1.4524813045291838,0.023910680188997308,-1.0158852442159385,1.774864178363409,-1.7236030206399873,-1.0096093390248608,0.3848411891715494,0.9366221066380215,3,left
8.056000000000001,-0.24936104795660907,1.4512691786205534,0.020584933559525245,-1.0154464724091277,1.7727968915264114,-1.7272154237430488,-1.0103875786627479,0.38570018059993316,0.9377661395765005,3,left
8.057,-0.2319869151917124,1.4527191940326505,0.009436425438444423,-1.016524733562673,1.774655262285247,-1.72718847379598,-1.0106377988890043,0.38498725318913707,0.9376710548667706,3,left
8.061,-0.20957613643679507,1.4573718045633255,-0.009683373202464225,-1.0147419286900201,1.7725126336746406,-1.724681071174007,-1.009097564121232,0.38555334161437804,0.9364674252692785,3,left
8.061,-0.1872787341839207,1.4630047976353375,-0.03449367969311321,-1.0169138261903352,1.7749259293573405,-1.7282746030923826,-1.0117363086832247,0.38508333602191547,0.938763439472412,3,left
8.065,-0.16252089011529314,1.465632576743297,-0.057465440527426095,-1.0151900928602249,1.7731065729366553,-1.7251596377696887,-1.008798634568591,0.3854472087345911,0.936132702315756,3,left
8.066,-0.1338456030797982,1.4683213938280282,-0.06740654278614819,-1.0151418727601522,1.772621594407123,-1.7262660407952053,-1.0105795939902562,0.38532912800674163,0.9377756061334086,3,left
8.07,-0.10040275785750769,1.472304795027025,-0.06707729206370319,-1.0184436148174822,1.777479254093317,-1.7284572041878805,-1.0118549602152411,0.3849407757229627,0.9388098009684618,3,left
8.071,-0.06666300450396234,1.4726821944573367,-0.06282736449440687,-1.0109309898362056,1.7668404188198532,-1.7223331270841251,-1.005794048458145,0.38611146766800464,0.9335788290167593,3,left
8.077,-0.0350924840864867,1.46963605010396,-0.05521967836532774,-1.0221302033296085,1.7826004421318482,-1.73173640649566,-1.0171471714332705,0.3840657280898919,0.9434463366696999,3,left
8.077,0.003746278864383416,1.4577078988858219,-0.04265645580958944,-1.0101937216065877,1.765821178392784,-1.7216626842867155,-1.0025286290186508,0.38664688847933765,0.9307157868071749,3,left
8.08,0.04225986012373752,1.4422670978178043,-0.03066137695261078,-1.0170872697080569,1.7754828363807817,-1.7275618145520633,-1.0147497844117597,0.3845120911129309,0.9413695409822231,3,left
8.081,0.07826400695740163,1.4201326667559029,-0.01758282655734043,-1.0230442175470558,1.78397502184542,-1.7322575755420544,-1.0143932651631005,0.384538145549776,0.9410414071428539,3,left
8.086,0.11943936357480864,1.3879334801502876,-0.0005404354276178844,-0.9969992169145124,1.7470783423327796,-1.711069497695349,-0.9911587402303137,0.3886923173339732,0.9208323986964406,3,left
8.088,0.15288917416989056,1.3577587613461537,0.009694309319902639,-1.045293641128071,1.8154536515923403,-1.7504777955699777,-1.0483029545638836,0.3785295475695305,0.9705617117529002,3,left
8.09,0.192002234345941,1.3122307034439715,0.023935246467079098,-0.9832849158804564,1.7276693973478792,-1.6998500856622214,-0.9535423544740825,0.39535918977055357,0.8880855369230409,3,left
8.091000000000001,0.22407939694672874,1.2799058567621437,0.03846574663040503,-1.0350483437780857,1.8009484663250324,-1.742126708721189,-1.0785343418028939,0.37317276301726887,0.9968807224738636,3,left
8.095,0.23306063312820613,1.2716001326444353,0.044108673436664456,-1.0336582181894527,1.7989891153877617,-1.7409430831273587,-1.603167307206419,0.2800218448478011,1.4535175033914813,3,left
8.096,0.2596067133739509,1.2334019524817923,0.06139834345537782,-0.9349285947199707,1.6591884270916633,-1.6604598895393146,-1.7281536851846662,0.2578566158350691,1.5623203865852253,3,left
8.097000000000001,0.29565959548024856,1.1865424301634415,0.0846035349924901,-1.1775727662377091,2.0027667131744753,-1.8583234008966656,-1.6334005455999894,0.2746460369980662,1.4798269706532863,3,left
8.101,0.331014397608954,1.139614774662268,0.1146427791578096,-0.7752730222506269,1.433114760949942,-1.5302457074400602,-1.6905421392629962,0.2645357735025009,1.5295846853558284,3,left
8.102,0.35954983286660147,1.1004853208224525,0.14140406874254569,-1.3058892382573641,2.184470886383145,-1.9629782786081278,-1.6672976442657523,0.2686397923492703,1.5093382200428171,3,left
8.105,0.36702754533773924,1.0911854195071018,0.14839653870155067,-3.5333183686212983,5.33843418093165,-3.779323734606786,-1.6669693656547298,0.26868942708104937,1.5090471997122856,3,left
8.106,0.39449339608384104,1.0550370716151827,0.17141595109019925,-4.063910150726583,6.089774029759928,-4.212049839120899,-1.679144593686712,0.2665883385189892,1.5196825517481982,3,left
8.106,0.43455288301420414,0.9984878842608335,0.2052347717652151,-3.661636830332749,5.520139679504922,-3.8839791391177094,-1.6645785771505868,0.26905159025056763,1.506926842634925,3,left
8.11,0.4636974673611109,0.9561893545752669,0.22303274678450277,-3.904291099772676,5.863724692534484,-4.081845322239983,-1.6758964207407678,0.2672133555570675,1.5168859572121485,3,left
8.111,0.4990561946827062,0.9114436674105222,0.23629526627588784,-3.805473696302501,5.723865529251505,-4.001338898406985,-1.6698194797184214,0.2681243660257367,1.5114905138284203,3,left
8.115,0.5327831322744896,0.8698663647617277,0.24619150502103973,-3.8042723804187313,5.7220319543101255,-4.000205240747238,-1.671196483619627,0.26795163542918166,1.5127344122955306,3,left
8.115,0.5621403743420754,0.8313138865546399,0.2512194260905026,-3.8557651415898304,5.79513071831404,-4.0424102318344035,-1.6727739539017774,0.2678144429303595,1.5141976942866529,3,left
8.12,0.5911807536977374,0.7937807831144799,0.2569922790159742,-3.7940258838550687,5.70752596986499,-3.991853837547105,-1.6701160871140237,0.2678276342002118,1.5115944612531358,3,left
8.121,0.6142452115485433,0.762606933035063,0.26293742084125926,-3.842204149367203,5.775823900596261,-4.031231391676656,-1.6724869144559367,0.2681959250133866,1.5141567290778626,3,left
8.124,0.6299642121490769,0.736094335269927,0.26534508671115165,-3.815927496785341,5.738772904752792,-4.009982010610151,-1.6710473487020034,0.26748367160471465,1.5122921449689342,3,left
8.125,0.6397426185508619,0.7165941464448411,0.268095934450295,-3.822630216942865,5.747761888548768,-4.014875136582929,-1.671558661758291,0.26816415422583606,1.5132245607275157,3,left
8.129,0.6466406577629997,0.7041995334856772,0.27608707075178385,-3.828239019604619,5.756567711073044,-4.0204342610065265,-1.6715526514467807,0.26817222481167646,1.5132237688350383,3,left
8.13,0.6496240133926683,0.6991115215371252,0.28519834072375444,-3.817878975603187,5.740838592732595,-4.010777745082994,-1.6716231471790706,0.26672857536357375,1.5123807409199475,3,left
8.133,0.6514945746319736,0.7004133031505508,0.29712135598701295,-3.8278217757719752,5.755761657243745,-4.019848506270268,-1.671031848758835,0.27010376188735546,1.5139326172407497,3,left
8.135,0.6548753770278761,0.7063733458967003,0.31578672740548563,-3.8202970360062043,5.745114747031927,-4.013721238629959,-1.6722682738516554,0.26500593761352886,1.5119260743217748,3,left
8.139,0.6587196773355819,0.7157789428904922,0.33715792127408406,-3.82593245477354,5.751526994351107,-4.016529989088231,-1.6707430978190212,0.27047684824858875,1.5138846234218883,3,left
8.14,0.6648247942599107,0.7258919461894788,0.3557506522231786,-3.8205526739474807,5.747490385041145,-4.0162254130128705,-1.6716905682254888,0.26730435186350227,1.5128108960765396,3,left
8.144,0.6732320988697278,0.7325315544549214,0.36859225222638,-3.8267814250106134,5.750968585980868,-4.015215067574266,-1.672534742596754,0.26456366334844994,1.5119083463885317,3,left
8.146,0.6865303058530835,0.7345662818973747,0.3755966724518871,-3.820477427837108,5.747735663850905,-4.016565432589973,-1.6687603744630373,0.27657014967754606,1.5157870155526272,3,left
8.15,0.7044874197822796,0.7352488312408335,0.37750973887851136,-3.8235891196842187,5.748853485857255,-4.015353415480394,-1.6758361790275673,0.2542914165636857,1.5086610683794777,3,left
8.15,0.724620548110074,0.7285378333474515,0.3747534549107684,-3.828895675202095,5.7535285811723895,-4.016445395033438,-1.6666977139835237,0.2829068522744247,1.517764446621344,3,left
8.154,0.7450120147666919,0.7166477018213309,0.3670550436940846,-3.8099710028420035,5.739146833230121,-4.015165597849789,-1.6743501876597837,0.25901444906740523,1.5101857765523488,3,left
8.155,0.7661982277621775,0.7014634101926231,0.35822494288348805,-3.8442869476496355,5.764717152619949,-4.016905691608931,-1.674145691565042,0.259657659874836,1.5103907433275627,3,left
8.158,0.7906914336817332,0.676386137114872,0.3508253233974592,-3.800404053210978,5.732135471435943,-4.014815762056529,-1.6595067044909224,0.30523124242464694,1.5248064687632268,3,left
8.158999999999999,0.8177690714513874,0.6518908864517505,0.34261820710490476,-3.8369593557993857,5.7592277855243506,-4.01649890684887,-1.6955014268218842,0.19322058073078408,1.4893914278009268,3,left
8.163,0.8549782491330489,0.620832165162543,0.33887458821838534,-3.836262281360849,5.758896533851424,-4.016682975153576,-1.6358056782322103,0.3789373891587656,1.548094487495661,3,left
8.164,0.8803416983539599,0.5960308241659076,0.339685621416195,-3.765620639696143,5.705936878885839,-4.012729354196754,-1.7145556865819402,0.13398043004859053,1.470679340362371,3,left
8.164,0.8843155992554711,0.592028932796826,0.34023400409812293,-3.9388839267990665,5.8356128915779335,-4.022167315611089,-2.0451410909241847,-0.8942821826198049,1.1457159426819763,3,left
8.168,0.9069273732659042,0.5643271786059652,0.34248333519724994,-3.6517260337568795,5.620754743298114,-4.006602256206582,-2.123903041944337,-1.13923379402173,1.068317332662581,3,left
8.17,0.927614882653135,0.5350919338761151,0.343796963243303,-4.030435618890014,5.9041030944440696,-4.027108195758752,-2.064187277984183,-0.9535215122713331,1.1269963267865766,3,left
8.173,0.9294292475943351,0.5320960587580799,0.34355923592221715,-5.620685273672278,7.094210369331787,-4.113597043248131,-2.100202213698743,-1.0655388345951917,1.091596347535067,3,left
8.174,0.9447696503957568,0.5109302799980281,0.3427167227998391,-5.999315458841151,7.3775043383204535,-4.134080719424688,-2.085554284435567,-1.0199368649330816,1.1060263426904142,3,left
8.174,0.9595332384719418,0.4832691201554174,0.34102949101637725,-5.712298258203642,7.162754671176217,-4.118563980809908,-2.0853344203307564,-1.0193485897061252,1.1061704896066535,3,left
8.177999999999999,0.9647413142393509,0.46492684292244574,0.3420080730842485,-5.8854001618143705,7.292277224580456,-4.127925268723943,-2.093036637685599,-1.0431671447255262,1.098703135826946,3,left
8.179,0.9678577173125094,0.4441006307350651,0.3409011429674632,-5.814873627433688,7.239484902890618,-4.124068703256327,-2.083814024417352,-1.0146191025205835,1.1076655446096684,3,left
8.183,0.9650881762539033,0.43158513584988345,0.334604799419447,-5.814196156074058,7.239035790933798,-4.124162163555283,-2.090990419261483,-1.0368801664511893,1.1006563624441639,3,left
8.184,0.9627909589519591,0.4230248214852663,0.32848702949158687,-5.8505093646000885,7.266103195572817,-4.125880571130018,-2.0871401794972027,-1.0247895157139015,1.104527177625197,3,left
8.19,0.9583407510714036,0.41507720944440496,0.31974058884129086,-5.807134849944766,7.2337885279121386,-4.123873761240047,-2.087973944109918,-1.0277560922098186,1.103428184643283,3,left
8.191,0.9532186202220806,0.411810574466252,0.3078919159601953,-5.8407350355625685,7.258793837612375,-4.125358421818159,-2.0890839751259715,-1.030565044725869,1.1028187918326058,3,left
8.192,0.9526317215285615,0.40924860284665726,0.2988045047039219,-5.822517695751118,7.245219293472701,-4.1245132110620055,-2.0872057726581814,-1.0255130432839437,1.1040738869210225,3,left
8.193,0.9514480842629953,0.40995715869779714,0.28892382442860653,-5.8275135007637076,7.2490771836361905,-4.125075647798742,-2.0889528825476082,-1.0303175819269033,1.1028276558330032,3,left
8.197000000000001,0.9496528080963457,0.4135960279701909,0.2792503349595104,-5.8300436994684395,7.2505910167994125,-4.124282015299417,-2.0878386384827192,-1.0268461515640976,1.1039272710949688,3,left
8.199,0.9469881944676862,0.41615792170708665,0.273322412668082,-5.825639173330522,7.24794659221374,-4.125643434916618,-2.0881711612319838,-1.0290487864485003,1.1027260270361827,3,left
8.202,0.9440963824858088,0.4185101234883116,0.2662638417698585,-5.828582602053563,7.24935090778242,-4.123840940102182,-2.088523853204972,-1.0274761408627398,1.1043771296339682,3,left
8.203,0.9439127078238423,0.42167469765347143,0.2594278683715915,-5.82724941975272,7.248989034271887,-4.1253321453904315,-2.0877313484691316,-1.0289933078546798,1.102176257645989,3,left
8.207,0.9418886339102895,0.42321084990072744,0.2512964943460301,-5.829632909058234,7.250778928678423,-4.1254758362058634,-2.0886255821431163,-1.0275303553385502,1.1044732305622453,3,left
8.208,0.9368864034881264,0.42211984217184007,0.241079091708676,-5.822143863177983,7.243993954536608,-4.122167698236135,-2.0880309154665424,-1.0281318604108205,1.1032238007515822,3,left
8.212,0.9318581814248711,0.4207252758451582,0.2337799580748552,-5.83796593109503,7.258531187488867,-4.129656846096612,-2.0879052837016774,-1.0298579487947404,1.1017628906619654,3,left
8.213,0.9229114085370473,0.41788438632263986,0.22515683835780492,-5.814063515564277,7.236621442171947,-4.118468520409661,-2.089087949071577,-1.0242803951588968,1.1075271207144028,3,left
8.216000000000001,0.9110553078858656,0.41160771362325066,0.21853678307303992,-5.839940883730684,7.260273984139179,-4.130416889846655,-2.086781104725799,-1.0342672773419859,1.0969520254824656,3,left
8.217,0.9015782781080963,0.402445879516774,0.21620443465173284,-5.824994393999306,7.2466126699886955,-4.123513471818319,-2.0897678181502752,-1.0215236552217943,1.1105036966792543,3,left
8.222000000000001,0.8918791801045807,0.39060487198503496,0.21201590523887293,-5.811224392279693,7.234170271558849,-4.117514450158865,-2.0872655924948798,-1.0321303018047114,1.0992032163758796,3,left
8.222999999999999,0.8819646404578101,0.37409222381731355,0.2144267592975427,-5.8703388429831085,7.2877571122176565,-4.143706496375912,-2.0873694620682177,-1.0319674291166387,1.099463102741963,3,left
8.228,0.8751911639058676,0.3562196984159982,0.22208362112098332,-5.760770393810577,7.188427380911099,-4.095136371505912,-2.0920187371597017,-1.0113350706763162,1.1211557746546967,3,left
8.228,0.8661672716660366,0.33656268566739983,0.22987055781003277,-5.901531908709566,7.316021476701216,-4.157506640217445,-2.0805520520752454,-1.0619006536786522,1.067897666951731,3,left
8.231,0.8526516596539409,0.3077347053970034,0.2460982922882949,-5.78398791075203,7.2094816000111965,-4.105435088191757,-2.0995705778126146,-0.9780981341302752,1.1561798522479139,3,left
8.231,0.8427291668868013,0.28744055707319177,0.26042022265621456,-5.787067377840881,7.212279820842772,-4.106839391133786,-2.07449022327192,-1.0886305046149038,1.039747352616177,3,left
8.232000000000001,0.8377416605458411,0.28334962333713554,0.26572585953390193,-6.011618040857075,7.415764412355568,-4.206150937319753,-1.969205142967841,-1.5527645107339418,0.5508488385715039,3,left
8.237,0.8224671702884419,0.26605861525230645,0.27858710117507884,-5.459789021659574,6.915709202709669,-3.962059248735005,-1.9441396744135286,-1.6633128944533473,0.43442857474770713,3,left
8.238,0.7883579432135285,0.23638742292116594,0.30473901803647135,-6.374739215188736,7.744803999489045,-4.366774693141499,-1.963142093148949,-1.5794930481527973,0.5226975207231337,3,left
8.241,0.7642055818406421,0.22254196911024987,0.32279999387418606,-5.167916466588417,6.6512401396004295,-3.8329559014671766,-1.9516692873187231,-1.6300520470541042,0.46943438152522293,3,left
8.241,0.7555950600479289,0.21787223845742942,0.33013834763271493,-0.10188557080516047,2.06055415356706,-1.5922447720138646,-1.9563719766055079,-1.6094771473335165,0.4911709591093313,3,left
8.243,0.726449890916259,0.20216934653066765,0.3553684817003063,1.1049475780944382,0.9670057440346089,-1.058423608779733,-1.9563609123222787,-1.6091906377993759,0.49133637216169546,3,left
8.246,0.6835704759105401,0.18327220085397883,0.39018536819567756,0.1899689372102315,1.7960966807819292,-1.4631425469386512,-1.9540234836766341,-1.6199745602613045,0.48017135119780047,3,left
8.247,0.6458933767389315,0.17128984895188265,0.4162843796318998,0.7418545814690554,1.2959895763493012,-1.219048547666591,-1.9568460872013262,-1.6070544012066044,0.49358812844471817,3,left
8.251,0.6100631086459223,0.16277986343348522,0.4443435630610362,0.517215683311677,1.4996234960265902,-1.3183583581729144,-1.954610065251135,-1.617117469093788,0.4830712462122606,3,left
8.252,0.5806629555604275,0.15444820739067355,0.47211307354805704,0.5142421819250628,1.5021631362098624,-1.3197709221940999,-1.9559336260400333,-1.6116914791823134,0.488951291103922,3,left
8.256,0.5611102728838391,0.14392929226071105,0.49471219070445166,0.6317014067466666,1.3959437974944464,-1.267683901333521,-1.9553540838643562,-1.6129292865725025,0.4871172749324442,3,left
8.257,0.5514665953814046,0.13415780731815674,0.5153135616181547,0.49094041428447216,1.5232814300159687,-1.3300741008927457,-1.9555415505449611,-1.614372149788629,0.4865107419693131,3,left
8.261000000000001,0.5469106372205645,0.125826359179395,0.5267950451861361,0.6006644346970305,1.4239458720707683,-1.2814869690695692,-1.9554758821532388,-1.6118766085513063,0.488018698639239,3,left
8.261000000000001,0.5492307459134004,0.11490270301518836,0.5248776782100055,0.541190525775478,1.4780213644573503,-1.3076812734542478,-1.955448699941127,-1.6142170518177463,0.4864468992423538,3,left
8.266,0.5628108772431721,0.10393998604831882,0.5166266994986686,0.5555008563698046,1.4644666394359407,-1.3017083039634996,-1.955808114899553,-1.6126516355084548,0.4881035371099065,3,left
8.267000000000001,0.5795242277709951,0.09267691515507784,0.5034540806688823,0.5698668869271293,1.4524598113837004,-1.2947410804818462,-1.9547206245523407,-1.6133267336912973,0.48573506303065417,3,left
8.271,0.5985482440607292,0.07992641705840109,0.4831245820588617,0.544329711907455,1.474360152382277,-1.306787838634821,-1.9568517587476644,-1.6133464273998117,0.4895023151722117,3,left
8.272,0.623311057940477,0.0712383358955086,0.4589667796586784,0.5685167319829103,1.4534317686871625,-1.2954910793218124,-1.9537571510442064,-1.6129426203762414,0.4842763011042949,3,left
8.276,0.6518594239290705,0.06636929726783704,0.4328682901454317,0.5514179788500999,1.4689341950631642,-1.303048290322391,-1.9570405056242826,-1.6134430295604605,0.489774063709485,3,left
8.276,0.6817703934062832,0.06300361234061354,0.406257235036276,0.5613129564443741,1.4581343196964682,-1.2997830474069967,-1.9551679364372074,-1.6130435151825173,0.4867130778346318,3,left
8.281,0.712281944653749,0.06307747940675151,0.3802757793673529,0.5557523757092795,1.467364036600509,-1.2997034483865009,-1.9534313720602374,-1.6132451582528713,0.4835012770371898,3,left
8.282,0.7442818710269237,0.06616931820753869,0.35411556458922844,0.5599633322572679,1.4572952868042548,-1.3016282400147512,-1.960831707729341,-1.6132569672684034,0.49661986997160623,3,left
8.286,0.7746591517456538,0.07186432112167362,0.3287819970306932,0.5562353740431814,1.4673402190475535,-1.2992403216384099,-1.9471431075278116,-1.61307313299893,0.47246010084608314,3,left
8.288,0.802868999957032,0.07991381261789114,0.30611833788569637,0.5571876740994345,1.4626234078569529,-1.3011507489543677,-1.964712906470526,-1.6133462323220988,0.5034452315528111,3,left
8.291,0.8294408688481321,0.0891112708334175,0.2855977081305621,0.5639599391837558,1.4531701784801165,-1.3001678117618143,-1.9500462995420258,-1.613102231768167,0.4775913543736768,3,left
8.292,0.8495408064897708,0.10273823201511639,0.26595906201134506,0.5440637118609716,1.4857257168814506,-1.3001659005836514,-1.9504348084422214,-1.6131682128674862,0.47823529617473354,3,left
8.296,0.8650234384666468,0.11924971930223693,0.2498176258730791,0.5792021767422446,1.426940327159501,-1.3009452969360538,-1.9784323933776555,-1.613441396198441,0.5277193176185595,3,left
8.297,0.8767348758079079,0.13395328899159503,0.2396614011251812,0.5344786203256803,1.5020699906384538,-1.2997716968436748,-1.909624514002458,-1.6126975323477977,0.40615696190541917,3,left
8.3,0.8830441831337156,0.1519668483237255,0.23262688215624946,0.5716540541709867,1.4394869603950724,-1.3008196617797645,-2.0237127798514596,-1.6139521360201285,0.6076992022807366,3,left
8.301,0.8876275717965477,0.16701006856691059,0.2285903239477525,0.5712659331290235,1.440639561888129,-1.3005261636944139,-1.8732270753412616,-1.6122928329607422,0.34186420754294417,3,left
8.301,0.8880143841663417,0.1719219628125747,0.2286990842536859,0.4983566419337969,1.561760167867781,-1.2994026179791618,-1.241673104022254,-1.6055046829348418,-0.7739621078463503,3,left
8.305,0.8846360062379411,0.1836613871261774,0.23162447697007338,0.6768264716371426,1.264687809984559,-1.3024720817839799,-1.091190427242734,-1.6038561246276175,-1.0398010581492416,3,left
8.305,0.8811110117261407,0.20685637760905073,0.2380808571127827,0.381108203076152,1.7570969296352867,-1.2973082055867724,-1.2052593434577275,-1.605086772326441,-0.8382669799234046,3,left
8.311,0.8779848993774975,0.22092399857625258,0.24257343679678572,0.7711395725853967,1.107611127316844,-1.3041198314516707,-1.1365071521127301,-1.6043821632927808,-0.9597836387197509,3,left
8.312000000000001,0.8766919547861356,0.22519415173379065,0.24542575602463146,2.4093355826506206,-1.6189900470963783,-1.3324905414632666,-1.1643982283954402,-1.6046038654630588,-0.9104046663002625,3,left
8.312999999999999,0.8727879510070221,0.23963266125090307,0.2548630846946246,2.799451753008187,-2.2685323214265916,-1.3392734287013726,-1.1649374906946535,-1.6047204608499124,-0.9095953935347583,3,left
8.315,0.8657188446089956,0.2608231894775976,0.26507935319891146,2.5036194863979215,-1.7761122652588677,-1.3341202018361802,-1.150117512568957,-1.604452049533245,-0.935637728507308,3,left
8.316,0.8599428299804687,0.27960082219973603,0.2701935485040775,2.6821332279280616,-2.072983708355944,-1.337273904524412,-1.1677616210362975,-1.6046893008313812,-0.9045256305841718,3,left
8.32,0.8524856374066148,0.29948229192955667,0.27467474356835947,2.6093658086014226,-1.9524320716750236,-1.3358979327371174,-1.1541865733042842,-1.6046326416558316,-0.9286274710818405,3,left
8.321,0.8407347550933788,0.31910895286547547,0.28136063854991344,2.608563894314928,-1.9502999703496569,-1.3360478286232516,-1.1611875657765252,-1.604417833801891,-0.9158776228152782,3,left
8.324,0.8296472888104477,0.3383853804960846,0.28605722675721956,2.6464195203554866,-2.0140914876934546,-1.3365399035151762,-1.160160151863253,-1.6049066464029687,-0.9183484066111216,3,left
8.325,0.818514669306514,0.3569143897321315,0.2874277489026229,2.600910092633078,-1.9380031413536352,-1.3358201177840305,-1.1573934016061949,-1.6042637293226467,-0.9224325305992276,3,left
8.329,0.802764858782776,0.37539488152090583,0.2896920766966256,2.6365892041851744,-1.9967477534446858,-1.3365889075442856,-1.1614260849091411,-1.6047958480788067,-0.9159485308434512,3,left
8.33,0.7866798944714017,0.39317386292683276,0.2899170515479974,2.6169033772736094,-1.9660625644800527,-1.335770542662508,-1.1582541200586074,-1.6047657058175748,-0.921558284709187,3,left
8.334,0.7704206331222445,0.4070305381652123,0.28869210283918356,2.6221988780778602,-1.9712923238630888,-1.3366834412685273,-1.1591872124028515,-1.6038701955303298,-0.9187212540138787,3,left
8.336,0.7520597408012653,0.42088697187982094,0.2902173851640676,2.6261493182335505,-1.9822636297504468,-1.3357440794291908,-1.1609905135186236,-1.605959379153366,-0.9182511302489031,3,left
8.339,0.7338309437050952,0.4339224842321737,0.2911550226836058,2.6182601221663715,-1.965629064209999,-1.3364108803442634,-1.1569143752441415,-1.602827660391093,-0.9214012892856464,3,left
8.34,0.714286743084638,0.44477706187524,0.29295867368499295,2.6265084470566236,-1.9793284527125539,-1.336561738181934,-1.1617666092125565,-1.6061717112636664,-0.9171471893349176,3,left
8.344,0.6937825282744186,0.455464454503957,0.2962778936601222,2.619326507996738,-1.973867747156048,-1.3349434360191323,-1.158623248433579,-1.604235608928461,-0.9202058046399255,3,left
8.344,0.6736776116222694,0.4636322783124333,0.2974240588331365,2.6255318361318505,-1.9693566338573594,-1.3384643147911008,-1.1569698865581701,-1.602578888617389,-0.9209751425322732,3,left
8.347999999999999,0.6531154624570485,0.47122794644786287,0.3002101042928189,2.619870004388364,-1.9820701411007824,-1.333274073571824,-1.1661541965692286,-1.6098522246732814,-0.9141635059103994,3,left
8.35,0.630751758102561,0.47976548475313113,0.30616754911445887,2.6245897143820036,-1.966327920626956,-1.3387842762855284,-1.1486619091542365,-1.5963581104856914,-0.9276092519204178,3,left
8.362,0.6063157596318433,0.48519018225415456,0.31209512146738794,2.6227449649026013,-1.9768911721746105,-1.3356157461860794,-1.1712879664968687,-1.6136876668634732,-0.9100515856038698,3,left
8.363,0.5839758573843821,0.48938932965766657,0.3179391876467588,2.618412241186854,-1.981435144982481,-1.3328367308568851,-1.152329883888529,-1.599218337909712,-0.9248324153915093,3,left
8.363,0.564780309362396,0.4943037989411697,0.326103173484689,2.6323141955713862,-1.9531330680263193,-1.3449112262874614,-1.152947806721175,-1.5996134778587683,-0.9242439934091806,3,left
8.363999999999999,0.5462267207257853,0.4962516375804732,0.33418506072115217,2.6077287677161154,-2.007606889025507,-1.3225396014549586,-1.1888174090835713,-1.6271948440101678,-0.8965616687512181,3,left
8.363999999999999,0.5294644634554144,0.4972930606405218,0.3381283126907989,2.638866311960463,-1.9369450426496213,-1.3512585212026393,-1.1005047145335185,-1.5593968124754451,-0.9648722561781686,3,left
8.365,0.5149084083636901,0.49802271643530094,0.34457547927924675,2.6130538214016594,-1.9962367236382657,-1.3272854961948775,-1.2469850481208309,-1.671813259650508,-0.8515100939978049,3,left
8.372,0.5065829117622831,0.49635895236859806,0.35250722887558994,2.613470613549135,-1.9941726142029645,-1.3279299285285062,-1.0537620041442972,-1.5235326926516413,-1.0010678413307783,3,left
8.373,0.5035133696239656,0.495067917493692,0.35524800925641703,2.663439052913774,-1.8823391927641449,-1.3736536210661945,-0.2427356473169195,-0.9011692489243525,-1.6287337966134743,3,left
8.374,0.4959059871693904,0.49272485774295294,0.35977605915213007,2.541031309036887,-2.1578714993929697,-1.2612764834382908,-0.04951734106205105,-0.7528824146012963,-1.7782912408676341,3,left
8.374,0.48829740519950643,0.48961988058343414,0.3675465161279031,2.7438334810851197,-1.7007842808572624,-1.4476010419193128,-0.19600506742422186,-0.865305776965992,-1.6649072902582802,3,left
8.375,0.4872580700155733,0.4895309928269075,0.371449194572209,2.476396648572748,-2.303758210378515,-1.2018399202062455,-0.10764608183790542,-0.7975098485060466,-1.7332963390624787,3,left
8.378,0.4869618244667355,0.4892090272723354,0.3729706901362281,1.3536008339999857,-4.834450443957399,-0.17026086620044487,-0.14362410159316605,-0.825069703094006,-1.7054514280606468,3,left
8.379,0.4849925410762354,0.4863657810705074,0.3778461356732745,1.086180088575158,-5.437404897720335,0.075502965855237,-0.14406982097984894,-0.8255117832906498,-1.7051049403278,3,left
8.379,0.4872327686841708,0.4848314444278292,0.3843681963477815,1.2889291747503238,-4.9803016168752094,-0.11082534594628463,-0.12530974968902836,-0.8109746268241775,-1.7196252639763774,3,left
8.383,0.4932944181360605,0.48471739448159273,0.3907142878394002,1.1666411930907767,-5.255973466686283,0.0015535840587089095,-0.14779970150127555,-0.8283723806755283,-1.7022191128052844,3,left
8.383,0.4970356987044067,0.48438098575784194,0.3961593840076755,1.2164068184594992,-5.143798988840048,-0.044166375791988885,-0.1302527321072578,-0.8148476234413862,-1.7157998387213311,3,left
8.388,0.5037166072454553,0.4867575459317528,0.39719408607128626,1.2170859282183095,-5.142287555235662,-0.044822844192956825,-0.13981523855200964,-0.8220652020109449,-1.7083964271496495,3,left
8.389,0.5138286985397118,0.49089926162635067,0.39470152992607277,1.1910366839385946,-5.200931839581743,-0.02082935550194505,-0.13739317344287494,-0.8205929166305308,-1.7102777920162313,3,left
8.392000000000001,0.5210759519996015,0.49481946401967397,0.38960865594948935,1.222235915615459,-5.130733516165302,-0.0495726582778427,-0.13531908809945253,-0.8183362861899852,-1.711871248710557,3,left
8.392999999999999,0.5295695154043609,0.5008957861249075,0.38430549756579535,1.1979471131165529,-5.185343712954802,-0.02718307389851535,-0.1391301273410802,-0.8220766143871221,-1.7089363679637366,3,left
8.397,0.537272224723514,0.5072651093233189,0.37971958136855144,1.2110512661034072,-5.15586852792215,-0.039253773296051175,-0.1354790567283368,-0.8186246178545449,-1.711750322108163,3,left
8.397,0.5399632057795447,0.5111821633717641,0.3728806569437969,1.2080070990455456,-5.162857932764021,-0.036516472860541285,-0.13821867358212248,-0.8207209543079871,-1.7096297374401725,3,left
8.402999999999999,0.5445299833424035,0.5137712206545744,0.36819541381110377,1.2046695699311405,-5.169964712393516,-0.03325933131471119,-0.1362233366622391,-0.8203968346158079,-1.711196600630627,3,left
8.404,0.5531661424933788,0.51477342953835,0.36766532942103003,1.210448709886072,-5.157660216661693,-0.03889604553627453,-0.13805308174451753,-0.8190427314553874,-1.709728937899677,3,left
8.407,0.5613290551479739,0.5141851333420879,0.3656336448665234,1.2050965510533445,-5.168834896251194,-0.03357842356445215,-0.1359773974786198,-0.821564508133768,-1.7114123400261425,3,left
8.408,0.5669962091989942,0.5138443901887646,0.36149821330818543,1.2086470620866172,-5.161542323463443,-0.03715918549675655,-0.13806817951870806,-0.8187828170749667,-1.7097121180563697,3,left
8.412,0.5715530111527813,0.5136553591121358,0.35614557372036987,1.2069878802746619,-5.1652886458881015,-0.03563734607800273,-0.13705276488141835,-0.8205376469365652,-1.7105454521087566,3,left
8.413,0.5766176681704329,0.5142960240559252,0.34794686402637676,1.2074335685027013,-5.162963059511368,-0.0354569677611246,-0.1352238092760296,-0.8213193714224447,-1.712001824398659,3,left
8.416,0.5804114392310918,0.5160122620933414,0.3398919866315831,1.2073267101845857,-5.166223663166029,-0.036706907220264,-0.14166671821948204,-0.8167016578005117,-1.7068363787435317,3,left
8.417,0.5839340451126085,0.5164276437734001,0.333577778610941,1.2076976777319928,-5.160881795018637,-0.03503653867620918,-0.1300006318347972,-0.8254812218454148,-1.7161973227739398,3,left
8.423,0.5863566123660944,0.5165575174535624,0.32691409258147075,1.2070213637017375,-5.167209794246487,-0.036559359206909586,-0.14491638793168182,-0.8141593469123007,-1.7042268912272522,3,left
8.424,0.5837454851665909,0.5172668465209116,0.32044455335607935,1.2074092091362496,-5.163560116454885,-0.035676210297574486,-0.13249089738147588,-0.8236310973807837,-1.7141997168198744,3,left
8.427999999999999,0.5837852184389452,0.5173697805412407,0.31544949187028126,1.208366158927387,-5.159009891146796,-0.035488930699717536,-0.13272598639507655,-0.8232993004007993,-1.7140077911707758,3,left
8.429,0.5869376905472959,0.5166498065703845,0.3149908956226462,1.2049838597792935,-5.177106452387882,-0.0370529195236578,-0.15674821486506713,-0.8054859044544028,-1.694737544629865,3,left
8.432,0.5882452727310373,0.5147718016097353,0.31774264470071256,1.2112165567501318,-5.143636309255719,-0.03411424255014453,-0.0978264315088457,-0.8493580558435012,-1.7420077928804307,3,left
8.433,0.5943205093929098,0.5126539290875598,0.317166515836773,1.2031614585982124,-5.186730413873985,-0.03784158362898807,-0.19548685551205489,-0.776592935608396,-1.6636577960417664,3,left
8.437000000000001,0.5994881774395315,0.5107943820699894,0.31593747468761146,1.2099103424128224,-5.150699786781983,-0.034749275679645045,-0.06668041620858256,-0.872571803127244,-1.7669960366771502,3,left
8.437000000000001,0.6012819934374618,0.509858770789682,0.31529007170064405,1.209791880440942,-5.151528328066194,-0.03489838098513052,0.47417908068786685,-1.2753309475638612,-2.200902648726852,3,left
8.437999999999999,0.6063734790032173,0.5095053448568277,0.3111405694580769,1.1966468136065564,-5.220859161940966,-0.04052518921633842,0.6029898108445588,-1.3713009784240142,-2.3042451131479407,3,left
8.442,0.6111188414743977,0.5080101162944833,0.3031267124677304,1.2289087520617614,-5.050562207023026,-0.026639591717342335,0.5053247418752629,-1.298545419869698,-2.2258905432282354,3,left
8.443,0.6147923680517501,0.5089809478046012,0.28920889974924446,1.1754103747819573,-5.332934713339281,-0.04966477514657186,0.5642447685827418,-1.3424212039651606,-2.2731590648280515,3,left
8.446,0.6157940801684328,0.5126357252219668,0.2795147290338445,1.2459919351872895,-4.960449356673925,-0.019304465096530745,0.5402379208818469,-1.3245761015999822,-2.253903953411042,3,left
8.447000000000001,0.6153997204808446,0.5133493023517477,0.2766179376616058,1.5424010988414856,-3.3965664928983683,0.10781135611130134,0.5399697258097947,-1.3243125297985898,-2.2536794469342842,3,left
8.448,0.6161312941257031,0.5150277440419841,0.26597121587242545,1.613007328975915,-3.024023518549959,0.13814204292542526,0.5524426936512663,-1.3336864553492414,-2.2636989993903764,3,left
8.451,0.6149566915523014,0.5193673305379658,0.2542310720032213,1.5594720383802796,-3.3064882542361733,0.11518229922254548,0.5374796476882993,-1.322461998434504,-2.2516820219414964,3,left
8.451,0.6131313591406347,0.5204696066498485,0.24841591015891104,1.591760032917195,-3.1361091347776338,0.1289618207006685,0.5491661617861574,-1.3311995194660258,-2.2610630788163086,3,left
8.456,0.6095635456994192,0.5221093418750075,0.2445589750385232,1.5786288577111063,-3.205451454375898,0.12347251443905735,0.5427638081812138,-1.3264981724546778,-2.255937535506959,3,left
8.457,0.6060666799892851,0.5245697288351793,0.24152507379812996,1.5784306379155417,-3.206401101150478,0.1231904408994489,0.5444620326965346,-1.3275493384742072,-2.2572652558430537,3,left
8.461,0.6023696416180994,0.5239383034034341,0.23551268850809742,1.5853338049161998,-3.1700800859067852,0.12634298971650704,0.5457027541680697,-1.328839889367003,-2.2583203281098996,3,left
8.462,0.594773496615624,0.5233756706257353,0.2293894149259656,1.5770751975449282,-3.2136091922632226,0.12271855660525866,0.5433354092685851,-1.3266280061324736,-2.256347908188135,3,left
8.467,0.5888993450096153,0.5222256765293821,0.22474020693003754,1.5834883279034424,-3.1796805284456733,0.12531033486517723,0.5456316647647822,-1.3286954730255833,-2.2582484235835443,3,left
8.468,0.5835618394916594,0.5213923636461348,0.2197247324379557,1.580067347186687,-3.1980276220058474,0.12435501065862753,0.5438036966368047,-1.3273373936350514,-2.2567824564183523,3,left
8.47,0.5747843057898008,0.5220371317880181,0.21567073688834115,1.5807817416759131,-3.1937439298360983,0.1237807442627184,0.5453901445516951,-1.3278561868056147,-2.2579469637526923,3,left
8.471,0.5658998549914716,0.5221411033917078,0.21324576188306232,1.5817959171174767,-3.189025623317189,0.12529533852250702,0.543585317184301,-1.3280260556862324,-2.25674632974323,3,left
8.475,0.557374836716535,0.522682969095724,0.21482473512484418,1.5801297007296218,-3.197312091177687,0.12372047238054408,0.5458415598322005,-1.3274481411489067,-2.258187519925519,3,left
8.476,0.5494850034381082,0.5235156932098319,0.22054134803857683,1.581620243810078,-3.189442552928444,0.12435239491683409,0.5435177753286052,-1.3281245003070938,-2.2567164621434985,3,left
8.481,0.5420318772699189,0.5261104817752503,0.22751973453004115,1.5807630585861834,-3.194904599583546,0.12557933005077718,0.5447319645375026,-1.3276384303563793,-2.2574634105593105,3,left
8.482000000000001,0.5325696988159689,0.5291021536333216,0.2322347690959547,1.5808748683724063,-3.1921685569670197,0.1219831976260001,0.5464145235894637,-1.3276918107222007,-2.2586172823633626,3,left
8.485,0.5235080365673627,0.5310962434932459,0.23385322579641155,1.5813585693496504,-3.192817602935042,0.12762685582190414,0.5400921286001183,-1.3282310785392804,-2.254402405791195,3,left
8.486,0.5170304896069458,0.5353084389822875,0.23384563679900794,1.5806050073827886,-3.1933819026347754,0.12150861934621897,0.5516287341603928,-1.3270918472626456,-2.2620679923203877,3,left
8.49,0.5092386094699128,0.5391105259353361,0.23376140778550053,1.5811997178180186,-3.1922135301390733,0.12511213462948245,0.5368579454775552,-1.3285854472826788,-2.2522591723448073,3,left
8.491,0.5008479949467932,0.5420962933863658,0.23610484247525917,1.5812172040095391,-3.193824964719783,0.1280056496231467,0.5491713298682938,-1.3273266602516727,-2.260433836279981,3,left
8.495,0.4954378319153477,0.5465195394800952,0.2386025801800516,1.5802273633557413,-3.1916037773092856,0.1149497851941056,0.5489056343572827,-1.3274075020015523,-2.260266295164012,3,left
8.496,0.4910978635100536,0.5499124431282285,0.24005868511211237,1.582278450519261,-3.194581385753347,0.1392546495565412,0.5252067119660461,-1.3296525900885818,-2.244503740360205,3,left
8.5,0.486031747136201,0.5522186940265628,0.24025716951735956,1.5795676610620646,-3.1911695922306778,0.10801271258494562,0.5833742819406862,-1.3240809793730606,-2.2831818189489,3,left
8.501,0.4807989001931057,0.5563867085773138,0.2392376443475756,1.581862468020516,-3.193843807742348,0.13410901806065467,0.48695300072062875,-1.3333307642407526,-2.219069644270056,3,left
8.505,0.4770749672680948,0.560759444387336,0.24232048888469204,1.5817523666461921,-3.1940399276414064,0.1333811886871626,0.6141272619077871,-1.321132189433738,-2.3036301055446375,3,left
8.506,0.47448654571066284,0.5613803153143411,0.24304241862931125,1.5775051984632231,-3.188226809021501,0.08367808019600537,1.1480719049085513,-1.2699643627147639,-2.6586688291695015,3,left
8.506,0.46917903215250756,0.5655308782457547,0.2411142440976015,1.588011657082784,-3.202125920939496,0.20587312208920788,1.275248842012684,-1.257776863949097,-2.7432327118893687,3,left
8.512,0.4603658182870308,0.5749602141148811,0.25069071132746956,1.570568983813071,-3.1792280527891874,0.0032567789700353733,1.1788246684677586,-1.2670146651835221,-2.6791168386588398,3,left
8.513,0.4549367528492986,0.5781492552253107,0.25994603177274067,1.593579254159698,-3.2093754816886215,0.27051046955224767,1.236991127252638,-1.2614384970361436,-2.717793497910339,3,left
8.515,0.4521412304144259,0.5794790112588522,0.2609641379277541,1.6901264296204008,-3.33612675469741,1.392289782214254,1.2133018291520823,-1.2637233350774633,-2.7020432458253376,3,left
8.516,0.44422400637498705,0.58652904475468,0.2691094291325871,1.7131163590358347,-3.3662591101444317,1.6595430515704854,1.213015439640502,-1.263718649429513,-2.701849249618702,3,left
8.516,0.43647728224090604,0.5936823153702779,0.28079968712873915,1.6957049797174344,-3.3434127369697046,1.4569254356397108,1.2253584839194653,-1.2625824916147241,-2.710061832166163,3,left
8.519,0.4298823481241899,0.598397659129664,0.2874948407694983,1.7061869159855756,-3.357193420090959,1.579126773443821,1.2105581740553388,-1.2639539781751927,-2.7002152689300933,3,left
8.52,0.4229843897107638,0.6027401585652782,0.2887169549865336,1.7019345572548528,-3.351583144330669,1.5294095309042453,1.222107491687272,-1.2628674372484652,-2.7078971117026542,3,left
8.524,0.4197756339509468,0.609282236334739,0.2849859870369967,1.7018809271795554,-3.351514473743976,1.5287036803405307,1.2158105062684377,-1.2635115638207481,-2.703714713169436,3,left
8.525,0.41536274517175686,0.6166626079897084,0.27892653252855093,1.7040584926933902,-3.354430918301942,1.5547752235634569,1.217411316284259,-1.2632271627865916,-2.704764080348804,3,left
8.53,0.4109127551021885,0.6218076513074788,0.2683723200528206,1.7015097654753863,-3.350949575404282,1.5235495124432883,1.21876630445613,-1.2633231055541616,-2.7056910286600666,3,left
8.531,0.40770781403289375,0.6285070739261647,0.2554440899401338,1.7034067678384235,-3.3536384239925257,1.5478630332872216,1.2162697859674836,-1.2632851879237306,-2.70399913591019,3,left
8.533999999999999,0.40158414226026296,0.6383977716660909,0.24211773619344903,1.702471703776363,-3.3522114845083024,1.5347571577784138,1.2186636483953577,-1.2632767311164088,-2.7056162817610616,3,left
8.535,0.39396298629238546,0.6492901782622835,0.22455350971689875,1.7026463326186692,-3.352528073769377,1.5377497016643393,1.21686025942346,-1.2634516707273225,-2.7044174566422816,3,left
8.54,0.38574006619832707,0.6641908089618354,0.19931510751565282,1.7027809748392158,-3.3528733958550276,1.5412178292947396,1.2181908351405704,-1.2629137100957446,-2.7052548842967976,3,left
8.541,0.3776831348680806,0.6820108647058506,0.16832870065458738,1.7027929222037324,-3.352341872012376,1.5352283080698812,1.2169472354835538,-1.2639706719431962,-2.7045359660187436,3,left
8.544,0.3707185681909506,0.7001664347729772,0.13681982363504996,1.7023664866032844,-3.3527263262367404,1.5408253046976386,1.2183720165143894,-1.2624352837140695,-2.7053223561773656,3,left
8.545,0.3687858034069885,0.7187777452366637,0.10558858325012484,1.7031598971812731,-3.352608431134553,1.5370998890176653,1.216933306288777,-1.264064137236102,-2.7045371909914504,3,left
8.549,0.3733711156346188,0.7335053666040583,0.08005145446249817,1.7024104302342709,-3.352549275671122,1.538709157031636,1.2176381150510431,-1.263135524884708,-2.7049070096235304,3,left
8.549,0.38186898859623347,0.7480981179898545,0.06417360822126558,1.7024018789056405,-3.3525457244914665,1.538700838550266,1.2188723119752345,-1.262273640952904,-2.705641682697406,3,left
8.557,0.39539699118890914,0.7634957821259194,0.0604373052466067,1.7039797516898179,-3.352902392879715,1.5378944335261284,1.214496438696027,-1.2659445590821092,-2.7031066742848324,3,left
8.558,0.410960901451927,0.7720766071597144,0.06856509955139571,1.7002946705651532,-3.351984295044931,1.5388175013988454,1.2224266226064988,-1.2591556900675887,-2.70768560411316,3,left
8.559,0.42611453056914067,0.7787594592767852,0.07734640439845095,1.7058573501704086,-3.3534389410503733,1.5381980244009965,1.2122851022196994,-1.2678678229920994,-2.7018327603535175,3,left
8.559,0.4418100156411525,0.7847528272306974,0.08833504382858715,1.6998892985190697,-3.351838725610394,1.538415560946461,1.2207354411711464,-1.260597761624171,-2.7067091687604368,3,left
8.564,0.45435118139413444,0.7838429523031666,0.104998345254318,1.7033498595136018,-3.3527786565770383,1.5384314025771424,1.2205700468948202,-1.2607845272389286,-2.706616954710954,3,left
8.566,0.4617045023445353,0.7808648761108707,0.1182780279572391,1.7063378538525473,-3.353597514537958,1.5385039423332092,1.2042481117003039,-1.2746765341906308,-2.697185358531226,3,left
8.568,0.4668210766947598,0.7773239467291587,0.12697278212317487,1.693246009347742,-3.3499987485552,1.5380161757043496,1.2442918650943244,-1.2405467054564472,-2.7203228767147922,3,left
8.568999999999999,0.4694705395921013,0.7683116503592515,0.13532998202123997,1.7175390874026548,-3.3566893281229935,1.5390834987577324,1.1779151864543103,-1.2971277753990584,-2.6819679945892263,3,left
8.573,0.4685405343592741,0.7614786215942241,0.1413250130509063,1.686335757885855,-3.348087315732294,1.5376003160588374,1.2654660798317963,-1.2225036777026712,-2.732561757807476,3,left
8.574,0.4693984835712758,0.7599484678362858,0.14337070042448727,1.7123903360802946,-3.3552716757237695,1.5388879444967318,1.633030378150339,-0.909193516831553,-2.944934009813589,3,left
8.574,0.47057160977640544,0.7525140210224563,0.1467423818249089,1.71168507373432,-3.355084105727696,1.5388593493869565,1.7205926500402846,-0.8345784313610549,-2.995541369507805,3,left
8.578,0.4694156877428193,0.7421782317132877,0.15199930619166774,1.6619968892633632,-3.341358292058275,1.536301552486956,1.6542036606597086,-0.8911497514246431,-2.9571717759754166,3,left
8.579,0.4683103454112866,0.7372336850224948,0.15423930420371626,1.784127935280266,-3.375085909392374,1.542616654823589,1.6942427316375084,-0.8570162115266836,-2.980303702518086,3,left
8.584,0.46005494240122724,0.73302263024862,0.15269855151426265,1.5816257128595974,-3.31916855024558,1.532115283023725,1.6779616329996803,-0.8709405677941153,-2.970920895774049,3,left
8.584,0.4517411016189646,0.7289560533623809,0.15113721904488614,1.8487276611496422,-3.3929198393783584,1.5459900372140694,1.6777083740800114,-0.8710577335136263,-2.9707237007109986,3,left
8.585,0.4492125117285364,0.729125149576673,0.1489868742842129,2.969871898733383,-3.7026790480524507,1.6043042032798338,1.6862846928094135,-0.8638874612769677,-2.975750634098114,3,left
8.589,0.4351811756208175,0.7302521129932946,0.141332051243859,3.236974900539317,-3.776439341050153,1.6182003336865987,1.6760177232203857,-0.8725002287948247,-2.9697478944902294,3,left
8.59,0.41287845484244035,0.73149493060807,0.13096099473406633,3.0344731454094225,-3.7204880229210477,1.6076630153458518,1.6840020354584369,-0.8657542271621486,-2.974391509736054,3,left
8.593,0.39313831609085237,0.7375275502748084,0.11870132671892863,3.156598065416234,-3.754297713840685,1.6140147261534978,1.6797338884504092,-0.8695104875501223,-2.971985199905017,3,left
8.594,0.3729705268015247,0.7459138041585109,0.10302201717291973,3.1069253975633258,-3.7404273730510487,1.6114400403367408,1.6806210722035408,-0.868373720350367,-2.9723052673005825,3,left
8.597000000000001,0.3530449803991962,0.7522375563344197,0.0881989446442472,3.1061945892484815,-3.740432630899865,1.6113852480918853,1.681923797412598,-0.8679187275387197,-2.9733894868885566,3,left
8.597999999999999,0.3356064786986753,0.7580581318980233,0.0740337316181633,3.1322795186457446,-3.7474350997146533,1.612760507558475,1.6797512957087464,-0.8689663479860994,-2.9717275535166263,3,left
8.602,0.32325025255976364,0.7665623525758002,0.0594715312742486,3.1010538051218264,-3.7388960672422424,1.6111275152096067,1.6817610878071774,-0.8678943215930055,-2.9732129740510347,3,left
8.603,0.31443159988707825,0.7752319728506581,0.04728799062794854,3.125341984879573,-3.745778865229801,1.6123756376663556,1.680522708289142,-0.8689554708583347,-2.9725002197832757,3,left
8.607000000000001,0.30639959112831405,0.7826531566306577,0.03859487521687431,3.112302901712642,-3.7416204819031353,1.61174883430553,1.6807676426376479,-0.8675574997841009,-2.97204058207185,3,left
8.607999999999999,0.3021905911330097,0.7918391925226222,0.034567101728116126,3.1151786438293234,-3.743372314402715,1.611808797957477,1.681445292802877,-0.8696977437841473,-2.973806101178134,3,left
8.613,0.302174771450344,0.7969869088936228,0.034335633822405204,3.1187998515231055,-3.7431984346866054,1.6121076341020908,1.6801378582214122,-0.8667574567355742,-2.9710008325343917,3,left
8.613999999999999,0.30192613008115776,0.7996503005470321,0.0358028268937219,3.1126694627267986,-3.7424407733382763,1.6117004845346579,1.6815869972123663,-0.8698448361870228,-2.974023453781691,3,left
8.617,0.3003882209868023,0.8035340162632871,0.04058875426348977,3.118309516637692,-3.7440071416754286,1.6119931605174995,1.6806622365047572,-0.8681351820445871,-2.9722261950929196,3,left
8.618,0.297783211441326,0.8031572032755523,0.047435044965874515,3.114745016720289,-3.74128629691304,1.611971509754389,1.6802976484579657,-0.8662936583492511,-2.9709276914914025,3,left
8.622,0.2911873593819415,0.8037853725593944,0.054480324442578686,3.1159041140565216,-3.745574052960162,1.6116573894714454,1.6826017783128697,-0.8737511287265967,-2.9770216859312635,3,left
8.623,0.28114507011150836,0.8024884943928585,0.06119358301067522,3.1166354434260293,-3.7398572195949984,1.6122540404191095,1.6782003934485588,-0.8600297361169762,-2.96564542049682,3,left
8.628,0.2683884504300842,0.7966777570497341,0.06694487007064966,3.114955614798121,-3.745702838003275,1.6115712170642604,1.68388144235331,-0.8776244396595451,-2.98027087182228,3,left
8.628,0.2527450052169481,0.7926861949808859,0.07606715659186389,3.116529659309066,-3.7424917992105398,1.611996971266871,1.679125756246063,-0.8629451242446333,-2.9680522291294995,3,left
8.633,0.23400623699695267,0.7835525244127017,0.08552799587644612,3.116010396335466,-3.7392060310799,1.612266981927544,1.6793019655629406,-0.8633051921640766,-2.968413153078725,3,left
8.634,0.21533806264742994,0.7739954611138912,0.08912598197195566,3.1148219668491786,-3.7526310380580874,1.610906480118734,1.6882168364369448,-0.8914184162731527,-2.991616303742707,3,left
8.637,0.1977829461720415,0.7710924180745107,0.09037638895287209,3.117843243136023,-3.727959605599459,1.6134715477117936,1.6662469328530198,-0.8223629647107716,-2.934546801200912,3,left
8.638,0.17395484257265856,0.7690081238811766,0.09109326951267352,3.1136697671644673,-3.7595581317805573,1.6101630998911292,1.7026914555994295,-0.9368493757965397,-3.0291842876406307,3,left
8.641,0.15865690841573837,0.7681134362472684,0.09162086887202381,3.117277323698451,-3.733211533462396,1.6129308093025054,1.654617316773341,-0.7858426622201051,-2.904352918424255,3,left
8.642000000000001,0.15584872467800912,0.7673844642717105,0.09082281857628208,3.116990545762774,-3.733873904835902,1.612847811654552,1.4529806791309055,-0.15195879450544209,-2.380545710968395,3,left
8.642000000000001,0.14169729414310148,0.7673300192360415,0.08825751563510774,3.1106155992579163,-3.784247192608836,1.6075924074893435,1.4049155745468458,-0.0009479586333185561,-2.2557225904464735,3,left
8.646,0.12507995405738093,0.7694082366825548,0.09091726178414755,3.126556141114971,-3.6605077320949038,1.6205200339267816,1.4413387435498806,-0.11543634393972096,-2.350334000185575,3,left
8.648,0.11601239995876234,0.7717639716078993,0.09700126046648501,3.100026043689666,-3.865648359743978,1.5990831962691368,1.419406136565723,-0.04639139356364494,-2.2933218567381637,3,left
8.652000000000001,0.10887065093666098,0.7754488646415129,0.09854462372806147,3.135051688815711,-3.5950749662415205,1.6273566326961255,1.428268875607479,-0.07447167113004823,-2.316429361963512,3,left
8.652999999999999,0.10833261226874713,0.7761949952417446,0.09796397539487411,3.2819516770925317,-2.4593282251442483,1.7460459255790521,1.4285007656137532,-0.07489050096407063,-2.3169124053291443,3,left
8.654,0.10720815121972263,0.7742507501853109,0.0981636326457184,3.3169700073137633,-2.1887446672137436,1.7743104000337375,1.4237104691938978,-0.060136641673776095,-2.3045856582951045,3,left
8.658,0.10323171827040223,0.7773461796271304,0.09478863143985691,3.2904322232705727,-2.393895900889081,1.7528865754335263,1.4293694932263508,-0.07779344819863188,-2.319235082212752,3,left
8.658999999999999,0.10440758901100947,0.7839134954053106,0.08816319662850228,3.3064310338884155,-2.2701620087209124,1.7658061415374426,1.4250825104247125,-0.06406777894756249,-2.308003857404172,3,left
8.661,0.10555629105093119,0.7899570691280647,0.08147387641021636,3.2999159136943654,-2.320495960606752,1.76054279374511,1.4271638419174284,-0.07142003019939192,-2.31371922417409,3,left
8.661,0.10277006686078335,0.7957512701613583,0.07224530513977953,3.299854631315973,-2.321241059882796,1.7604930684164726,1.4271011132963665,-0.06982817472933972,-2.313024415959733,3,left
8.668,0.09881550697695156,0.8014612091127862,0.0635040139889564,3.303199803200944,-2.2947773735111228,1.7632001171152711,1.4258923155557746,-0.06773901339128513,-2.3105366645293586,3,left
8.669,0.09089708272618671,0.8083986821092493,0.05965745483859991,3.2992115019943755,-2.3264905892102634,1.7599682578580251,1.4274393067187034,-0.07123831598627478,-2.3140352884802753,3,left
8.67,0.07628296175985327,0.8159761163947248,0.0628135192935946,3.3022942002823354,-2.301773206209938,1.7624702250866884,1.4264284890895835,-0.06805004949791696,-2.311405458593857,3,left
8.671,0.05924105249325074,0.8218176400496173,0.07189403729752367,3.3006211277993467,-2.315091586319346,1.7611132113797285,1.4262462333033614,-0.07000291127796163,-2.3118948641321566,3,left
8.676,0.04123861391822706,0.8265013942720709,0.0796755340139798,3.3011028051839073,-2.312135269846497,1.7614911193166891,1.427919780857847,-0.06948998862404893,-2.3140411942608816,3,left
8.677,0.020184584613899034,0.8289949981246272,0.09286173979850756,3.301270268224253,-2.3083645557952632,1.7616633447979284,1.4249803946557202,-0.06886423595161342,-2.3096894361914537,3,left
8.681000000000001,-0.0003384414940864073,0.8285688708175163,0.11331857350868242,3.3009787932630594,-2.3148885124905263,1.761363444374524,1.4282760017137615,-0.07004005313858536,-2.3147493764832365,3,left
8.682,-0.01944174818052634,0.8284159444278285,0.13001524924690294,3.3011081918996785,-2.308643697439476,1.761547629499649,1.4262627916699893,-0.0690198824123624,-2.311543281430055,3,left
8.686,-0.038562787742129886,0.82885618261418,0.14562513586662829,3.301099170761734,-2.312897055891259,1.7614764757079484,1.4248663568084312,-0.06919993981151507,-2.3096578239315018,3,left
8.687000000000001,-0.05576344976255835,0.8287049501884003,0.16182704141956628,3.301319933027483,-2.3112244660121473,1.7616546094494945,1.4316035245329726,-0.07036607507862216,-2.319530049121029,3,left
8.69,-0.07533002598352917,0.82920724500174,0.17574425862590295,3.3004167867504197,-2.310448401142705,1.761043024719966,1.418961084900918,-0.0677424315662,-2.300838613056878,3,left
8.691,-0.09771692675895025,0.8304023284781866,0.1865361362797119,3.3023623734923953,-2.313143984266039,1.7623442413435195,1.4352487355499874,-0.0712765088776107,-2.3249780957018045,3,left
8.695,-0.11855897849828498,0.8311754122033246,0.19197958897100748,3.299431465743786,-2.3093368039745963,1.7603807414545165,1.4216269823176606,-0.0682578490201686,-2.3047655968719756,3,left
8.696,-0.1401361393230155,0.83184338837758,0.1922320138964934,3.302593450251604,-2.3131112113427035,1.762503500216567,1.4220338882489458,-0.06844307702871105,-2.305405712008287,3,left
8.701,-0.15893795251629061,0.8316613818119896,0.18983567011494637,3.300765564586457,-2.310927227699667,1.7612773922389438,1.4479072539118265,-0.07392220618444367,-2.3437003772645615,3,left
8.702,-0.17317659103577415,0.8297933681035345,0.18677588738939366,3.299112299499473,-2.3096751060343848,1.7601542855503176,1.3842560939033874,-0.06030865373731931,-2.249440123118602,3,left
8.705,-0.18913073984620737,0.8271999769547186,0.17791016485998196,3.306250594077259,-2.3159714488000995,1.7649836060166342,1.4898176751109204,-0.0829313107929377,-2.405782503338539,3,left
8.706,-0.19996236702484904,0.8256629839322072,0.16832157025432168,3.293014264069492,-2.30425400413,1.7560321082335606,1.3505686109776818,-0.05308020764269328,-2.1995435445754263,3,left
8.712,-0.20063025138368462,0.8253969478974075,0.16806703486936264,3.3100207369617523,-2.3192477462283425,1.7675314481948794,0.766136603237292,0.07218675982486959,-1.3339613893863431,3,left
8.713,-0.2058590648360748,0.8233626395150014,0.1687652254409397,3.295814314762686,-2.3067536409343106,1.7579291561804768,0.6268678982423497,0.10201698608676728,-1.1277024177845119,3,left
8.713,-0.21732614907832376,0.8227021075950708,0.17088791337366058,3.2962033441276763,-2.307159087700061,1.7581811438322834,0.7324636214423971,0.07941615101293986,-1.284085016908489,3,left
8.715,-0.22319362975360543,0.8247503132383105,0.17965606838177972,3.3232966930228427,-2.3306975969691988,1.7765227398153987,0.6687748802536437,0.0930410054713603,-1.189767235567923,3,left
8.715,-0.22513833178464498,0.826888491144617,0.1896820286578642,3.2566857433148186,-2.27279078081634,1.7314484942030184,0.6946718963092614,0.08748136180479799,-1.2281256524607578,3,left
8.72,-0.22346340938864,0.8351052448255845,0.2025451257147549,3.3671473593061654,-2.368799219555819,1.8061828782575444,0.6950908066101484,0.08746563739980488,-1.2287191709068022,3,left
8.722000000000001,-0.21951545816566703,0.8427907675878212,0.21176199425508252,3.221434113674069,-2.242180021646548,1.7076078810346593,0.6814014890289373,0.09024425100265614,-1.2085009674949596,3,left
8.722999999999999,-0.21736820587546418,0.8448184372791879,0.21310667262586475,2.6101658183054433,-1.7109127478053698,1.2937929385185516,0.6978193170028885,0.08694548122502913,-1.2327367105377478,3,left
8.725,-0.20920862317782252,0.8534938091208293,0.21757589512017705,2.4644633002362393,-1.5843211145542762,1.1952141668148695,0.6850039057799852,0.08947451122497355,-1.2138355325251506,3,left
8.726,-0.19658344421576207,0.8686313251085845,0.22303090446646695,2.5748664384050466,-1.680280387012015,1.2699577267526014,0.6918984381419533,0.08809038741429961,-1.2240126954454964,3,left
8.73,-0.18732659327692375,0.8870010186945718,0.2234041987978571,2.5084170937728247,-1.6224307419588584,1.224866997821938,0.6904581028507972,0.0885850971552522,-1.2218117419480792,3,left
8.73,-0.1781201624010199,0.9069157011770906,0.21967824220292242,2.5352066774256907,-1.6459269299082557,1.2432322316050182,0.6882577060767738,0.08845823724892168,-1.218770738380635,3,left
8.734,-0.1675931340157043,0.9245457483524577,0.2113860993228978,2.536020642539622,-1.6463290736360445,1.243458200747467,0.6920621119984861,0.08867343229133204,-1.2240300224839533,3,left
8.735,-0.15842234539486189,0.9429333928852641,0.19991407182882856,2.5213880108522266,-1.6339152536287065,1.2338733257011705,0.6883002460154539,0.08821530647875786,-1.2189188884962934,3,left
8.738999999999999,-0.14744337333107232,0.9583757240106232,0.18462648524778041,2.5385902385647885,-1.6487346768698634,1.2453801646446712,0.690925937356204,0.08866042191551046,-1.2224406875510603,3,left
8.74,-0.13221582035373036,0.9683822268799531,0.16268263879844422,2.525694057086055,-1.6372676980140572,1.2363792987251887,0.6900690617685857,0.08885305303523684,-1.2211683299447318,3,left
8.745,-0.11926496462958337,0.9785201611608121,0.13396632588719232,2.5316858477757798,-1.6433098996880031,1.241308481087045,0.6888593799839036,0.08724223328341277,-1.2200577086469404,3,left
8.746,-0.10866345281588545,0.9874143599225275,0.09881837367005156,2.532042550919351,-1.6421817284922067,1.2400465668884941,0.6920983188606706,0.09082170775155965,-1.2232985240124377,3,left
8.75,-0.09396866886308763,0.9931100569546021,0.059278413912277284,2.527707024705876,-1.6401785265196125,1.2389558126440199,0.6873766145121272,0.08545816021683993,-1.2186270341576355,3,left
8.75,-0.07973769440279649,0.9982985580077219,0.02211693501720635,2.532931567962574,-1.643312333679349,1.2410227097269186,0.6922638787852127,0.09120712607427126,-1.223390460534684,3,left
8.754,-0.07022807450256509,1.0041857327817576,-0.009275610149719372,2.529872782690945,-1.6406413349167257,1.2389390340673825,0.6894382666750104,0.08788578050487858,-1.2206355415073527,3,left
8.755,-0.05863599166581457,1.0123969577031577,-0.03571627155955229,2.5283255973050656,-1.641907334246008,1.2406183742272399,0.6873274893093169,0.08495295510340087,-1.218742089988839,3,left
8.759,-0.045868081413587135,1.0209970020909598,-0.05635180542164962,2.5356711436321318,-1.642325410602453,1.2393598447801788,0.6969864152393828,0.09769791320919137,-1.2276526224258526,3,left
8.76,-0.035821622454052446,1.0274040066062764,-0.07198660562692241,2.523371242702797,-1.640535485810958,1.2403288146848737,0.6790524389928387,0.07406694072060663,-1.2110962014973639,3,left
8.764,-0.019900592057542736,1.0349987263300457,-0.08151561229684995,2.5369741363348406,-1.6428705880393075,1.2396285886245126,0.7020541579023296,0.10441584284894648,-1.232316426213126,3,left
8.764,-0.0030132764423790124,1.0452231065329065,-0.08559885515253848,2.528785112057312,-1.641234562598464,1.2398097000340356,0.6828626624246401,0.07907668953145071,-1.2146176789128162,3,left
8.767999999999999,0.015339077512757766,1.056385715146499,-0.08838795905594127,2.522749813670492,-1.6407161116258904,1.2406606399003324,0.6834180005844582,0.0797546753649852,-1.2151500002028675,3,left
8.77,0.04142351224602196,1.064828293450324,-0.08903896576779247,2.5510519930534805,-1.6446309522217788,1.2382188970442445,0.7198625982835725,0.12810381160802498,-1.248675919200756,3,left
8.774,0.06451778635840454,1.070585732060764,-0.0857788644926718,2.498118999677815,-1.636981175140411,1.2424434146988264,0.6302566672209533,0.009274226137866354,-1.1662292688718678,3,left
8.774,0.0975579765728044,1.0773972936281684,-0.07761726781549438,2.566248536856511,-1.6469455039334737,1.2371294493190805,0.7788280164054949,0.20629871685691228,-1.3029306990739402,3,left
8.78,0.12459953808779262,1.0815281289490366,-0.06920968971876587,2.5093023250009843,-1.638564978805127,1.2415174160749771,0.5828677499536661,-0.053576336444889905,-1.1226288021096902,3,left
8.781,0.13290309913003104,1.081019419338689,-0.06628335376921424,2.510949212613971,-1.6388891399960095,1.2414750049201557,-0.23956822841164052,-1.1444235716660867,-0.3659705763684992,3,left
8.782,0.16140113103549264,1.0819707282862843,-0.06369578542771583,2.6192536338277095,-1.6546120686870673,1.2329065552443494,-0.4355267719092996,-1.4042989559930552,-0.18567091760551455,3,left
8.783,0.1974775998910902,1.08299398610751,-0.058439369837916394,2.3529014250887936,-1.6158222539080893,1.2538528405058202,-0.28695811613669986,-1.2072739472904659,-0.3223688486712897,3,left
8.783999999999999,0.23068139533506993,1.078217171170953,-0.0562245511585273,2.7945841692118103,-1.6801978923486183,1.2191708791690798,-0.3765618188284289,-1.3261039626880728,-0.2399250940368011,3,left
8.789,0.2566647478915365,1.0737310763647991,-0.05749652418045183,2.2119843506314463,-1.5952566237975176,1.264891717860329,-0.3401170932805443,-1.2777548473007587,-0.27345117719448975,3,left
8.79,0.26208108186161994,1.0719329078520867,-0.05873658209181308,-0.23338247916237925,-1.2388523576903454,1.4569159535416603,-0.33956607578352516,-1.277076036853487,-0.2739778885850512,3,left
8.791,0.28342750879732115,1.0660513836355414,-0.06260340940294501,-0.8159916580737809,-1.1538764696146986,1.5026073936541327,-0.35874813726279803,-1.3024169967892134,-0.2562913934462059,3,left
8.793,0.3128560330846599,1.0575112151265653,-0.0630706355079532,-0.37428385277322274,-1.2183152854923178,1.4679784457724283,-0.33575985873745706,-1.2720655158075584,-0.2774941602153339,3,left
8.794,0.3288392550913461,1.0492122985209629,-0.04988159463436596,-0.6406851060877894,-1.1794486107295161,1.488861715821454,-0.353680521843111,-1.2956990492368536,-0.26095503532194386,3,left
8.799,0.34390777445612586,1.0388330905810381,-0.024043273424450853,-0.5323052271845483,-1.1952351170452735,1.4803426097138337,-0.3440273690503636,-1.2829529684358114,-0.2698580611763213,3,left
8.8,0.35066029429047635,1.0248083117115216,0.012994391766842167,-0.5307478436579378,-1.1955479609943178,1.4802974806602145,-0.3461493348340806,-1.285883669568053,-0.267950088459716,3,left
8.802999999999999,0.35034704656956406,1.0105963515693313,0.055013392880650484,-0.5876240517836955,-1.1870832014374342,1.484606518632968,-0.34893876230522963,-1.2892119338843435,-0.2652421578345069,3,left
8.805,0.34806599754711454,0.995816801498036,0.09513029340255892,-0.519491367232511,-1.1972568993402897,1.479474610275291,-0.34411385514170445,-1.2834510174323364,-0.26992459467916763,3,left
8.807,0.3420773290166357,0.9786195341452683,0.12993886277552952,-0.5725610116434003,-1.1892837470110789,1.483428445030075,-0.34875903891325943,-1.2888292591932415,-0.2653525051156488,3,left
8.808,0.3349404931762848,0.9645758979955583,0.15435898768964462,-0.5439497851688773,-1.1935557858983121,1.481273090518037,-0.3455811129273947,-1.285238024732939,-0.2685140418258279,3,left
8.812999999999999,0.3278821842604172,0.9529607318579167,0.1701493716187612,-0.5504442890749194,-1.1928104783504228,1.481963109809691,-0.3467912906629525,-1.2868488494625019,-0.2674028289229248,3,left
8.814,0.3180237441681447,0.9453943227842649,0.17729239545690395,-0.5581465534197605,-1.1910409461450868,1.4819891586853862,-0.3475350818500461,-1.2866777842352302,-0.26627728884194646,3,left
8.817,0.301018305956367,0.9488082738691201,0.1762600076820377,-0.5448176895927795,-1.1940967157591802,1.481938302790073,-0.3451678925107198,-1.2861831882789752,-0.269463379560146,3,left
8.818,0.2814620948907094,0.9569231168844872,0.17432306209903253,-0.5573822032763963,-1.1909005012542897,1.4817038459893188,-0.3485440704726962,-1.2867152859164568,-0.2648532009279847,3,left
8.824,0.26049806878080706,0.9632018719183787,0.17185670170591408,-0.5489268461870165,-1.193220596402215,1.482013007270991,-0.34515087328797,-1.2864210452202087,-0.2695782936332215,3,left
8.825,0.2394431380991461,0.9708178937211904,0.16489167154800224,-0.5525346061786376,-1.1927043827013253,1.4823047864371501,-0.3471135739445309,-1.2865939028227942,-0.26684621972677547,3,left
8.828,0.22633243568102385,0.9768210844905942,0.15504302433960904,-0.5529010393888252,-1.190633410663466,1.4805289092373735,-0.34834932917659733,-1.2861378218148538,-0.2649107146270909,3,left
8.828,0.21600079746249945,0.9766008122144982,0.14732011381334076,-0.5500780785691701,-1.1956554272392235,1.4844314534141612,-0.3423507974704826,-1.2873507389422114,-0.2739243380038384,3,left
8.835,0.20572585544562694,0.9725508754181624,0.14274550698965371,-0.5538285635503999,-1.188230786942079,1.4785733364209896,-0.35350430973000646,-1.2851401055593619,-0.25718173450003295,3,left
8.836,0.20097496814641186,0.9620337622627911,0.14223967466581336,-0.5504418749962177,-1.1960564207314262,1.4848663490251828,-0.3392206652114437,-1.2880291539603164,-0.27864493178077276,3,left
8.837,0.19657405718716225,0.9479191117376171,0.1469207565162221,-0.5524061464901215,-1.1915336777500367,1.4812304817820923,-0.3511279904132345,-1.2855938910425841,-0.2607427199041615,3,left
8.837,0.1935062363030264,0.9310835778352365,0.1482066770259473,-0.5527395188135777,-1.1878333125536997,1.4779907103877405,-0.3507578247814135,-1.2855973262448268,-0.26127024814914873,3,left
8.842,0.19249999817726646,0.9077532206950333,0.14524093578293462,-0.549517824110512,-1.2042850031154901,1.4920335509603724,-0.3282576943849457,-1.290509435586905,-0.2952208502704111,3,left
8.843,0.19385220664994945,0.881950047546961,0.147733662368412,-0.5555823202634276,-1.1737620253349115,1.4659970176846486,-0.3835958852212499,-1.27848223246054,-0.21174292056653124,3,left
8.847000000000001,0.20898935135980895,0.8454514958460699,0.15062238678501355,-0.5479053266199936,-1.2129390560513074,1.499438861222276,-0.29184755189072376,-1.298429415488611,-0.35014932683543043,3,left
8.847999999999999,0.22521288565040667,0.8161425066558932,0.1522288396086836,-0.5542667882047387,-1.1802388877413263,1.4715146579956981,-0.41284842589616666,-1.2721041467933238,-0.16760157364709738,3,left
8.847999999999999,0.23069773338646246,0.8070711429089203,0.15472223828726572,-0.55394349866779,-1.1811464689700646,1.4722622377009913,-0.9205609559308493,-1.1614997214057676,0.5986023157961884,3,left
8.852,0.24945568804472662,0.7783318042527765,0.1495112791930407,-0.5424424115406657,-1.2434062608779888,1.5255487156553462,-1.041525258610159,-1.1351624532522715,0.7811500075399438,3,left
8.853,0.27226623700571295,0.7413452754861223,0.15330286483055966,-0.5708357562523239,-1.0903601288958154,1.3945795538457872,-0.9498451837111587,-1.1551207148300373,0.6427333084163873,3,left
8.856,0.2560114793326739,0.735882062961573,0.175087002775328,-0.5237557003963739,-1.3441187044462242,1.6117377708202991,-1.005096800320019,-1.1431051938577799,0.7262479565979859,3,left
8.857999999999999,0.2309181134297049,0.7413413657696003,0.19068933291570372,-0.5858327611563137,-1.0094147797810225,1.3252998805436764,-0.9826749260192029,-1.1479603336574327,0.6922214867474803,3,left
8.857999999999999,0.21983861404075133,0.7472562807366423,0.18835378636015138,-0.8458742496913836,0.3954152823867579,0.12300371749891154,-0.9822763443734076,-1.1480770585383595,0.6918066625747863,3,left
8.861,0.1674532845539431,0.776603935864187,0.1590993638242726,-0.9079228605720475,0.7301167301872674,-0.16344619918049208,-0.9941123585519317,-1.145486793703303,0.7095877352280464,3,left
8.862,0.0943781543071766,0.8199655561956686,0.12191784996214165,-0.8609000247106255,0.47636468025020906,0.053727116444977484,-0.9800396881555602,-1.1485209142723742,0.6881946412844056,3,left
8.869,0.05321966648363527,0.8514600911708462,0.1056108190147366,-0.8892114285964288,0.6293982095189045,-0.07724448831234428,-0.9908422672329439,-1.1462649002530072,0.7050008085982711,3,left
8.87,0.0399921013718356,0.8728360571726903,0.08109197816303967,-0.8778013016247277,0.5671576112728187,-0.02398593291139669,-0.985261436223881,-1.1473135979054723,0.6957108458950079,3,left
8.871,0.053914837114187,0.9005660100006856,0.03449201679322698,-0.8774112797393148,0.566227493775722,-0.02316809380089267,-0.9861819630784093,-1.147318243991978,0.6981646045346069,3,left
8.871,0.06970252376132186,0.9530982050905836,-0.006921393432293,-0.8837651557729438,0.598944953499811,-0.0512011856563756,-0.9881028587283415,-1.1467360996776796,0.7002149429333697,3,left
8.876,0.049850126561794855,1.0395024759321023,-0.048277227903454026,-0.8762247119239119,0.559769467827658,-0.01764072998058767,-0.9853822927645217,-1.1473269928476082,0.6961019770079422,3,left
8.877,-0.026793865997626412,1.155033046201272,-0.11371622868767842,-0.8819907347732048,0.5902569335208998,-0.043747350463955045,-0.9872937471321686,-1.1472156959928148,0.7005599870678465,3,left
8.881,-0.16516779560201336,1.2996609254983182,-0.18560350324425284,-0.8792038001241917,0.5738842121810344,-0.029762792317470373,-0.9870514572680793,-1.1465712829349752,0.6965985680122588,3,left
8.882,-0.33978986601314787,1.4720551531062909,-0.23341969204658852,-0.8790862957291903,0.5774683246243609,-0.03273986685351885,-0.98560754693799,-1.1479261411442647,0.6997837111105525,3,left
8.886000000000001,-0.519193897942573,1.6446796745886947,-0.2572271129498731,-0.881288437472636,0.582112972066291,-0.036870916071602616,-0.9879420428725507,-1.1463082680353855,0.6975885522416065,3,left
8.886000000000001,-0.6468768317704474,1.7622949319274208,-0.25595522237842216,-0.8781820834389482,0.5742209716086724,-0.029925022181626883,-0.9861870791660299,-1.1473320172554526,0.6982438942072764,3,left
8.891,-0.6701595949416703,1.7953822180646233,-0.2647222148992113,-0.8808544339629392,0.5815742075609341,-0.036371104640776364,-0.9855296449852805,-1.1480267949291476,0.7001001771941128,3,left
8.892000000000001,-0.5635569039398733,1.738098055051402,-0.38415407068230695,-0.8799888070306747,0.5768376645434241,-0.032318548565565285,-0.9902124388077693,-1.1445897809245893,0.6947020858841388,3,left
8.896,-0.3415000279119282,1.594478971755636,-0.6268944482617493,-0.8778445034686531,0.57838490928829,-0.03335940967410014,-0.9810016864657602,-1.1510797692074097,0.7039178956711893,3,left
8.897,-0.08856924757832436,1.4061025834137397,-0.8754983091521253,-0.8836209375297222,0.5795788414889183,-0.03502910462301466,-0.9930625547467574,-1.142694022894522,0.6924377059440503,3,left
8.9,0.17349485377388482,1.187948265863903,-1.0625818600810915,-0.8747931940835821,0.5766641395785986,-0.03156777144446937,-0.9828931964636018,-1.149718704232913,0.7018697849688889,3,left
8.901,0.39459431616159557,1.0260234978997564,-1.1434014214610646,-0.8842439318177606,0.5799835468964232,-0.035439621905736116,-0.9832561185273114,-1.1495048882525114,0.7017484390623204,3,left
8.906,0.5303450852917037,0.9793980834589656,-1.1131866853909522,-0.8787193755078637,0.5777301112992692,-0.03291482972809112,-1.0024838840025172,-1.136156739830744,0.6835132427768792,3,left
8.907,0.5847235457107924,1.0171241258448673,-1.0049029378488947,-0.8742698508234232,0.5774450758809748,-0.032158538942248516,-0.9550669188450126,-1.1690084542680017,0.7280921493210029,3,left
8.912,0.398389574024015,1.2429341960309634,-0.7785137898783667,-0.8942583400374751,0.5814090993824517,-0.03779676048245418,-1.033762420935579,-1.114515189966699,0.6542955263363829,3,left
8.913,0.1746610222777402,1.4583481423856055,-0.604792949299439,-0.8570929158694132,0.5735637244435872,-0.026916384020254865,-0.9299252327230434,-1.1864069729292397,0.7515726863081225,3,left
8.915,0.1140333597255952,1.5185880600849595,-0.553184788932418,-0.9048417452902842,0.5837535357970378,-0.04098796433446117,-0.4940804403443498,-1.4880880643330534,1.159937097979026,3,left
8.916,-0.12492929087416944,1.7757944217844486,-0.44084528458907996,-0.8649609985723254,0.5751925705464601,-0.02919204258554734,-0.3902198582170252,-1.559996916468454,1.2571750254591791,3,left
8.916,-0.40794326695880634,2.1364633310620067,-0.39382427014544297,-0.8660938965466646,0.5756167326061137,-0.029680768195906457,-0.46896372751517906,-1.5054801594042497,1.1834556428203857,3,left
8.919,-0.530819508241462,2.402401329338153,-0.4708964580177183,-0.9419824455459529,0.5913293273319863,-0.05163854113793467,-0.421474721859633,-1.538342648821268,1.2279274540939924,3,left
8.92,-0.6447271178897931,2.6709794466233503,-0.5032621966193142,-0.7553760897464159,0.5524638855666926,0.002550958947401219,-0.4407868943050499,-1.5250190654201328,1.2098055275594919,3,left
8.925,-0.5836093384525063,2.797840742495759,-0.4576294445540023,-1.0648212842165476,0.616990751606598,-0.08737876209454926,-0.44108068025564867,-1.5247278812243255,1.2096101991557302,3,left
8.926,-0.4625511421818263,2.8048449382888188,-0.39997079902211724,-0.6566298455257087,0.5318412466299081,0.03127871501134369,-0.4309204022275735,-1.531883118044709,1.2190124691490718,3,left
8.927,-0.4182196953617413,2.788648362591559,-0.3792576686138349,1.0563131685010874,0.17507035618564298,0.5287075125583243,-0.443084699831105,-1.5233428532871478,1.207731687456659,3,left
8.93,-0.16714650029929384,2.628721897632094,-0.3249833694340573,1.4645581799795546,0.0898835779744615,0.6474092330967107,-0.4336204753428885,-1.5299450297301003,1.216546300698691,3,left
8.931000000000001,0.1549121564346689,2.3917747057574363,-0.22533770306010373,1.1550550285549441,0.154450770599457,0.5574316422257275,-0.4386956596207334,-1.5265358265907623,1.2117031380060448,3,left
8.935,0.3040224094543928,2.191617302741517,-0.11584599699971312,1.341639320737555,0.11560066871119776,0.6116029411347126,-0.43760214073533077,-1.5269605794675445,1.2130212018831137,3,left
8.936,0.292687856600356,2.0418934423596253,0.039454633153933306,1.2659430765475894,0.13117948989426018,0.5898039427071644,-0.43612846675936356,-1.5285520483438815,1.213894511720979,3,left
8.94,0.0511328163650548,1.999664349706061,0.22219570401010658,1.264396436545539,0.1318914794699791,0.5889735873713148,-0.4386171827225849,-1.5261285929037993,1.212185519011923,3,left
8.94,-0.3865289664810332,2.0742897075378046,0.3930369517635064,1.3048703845241931,0.12291783048610169,0.6012593418750771,-0.436303799544274,-1.5282883992433516,1.213856532231365,3,left
8.945,-0.8731464545758925,2.2128880977594223,0.553483093801798,1.2565308764929146,0.13351858556601126,0.5866999840646003,-0.4377731410432313,-1.5272764330424655,1.2124762428856908,3,left
8.946,-1.321421764582905,2.3600460150334905,0.7046059594915901,1.2939511191754458,0.12549590185960513,0.5977908391606067,-0.4373519719246835,-1.5265313970376286,1.2137891782407393,3,left
8.949,-1.6874122103276572,2.46870764582766,0.7620099513336316,1.2744699640576642,0.12910702971372595,0.592571451003644,-0.4368471500898381,-1.529249503674566,1.2121629611121918,3,left
8.95,-1.9360002174074076,2.5213889390076774,0.68425706227377,1.2772854182198443,0.12995874479856306,0.5919785182711805,-0.43795162908312857,-1.5249514175032677,1.214259660107837,3,left
8.956,-2.0393812993242078,2.509758327657632,0.5846057107027602,1.2856254363677628,0.12574665451549544,0.5968281044832991,-0.43670886209128945,-1.5295785016595196,1.2120861377426602,3,left
8.957,-2.02689098292766,2.4211626850670194,0.5088930276697239,1.2727195382424066,0.13146980709581352,0.5901031218026664,-0.4375301722056,-1.5268334978126972,1.2132446926363611,3,left
8.96,-1.907520263311795,2.254125409961617,0.42709824024197524,1.284301726692672,0.12663874647609077,0.5958391502290465,-0.43772653486511554,-1.5248214385877907,1.214724412683433,3,left
8.961,-1.685198559194656,2.025304687366765,0.37055070414838376,1.27855024421941,0.12781554718328958,0.5941896326516651,-0.43602988504372225,-1.534206836686017,1.2090365913940158,3,left
8.964,-1.4164018348982856,1.7631051256686812,0.3494651492667762,1.2755820956590647,0.13291917116784513,0.5889277550353532,-0.4393272637851524,-1.5166969947379725,1.2194416519846998,3,left
8.964,-1.1183768029831658,1.4965059267131702,0.3330706482169715,1.288130642604421,0.12005521483626849,0.6026269044694479,-0.4350596581466515,-1.5392038314789702,1.2061142236571323,3,left
8.969,-0.8207780784866634,1.2515872781709803,0.30813955960559936,1.2680298581764493,0.13953315689518042,0.5817895445106525,-0.438635743266709,-1.5204046753646532,1.2172257547409155,3,left
8.97,-0.5238418595905356,1.0396896161790687,0.25636140936140117,1.2897146276703513,0.11871601633212672,0.6040770266127693,-0.43848729303706035,-1.5209495960936326,1.2169789148610286,3,left
8.972999999999999,-0.2367968766631115,0.8701330762449451,0.16398344864010048,1.2767792106751916,0.1308285828428743,0.591081495744395,-0.4318388690901346,-1.5566770197691184,1.1956187705538466,3,left
8.974,0.005958498887949075,0.7492713143542814,0.05931844327517312,1.2676400503010048,0.14085102317572967,0.5804631970595132,-0.4482397847994365,-1.4688212162549763,1.2480517623939429,3,left
8.98,0.2817532969313369,0.663414807739238,-0.014549259648610287,1.3109294746204356,0.09630280158135929,0.6278898974093059,-0.4210321026981847,-1.6145005732178381,1.1611381237817273,3,left
8.981,0.46428127377513595,0.62247752655027,-0.04229714220892664,1.2300550281124054,0.17904124660939183,0.5397640663608994,-0.45691815014612525,-1.4223500666692042,1.2757669391483355,3,left
8.982999999999999,0.5131370804592128,0.6150611094003096,-0.043264934474383024,1.334034379729915,0.07277385132199474,0.6529610499741898,-0.6074852907728754,-0.6158481353337805,1.7570373178271042,3,left
8.984,0.6801401945490764,0.5983574715477598,-0.036757871069555394,1.2471746540550086,0.1615013767334103,0.5584414093605083,-0.6433597631933923,-0.42370353888638185,1.8716500404615646,3,left
8.984,0.9138801473639679,0.5830166634041832,-0.01289765369283998,1.2497287875684147,0.15905953193616257,0.5610649456963821,-0.6161669294416519,-0.5693759032309247,1.7847645951366284,3,left
8.99,1.0959558342628761,0.579729983215845,0.029107595250963264,1.4146843153463498,-0.009992298876738137,0.7410825651916717,-0.6325643732619718,-0.48151978685182373,1.8371660189606285,3,left
8.991,1.2800651003569108,0.5755591120184573,0.07632235564502371,1.0090050489461824,0.4055634637026192,0.2985450920800974,-0.625891385031125,-0.5172640524303438,1.815826852076417,3,left
8.993,1.4896428172681975,0.5634185995761583,0.1252925965370768,1.6817039740395883,-0.28346096699268725,1.0323056186468793,-0.625807129801855,-0.5177698170843016,1.8155874753167662,3,left
8.994,1.6287026514296596,0.5501209433559794,0.1504696832950307,0.7944009132004566,0.6253680722803394,0.06450034350119888,-0.6292820916096884,-0.4990291395732786,1.8266461932958178,3,left
8.994,1.6686059088568959,0.5443823258657757,0.1565744739903704,-2.9301839810883394,4.440415770201138,-3.997045684183518,-0.6251265269561544,-0.5214748248678596,1.8134239611203378,3,left
8.999,1.794829703991536,0.5211087497223459,0.18501866375148096,-3.817567754378156,5.3493153951614865,-4.9646604436197785,-0.6283544968718477,-0.5039967893447932,1.8236859398885505,3,left
9.0,1.9668007886818581,0.47543570826039927,0.21882713330796108,-3.1446641183750046,4.66013127815356,-4.231306128637956,-0.6266101777084254,-0.5134222077145185,1.8181329008593792,3,left
9.003,2.077575579032103,0.4224592239053996,0.23351632246858797,-3.5507259546924024,5.075953107437637,-4.673213286509534,-0.6270435998112847,-0.511259744298938,1.8195657040862816,3,left
9.004,2.183775925169312,0.36471694283930545,0.2228644402485882,-3.385202915196369,4.906546195521155,-4.493973011082044,-0.6274090490290464,-0.5087860899067633,1.8205852878891884,3,left
9.008,2.2598516129590425,0.3131125601775595,0.17096616615755397,-3.3832972163479464,4.904461907893128,-4.490652996401726,-0.6267760591773972,-0.513067211102542,1.8188156888969775,3,left
9.008,2.306660817822964,0.2750770184877034,0.09680181973936344,-3.469685665031136,4.993002163070345,-4.585389812514684,-0.6273192421590382,-0.5090642820651767,1.820241834687891,3,left
9.013,2.3335253948302563,0.25831761364694816,0.020789683189714834,-3.365602992778471,4.886514822447646,-4.472952601534057,-0.6269823804922305,-0.5117405110662718,1.8194117712725457,3,left
9.014,2.3282958553865547,0.2653317760008892,-0.05676639335590809,-3.4475852883732605,4.970102851291401,-4.558938239662818,-0.6272061140439338,-0.5105498269754918,1.8201292743819044,3,left
9.017000000000001,2.3100194612910014,0.2937623594834606,-0.12832118980769702,-3.401934668421245,4.924004607871774,-4.51503505574018,-0.6268877832594096,-0.5106370785137158,1.8186542098221172,3,left
9.017999999999999,2.270609024576761,0.34596018286275654,-0.19290780803524765,-3.414464819144853,4.936028342127716,-4.521487823132263,-0.6274930654881465,-0.5110922485437105,1.8216341256428334,3,left
9.023,2.2080470904163203,0.4162028234344857,-0.24850452699478393,-3.4239508039004747,4.9463913616345305,-4.537581157481357,-0.6265617014114675,-0.5105654167211869,1.8170981146451457,3,left
9.025,2.1230989071590933,0.5007005994969356,-0.2887810930560843,-3.403956639287095,4.925916598707983,-4.515826007745662,-0.6275921809484217,-0.5109251458949295,1.8220537898993026,3,left
9.027999999999999,2.0151262046951697,0.5969942498253291,-0.31297830558528705,-3.4265102790095368,4.947819215129738,-4.5297606054084,-0.626997289600591,-0.5107152483301887,1.819191979088338,3,left
9.029,1.8816738037249945,0.7036607266104415,-0.31759116674400634,-3.40522989116038,4.928763704600821,-4.530920833873735,-0.6264005419863576,-0.5109815163757645,1.8164571390434707,3,left
9.033999999999999,1.7198080603837225,0.8224469517632707,-0.2949287032965653,-3.423736731993194,4.943627551837069,-4.514747589571934,-0.6289032263757726,-0.5103948436390731,1.828078583036412,3,left
9.036,1.543764504065146,0.9491230042790305,-0.24085360316073015,-3.409836611371081,4.933755661051948,-4.538350645457449,-0.6242676897811246,-0.5114543261571504,1.8065444479471404,3,left
9.038,1.3555270073031027,1.0808424213667824,-0.16706417242772503,-3.414898824146185,4.936412763502581,-4.521464208380031,-0.6302265367532773,-0.5100564712401685,1.8342167585158227,3,left
9.039,1.1691091863540886,1.2092676249331646,-0.09029126080241803,-3.4255061994344773,4.945115673806415,-4.513749867060232,-0.6252491375169515,-0.5112408270266549,1.8111054621479261,3,left
9.043,0.9823980560825589,1.33355833064077,-0.011550228080575143,-3.3922631321040875,4.920563768335663,-4.5619544701792325,-0.6253739092997828,-0.5112548135970957,1.8117005949785336,3,left
9.044,0.7985022458665064,1.4496718402509532,0.06066946273688422,-3.450077581726405,4.962152034804267,-4.468347023079593,-0.6349050790130855,-0.5087981525274385,1.8558945460591656,3,left
9.047,0.636319076271292,1.5411219185591145,0.12101454096943953,-3.377529429527047,4.910495304862467,-4.59041410164523,-0.6114876381718896,-0.5148027478648098,1.747297207021517,3,left
9.048,0.4587294643194719,1.6190904377165212,0.18108669983594744,-3.4373996834309937,4.952885057765327,-4.487703533618111,-0.6503136729572749,-0.5048418873609586,1.927355006375405,3,left
9.052,0.3386190299727707,1.6600480612490176,0.21906204847289357,-3.4363303166282027,4.952354155393014,-4.491185199085201,-0.5991020137154186,-0.5179930981935764,1.6898565141386113,3,left
9.052,0.30825853619547244,1.6634627873194558,0.22900438761748032,-3.321193746857486,4.87040117906565,-4.685727814301353,-0.38409792033076723,-0.5733015218439004,0.6928444292188662,3,left
9.052999999999999,0.21218048533212372,1.6794400717500464,0.2607131499845913,-3.603216358069515,5.070733887575701,-4.206305479936059,-0.33288610752128167,-0.5864719711643404,0.455341739672271,3,left
9.057,0.07580664814967596,1.6629926169748943,0.3187914582240772,-3.136026336812013,4.73907937453176,-5.001818213048305,-0.3717139383511034,-0.5764815734269122,0.6354092843918592,3,left
9.058,0.020967634986943096,1.626853299926601,0.3515064376881598,-3.7521095031418397,5.176308178309391,-3.9522346016324663,-0.34829078758412063,-0.5825091473357954,0.5267952393139168,3,left
9.062000000000001,0.0019518957117061232,1.615358353797666,0.3621458341241873,-6.33655746430728,7.010899930612604,0.4532888212528139,-0.35783330796202795,-0.580057837841083,0.5710121284735905,3,left
9.062999999999999,-0.044649486360407435,1.5553274428181174,0.3981698462865334,-6.952708823191335,7.44806383842264,1.5030608581822626,-0.3579416086069429,-0.5800177584432659,0.5715832949630866,3,left
9.062999999999999,-0.08962189443159296,1.454610655844815,0.44509739924279756,-6.485614160430183,7.116652797737551,0.7071597973036553,-0.3529814595683962,-0.581313702102314,0.5484860350061622,3,left
9.068,-0.10503946719713553,1.353771595820629,0.4773774833866721,-6.767009617277354,7.31639852098135,1.1871579720977548,-0.35893108119612094,-0.5797621722094612,0.5761697592707268,3,left
9.07,-0.10887793749077701,1.2386279495491215,0.5079580565475919,-6.653352875517784,7.235477825461361,0.9919445900038935,-0.35428475729650755,-0.5809669933779584,0.554583546522558,3,left
9.071,-0.10281350708202044,1.1228302630848006,0.5330890129565314,-6.649924576990828,7.23357104753255,0.9890062988968311,-0.35682939389840684,-0.5803301688719098,0.5663038460025509,3,left
9.072000000000001,-0.08587636848499179,1.0103430976928995,0.5484033770763855,-6.712516492176853,7.277256865365784,1.091658198521626,-0.3561560471700954,-0.5804447082744949,0.5634374812760672,3,left
9.076,-0.061399683073615034,0.9019149218024726,0.5611624058685063,-6.638083203361193,7.225154696269741,0.9687497143936332,-0.35565991085959703,-0.5806740682213194,0.5606961967884461,3,left
9.076,-0.026938433757730303,0.801399092871593,0.5744284698774336,-6.695179009586509,7.265365791646001,1.0643910711695654,-0.3566044715310892,-0.5803059256548693,0.5656165973738547,3,left
9.081,0.016340004854945977,0.7094115218891675,0.5887851815530105,-6.667084776489759,7.2448124371134766,1.0130591011340158,-0.35568891999952484,-0.5806413390036722,0.5609404857590959,3,left
9.082,0.07055381224283096,0.630205598499807,0.5997659048807519,-6.667179764867542,7.246856303963064,1.0242238350624218,-0.3564155997536846,-0.5804552862719252,0.5643063173869565,3,left
9.087,0.13009161514277015,0.5610784920732584,0.6036218994619181,-6.6869066663738925,7.257454608780407,1.0389261555910365,-0.3557898052628301,-0.5804308013788555,0.5622032243381233,3,left
9.087,0.19632427386604853,0.5059240233449825,0.5971645656556849,-6.658673055202202,7.241589886303631,1.014007844889533,-0.3564961644725686,-0.5806729724011361,0.5636534366867334,3,left
9.091000000000001,0.2701079651930067,0.4649561620559534,0.5767540636540514,-6.6831308870082315,7.255621736823654,1.0372022151390838,-0.3556157952433823,-0.5802671175974894,0.5622938152482542,3,left
9.092,0.34454732498698215,0.4364948277215654,0.5402444905007422,-6.674516627858757,7.249479178564595,1.0223486627455078,-0.3565219418805987,-0.5807079819951566,0.5635934426335465,3,left
9.095,0.42280345905887373,0.4241920434678699,0.4909240337423234,-6.657078579883082,7.243272327149361,1.0269557547373642,-0.35604943850018667,-0.5804403597699953,0.5630789786878868,3,left
9.096,0.501001389297612,0.426043748790917,0.4368359451965737,-6.705627020007283,7.263628645062427,1.0312591405141327,-0.3553893543125225,-0.580273874281556,0.561464394117386,3,left
9.101,0.5749645790668574,0.43550948484391194,0.3793010581988736,-6.631118309876303,7.231782901972437,1.02128684657435,-0.3578643010747645,-0.5811072689093637,0.5666135356566915,3,left
9.101,0.6492432641902353,0.4510725098475584,0.3199392601640113,-6.710934714325793,7.266005925291964,1.032579344674958,-0.3533493309287471,-0.579543186799879,0.5574105107758814,3,left
9.106,0.7231731140875801,0.4763307699361301,0.2695503371831007,-6.664202294928446,7.245797639045839,1.0250091695773245,-0.3591297959426094,-0.581555195421519,0.5691498559729549,3,left
9.106,0.7921497565936687,0.5054174530979849,0.22882689509157308,-6.626959082978216,7.230529838459156,1.0236606481117192,-0.35431109660234855,-0.5798747025792581,0.5593809290180953,3,left
9.113,0.8518624664437151,0.5399237944332969,0.18686373114324145,-6.794933655152915,7.300870953065695,1.0380375419083245,-0.3544147357839369,-0.5799246017882486,0.5595242530197824,3,left
9.113999999999999,0.9013773904082478,0.5797610675527722,0.1482098316265131,-6.4825213865572655,7.1697878547788765,1.009844867740761,-0.3636902040903101,-0.5831124785107125,0.578548413504509,3,left
9.116,0.932967058195847,0.6205291794053907,0.1151027285696084,-6.883880362729825,7.33824637386328,1.0463903256357796,-0.3409244631410093,-0.5752737893357072,0.5319324562043233,3,left
9.116,0.9441853438538286,0.6728399291627973,0.08052956118775789,-6.548716756686256,7.197552728507689,1.0157390997530213,-0.3786620032178477,-0.5882692311902907,0.6091864580134408,3,left
9.12,0.9422165145870388,0.7127278904477276,0.05976266890657927,-6.55811846422568,7.201578887062811,1.017106845450268,-0.328888207109295,-0.5711316667639609,0.507292471148098,3,left
9.122,0.9367807140253763,0.7258842978830953,0.05268780646720128,-7.196142069851899,7.469134339586639,1.0737921849123566,-0.11991219018666605,-0.4991662472664821,0.07941183654216391,3,left
9.122,0.9207139350245093,0.7620613491643333,0.032509291452362366,-5.6275519816332125,6.811262394421752,0.9338273299629921,-0.07013711801781065,-0.4820353837452431,-0.022495988018484916,3,left
9.125,0.8621291175518672,0.8318891173701168,0.001082554030914039,-8.228474571725226,7.90210475112849,1.16606732888755,-0.10787603768281517,-0.49502357633344685,0.0547729829967926,3,left
9.126,0.8116105053570253,0.8750559611410914,-0.016582530780627762,-4.7978196642815965,6.463291862560454,0.859718127157266,-0.08511082545675566,-0.48718212739016487,0.008162727876235409,3,left
9.13,0.796876281740217,0.889718463846529,-0.023605503070226807,9.601890489083926,0.42419360404332696,-0.4254265422438064,-0.09438170665090934,-0.49039405776043216,0.02713720996703127,3,left
9.131,0.7306080471421146,0.9372668712216565,-0.04394005143584116,13.032663496637726,-1.0145692566653715,-0.7317562088662874,-0.09449521057532609,-0.4903922058262218,0.027387412153580957,3,left
9.131,0.6286615140237679,1.0030439428278526,-0.06875388609613947,10.43150440892703,0.07620407576476745,-0.49950390455520555,-0.08966237120532972,-0.48878591096656177,0.017465252497104664,3,left
9.135,0.5401993794891136,1.0515573828529943,-0.08522948692653232,12.000430991444604,-0.5816356886750524,-0.6395952470044826,-0.09545691172891685,-0.4907240372003142,0.029357174332381126,3,left
9.136000000000001,0.44764818673542384,1.0928704471881545,-0.10071310798906612,11.362037332603236,-0.3140094757935297,-0.5825956057235593,-0.09093587756316099,-0.4891918278100963,0.020088336172044786,3,left
9.141,0.3651345493909578,1.122819440330486,-0.11081905912567958,11.352901456382218,-0.31020824248835965,-0.5817409807381864,-0.09339871608480066,-0.4900886803142305,0.025106410627880514,3,left
9.142000000000001,0.2931658845133912,1.1404910692210048,-0.11630256848288695,11.688108566426873,-0.4505212031752824,-0.611787112998279,-0.09277759898730108,-0.48971780403070764,0.023913946968061057,3,left
9.145,0.22531608659776126,1.1492423999753298,-0.11990730722714701,11.286175797992364,-0.28251445383943374,-0.5756810361269122,-0.09223797463735792,-0.48980234169214815,0.022672197934805176,3,left
9.146,0.16755851467061578,1.1479342919063171,-0.1150994725113158,11.59982079182993,-0.41326763346948403,-0.6039871429095847,-0.09322647327741267,-0.48981103250482244,0.024864336612884334,3,left
9.15,0.11593415605336684,1.139585692250185,-0.10368214779830316,11.430068781956562,-0.34284964514070476,-0.5885346763617401,-0.09228048230297148,-0.4897497050723299,0.022793236649708302,3,left
9.151,0.07169595812330998,1.1243518953247833,-0.09027566983793464,11.469132499638299,-0.35890017038364463,-0.5921467530570701,-0.09298618019281393,-0.4899949976598505,0.024236936892334193,3,left
9.156,0.029839145585382955,1.1092352395136238,-0.07898280615147908,11.514944533908814,-0.3774560872303859,-0.5964984709780559,-0.0924823378425303,-0.4893310434540769,0.02345455379198773,3,left
9.157,-0.011372785517341886,1.0941085682155531,-0.06848481369890688,11.433904859095566,-0.34558332595923613,-0.5884321313912776,-0.09293045526324267,-0.4906062975994845,0.023802435538653584,3,left
9.161,-0.048558180841973664,1.0765707154982644,-0.0548082955361812,11.512901939682973,-0.3750739477352079,-0.5969129667865202,-0.09243036208746813,-0.4887617534574139,0.023628364911181192,3,left
9.161,-0.08646262897231252,1.0636235449711493,-0.043105096810429344,11.456309396851186,-0.35580435019676676,-0.5901097244408733,-0.09293217085831541,-0.4907174051215937,0.023749789084867374,3,left
9.164,-0.12596319112834337,1.0524646356634764,-0.03594281366269866,11.483957716445154,-0.363841347027276,-0.5939728949206411,-0.09269161978057894,-0.48960425215435843,0.023780794772809866,3,left
9.165,-0.164571557846156,1.042689804991731,-0.028564243086358004,11.483912506429311,-0.3637906803051555,-0.5939827398350137,-0.09223934198446997,-0.48856094015332036,0.023306007392893922,3,left
9.169,-0.20330742207269575,1.0390622543818262,-0.015167246381502367,11.460592687075785,-0.36061232578982205,-0.5893092263978759,-0.0938180473454107,-0.49299023091585287,0.024563387141575074,3,left
9.17,-0.23954046177556887,1.0358789957863817,-0.0017733158463209206,11.502078745594872,-0.3629248188103004,-0.5989333211218921,-0.09096240105170392,-0.4848003760507087,0.022379209496499016,3,left
9.174,-0.2704454078757175,1.0314500223315108,0.0041418774441793135,11.449912954209314,-0.3635526293138934,-0.5854452759998247,-0.09461334901419452,-0.4953116070862512,0.025151300707577717,3,left
9.175,-0.2958563343037082,1.02999660415992,0.009925977582046039,11.49983947028479,-0.36050035842581274,-0.5993152318126738,-0.09157130881093317,-0.4865375978309726,0.02284929816052271,3,left
9.179,-0.3138592265545551,1.0317389457252668,0.01697565980362535,11.472806223447854,-0.36302418214036297,-0.5914650153624958,-0.09162985707107828,-0.4867686591818209,0.022862698981389998,3,left
9.18,-0.32557927087738253,1.0338813713813682,0.025516356378334652,11.450267044944155,-0.36552216058355314,-0.5847603279521219,-0.09750976445389195,-0.5035220028842917,0.027415089294784332,3,left
9.185,-0.3335704514822445,1.0364146067138922,0.03772444244681569,11.54674033115898,-0.35368441687322116,-0.6138973481524009,-0.0830844484206605,-0.4623499712350134,0.016281101148591312,3,left
9.185,-0.33904440745604314,1.0393746294824178,0.05061514861685036,11.369911685865144,-0.37650897854509646,-0.5600534018359123,-0.10699688558265086,-0.5306159411867527,0.03473040584800001,3,left
9.189,-0.34172264029512023,1.0386902009363213,0.06089678448847699,11.595529312974001,-0.34659942820098344,-0.6290581243031949,-0.07545481031091328,-0.44057014690083146,0.010392715740274875,3,left
9.19,-0.342191204559292,1.0394168267991473,0.06306998439316644,11.407794760914125,-0.37182779890638706,-0.5715127030885241,0.056952623509366015,-0.06263206571542393,-0.09178841623835976,3,left
9.191,-0.34233113080788846,1.0438776344057188,0.06200195155816725,11.412984771938387,-0.3711965494296845,-0.5730619005279829,0.08850172348238208,0.027420836782867636,-0.1161399174795975,3,left
9.193,-0.3431211573129237,1.0458964875299848,0.06228527768081138,11.769570751464876,-0.3224952323220587,-0.682709873889725,0.06458168726622303,-0.040852825176084476,-0.09767567345930313,3,left
9.193999999999999,-0.3416045185401527,1.046429804400113,0.05989497545210602,10.893435254715474,-0.4423150826464629,-0.41327111020406193,0.07900410838374775,0.0003162864007196266,-0.10880396629263278,3,left
9.198,-0.3307880456672366,1.0432223701520553,0.056492978156851226,12.345751111561496,-0.24350661549991226,-0.8599575517756176,0.07314942064563805,-0.016411556928146734,-0.10430116742292904,3,left
9.199,-0.32096918554541515,1.0388549257982245,0.05404281293042364,10.430428120511733,-0.5058428516807044,-0.27082267675579863,0.07303661508096035,-0.016697492288236502,-0.10418108109770735,3,left
9.2,-0.31802784343385426,1.03809627364479,0.05239157361311003,2.3926957150779176,-1.6079247918049988,2.202428129889519,0.0761564444895835,-0.007844799445331596,-0.10663603560132161,3,left
9.204,-0.306313797574015,1.032432354002427,0.05071509753573173,0.4776788267733777,-1.8703952872009557,2.7915548329002293,0.07242804065873772,-0.018434389649717196,-0.10371165291187752,3,left
9.205,-0.2865115891542974,1.0225971048551856,0.04742794280462606,1.9293895221412476,-1.6713063494372045,2.3448355494764366,0.07531709668282655,-0.01021071174495072,-0.10596151040301943,3,left
9.208,-0.26343714302142307,1.0128854724358543,0.0434833584416311,1.0540985027702692,-1.7915498728865953,2.6144253198694427,0.07380492903054496,-0.0145727433951171,-0.10483497681409729,3,left
9.208,-0.23701027961842938,1.000381499598531,0.040549267366653596,1.4097824051323942,-1.7423430586742277,2.5044436351415973,0.0740429143910741,-0.013746141029760635,-0.10488839613564949,3,left
9.213,-0.21142760003283945,0.9890982541833183,0.03747443354184671,1.4155767786837052,-1.7421398408093285,2.503409115634004,0.07465267530383533,-0.012259560297331953,-0.1055833549521971,3,left
