time,gFx,gFy,gFz,ax,ay,az,wx,wy,wz,subject_number,foot
6.075,1.1078545677579266,0.7195045102948372,0.08382497238768152,-5.114369116500663,5.276952269081154,-3.807566493343589,-0.800675067555495,-0.025561481710133074,1.6436969221867495,2,left
6.0760000000000005,1.1047259618407343,0.7281433823447654,0.08824053488255024,-5.121007215157469,5.282587721625746,-3.815467646512699,-0.8009201804983187,-0.024704497636640232,1.6431838561542973,2,left
6.081,1.095223985887786,0.7399287276487145,0.09206045522745984,-5.125259797107278,5.287266428138839,-3.8225150646493224,-0.8017763367502779,-0.024057915335283394,1.6458751934462117,2,left
6.081,1.074019108132153,0.7537939724565279,0.09793749301612557,-5.117873678948898,5.279156172622963,-3.810301833916376,-0.8001598627099606,-0.02564640555937058,1.6414964599630413,2,left
6.085,1.0425760670527908,0.7724878075930794,0.1049388317862007,-5.123546580298816,5.286085736026921,-3.820987376096247,-0.8019462765184687,-0.02383687521824051,1.6462320207943153,2,left
6.086,1.000296777559793,0.7984115419304438,0.1165844766565724,-5.120420338070009,5.281806161831412,-3.8142399798245132,-0.8008142430868197,-0.025065870898252993,1.6433887815939971,2,left
6.09,0.9446365978091373,0.8284372670432567,0.12786105374786919,-5.123689434320479,5.284704969648875,-3.8183606146478106,-0.8003328209691185,-0.025216504875982784,1.6414679895364486,2,left
6.09,0.8799611943793046,0.8602353245367619,0.13164707141729937,-5.115774992561391,5.280426949710748,-3.813488296940526,-0.8032491614826044,-0.023069777678307778,1.6507421137374152,2,left
6.093999999999999,0.8107502562595279,0.8961856892938254,0.1295495327527097,-5.132084266576403,5.288620605024896,-3.8223689271397823,-0.7976945679580062,-0.027319292068991266,1.6333864600478698,2,left
6.096,0.737124150069741,0.9324993052815806,0.12391587317567887,-5.107340863679659,5.276028912280352,-3.8085973609572115,-0.8048599119138675,-0.021802599138164576,1.6557072359625236,2,left
6.1,0.6673916968685694,0.9625129509699275,0.11826875432329809,-5.134266047398789,5.2899404973956266,-3.823972638615018,-0.7988643430646825,-0.026432404378708536,1.637058289321244,2,left
6.101,0.6020145290749902,0.9853602428017489,0.11780192282103902,-5.118713418732465,5.281906549222249,-3.8150961292665535,-0.7990782350530916,-0.02621396036579863,1.6376181618334067,2,left
6.104,0.540924241779482,1.0013079287286253,0.12394623368411313,-5.1040956533900825,5.273902200407766,-3.8059044754236715,-0.8103419190969119,-0.017691813471843912,1.6729976308946455,2,left
6.105,0.49057738436774456,1.010254447636731,0.1351436082614479,-5.166505150083151,5.307539069139913,-3.8441383914317684,-0.7825956911345782,-0.03874751845650066,1.5859738065873041,2,left
6.109,0.43446787718982605,1.010574148411818,0.15303667458634695,-5.05084101319998,5.245225846042038,-3.7733319570830837,-0.8286168881948548,-0.0038085596759154933,1.7302807707289247,2,left
6.11,0.39456185442236075,1.0057082827069983,0.167819392715561,-5.199463724096255,5.32533195947521,-3.864379188311067,-0.7679125304146996,-0.049894253459032076,1.5399382266625845,2,left
6.115,0.385294110263334,1.0040478928824395,0.17111995969435456,-5.075334585148484,5.25840967197041,-3.7883092827265714,-0.5131865678598269,-0.24320991997226027,0.7410605621301074,2,left
6.1160000000000005,0.35451387663510503,0.99765600489564,0.17673164498338198,-5.07858006371599,5.260118734374414,-3.790208516503585,-0.45248466994611247,-0.2892820332959818,0.5507215353770805,2,left
6.117000000000001,0.3121822144385419,0.985685674981338,0.18579952100997732,-5.315781289549804,5.388183417469314,-3.9359440293008157,-0.49850515408744456,-0.25435854174549327,0.6950263603915601,2,left
6.12,0.28539954188631206,0.9788421353963981,0.19011930432664154,-4.732840324672834,5.073479930857571,-3.577862125177139,-0.4707510122959949,-0.2754170932601214,0.6079951863966958,2,left
6.12,0.2563212065303983,0.967657145854414,0.19683120788541525,-5.699410013607791,5.595296114431559,-4.171593312347296,-0.4820377527847929,-0.26685186011674233,0.6433994468561559,2,left
6.124,0.2389641077388712,0.9568536476185814,0.20406122306204738,-4.42446493582468,4.906983898775534,-3.388422746400451,-0.4822115414406441,-0.2667298977256053,0.6439141067799329,2,left
6.126,0.23695573924981672,0.9539553327401097,0.20520952039485463,0.9270522244515922,2.0178274859562304,-0.10069453000288864,-0.4762658621540483,-0.27121834459608984,0.6253234772429972,2,left
6.126,0.23221592394991553,0.9416992278878488,0.2089004666688769,2.2020330025233843,1.3294826569613067,0.6825377368889767,-0.48339103323509375,-0.2658461916933077,0.6475943117521474,2,left
6.129,0.2330585670660928,0.9223906667762736,0.21449417797780035,1.2354475875050674,1.8513164664952164,0.08871213413624185,-0.47783611894509137,-0.27002632635230667,0.6302451084119343,2,left
6.13,0.24331362272933477,0.9050038316090425,0.2152451582452829,1.8182927518847487,1.5366889507557553,0.44686661812660616,-0.48082763874432305,-0.26777164221373884,0.6395969099377444,2,left
6.1339999999999995,0.25220375844097,0.8877180576573593,0.2135799554386931,1.5813868668667583,1.6645076337168507,0.3011505697651579,-0.4801740271848729,-0.26829783646901584,0.637485748782789,2,left
6.1339999999999995,0.26351059563633306,0.8739862383753493,0.20750001242976543,1.5776176343885306,1.6666598484439756,0.29907452372137217,-0.4792989595398407,-0.2688639459014084,0.6349365511791216,2,left
6.138999999999999,0.2785234230682191,0.8627940019419653,0.20180164052820904,1.702408297857911,1.5991711385888285,0.37550597426296767,-0.4808121863360607,-0.26788469678737437,0.6393473173630116,2,left
6.14,0.2898664914857439,0.8540984182515075,0.19702174386117077,1.5532385491996692,1.6797551487525668,0.28396376958278213,-0.47935052507287434,-0.2687862263251769,0.6351736601968367,2,left
6.144,0.30147187709517875,0.8493844277127872,0.18298563644838095,1.668931308051701,1.617395672595678,0.3552343885523237,-0.48035302060808455,-0.26819110623434284,0.6379907963664709,2,left
6.145,0.312665568814545,0.8465246648795917,0.1626377686221866,1.6074694673997119,1.650253623506504,0.3168480108949528,-0.4799783556742401,-0.2684768620834391,0.636812816490114,2,left
6.15,0.32500669572096,0.8441829427408343,0.13730394380709143,1.6198568221795417,1.6441242913201175,0.3255373483725173,-0.47971429713438857,-0.2683698986215288,0.6365910134360364,2,left
6.151,0.3450854899689778,0.8387084563287827,0.10888098343194778,1.6387856376121324,1.6332196830175216,0.3358432490880282,-0.48052443833330216,-0.26845758464251535,0.6377462960256903,2,left
6.152,0.3670508680353248,0.8307723597796329,0.0832843997026556,1.6082130926867815,1.6502717040921389,0.31811510288884176,-0.47936394114580533,-0.2682902269390861,0.6361735572826874,2,left
6.153,0.38913724758257795,0.8228944644922029,0.06038198060034073,1.6351227973647708,1.6357482569862314,0.3346564977518046,-0.4805373158458664,-0.26851702466923416,0.6376502104630317,2,left
6.159,0.41081516932950846,0.8131976929712237,0.04247286893568225,1.6205408804122503,1.6426072046948024,0.32374306963303867,-0.4798586066948264,-0.268386542538974,0.6367948476638297,2,left
6.16,0.42704140394167,0.8045185820076945,0.025848993824295428,1.6205148670423357,1.6449381234859395,0.3281943158769561,-0.47941509611759914,-0.26816660104671897,0.6365008998160028,2,left
6.1610000000000005,0.4391159696144572,0.7976961291981963,0.01083929930411352,1.6322982604941028,1.635119586912444,0.32876972594287424,-0.4815394967975505,-0.26898992264088034,0.6383613940280939,2,left
6.166,0.4466080489406491,0.789336319298295,-0.0002594260798698814,1.6154400755474398,1.6479067907937748,0.3255159384050532,-0.4775905117986553,-0.267470127764546,0.6348824934617718,2,left
6.166,0.4497945598011956,0.7805769085018894,-0.013391705019052458,1.628060752239765,1.6389623924859156,0.32916618984469,-0.48264964671857163,-0.269430349150836,0.6393128590366581,2,left
6.17,0.4509418308202555,0.7711945758569277,-0.023764121104389926,1.6299860583848398,1.636089589173896,0.32680933596367157,-0.4784311056827496,-0.2677900661074935,0.6356308213607451,2,left
6.172000000000001,0.4433521052404297,0.7622114093216548,-0.03264960349607196,1.6050424140788833,1.6575869907191347,0.32697095655894226,-0.47856078234515387,-0.26782256215944533,0.6357773534358346,2,left
6.175,0.4314472751997912,0.7563320368830859,-0.04477701575589971,1.6552009068208022,1.615611220471512,0.3290696909722709,-0.4865397570607847,-0.270999870018783,0.6425987633897277,2,left
6.176,0.4223819928656934,0.7518697879316834,-0.054605519476103405,1.5893925755393765,1.6702701770822581,0.3255109860665534,-0.4669158820513103,-0.2632002321145644,0.6257967559958884,2,left
6.18,0.4041380327858115,0.7496714196430517,-0.06348444630430476,1.644919894843607,1.6243169322538755,0.32884596438975966,-0.49945305618604874,-0.2761322517508939,0.653652271353846,2,left
6.182,0.3854420289447275,0.751057850804189,-0.07051879091070426,1.6425174631291464,1.6260558921154753,0.32819581777558127,-0.45653928228165863,-0.25907323081017625,0.6169217952746814,2,left
6.185,0.3802086114398545,0.7525384603991747,-0.07230362786376582,1.539035689537843,1.7123624727893216,0.32332683576629806,-0.2764598058959344,-0.18742736705725288,0.46287391416904544,2,left
6.186,0.3662613253791194,0.7572423034509093,-0.07442680031955076,1.7946713129111118,1.4995150936130317,0.3361019170737043,-0.23354957918133473,-0.17036595631416857,0.4261591588888809,2,left
6.187,0.33445895075469084,0.7700710438685607,-0.083909705084826,1.3703441884262573,1.8526964865345947,0.31461825892787726,-0.2660801590994901,-0.1833026541767923,0.45398902335720503,2,left
6.191,0.31338480783202305,0.7793880666582975,-0.09366375150935849,1.930178880216201,1.386753143275484,0.34306066364179494,-0.24646458762977938,-0.1754965875718182,0.437211157139483,2,left
6.191,0.3069585441838419,0.782215637344476,-0.09691956671275084,4.279541395455743,-0.5686509207057402,0.4620420555690441,-0.2544361650905622,-0.1786805994107586,0.44402588146695865,2,left
6.193,0.287549331128669,0.7941231200883312,-0.1047933539071475,4.839326016029103,-1.0346146528363298,0.49048876260692065,-0.25456831116856415,-0.17870887958203663,0.44414463951020733,2,left
6.196000000000001,0.2584504845935812,0.812853011485147,-0.12000975010920209,4.414985882039206,-0.6813521088006455,0.468942300626884,-0.2503569954386573,-0.17706646788222463,0.4405361782524554,2,left
6.197,0.23320125064801553,0.8304899355879835,-0.13733998822308124,4.670880074625362,-0.8944004024004258,0.48192157690119186,-0.2553954870543115,-0.1790390188310368,0.44485111275424105,2,left
6.199,0.20659285922326937,0.8536782790699886,-0.14686434931769743,4.566728012171385,-0.8077354937697208,0.4766434176708433,-0.2514803838600544,-0.177494943567909,0.4415003205397293,2,left
6.2,0.178600629923439,0.8832446026548364,-0.13693726829039038,4.565440051301115,-0.8064792529988657,0.4765899979224233,-0.2535649610345066,-0.1783513689878999,0.4432795018160337,2,left
6.204,0.1510344176647762,0.9157357437382231,-0.120412814119573,4.619631832567222,-0.8519711677770372,0.4792964988540892,-0.25315073250533365,-0.17809995086390923,0.44293709283628085,2,left
6.205,0.12305452731061993,0.9525696512349833,-0.10946493945549746,4.554825683834519,-0.7974833198902955,0.47607994978183954,-0.2524777631816404,-0.17798104247333685,0.44234141362571244,2,left
6.21,0.09239981725050125,0.9915663394978486,-0.0993684102534845,4.605160322680902,-0.8399205845797157,0.4785578222787603,-0.25358443302300904,-0.178238929961394,0.4433123181160296,2,left
6.211,0.06033135069208705,1.0302274942289242,-0.08741539899890893,4.577953844918912,-0.8170427340345634,0.47721183010233015,-0.25256621584493666,-0.17797914261342468,0.4424221375243557,2,left
6.2139999999999995,0.028601804056130407,1.0676632745773633,-0.06927595102810791,4.584755852451581,-0.8222402323087414,0.4776231955617693,-0.25317256295437324,-0.17822168553730663,0.44294057946944043,2,left
6.215,-0.006505923895391449,1.0998694910948994,-0.043065928127401246,4.5903435588418375,-0.8283838487470887,0.47768924599848456,-0.25311481011361264,-0.177929170819784,0.4429267677338228,2,left
6.218999999999999,-0.0434577418935292,1.1262485368100383,-0.016332013611954434,4.580661480958371,-0.8177543777849996,0.47757497519810543,-0.25264077180014965,-0.17835647635528407,0.4424401013587975,2,left
6.22,-0.08174446253517129,1.1487120906760233,0.008631907016254034,4.588898462745734,-0.8277644327277934,0.4775289328773049,-0.2534930441718349,-0.1777767835156024,0.4432901221074818,2,left
6.224,-0.11765123780643197,1.1659234392776603,0.03058517493532189,4.583832587523098,-0.8210336096404932,0.47764240509591677,-0.2525575354138164,-0.17838399611362743,0.4423609964075562,2,left
6.225,-0.1434281158728997,1.1755672055190198,0.04430966650402944,4.587325206104652,-0.8239183201296522,0.4778226307032864,-0.2531406868868713,-0.17805010454922948,0.4429342104512238,2,left
6.229,-0.16069036304109435,1.177496122900092,0.056102109486448004,4.582004397050617,-0.8241548432322856,0.4768651222105987,-0.253432118073326,-0.1776782559677948,0.4432478576608677,2,left
6.23,-0.16766123533247967,1.1717983452906298,0.0681816747764066,4.5922583191653725,-0.822027989104151,0.47895735822528046,-0.25181099606471735,-0.17916814575743578,0.44158000507382994,2,left
6.233,-0.15923682813814943,1.1550491679869574,0.07716447861951424,4.576516884711945,-0.8248311679982803,0.4758130796831386,-0.25487965582159544,-0.1764298961346688,0.44472610919294314,2,left
6.234,-0.13759201632393947,1.128760898838164,0.08727520350655646,4.593886708202488,-0.8223330492312702,0.4791951712560557,-0.25092552305097326,-0.17994045766009167,0.4406747312589696,2,left
6.2379999999999995,-0.11078126855250248,1.0980501545575043,0.09654149741591656,4.583855025127846,-0.8237806319606262,0.4772409304718585,-0.2542320414364882,-0.17701178765126735,0.4440613851985939,2,left
6.239,-0.0803938775699019,1.058669416588765,0.10361021063129122,4.573908672681167,-0.823946401722312,0.4754911861533205,-0.25412135319900975,-0.17708270494648873,0.44395217752720856,2,left
6.245,-0.047488691723542344,1.017829251496491,0.11074837809327678,4.615761500765268,-0.8218227765072552,0.4830654888698811,-0.24788657717866933,-0.18269478414436213,0.43755311219354054,2,left
6.245,-0.01847179891329999,0.9836363863409258,0.11251316159558719,4.538224400257905,-0.8258280687952058,0.4690221771913706,-0.2632352915592935,-0.16891051423903314,0.45330083625810735,2,left
6.25,0.012374148512015697,0.9451766904560054,0.10597835055021577,4.637898634991596,-0.820777972858427,0.4870609006654498,-0.23778090524794387,-0.19176342519405698,0.42718677779757697,2,left
6.251,0.031936739167590676,0.9206860745012099,0.10288983319769392,4.554629275734062,-0.8249487425143588,0.4719973972320778,-0.27135426985296807,-0.16162000494686213,0.46162897411103054,2,left
6.252999999999999,0.03634768103918121,0.9152936387954242,0.10234763067095232,4.556762797256259,-0.8247318512854567,0.47240140426485017,-0.412247743006468,-0.035081012641038946,0.6061739797346062,2,left
6.252999999999999,0.05517830403658892,0.8961429683244442,0.09203539494403995,4.7160845402207885,-0.8172412297218214,0.5011462318883316,-0.4458139702839878,-0.004933929495475115,0.6406053912191603,2,left
6.254,0.08147664057816814,0.872641893669218,0.07760703216055034,4.324562385094704,-0.8357189793564037,0.43049394195402885,-0.42037029940135506,-0.027792560542795317,0.6145087804791305,2,left
6.257999999999999,0.10010346137037567,0.8603067192273287,0.05527667544142989,4.973756058930984,-0.8051037654698818,0.547643394605178,-0.43571134840048875,-0.014003574303609675,0.6302404722599791,2,left
6.2589999999999995,0.10974630432579982,0.8543857007045612,0.03535470315901109,4.117422639834259,-0.8454468959897492,0.3931189801978217,-0.4294728150451833,-0.019615338286387715,0.6238449025352184,2,left
6.26,0.11240177673113311,0.8538139255011777,0.030432868350590836,0.5230908554004666,-1.0147646579374152,-0.25541847757367675,-0.42938481373009973,-0.01969550552281167,0.6237563670655419,2,left
6.263,0.12248152404969848,0.8519776436343358,0.010844744648475247,-0.3332786928604322,-1.055073127904286,-0.4099421052611733,-0.4326471121607549,-0.016746710038661683,0.6270908082064275,2,left
6.263999999999999,0.1324168632584618,0.8538471500295113,-0.01994215535396913,0.3159218529003329,-1.0244844614917992,-0.29280421411796986,-0.4287516181591915,-0.02028588545097837,0.6231196213655815,2,left
6.268,0.13801876396974014,0.8577646260852042,-0.043673537396652556,-0.07547132001831941,-1.0430152695932107,-0.36341889150712614,-0.43176785340207935,-0.017519368237251448,0.6261787576015201,2,left
6.269,0.14877832789141693,0.8590479847154795,-0.0700479599328802,0.08348549941674877,-1.0353202735634188,-0.3347494497900153,-0.43015887957251425,-0.019021375710424275,0.6245627179138046,2,left
6.273,0.16068738086152035,0.8639780093663099,-0.08928305062885805,0.08624703381477024,-1.0354896885947311,-0.33423548889934707,-0.4305186934821851,-0.018673604428383152,0.6249170437745544,2,left
6.274,0.17313350841917333,0.8646866069655146,-0.09636490298114503,0.002203056963033502,-1.0391493481908967,-0.34941481339048885,-0.4309229962683152,-0.01826240641251374,0.6253023494708724,2,left
6.277,0.19184109628122636,0.8593739256188919,-0.1005770544608924,0.10249148870703798,-1.0345547874854226,-0.3313130060219115,-0.43027175717606714,-0.01900251791504965,0.6247289018097925,2,left
6.277,0.21638065524489608,0.8515177579693408,-0.09535365170774676,0.024981200703338355,-1.0384627192617835,-0.3452865123354083,-0.43080067313170634,-0.01826009511380272,0.625108613671806,2,left
6.2829999999999995,0.2425475080823462,0.8339119023435957,-0.07657415670192137,0.06563419796158614,-1.0357193745539623,-0.3379899473877551,-0.4305463239053047,-0.018816599910386582,0.6250474785595999,2,left
6.284,0.2721867196621103,0.8095118688776382,-0.057084946814590025,0.05839595408243228,-1.0374881858994098,-0.3392296455830156,-0.430578207387734,-0.018526446905829524,0.6249209410848673,2,left
6.287999999999999,0.30282532006189694,0.7842555804500708,-0.04283147713866023,0.04435497275226876,-1.0363969989053987,-0.3418443522509509,-0.43057569149090685,-0.018526435410779404,0.6249169591782855,2,left
6.289,0.3289208769285294,0.7594534002819125,-0.028344569049063784,0.06594735629620832,-1.0367772237153663,-0.33788363193169313,-0.4307901391005404,-0.018818888096655294,0.6254323611198642,2,left
6.292000000000001,0.34792856507375125,0.7392672603714896,-0.012674237188644995,0.047882569532344495,-1.0376406223685826,-0.34114266805232984,-0.43018449284819044,-0.018254291668645305,0.6241359395099126,2,left
6.292999999999999,0.35552980241573423,0.7271035744817786,0.0022369587372599482,0.05571344784716772,-1.0346785601158999,-0.33984939934112035,-0.4311831773951421,-0.019011113870509494,0.6261676181525226,2,left
6.297000000000001,0.35514435082992785,0.7248882107834929,0.01043595154424723,0.06021763132239068,-1.0403926907277303,-0.3387630479622078,-0.43006292434428706,-0.018254280767438416,0.6239447007330752,2,left
6.297999999999999,0.3475403450934181,0.728721295075868,0.019078458137274344,0.04560954520524497,-1.0322397675401414,-0.3418071514840848,-0.43072800903621067,-0.018675611056171153,0.6252474291810249,2,left
6.3020000000000005,0.33113013465681196,0.7404113752776682,0.046440769225700965,0.06406848001409787,-1.0407949109040826,-0.3380411486039806,-0.43130863559828764,-0.019032169788637407,0.6263777013247414,2,left
6.303,0.31049738095828305,0.7629185929322845,0.08415299313187596,0.051467835761884455,-1.0359431923845424,-0.3405665332491252,-0.428745971290739,-0.017490922754256982,0.6214085362591995,2,left
6.307,0.2856614846257374,0.7936775477989172,0.10917308037255902,0.04662196340714726,-1.0314764791836648,-0.3416571813770801,-0.4335189687538604,-0.020330813058674162,0.6306451253091266,2,left
6.308,0.25698500764711435,0.8393012068714681,0.11824815644602918,0.0789284784941213,-1.0505000218798508,-0.3348798071022454,-0.4273759823576568,-0.01669697466905736,0.6187701117741939,2,left
6.311,0.22657750173453686,0.8947292354067231,0.12429194198707144,0.01639424441117414,-1.015345041902875,-0.3479221853740415,-0.4325107699285544,-0.019725103138000435,0.6286907396678094,2,left
6.312,0.19434201113601984,0.9623341050685865,0.12421283019130669,0.09763494033088652,-1.0604404030208714,-0.33100417984841035,-0.4323722993255622,-0.019642454029595347,0.6284220350834082,2,left
6.317,0.16406037682955874,1.035404635047572,0.11047728874815477,0.029414283792265187,-1.0228125992251575,-0.3452008282795235,-0.42256909220005723,-0.01387995016186465,0.6094946230309923,2,left
6.318,0.13680121679219856,1.1050014238542665,0.08769706422110182,0.03187030354538148,-1.0237991282320935,-0.3447040951766115,-0.44666826514651714,-0.02804024512237088,0.6560214525742489,2,left
6.322,0.11122087833895246,1.1874407826861106,0.05602147116976201,0.16033072155471303,-1.0956320662145869,-0.3179328506276593,-0.40670653716379646,-0.0045653135493280254,0.5788726203694825,2,left
6.3229999999999995,0.09718442974407003,1.2367176604573267,0.034123762797964384,-0.1562877595850648,-0.9191231063438402,-0.38389663420509784,-0.4594190630603603,-0.03552595406656982,0.6806355184344688,2,left
6.3229999999999995,0.09367867295576068,1.2569858305657107,0.02830241169143482,0.36900810606700235,-1.2117633561373373,-0.27446325204892263,-0.6806802362720681,-0.16547469486782504,1.107763818286658,2,left
6.3260000000000005,0.0882467492321268,1.2932779108086574,0.019488207803113496,-0.3239701955531191,-0.8257810400222,-0.4188286549898794,-0.7333951237323064,-0.19643292826375394,1.2095283481023054,2,left
6.327999999999999,0.08500359306920068,1.312938353823026,0.014052653569594259,-3.232427933838568,0.7944808974482264,-1.0246711966656856,-0.6934303469210992,-0.17296203922247733,1.132379976012909,2,left
6.327999999999999,0.08685692584077812,1.340671999675731,0.01854087844261476,-3.925432786989734,1.1804652030553116,-1.1690386944982314,-0.717530297031812,-0.18711823062815203,1.1788982510806711,2,left
6.331,0.09418137310113102,1.3736414636504,0.03622622340513589,-3.400016573793857,0.8878159702192728,-1.0595958278501283,-0.7077319597437939,-0.18135758975444838,1.1599929468646244,2,left
6.332000000000001,0.11243883326017187,1.3692884128433804,0.07122395617886396,-3.7169486514687264,1.0643483053886715,-1.125584315585142,-0.7075806021549884,-0.18127794823691346,1.1596875313636186,2,left
6.337999999999999,0.1398713745781054,1.3475135348286007,0.11199963515822109,-3.587914489379072,0.9924726292476503,-1.0987678821581635,-0.712735796011793,-0.18429614697898855,1.1696521034987568,2,left
6.3389999999999995,0.1770653316233052,1.3024512515360072,0.15124386379850224,-3.586245997452208,0.9915447351559128,-1.0983331670709942,-0.7065700790249545,-0.18067921389705244,1.1577441867190823,2,left
6.3420000000000005,0.2229790538830377,1.2334691935535609,0.18725012610882075,-3.653695335665123,1.0291151460206547,-1.11246908498982,-0.7113573613556619,-0.18349877762801559,1.1669748151222232,2,left
6.343,0.2712909242932965,1.1494669768156656,0.21648065283178608,-3.5727757410597847,0.9840436134787326,-1.0955763415779332,-0.708803897203728,-0.18197304561138195,1.1620803499572276,2,left
6.347,0.32489838001085647,1.0487314799076692,0.23963831975485006,-3.6360014323927237,1.0192501909613867,-1.1086732084554458,-0.7093371426598608,-0.1823312855813793,1.1630499047752836,2,left
6.348,0.38408674073813526,0.9434367345572154,0.26587585092670873,-3.6015066534615165,1.000063602385393,-1.1017234702610943,-0.71009393062954,-0.18272040024680036,1.1645841774123427,2,left
6.351,0.4447480225375481,0.8351512621059829,0.29361480923998395,-3.610111246602563,1.0048102325593669,-1.1031101385312352,-0.7088504670516816,-0.18203422378089362,1.1621253134888252,2,left
6.352,0.5105560561880602,0.7262830326335324,0.3175834236628937,-3.6181034259907316,1.009318904193155,-1.105272628494042,-0.7099632793283349,-0.1826882538994375,1.164273016613131,2,left
6.355,0.5772754208194242,0.6221438905703993,0.3403567592570127,-3.603316322702672,1.0010368598498909,-1.101795693932539,-0.7093221251032553,-0.18222964267397046,1.163143675880653,2,left
6.356,0.6431946057865007,0.5262510926195834,0.3545290130334774,-3.6179612871629105,1.0091930468153514,-1.1048428640249877,-0.709408430215289,-0.18246771299559128,1.1630626250396006,2,left
6.361000000000001,0.7132333232618973,0.44015894466575795,0.3617338539140408,-3.6066325476607513,1.002970133111464,-1.1032188686530853,-0.7097652908023258,-0.18239789028240444,1.164120998043305,2,left
6.362,0.7773265705733734,0.3652145987170815,0.3651792697671165,-3.6143924273297197,1.007093570494118,-1.1031535564430608,-0.709207190847235,-0.18236778681953192,1.162649716944006,2,left
6.3660000000000005,0.8354878661232628,0.3041984330483388,0.3553615460046893,-3.609201043867815,1.0044985486375384,-1.1045811315678107,-0.7096487741049271,-0.18245546727075196,1.1637298383896058,2,left
6.367000000000001,0.8879390061961673,0.259194326102162,0.33254869013558613,-3.6123981810247603,1.0059631878761965,-1.1025723352425048,-0.7096591036846016,-0.18231250714136826,1.163945792724576,2,left
6.371,0.9276765222422885,0.22822950924122704,0.30122763811068376,-3.612119032536391,1.0059902474463784,-1.1040599735739365,-0.7089307241103865,-0.18253473440165147,1.161681340966045,2,left
6.372000000000001,0.960137233986935,0.20872366294416256,0.26244924255803637,-3.607002540915624,1.0032983458781604,-1.1043257281126828,-0.7104428669906209,-0.18221829544109044,1.166192488960529,2,left
6.375,0.9802878018881221,0.211017689475305,0.22030013041547564,-3.620398162568284,1.0100694396513759,-1.1012866199132096,-0.7084431282101245,-0.1825895952114997,1.160287632528831,2,left
6.376,0.9901930040367298,0.22937860887305833,0.18031944084232626,-3.597683313573745,0.9986970032172431,-1.1073666714288608,-0.7101370161085299,-0.18229529812570783,1.1652647361610822,2,left
6.381,0.9850734531215852,0.2702500769155693,0.13721569882043805,-3.626080720976974,1.0128714521664763,-1.0993984451979695,-0.7100536978195242,-0.18227812746951627,1.1650569408536786,2,left
6.382000000000001,0.9682855655711282,0.32637660116962225,0.0944959793317264,-3.6027029723686352,1.0012211232698707,-1.1061206665007772,-0.7069235766209501,-0.18290539789054738,1.1557610237231484,2,left
6.385,0.9430804508836075,0.3925291840776757,0.05864482852116264,-3.6028223000722783,1.0012516831762186,-1.1058288654563584,-0.7146709770039469,-0.1814016607208528,1.1787149015570368,2,left
6.386,0.8862843704103054,0.4976847675500884,0.020821037381681406,-3.6487606999774265,1.024222076261411,-1.0933015689381582,-0.7018054028405314,-0.183878355250948,1.1406165082661688,2,left
6.391,0.8458738635879572,0.5658795186236399,-0.0012997244361949575,-3.536601029467561,0.9681797222015236,-1.1242545058472948,-0.7187818816985732,-0.1806204693329188,1.1908824799890196,2,left
6.391,0.8217098871173255,0.5995190322776496,-0.009870877525726806,-3.722271634622967,1.0609378633364939,-1.0728671612238645,-0.7900183527967555,-0.16687715284754506,1.4018173629316037,2,left
6.392,0.7793082458402647,0.6589104504655203,-0.02590794663109621,-3.477495214111243,0.9386565723290532,-1.1406767547995111,-0.8069950614949934,-0.16362748303824004,1.4520857371595723,2,left
6.395,0.7546983006375567,0.6920620352586413,-0.03421150987045334,-2.4493913256011064,0.42503687327478296,-1.425118052099764,-0.7941248537552732,-0.16609271256946495,1.4139762797277529,2,left
6.396,0.7008900963536517,0.7560205295926734,-0.045206950049230865,-2.2046710703286796,0.30278383802067826,-1.4929470208314752,-0.8018876910072379,-0.1645947177456072,1.4369591514476787,2,left
6.397,0.6141734078099583,0.8533370524733217,-0.06107362673521271,-2.390223262414651,0.39547929503682877,-1.4415267042289006,-0.798726375092167,-0.16523266636167705,1.4276100447757205,2,left
6.399,0.5480530056272618,0.9120474365665285,-0.05930010717805048,-2.2782446637682194,0.3395390598701372,-1.472514205743336,-0.7986887851673997,-0.16517995510670685,1.427475399468665,2,left
6.4,0.48387642405616044,0.9609665586334868,-0.050051602467357945,-2.3239636897023788,0.362376361050695,-1.4599687493832314,-0.8003342337308219,-0.1649466757875641,1.4323806812561442,2,left
6.405,0.4284958652955638,0.987784205077235,-0.03742188958286041,-2.3242738124583067,0.36253662612733206,-1.4596574361487282,-0.7983613386572332,-0.1652446490397454,1.4265060489224974,2,left
6.407,0.3876320806531331,0.9888321934110026,-0.01667722158128827,-2.3008476466848604,0.35082574903784575,-1.4664545380349185,-0.7999016226060962,-0.16498318284036861,1.431080839786374,2,left
6.41,0.35553460339880477,0.9754070778518942,0.010552923126524201,-2.3290120418046163,0.3649038269576971,-1.4583531589176242,-0.799058659429658,-0.16521461004552923,1.428613736236477,2,left
6.4110000000000005,0.33829566089912055,0.9358183821743057,0.04665697320472899,-2.3069199579391575,0.35386389223951825,-1.4645994579554849,-0.7992806234581316,-0.16494951578482242,1.429178500027307,2,left
6.416,0.3319626538028949,0.8780246320142107,0.0859203336274182,-2.3193123414538386,0.360047394171133,-1.461424001519788,-0.7994469516063111,-0.1653001519353544,1.4298301891145466,2,left
6.417999999999999,0.33780799219648705,0.8044003682768013,0.12323070703147293,-2.3153573739140345,0.3580950365304997,-1.4616976924440788,-0.7991317098646331,-0.1648915630147038,1.428701409172933,2,left
6.419,0.35206157244696434,0.7236208086972162,0.16446463973172187,-2.314252160735033,0.35750255820794463,-1.4634165028016932,-0.7994368189838328,-0.16520681962817957,1.4297605887543081,2,left
6.42,0.3727030656203843,0.6411013562851241,0.21081931037964208,-2.317214848394912,0.3590321607055347,-1.460863956551167,-0.799196027823478,-0.1652564564843457,1.4290489964879867,2,left
6.4239999999999995,0.3994417838052163,0.5626010048021146,0.25311236349191535,-2.3140754209024657,0.35742431954303716,-1.4631135770860075,-0.7994003507204677,-0.16452346021833025,1.4293649062053113,2,left
6.4239999999999995,0.4256709537520019,0.4970848828020029,0.280120307094311,-2.317559504236171,0.3591644173963777,-1.462161009985544,-0.7991731742969215,-0.1661524135361812,1.4293529513000967,2,left
6.428,0.45047561089350074,0.4434905933321557,0.28462963429173327,-2.3122753305929953,0.3565981386058751,-1.461064064333224,-0.7994547127817956,-0.16373335770310204,1.429200835340887,2,left
6.43,0.47460407142664435,0.40835384853392176,0.2737671521129903,-2.3208918664211726,0.3607347767503284,-1.4645286760609397,-0.7991652032535652,-0.16631009603665142,1.4293945374382897,2,left
6.434,0.49501393243399233,0.3949428093627796,0.2574547362478635,-2.308866218313753,0.35497755375016377,-1.4591306852560009,-0.7993157078255753,-0.16482441485573507,1.4292327752177671,2,left
6.434,0.5111388329116235,0.40645947437724306,0.23467093661545482,-2.3215315572147754,0.361037919212408,-1.4649278951376457,-0.7995287708793133,-0.16352794115872815,1.4293405827353904,2,left
6.44,0.5233657521079702,0.44344802449449167,0.2010566889546173,-2.3144567290741116,0.35765754306731085,-1.4615104819646865,-0.7987325148176928,-0.16917622593073284,1.4292732053387818,2,left
6.441,0.5288555283213694,0.5028292927343696,0.15559460745034523,-2.30715289104962,0.3541421412099886,-1.4588998785901015,-0.8001847866605789,-0.15870591121521105,1.4293254461077227,2,left
6.444,0.5266057395052011,0.5898737881170281,0.10680913418653418,-2.3371458649587638,0.3685433189044973,-1.4708743847440129,-0.798325207860607,-0.17214952770288153,1.4292742917961077,2,left
6.445,0.5188431173406289,0.6888058923915832,0.06201273592256911,-2.281878807839644,0.3420131157041391,-1.4485679131529214,-0.7998759427607234,-0.1609261014136911,1.4293110974533416,2,left
6.4479999999999995,0.507705883200147,0.800430810108772,0.021269282986311127,-2.3527657624733695,0.37604040972731634,-1.4772335518176818,-0.7998413676480576,-0.161229334829757,1.4293338348013824,2,left
6.45,0.49624195858382536,0.9143870543277453,-0.012400490947886419,-2.2936161777331074,0.34764719364745195,-1.4532917955213152,-0.7968591395713605,-0.18263285405607455,1.4291842989936598,2,left
6.454,0.4838060483662104,1.0179100335850362,-0.031662776694790735,-2.2950975076886824,0.3483575162705868,-1.4539771244892428,-0.8041812979185293,-0.13002543470421515,1.4295252289935902,2,left
6.454,0.46838809754878935,1.1387976186751245,-0.03946085043301242,-2.4082807496244434,0.40269224954610655,-1.4995095994025833,-0.7920418549739863,-0.21725186303574695,1.4289653714733639,2,left
6.459,0.4574988949604678,1.2137459211542316,-0.04608761000206024,-2.130226618942615,0.2692088552479216,-1.387549538530638,-0.8080547144989861,-0.10219961975521877,1.429704983626517,2,left
6.46,0.4539268359233275,1.243099970308243,-0.04700446394879512,-2.591224136799802,0.4905189610944588,-1.573200400712843,-0.8752450348173684,0.38069964261034805,1.4327941327480436,2,left
6.46,0.451857442470434,1.2929757533046269,-0.04411787999986153,-1.9831624742503826,0.19860414123080544,-1.3283199696986756,-0.8912576853325898,0.49575083824324767,1.4335351255732816,2,left
6.462999999999999,0.4475923739488752,1.3221097278379963,-0.04345588354593475,0.5693473786847302,-1.026793254380706,-0.3004851517037122,-0.8791229924642823,0.40852988853600747,1.4329802767239335,2,left
6.4639999999999995,0.43981704483347234,1.361836881538879,-0.03924919311389719,1.1774634782651028,-1.3187479763197407,-0.05558446630557128,-0.8864292128978812,0.46112234839411403,1.4332976066736478,2,left
6.465,0.43037986821257623,1.4130119612107976,-0.03600021779014776,0.7163805550620441,-1.0973727166440712,-0.2412742004106555,-0.8834792695764322,0.43974679849265774,1.4332005084507298,2,left
6.468,0.4220925864781773,1.417085666552547,-0.030112948286071566,0.9945061771874106,-1.2309175535115346,-0.12926240854515794,-0.8833972990122483,0.4394045825540265,1.4331421409000564,2,left
6.468999999999999,0.4208535479927855,1.3946656190531226,-0.012609996720278262,0.8813247367013394,-1.1765655045786403,-0.17484602328679555,-0.8849983204834408,0.4506669313251238,1.4332698382169644,2,left
6.473,0.42681229714953267,1.3379050551956841,0.011329846130684919,0.8797102139182593,-1.1757851998803872,-0.1755040464176816,-0.8831107368071431,0.4372057539270682,1.4331598970855624,2,left
6.474,0.4414973850189412,1.2446283948691763,0.043331801478150925,0.9391543075092923,-1.2043646167810889,-0.15153520508594565,-0.8845341090439608,0.4476442824755481,1.4331785962500034,2,left
6.478,0.469468778742673,1.1293205508563924,0.08547402125320415,0.8678447456535817,-1.1700446492149918,-0.18031055624235387,-0.8838563360173357,0.44210177994277344,1.433297435443977,2,left
6.479,0.5031221775790007,0.9952937401554164,0.13250810524225795,0.9235343448273448,-1.1969003227098118,-0.15780308563525175,-0.8838501965781871,0.4432135426829724,1.433038905035629,2,left
6.484,0.5403278568710831,0.8598685705614963,0.17844716275180855,0.8933507653797825,-1.1822914619475613,-0.1700374736276681,-0.8842861616110417,0.4449288994565396,1.4333757853091473,2,left
6.485,0.5789092619922572,0.727588436042242,0.2158603354361233,0.9003164647301922,-1.1856862912083885,-0.1671988275731935,-0.8837442800034812,0.44216437929910735,1.4330983297525903,2,left
6.4879999999999995,0.6132572479560778,0.6047309280924038,0.24344721019634968,0.9085143205318522,-1.1897225586385674,-0.1638286301262274,-0.8840806565086,0.4445925636448115,1.4331114659365398,2,left
6.489,0.6437327716402776,0.49623798983142164,0.2624578195031386,0.8938970903484267,-1.1823815336064714,-0.16993487969474907,-0.8841909609474835,0.443287364509789,1.4335853581958728,2,left
6.495,0.669019651473366,0.39982454855763216,0.2732082398173928,0.9083354365875764,-1.1898700793915613,-0.1637425410840353,-0.8835203152757751,0.44326077719633517,1.4324832420299942,2,left
6.496,0.6918330240487278,0.3178535003849121,0.2774498391645479,0.8977693663846031,-1.1841143429860388,-0.16846100868589942,-0.8846681327178929,0.44436020458697545,1.434134112492314,2,left
6.497999999999999,0.7099922813977798,0.25296875302266286,0.2744963043155647,0.9030964406532769,-1.1872162513572984,-0.16594642515336389,-0.8833907376391478,0.4428004747252068,1.4323718507899832,2,left
6.497999999999999,0.7199282281078869,0.20375017865075393,0.26650967830039485,0.9030921739264162,-1.187219084356188,-0.16594476122653884,-0.8841647212723089,0.44396156617029975,1.4333916032317349,2,left
6.502000000000001,0.7259440498746599,0.17128337278248398,0.2545720153709099,0.8981679948583317,-1.1838448470950083,-0.1686132804960092,-0.884720289881614,0.44415446731586483,1.434265949369785,2,left
6.504,0.7269941558288544,0.15577252012051784,0.24084896930239946,0.9073282668187499,-1.1905510723950508,-0.1633578710147163,-0.8820831540175913,0.4418197452637258,1.4304308297137371,2,left
6.507000000000001,0.7217292313954812,0.15453549475699932,0.23368399645468535,0.8953866910045529,-1.1813742963162441,-0.17050377239227452,-0.8870220167051206,0.44650145197415625,1.4375449506022235,2,left
6.507999999999999,0.7133208832991567,0.176232176925464,0.23062236532654368,0.9071088199397652,-1.190672990650208,-0.16329189471271965,-0.8806633639924684,0.44036337519065516,1.428409651414117,2,left
6.5120000000000005,0.7035180438196833,0.21105187623426153,0.22832350931061993,0.9006581501108148,-1.1854551057127045,-0.16732923124641258,-0.8859782385181021,0.4455407163005872,1.4360360286706748,2,left
6.5120000000000005,0.6925959285118997,0.2652336753067332,0.222255201616343,0.8952305320771408,-1.1810206292958343,-0.17075550924271182,-0.8858254509953845,0.4453194886820435,1.4358303938051273,2,left
6.517,0.6839941674997816,0.3386583650864642,0.2050414820106793,0.9185947509935897,-1.2002401097944753,-0.15591646283212784,-0.8757154942177345,0.4356634776881187,1.4212866867837453,2,left
6.518,0.677538964359854,0.408746432820004,0.18628974352308866,0.875636845859953,-1.1647759963645605,-0.18328651390950024,-0.9005759602470018,0.45951312082337037,1.4570314456050852,2,left
6.522,0.6687170636275637,0.5106790616272752,0.1693137288301647,0.9305395372688094,-1.2101897385077598,-0.14824523532797718,-0.8593538465698086,0.419926657875087,1.3977667301062722,2,left
6.523,0.6636802386428682,0.5825366567937207,0.15678442723799085,0.884817816706184,-1.172331232549816,-0.17745430330937717,-0.9137239084884503,0.47215489966444607,1.4759346714202708,2,left
6.527,0.6630404759622937,0.6016787702962132,0.15361242681364534,0.8860663302907735,-1.1733599796534682,-0.17665764441552395,-1.1419781119006265,0.6913461564023007,1.8040663515770503,2,left
6.528,0.6578812675023427,0.6790664475791652,0.14890959059861605,0.9730230197109573,-1.2454432895529792,-0.12105665135397112,-1.1963419822067618,0.7435731508502699,1.882231019959107,2,left
6.528,0.6555516191759321,0.7755188776404636,0.1460382171442845,0.7593649506493021,-1.0683077194499775,-0.25769174338288203,-1.1551252349070769,0.7039784696088287,1.8229697858483167,2,left
6.531000000000001,0.6629668267043872,0.8694752345661035,0.1482875646717825,1.113545765240559,-1.361969437615333,-0.031172202417866765,-1.179992968644315,0.7278625155411896,1.8587161029551322,2,left
6.532,0.6683919818366824,0.9438430433609776,0.14740620875555485,0.6464398428410563,-0.9746596099361637,-0.329929060058632,-1.169851060401844,0.718132161449821,1.8441602137666386,2,left
6.532,0.6703266406659313,0.961516344319094,0.14712325789151193,-1.3141527209900898,0.6510656956450825,-1.583876254754292,-1.1697605198858056,0.7180242173356457,1.843980499072885,2,left
6.5360000000000005,0.6786889312159585,1.028711972701185,0.14802733098775891,-1.7812132329265014,1.0383549937443408,-1.8826129892552752,-1.1749913492850452,0.723076501417244,1.8515699452791705,2,left
6.537000000000001,0.6891021332308835,1.1290087570735543,0.14622682313497645,-1.427099568865028,0.7447198562766091,-1.6561288217182835,-1.168709887144907,0.7170162786336725,1.842471130401497,2,left
6.541,0.6966345357583084,1.2072367046609829,0.14632404480078176,-1.640712499242595,0.9218483990859876,-1.7927240175207966,-1.173627515313868,0.7217510695184957,1.849570049932571,2,left
6.542000000000001,0.7045579735621762,1.2968815057419545,0.15170638836898434,-1.5537244170018945,0.8497233138255299,-1.7371501255598962,-1.1708962787671835,0.7191497697305829,1.845702354303886,2,left
6.546,0.7130821015305211,1.3822524573276298,0.15701137209930432,-1.5526313559858078,0.8488057664782784,-1.7363615088523954,-1.1717071170217577,0.7198577905823467,1.8466794921830991,2,left
6.547000000000001,0.7200689426719742,1.4685536744904821,0.15748533333227838,-1.5980598033676103,0.8864877665633193,-1.765505919943868,-1.172068428626496,0.7203263793424528,1.847523347659255,2,left
6.5520000000000005,0.7232773830400082,1.5611390320849121,0.1532346995558745,-1.5435370824114107,0.8412711133358355,-1.7305953907640852,-1.1712686310228069,0.7194093460321189,1.8459756625315151,2,left
6.553,0.7197772493775536,1.6508671501759897,0.1432053565368877,-1.5861677263287917,0.876610572865318,-1.7577857791398719,-1.1720787975145357,0.720305937509756,1.8474573943228405,2,left
6.556,0.709387739958473,1.7431769737288736,0.12591569116552986,-1.562853578550274,0.8573131527526667,-1.7431184660486467,-1.1713058795801565,0.719564826120765,1.846349322226101,2,left
6.557,0.6966807473060774,1.831082907811536,0.10588359282112032,-1.5687672435112048,0.8621557044665557,-1.7464800930834166,-1.1722705271585088,0.720271312389285,1.847147298345544,2,left
6.562,0.6783807425837636,1.9156007687511125,0.0883983651782982,-1.5740131149090475,0.8665814119457467,-1.7503515418847475,-1.1708344153196288,0.7193943210343248,1.8464278605306217,2,left
6.563,0.6508812248042914,1.9957814142429464,0.07336712555533731,-1.564159319494816,0.8583493113774832,-1.743637593890441,-1.17279273820321,0.7205262264452723,1.8472368307106715,2,left
6.566,0.6189309640802945,2.0647523574106708,0.06416536131545011,-1.5740297724601877,0.8665350640550527,-1.7499470266466715,-1.1707395006904502,0.7193521265711902,1.846423444710583,2,left
6.567,0.5793366955611292,2.123898000392889,0.06346492605377761,-1.5661886779442307,0.8601432249238117,-1.7456954796809012,-1.1718715723708546,0.7199791553448285,1.8468160880782811,2,left
6.572,0.5339419552724485,2.1674776146181305,0.07209835983628723,-1.5718900280745256,0.8646162968695964,-1.7475970068825966,-1.1731160357076003,0.7207752470451332,1.847538444787252,2,left
6.5729999999999995,0.4895796507993131,2.1936394839058484,0.09025079545605669,-1.5676874461447199,0.8615135785110803,-1.747512366420175,-1.1681095737312834,0.7177086134959425,1.8450047595387211,2,left
6.5760000000000005,0.4481146414507125,2.2041509763908973,0.11663740003313686,-1.5705928851480206,0.8635126339829338,-1.7465954412429205,-1.1773144439096015,0.7233213244228072,1.8495909392954637,2,left
6.577000000000001,0.41638425454213535,2.188465595831728,0.1534200401761769,-1.5699702021717667,0.8632380473002719,-1.7478007742017827,-1.1655131699553967,0.7161297291356759,1.843726326468627,2,left
6.581,0.39437576045732103,2.1526002490144482,0.19325150409970104,-1.5661499016572584,0.8602637544229117,-1.746739456320739,-1.1753576020695475,0.7221291683177523,1.8486139363040441,2,left
6.582000000000001,0.38933611475386654,2.0910720936074165,0.23936423781121985,-1.576811388818136,0.8682259971740569,-1.7475091933826103,-1.1751202766933444,0.7219876172101862,1.8485169512437674,2,left
6.585,0.405894106362388,2.0055275640688093,0.28883374361918124,-1.558471224055422,0.8546603150375308,-1.746997590058616,-1.1562547166846677,0.7104745261252654,1.8390775728277808,2,left
6.586,0.43504577617523127,1.9111045173383092,0.3302450385340442,-1.581504326320867,0.8716374799866788,-1.7473239154150124,-1.2025883424061679,0.738752556884416,1.8622405139809548,2,left
6.59,0.4795777524287276,1.7909082230912285,0.3862614911682192,-1.5624944025643437,0.8576664052370064,-1.7471920430370451,-1.1257757965600987,0.6918656109159051,1.8238406226448747,2,left
6.591,0.5153086557357784,1.7054654847402047,0.4290383502829457,-1.5626698624908744,0.8577145246189457,-1.7469779576248818,-1.2270881484509082,0.7537174139389422,1.8744957116144572,2,left
6.595,0.5256484826071599,1.6807866203136435,0.43927268810690623,-1.599819188601963,0.8852214536985272,-1.7478077616756462,-1.6524119666169297,1.013276955277518,2.0870992019858594,2,left
6.596,0.5563605960757103,1.6089430338680852,0.4773307273588381,-1.5090026691959237,0.8181152265385988,-1.7460843844779417,-1.7537239490605132,1.075146847440356,2.137770631826518,2,left
6.597,0.6191231060208745,1.4890553351252755,0.5258630819613115,-1.659393070366412,0.9291614726039654,-1.748820869960194,-1.676911802033305,1.028240327646122,2.0993530558004654,2,left
6.6,0.65621256486319,1.4243669400437842,0.5412633364924933,-1.4610986179552397,0.7827977969166028,-1.745256801040886,-1.7232455829637532,1.0565109239085806,2.122509290276268,2,left
6.601,0.669001929062955,1.4020515678406944,0.5455248254986356,-0.6284008485766832,0.1667054631291096,-1.7300429198375453,-1.70437869049083,1.0450627338233756,2.1131285211845823,2,left
6.601,0.7138733301695881,1.3273483358730407,0.546001470231998,-0.43011404614347026,0.020295539836400048,-1.7264828384867361,-1.7041442276932088,1.0447815276035313,2.1129054067448774,2,left
6.606,0.7724732783820656,1.219913692242167,0.5396481895343606,-0.580469694369808,0.13155138199819827,-1.7292012239632175,-1.7139845589625202,1.0509812138205592,2.1179738797476615,2,left
6.607,0.8179647151915372,1.128550928525299,0.530348432105143,-0.48974380633590936,0.06389902247933485,-1.727525035282735,-1.7021873642068504,1.0435902018591834,2.111929140929199,2,left
6.61,0.8618956906659954,1.0311744608893867,0.5158058632437776,-0.5267272521702646,0.09240511286938113,-1.7282684837281965,-1.7113904824337856,1.0492889804472676,2.116593086326517,2,left
6.611000000000001,0.8969429473939803,0.9367517386205216,0.5017723712507777,-0.5271304650131605,0.09108179277598638,-1.728172952047371,-1.706380498827576,1.0463935352015312,2.114213974579865,2,left
6.615,0.9248718378649816,0.8480433225164923,0.4919240374168071,-0.5078973961660243,0.0784539031137255,-1.7279249397224987,-1.7076362740042021,1.0466380910167732,2.114438230808334,2,left
6.6160000000000005,0.951688616358974,0.754816207680449,0.4796380896850778,-0.531023540382059,0.09487194573508367,-1.7282996626021059,-1.708748873250133,1.0482154906984777,2.1156892221606753,2,left
6.62,0.9761270130925137,0.6630242886331539,0.46686863122929495,-0.5128830820031903,0.08010203938338964,-1.7278920638858937,-1.7067195138258855,1.0458749928353877,2.1138223218819974,2,left
6.621,1.001616478939408,0.5656022274927982,0.45703636161795536,-0.5229119969025561,0.09187512201203993,-1.728332471831314,-1.7086588290237095,1.0479368884514857,2.11547136278179,2,left
6.624,1.0309723290960227,0.4648240965166582,0.44939164980582075,-0.5201785727835444,0.08235516094613742,-1.7278369405542704,-1.7072224808725753,1.047067997502924,2.114759047247932,2,left
6.625,1.0648798237417705,0.36464612799230767,0.44756080027952116,-0.5182229550696044,0.09010592542881771,-1.728348464102803,-1.7082225551833776,1.0460490973106067,2.1139989090296054,2,left
6.629,1.099296537092208,0.2665164158164269,0.4484280364555799,-0.5221909357823132,0.08571088729066341,-1.7279845071411681,-1.7073687968390843,1.0492514075558765,2.116452307342745,2,left
6.63,1.129586881948254,0.17574472882336334,0.4434060569411785,-0.5179978401252364,0.08254355936428429,-1.7279050293612914,-1.7082994666346547,1.044264782231724,2.1126203731062603,2,left
6.6339999999999995,1.1521203695654343,0.09304628320762173,0.42837575868949457,-0.521727042484506,0.09890174397805343,-1.7287796930980561,-1.7073713292086456,1.0496197318761027,2.1167378345937378,2,left
6.6339999999999995,1.170000862730456,0.020701523878543474,0.4094907341743379,-0.5183934865749935,0.06535896921123587,-1.7268747339372164,-1.7078065900013168,1.0464638431551614,2.114307290865323,2,left
6.638,1.1874389498944606,-0.04295880690301125,0.39500463093409566,-0.5215384798849126,0.11404422006810697,-1.7296832766593502,-1.7086818218284656,1.0440490753949254,2.112465161590625,2,left
6.64,1.205385176466978,-0.10110186189760717,0.3821703560268422,-0.5188556965968475,0.06264307167437994,-1.726701743219081,-1.705670128830029,1.0551179670311264,2.1209429592280915,2,left
6.645,1.2251734913224392,-0.1510104379855931,0.3669197631018515,-0.51995546032276,0.09200496711597224,-1.7284158927854525,-1.711107302833132,1.0344998348460517,2.1051441276857146,2,left
6.646,1.2463735525879107,-0.19189647225278933,0.3469040283049745,-0.5223035157875215,0.11836514616340771,-1.729920082661652,-1.7041592740716105,1.0609954279905,2.1254500010041726,2,left
6.649,1.2676465250624243,-0.22599277235263085,0.32468281042916414,-0.5146119772985377,0.004941993926313212,-1.7233864817339082,-1.7099457792831982,1.0388663783706638,2.1084868285646206,2,left
6.65,1.2857333277583651,-0.2534009294380002,0.29895952480226584,-0.5282628968478673,0.21482038678394158,-1.7354908375159392,-1.7098420546788853,1.0394990887504334,2.1089810735690837,2,left
6.654,1.300485837813175,-0.2715522730015981,0.26881220660132865,-0.5109588985523499,-0.05449556436852478,-1.7199534857509833,-1.6986361651792585,1.0815861499174986,2.1412198432503953,2,left
6.655,1.3129169277179966,-0.2813132180498222,0.24333468673740669,-0.5253047525041992,0.17025132182282504,-1.732921359927675,-1.7261152240512994,0.9780993978598901,2.061931029510636,2,left
6.659,1.3271362007416507,-0.2842267212133722,0.20918266291734827,-0.5250769315512869,0.16432592029821547,-1.7325770267226757,-1.6805717720248956,1.1496986906982047,2.1934191804386787,2,left
6.659,1.338343098247944,-0.2828325167227318,0.18164410742640913,-0.49730075613668845,-0.26462508299710985,-1.7078334165721338,-1.7406393392486583,0.9233547763927478,2.019968396789685,2,left
6.662999999999999,1.3411497076516476,-0.28225877250924036,0.17838763582198758,-0.5653277130664389,0.7894226511752367,-1.7686379348278827,-1.992860657196272,-0.02665258377191121,1.2920435979548701,2,left
6.664,1.3539478740487705,-0.2771951503164707,0.15325923979449074,-0.4526439616815005,-0.9580909707137728,-1.6678295801495975,-2.0529274413132246,-0.25300487929538795,1.1185492234133654,2,left
6.665,1.3687871112072738,-0.2707022375440705,0.12591804331518586,-0.6012108694864642,1.3467506124860837,-1.8007869975506132,-2.007388380213916,-0.08139055294199177,1.2501070980292415,2,left
6.667999999999999,1.369664962269349,-0.27039595134624816,0.12283618815191226,-1.2251139433251075,11.021919591908139,-2.3589185205478396,-2.034855209627007,-0.18489498640449392,1.1707563094642723,2,left
6.669,1.376435816872086,-0.2632591644468767,0.09774139138782567,-1.3735879324539524,13.326505731691174,-2.4918560034133597,-2.0236723861128985,-0.14279444254950652,1.2030033829590807,2,left
6.669,1.3882908135795073,-0.24981843910953927,0.06614134839925753,-1.2610636260522912,11.579401910111681,-2.3910790642991033,-2.023536319444581,-0.14216163948981297,1.2035898232618636,2,left
6.6739999999999995,1.3928522068488942,-0.23997451310482595,0.04826812417508901,-1.3289201471009497,12.633082155576805,-2.4518569047341257,-2.0293553557339257,-0.16431412246496319,1.1864063416680832,2,left
6.675,1.397189036670955,-0.22742000414822305,0.027050562320490964,-1.3012406930645595,12.204188709091447,-2.427113661799914,-2.0223922223028765,-0.13776608853559427,1.2070416728003814,2,left
6.678,1.4002833741493237,-0.21158400769200836,0.009313216407157994,-1.3010921631026076,12.198790374515221,-2.4268165792556875,-2.0278038059319465,-0.1584608998546026,1.190896267984416,2,left
6.678999999999999,1.3982165015701309,-0.19655101112966566,-0.00751616486670458,-1.3150942293662475,12.422260413957932,-2.4396782423526764,-2.0248790709150004,-0.14731248537675617,1.199562207131605,2,left
6.684,1.3949123829580619,-0.18223712858981417,-0.025272748998034795,-1.298420000021328,12.15486692002116,-2.4242947013494582,-2.025601463764726,-0.149769153953211,1.1979243454432416,2,left
6.685,1.389443512530757,-0.16738022881732267,-0.044104695946146494,-1.311265421152945,12.362706892801206,-2.43624346484786,-2.026227828460518,-0.15297446512747298,1.194681889587306,2,left
6.688,1.3759008938158388,-0.15108512205645497,-0.07143870350058701,-1.304263055315157,12.250418652410694,-2.429783391697738,-2.025141859474356,-0.14742973967572953,1.200284095866837,2,left
6.689,1.3505660770070607,-0.13715732761082672,-0.09688967493377823,-1.3065069803323652,12.277915174192923,-2.4314044235962644,-2.0260838119510955,-0.15276049967473881,1.1945391666464378,2,left
6.694,1.3150470028791954,-0.12631335843492048,-0.11366718278240656,-1.306585095335946,12.302598933931623,-2.432716486025873,-2.025493785927323,-0.14911744544700323,1.1986539589924923,2,left
6.695,1.2762617550373512,-0.11719063346552094,-0.12313478763917804,-1.306431422737838,12.259827102900223,-2.43044156529082,-2.0258682443724867,-0.15051566773362313,1.1975940812733048,2,left
6.6979999999999995,1.2383064713660827,-0.11352119091152227,-0.11678197858418055,-1.305655264127822,12.297319295066323,-2.4323684291599053,-2.0253832528538,-0.15132301642968382,1.1945210852851624,2,left
6.699,1.197758800644992,-0.11337420935996598,-0.09290145418162996,-1.3066711852161093,12.273604268351892,-2.431188262483878,-2.0262870195218063,-0.14870695656679297,1.2021348828601874,2,left
6.702999999999999,1.1572341033788538,-0.10960793643239405,-0.0663732375140503,-1.3076197383566337,12.287962934440754,-2.4320186318900268,-2.0248910300631104,-0.15243035386412895,1.1909135997890186,2,left
6.704,1.125794052445914,-0.10073069066044352,-0.044244356816254916,-1.3018273100661903,12.27135222586579,-2.43071095731203,-2.0264425538835136,-0.14869894516160292,1.2026938647830514,2,left
6.707000000000001,1.0956055725337115,-0.08431707261602889,-0.018520878710166534,-1.314557646406097,12.301458348193476,-2.433245559621239,-2.025546252864728,-0.15085738391620046,1.195884651478547,2,left
6.707999999999999,1.0529315148904126,-0.0554534742606092,0.013171053915785345,-1.2954491068114136,12.254720766029134,-2.429359714442313,-2.024635290840186,-0.15219113746396418,1.1904209838796076,2,left
6.712000000000001,0.9951825799286963,-0.018139002731735108,0.04438380415214724,-1.3159749236436196,12.306965278239712,-2.4336410751326794,-2.028444325420513,-0.14567222053376266,1.2148598354254667,2,left
6.712999999999999,0.9224160710361209,0.020479969710320067,0.07417579795564161,-1.3041171127392435,12.27680292568329,-2.4311699116942838,-2.021388004775118,-0.15779525906648734,1.169509945619171,2,left
6.7170000000000005,0.8452719122889265,0.05832576100811039,0.10810393961544512,-1.2935484461994387,12.245438357262888,-2.4287265597762264,-2.0304617587801044,-0.14227270461667926,1.227709781683492,2,left
6.718999999999999,0.7751547605836778,0.0905422822176388,0.14825423180838515,-1.3393519915258905,12.375764421675353,-2.4390116094197496,-2.022878972172136,-0.15521137682570652,1.1791339974817574,2,left
6.723,0.7226476564742135,0.11209575019002849,0.19805444239145048,-1.2544319732446154,12.134414955688168,-2.419960900905184,-2.0230749337755407,-0.15480665136014365,1.1804983407791927,2,left
6.724,0.6947850044189681,0.1264711631561977,0.2564577211243344,-1.363501380196872,12.444769249987605,-2.4444455051629617,-2.037583252661273,-0.1303695179476662,1.272923938618689,2,left
6.728,0.6866155053543355,0.13383973721710957,0.31115357060966264,-1.2724327255859158,12.18546003984391,-2.423997558836869,-2.0019241990477017,-0.19047313818492773,1.0457073444545921,2,left
6.73,0.7073505143577599,0.12872152927115033,0.3465283542736122,-1.2748590000768387,12.19193114791761,-2.4245071969006298,-2.061056695988155,-0.09082397367724343,1.422448764575181,2,left
6.731,0.729358136825916,0.12346617533841801,0.3595352332100697,-1.4486692764252116,12.688748429341327,-2.46366378479956,-1.9830522713273098,-0.22224606771353905,0.9255324145024206,2,left
6.732,0.7332806967699321,0.12304374172523294,0.36122830285384017,-1.021496811162536,11.468026437810613,-2.3674680758943345,-1.6557489010129385,-0.7737598514689887,-1.159937554806091,2,left
6.733,0.7643564002207357,0.11120892949687655,0.3496966179577147,-1.729767966880254,13.492103539798709,-2.5269527721950777,-1.5777445084101775,-0.9051607482853649,-1.6568290653107949,2,left
6.737,0.793723186268491,0.10020903514428153,0.3358488142918582,-0.7955553059371029,10.822200249442709,-2.3165962954579014,-1.636860030651132,-0.805544250524098,-1.2801516575201148,2,left
6.737,0.7970660422365984,0.09837884893428545,0.33029381617185005,3.125951242853593,-0.3857407209152459,-1.4332080576717963,-1.6012609658438997,-0.86562211972175,-1.5072469309016088,2,left
6.7379999999999995,0.8249083289984124,0.08835057253169437,0.3124873657450996,4.060180316420349,-3.0558492849028553,-1.2228266291720442,-1.6156456997687005,-0.8411799824162631,-1.4150033735206213,2,left
6.742000000000001,0.8621593696163594,0.07385126494199659,0.28914299257956655,3.351876416523287,-1.0314874632639919,-1.38238723804263,-1.6160249311948263,-0.8408335034560764,-1.4134285166943181,2,left
6.742999999999999,0.8847630341290043,0.059545213506910374,0.27602485535673316,3.779095211674458,-2.2523468118562855,-1.2860285335020234,-1.608245533976001,-0.853650647639079,-1.4621610873536928,2,left
6.747000000000001,0.9006600620115013,0.0443182365920792,0.26724721735580387,3.6052344014408546,-1.7558089194597595,-1.3254527711870663,-1.6174324305864145,-0.8382965959634974,-1.4039863040761729,2,left
6.747000000000001,0.8966516254222279,0.03046507503277508,0.2638315433376702,3.602843746158751,-1.7484311505040395,-1.3256251574690507,-1.6104807496644362,-0.8502587432620727,-1.4489889371826772,2,left
6.751,0.8745271091423648,0.014959389594314372,0.2651988600472705,3.693919864237909,-2.0092849449941843,-1.305469710897261,-1.613839025248975,-0.8437983413687999,-1.4253038333052017,2,left
6.752000000000001,0.8466039061166555,-1.0890645035200111e-05,0.26567709195372813,3.584769908838994,-1.6970869898055554,-1.3299016880597496,-1.6137717442947372,-0.8452931720902614,-1.429673193405466,2,left
6.757000000000001,0.8116758605181296,-0.013743375727840687,0.26784310472440664,3.6698604600028064,-1.9397994610434939,-1.3104305362065176,-1.6117671237501168,-0.8469756494573142,-1.4376107907045677,2,left
6.757999999999999,0.7747978556233077,-0.025585363374824453,0.27750487825975223,3.6238132119181294,-1.8097488109194357,-1.3217819075760306,-1.6143119971087492,-0.8440390197168057,-1.4252498039445687,2,left
6.7620000000000005,0.7430921699080586,-0.0342197509165255,0.2904532578849017,3.6346286745689307,-1.8379766452143358,-1.3176603551325705,-1.6126722076309215,-0.8468141882161315,-1.4357327650412848,2,left
6.763,0.7141803864920778,-0.03969481087836986,0.3057953793487289,3.6463667888927267,-1.874820431006842,-1.317083496991519,-1.612311665536802,-0.8449136939579476,-1.4308780388316333,2,left
6.766,0.6903198121795333,-0.038462786951219845,0.32811015501110463,3.6256634136887618,-1.8130209792790053,-1.3200992292030334,-1.6151751388427256,-0.8458200997273128,-1.428976039672335,2,left
6.767,0.6732823679684274,-0.032370918615004754,0.3535153970463047,3.6453981922160583,-1.869399415183475,-1.3156399635785612,-1.6101852532944498,-0.8456780892091915,-1.4363902573032274,2,left
6.774,0.6596558337493021,-0.022066306918613214,0.3804054922261305,3.6315577040537734,-1.8347240905274687,-1.3218126984092309,-1.6157670855166044,-0.845386802297643,-1.4268120674507476,2,left
6.775,0.6510941521064486,-0.007665155992833738,0.4069623113328936,3.638747573526854,-1.8441186777736944,-1.3132103393812162,-1.6123662428567505,-0.8458517727890147,-1.4334688749057887,2,left
6.775,0.6471580646932091,0.007931218108508595,0.4276567608555586,3.636629057907734,-1.854703185667692,-1.3241053971307137,-1.6099807780249247,-0.8453301598687355,-1.4357170575234444,2,left
6.776,0.6425930974762206,0.02616376989361631,0.43963929132084856,3.6357371557879947,-1.834418205365088,-1.3131996614942762,-1.6214277610605143,-0.8459115220969786,-1.4194395572875864,2,left
6.782,0.6371506355157914,0.04651933588274663,0.43997091416548073,3.6383657592308682,-1.8521744910952433,-1.3190268034376949,-1.5999620188848627,-0.8452349721898762,-1.4511468244361203,2,left
6.782,0.6333946418541821,0.06915967647198851,0.4321778785968858,3.6340614200039902,-1.848716438926055,-1.3255240329989824,-1.627609510482685,-0.8459595329348324,-1.4098861099179567,2,left
6.785,0.6273104802487915,0.09316031045882125,0.4213389230390032,3.640776688363248,-1.8292322089226016,-1.2998074565481126,-1.604494051337979,-0.845414619006023,-1.4445622214153693,2,left
6.7860000000000005,0.6168869265570606,0.11888243474454535,0.4066848260110314,3.6311890046187525,-1.873544820650223,-1.3468586187678415,-1.6051701790383626,-0.8453379210157135,-1.4432714160034006,2,left
6.79,0.6076486292268554,0.14559774370875095,0.3907128377823189,3.642464720811994,-1.813698011450132,-1.2866707848064365,-1.6491109696306627,-0.8466210137958796,-1.3780893407909796,2,left
6.792000000000001,0.5985550807033606,0.16819479441163687,0.37622495739393746,3.633492681293875,-1.8649055053953316,-1.3368266341987778,-1.5410401222195347,-0.8435978347168085,-1.5388054604182955,2,left
6.795,0.5849459138338731,0.1957600708049746,0.3665428752495402,3.6330507362544653,-1.861602784483264,-1.3356058769139079,-1.720248535625287,-0.8485634807936566,-1.2721434442699004,2,left
6.796,0.5770826521513008,0.21544033833361254,0.3627242965531502,3.651976637405504,-1.7690594001315176,-1.2396011566205427,-1.48387106294835,-0.8420278704929786,-1.6239324354330527,2,left
6.8,0.5762022927925441,0.21741184798682212,0.36217313835438514,3.6064570600292507,-1.999290142995007,-1.4753795405481898,-0.4916246845021516,-0.8145743078878303,-3.100370447319281,2,left
6.8020000000000005,0.5668424181171827,0.23514961100218387,0.36611343266588076,3.681543808723104,-1.6165136650470147,-1.084508537507212,-0.25525941801309127,-0.8080341501385203,-3.4521594446877577,2,left
6.8020000000000005,0.5578475173514907,0.2549964837177481,0.3692096789244468,3.582658171063508,-2.12176990331277,-1.6000578702652137,-0.4344611140201986,-0.8129937869283337,-3.185456090718799,2,left
6.805,0.5561833592735157,0.2575347672974271,0.37185768797145285,3.166829479930775,-4.241127034556573,-3.7639306485063564,-0.32636225999333635,-0.8100111910668926,-3.346318603665206,2,left
6.806,0.5493726475539302,0.26978483968604805,0.38334355987143387,3.0680009379748205,-4.746442917857259,-4.279512938225294,-0.3703942405230752,-0.81119815512757,-3.280834741424838,2,left
6.806,0.5382899543430265,0.28562913094133735,0.40048627824706523,3.142948194745273,-4.363379759264527,-3.8886237874143568,-0.37090581659047867,-0.8112749733286514,-3.279991642149019,2,left
6.81,0.5280845435626795,0.29522875219011235,0.4190147726046184,3.0976804024468994,-4.594372814861515,-4.124326590634288,-0.34800094775418855,-0.8105526343791768,-3.3141872583504552,2,left
6.811,0.5212150460326306,0.3038312230274707,0.4398031171551541,3.1162436974497187,-4.500421308608136,-4.028568007269059,-0.37547039150210604,-0.811400554651221,-3.2732033830014524,2,left
6.815,0.5153107765870637,0.30837141372850363,0.4618092926594789,3.116202811008174,-4.499064625825364,-4.026903072573944,-0.35402268949643434,-0.8107697881700898,-3.30516562506104,2,left
6.816,0.5070573075791465,0.3136939804694981,0.4819970305301462,3.106959273675363,-4.548349528502498,-4.0776273962996346,-0.3657580168981752,-0.811017075991073,-3.287787634416435,2,left
6.82,0.4992167465397798,0.31901452319305357,0.4970353571747696,3.1181261973481904,-4.489333466809604,-4.016958900821871,-0.3626767455730575,-0.811179113967021,-3.2920965149893857,2,left
6.82,0.4898805626228418,0.32322706571621795,0.5055254951346622,3.1092895173722646,-4.53530011002549,-4.064058837594429,-0.36034250978339366,-0.8106889538952986,-3.296045316801309,2,left
6.824,0.4782021973559241,0.32875113371693776,0.5082008104756519,3.1144758830262758,-4.510465271371574,-4.039120513231246,-0.3647558563047091,-0.8113331924439475,-3.2888955627660104,2,left
6.824,0.46619950195033155,0.33371360948584866,0.5053880129533403,3.1123055462800724,-4.516265193430931,-4.043739582044284,-0.3604876047268468,-0.8107989379371454,-3.2957109188258498,2,left
6.829,0.45564717787719233,0.34087658314719216,0.49572951296068335,3.1128416973151323,-4.522598790403489,-4.0524458865624045,-0.36384087447347424,-0.8108877123944082,-3.2907247939484114,2,left
6.83,0.4450142832306873,0.35080803806879457,0.48090197339191904,3.112834886928228,-4.511522005091498,-4.038385841352486,-0.36103212391285117,-0.811583093935998,-3.2940454507478876,2,left
6.835,0.43239055772404417,0.3615946093065068,0.4632764155626729,3.112525179519689,-4.521952568738882,-4.051229171336722,-0.364110936185432,-0.8099018963917679,-3.2914269586238394,2,left
6.835,0.42261751928447844,0.3731475045354205,0.44457226378480463,3.11394189161103,-4.514797759781446,-4.043948477933603,-0.3603179275988967,-0.8124318917068931,-3.2941429876834456,2,left
6.8389999999999995,0.4135193839041654,0.38584687217094793,0.4235079526880266,3.110027801932632,-4.518376335310199,-4.0435131064501935,-0.36421223791580665,-0.8097309424844898,-3.291469330096941,2,left
6.84,0.40143564692017797,0.39962084488327143,0.39925214968427225,3.1175737402930874,-4.517334380326009,-4.051790786301174,-0.36219761275203105,-0.8112976933012213,-3.2926638973261078,2,left
6.843999999999999,0.3925605639338911,0.41037468820721434,0.3751352553879421,3.1066521984209894,-4.517180787815027,-4.037697992055449,-0.35929485270252526,-0.812617221257522,-3.2954285261681795,2,left
6.845,0.38826319927366637,0.4191284459098015,0.3487867727776657,3.1182317557232078,-4.517661781022163,-4.053045634872939,-0.37008959172956035,-0.8067920377892914,-3.2861691797688493,2,left
6.849,0.38192652912712133,0.4291953125164929,0.31989899066682603,3.1116402452912952,-4.516881911625891,-4.043665392805332,-0.3504155985471437,-0.8176034209935426,-3.3028278726968017,2,left
6.85,0.37623709457676824,0.4365582578581918,0.2918899528450145,3.105468700577136,-4.518698433775889,-4.038118659538196,-0.37560005546668707,-0.8037199181162733,-3.2815527637149926,2,left
6.854,0.37504386196801887,0.44128433683005974,0.2663818318333864,3.1316759807555776,-4.514820904313707,-4.066549215223101,-0.3546070528396167,-0.8153099969087709,-3.29926696911518,2,left
6.855,0.37069748927976576,0.44480156288681894,0.24412221051450472,3.0832201499947445,-4.521277984896884,-4.013075495513739,-0.355053072417592,-0.8149962786457182,-3.298967867094267,2,left
6.858,0.36812076740892014,0.44498278120402557,0.2246980298168558,3.145405808526279,-4.513149993991589,-4.081905065518769,-0.3954814196291564,-0.7928992968297097,-3.264600293172274,2,left
6.859,0.37191352791207977,0.44433436409698446,0.20911538943505809,3.093505521662408,-4.5198713573642015,-4.024377000777282,-0.2962593039136486,-0.8472082021129097,-3.348857591997263,2,left
6.8629999999999995,0.37335038358956324,0.4435937584774322,0.19571898352932865,3.094854857429026,-4.519940136500342,-4.026190021642757,-0.46073432202649334,-0.7571656154635769,-3.2092120607850845,2,left
6.864,0.37405998821886677,0.4426873020976841,0.1883950130481716,3.193995401464165,-4.506296128897141,-4.135039701540174,-0.24379882288323393,-0.8759263211710417,-3.393396843712144,2,left
6.867999999999999,0.3750326525927216,0.4418472834793017,0.18743143122801276,2.9503898155006025,-4.539541002294207,-3.8672038431773177,0.6669958380200443,-1.3744764129104063,-4.16679757794339,2,left
6.869,0.37498258429933223,0.43881327901451894,0.18336883439643747,3.354275737564634,-4.484488396003682,-4.311358511578894,0.8839409260122252,-1.4932283364122778,-4.351000282131659,2,left
6.869,0.3757655541495071,0.4364819832946759,0.17897323516409008,2.8215614741191324,-4.557105392557715,-3.7255233903894616,0.7194555327281391,-1.403195247642831,-4.211335356145494,2,left
6.872999999999999,0.3763857792517049,0.4358394812302522,0.17960777802586975,0.5853364994179335,-4.86217996218218,-1.2667620696023858,0.8186737050464367,-1.457507780532366,-4.295585298699985,2,left
6.874,0.378964299247332,0.43695044002463446,0.1850192509700932,0.05262874848834269,-4.9348440109606795,-0.6809736569124721,0.7782797661825225,-1.4353792520428983,-4.261282004428244,2,left
6.875,0.3832082337687242,0.44099652190461075,0.19340145000286946,0.4565076127456155,-4.879740474160577,-1.1250777917096926,0.7777597094985168,-1.4351333914097562,-4.260844571610969,2,left
6.877999999999999,0.38686609665080185,0.44500934046917684,0.20290100045087678,0.21289938833238276,-4.912966067625484,-0.8572227062431726,0.7988588688759846,-1.4466261913586647,-4.278757135329737,2,left
6.879,0.39133739556041147,0.45010581881454526,0.217467423842502,0.31206321961661004,-4.899490756111751,-0.9662400313264369,0.7735686987859072,-1.4328395388854909,-4.257284477846238,2,left
6.8839999999999995,0.396562169110317,0.4596071672533326,0.23492185940337995,0.313362392921646,-4.899196451900958,-0.9676923520373091,0.7932883111879272,-1.443609168259363,-4.274028455739693,2,left
6.885,0.4002541486804594,0.4735887552563839,0.24800771854080408,0.26153407448765265,-4.906438493115159,-0.9106814504183844,0.7825843356048873,-1.4377007368126713,-4.264938639538526,2,left
6.888,0.40329676008720455,0.48617713738607854,0.2595509655371123,0.32364801047654546,-4.897791903334381,-0.9789960435125066,0.7851946981439625,-1.4392882893054586,-4.267156980997365,2,left
6.888,0.40748907837103704,0.4969392367114053,0.2729934523601534,0.27522323252075115,-4.90447295845488,-0.9257445089185848,0.7877131496265066,-1.4403933023144586,-4.269292928397487,2,left
6.893,0.409203337420552,0.5144714735331628,0.2821861265214357,0.30149185777324994,-4.901040274994336,-0.9546173225315209,0.7832005041435661,-1.4382589364937046,-4.265463850763476,2,left
6.894,0.40600120598391376,0.5349302233366844,0.28637743288669126,0.29512228411820063,-4.90142299872833,-0.9476460260823925,0.7874865001510833,-1.440337350705455,-4.2691012015309155,2,left
6.897,0.3989175749386311,0.5530032356132228,0.291125240525442,0.28887222394148626,-4.903114092799639,-0.9407203247257896,0.7844120334020459,-1.4386518374976496,-4.26649053986646,2,left
6.898,0.38863163476131146,0.5744594926728249,0.2942316127184367,0.3000324833006035,-4.900562096501022,-0.9530556747163242,0.7863060392227601,-1.440185902655489,-4.268102338979056,2,left
6.903,0.3751452830374553,0.5989704014235624,0.2951070494101105,0.2894456037952162,-4.902827293274327,-0.9413643595481012,0.7850433520134678,-1.4383585345349097,-4.267022210956267,2,left
6.905,0.3561735734223249,0.6211204642319014,0.2951964800571059,0.2969936546528754,-4.901805181320463,-0.9496635931495074,0.7861927248303895,-1.4406824301824503,-4.26800990335882,2,left
6.907,0.33398236087240873,0.6445454388247177,0.28954336485452314,0.29246051604476425,-4.900899052489164,-0.94477136051203,0.7851042618848149,-1.4382803305176726,-4.267073250199616,2,left
6.9079999999999995,0.31240383822435264,0.6726427812033795,0.27977375931642046,0.2952935377152014,-4.90399638725461,-0.9476758003046035,0.7855172597290425,-1.4395494393305572,-4.267431021757593,2,left
6.912000000000001,0.29027925601162,0.6990359431343536,0.27314030923351645,0.29286966471142506,-4.899129937414163,-0.94532478737082,0.7869427257735283,-1.4412308772679365,-4.2686477433470476,2,left
6.912999999999999,0.2711318364466404,0.7229743230962027,0.2646434350918847,0.2951181465168454,-4.904363158745934,-0.9474620041792858,0.7824547357797645,-1.4348345753123588,-4.264809692984526,2,left
6.917999999999999,0.2563017802726218,0.7474642011484697,0.251361061010308,0.29434858110286133,-4.901267805281893,-0.9468101031597832,0.7904618583377574,-1.4465218979482748,-4.271658946819568,2,left
6.919,0.24240642870860715,0.7699374881868803,0.24070571845757666,0.29106084393387965,-4.898955353084772,-0.9433602424605597,0.7802511106096823,-1.431555306808046,-4.262924480972318,2,left
6.922000000000001,0.23181908305198667,0.7907052455477492,0.22675294332107007,0.3011546899846601,-4.909657111737944,-0.9537313733141433,0.7887470367197906,-1.444031977686046,-4.270191952976229,2,left
6.922000000000001,0.2236736298306773,0.8104359802249852,0.2084574902218411,0.28320980424908015,-4.889706824735644,-0.9353512457057706,0.7886267296678767,-1.4437602755365608,-4.270088994207726,2,left
6.928,0.21686053221450818,0.8264093317926435,0.1955151676827211,0.30607945652073765,-4.9153456541446285,-0.9587606772410584,0.772066571763713,-1.4197583079938583,-4.255924058857294,2,left
6.928999999999999,0.21491397477293195,0.841492512659753,0.1842569338714502,0.2870548068677714,-4.893934508436879,-0.939295055196061,0.8126406366761185,-1.4786696190487667,-4.290629086408787,2,left
6.931,0.21679237431499196,0.8605026865250538,0.1762417981049662,0.28730496352499385,-4.894543848135148,-0.9395240349013074,0.7453996602634556,-1.3810190387381915,-4.23311530090033,2,left
6.932,0.21811241413651583,0.8707823140581976,0.17478014923511498,0.324454766259926,-4.935266547232387,-0.9776178865322129,0.8340883172332701,-1.5098094145510224,-4.308973127313584,2,left
6.937,0.21789804906757063,0.8716119265341218,0.17431965726694684,0.23345227016453377,-4.835145984593741,-0.8843392634803054,1.2065069753316173,-2.0505927879553316,-4.627523392095671,2,left
6.937,0.21932449659033135,0.8851385885323024,0.1736694012081374,0.38426517674032035,-5.001150790367269,-1.0389084337450716,1.295210754118806,-2.1793760886825493,-4.703392399360133,2,left
6.938,0.2214934528108344,0.898357455959514,0.1718816002079774,0.1853413770465201,-4.7822013299983865,-0.8350403344888525,1.2279534193204704,-2.0817331616423385,-4.645866518440338,2,left
6.941,0.22397143826357963,0.9003065978839606,0.1723759731514113,-0.6499262427602978,-3.8630916334343355,0.021129134296569457,1.2685212530908045,-2.1406473893954816,-4.680566939695644,2,left
6.942,0.22843865131056768,0.9113420147428157,0.17790380260570843,-0.8488986601649192,-3.644164778093872,0.22503321447246633,1.2520153832795917,-2.1166200192208855,-4.666442142273989,2,left
6.943,0.2329506122306958,0.9268664628468881,0.18356418002811772,-0.698033153774658,-3.8101451246370766,0.07042511096517616,1.251778280462083,-2.116402966649968,-4.666252829231631,2,left
6.947,0.23565209317455663,0.9409277272959141,0.19000209754017908,-0.7890156391515821,-3.7100152675020697,0.16368894312473956,1.2604416584568559,-2.1288012870391047,-4.673644109699371,2,left
6.9479999999999995,0.23679644988181392,0.9598023222267962,0.1976277306208214,-0.7520403293758351,-3.750819078155387,0.12572419160701942,1.2500641755201432,-2.1139127092418173,-4.664786364008206,2,left
6.9510000000000005,0.23862328638170063,0.97867020600676,0.2040278304810668,-0.7514147359499108,-3.7512538860974813,0.12521741615849158,1.258143219092037,-2.1255663842944394,-4.671688796796351,2,left
6.952000000000001,0.23459662118062746,0.996979280866205,0.2124266194553962,-0.7709776802533144,-3.7300929915226027,0.14508135738424752,1.253798457598701,-2.119103059727324,-4.667956640579735,2,left
6.956,0.22204579464313345,1.0181496519014708,0.2251301982439088,-0.7475720057149458,-3.755482613023898,0.12127526252126608,1.2547626331290342,-2.1210003414549226,-4.6688323036467025,2,left
6.957000000000001,0.2081924848970671,1.041031392001762,0.24327760537771798,-0.7657481623785276,-3.7356398732007756,0.13982658117040772,1.2559704036848167,-2.121897573426386,-4.6697777015221025,2,left
6.961,0.18921393156850835,1.0629000775824093,0.2658622079035987,-0.7561146343288561,-3.7465555867847824,0.12979598183948132,1.2539066086660566,-2.119951826902974,-4.668119917354426,2,left
6.962000000000001,0.16406866252927982,1.0825229282671107,0.2893654222093761,-0.7579196115233269,-3.7435538534207287,0.13214874583601938,1.2558334835474771,-2.121911945096203,-4.669682479588753,2,left
6.966,0.13482353668974073,1.1007398327305657,0.3157916052037361,-0.7612440046759279,-3.7416462015503336,0.13469107548060885,1.254577908789019,-2.1200812216457288,-4.668607591218144,2,left
6.9670000000000005,0.09858166502687213,1.1202665404029402,0.3412300747557431,-0.7558601404706433,-3.745421771533045,0.1302337385658363,1.2550286549058156,-2.12229062190852,-4.669152316152283,2,left
6.973,0.05959778540995288,1.1401992989614376,0.3637308060619586,-0.7607836438230435,-3.7417174967357703,0.1344345977236733,1.2552521833769723,-2.1190619494099963,-4.668980062452624,2,left
6.974,0.01798402060291657,1.1571414559674449,0.3891974192752101,-0.7579730083396278,-3.7448250390060833,0.13154633371236008,1.254618373360083,-2.1234423411881957,-4.668979873744647,2,left
6.976,-0.027366432521694573,1.1735042752848432,0.4074880234417484,-0.7578672400554267,-3.7417625625755573,0.13300645009049683,1.255350031217298,-2.118854215540387,-4.669028293526184,2,left
6.976,-0.07124685717846935,1.189987884023644,0.41868730942853216,-0.7609204337474176,-3.745668693607918,0.13255130458278963,1.2548389200890564,-2.121376645642987,-4.668924201341377,2,left
6.981,-0.11000120598568183,1.205259356352089,0.42993862031583296,-0.7556921393011273,-3.7405815334071764,0.13254006504896915,1.2548358103510644,-2.1241872163063045,-4.669210355935878,2,left
6.982,-0.14238169802897943,1.2216630201136498,0.4329992851477341,-0.7613910354300004,-3.7458675958670256,0.13268046773189046,1.255565618383259,-2.1129287259537426,-4.66857415155105,2,left
6.985,-0.17246241891922223,1.2381466467848874,0.43210231666662646,-0.7579003309142348,-3.7430294466951604,0.1323968273488199,1.2540828302903142,-2.133619083399995,-4.669641893452285,2,left
6.987,-0.19433702996320534,1.2524131779638066,0.4229316917278836,-0.7558715570207708,-3.7395090944686546,0.13315606655463363,1.2560159279818652,-2.1070947176165737,-4.668297205551903,2,left
6.9910000000000005,-0.20887963836947904,1.2672438117944287,0.4057383844711342,-0.7663548406738292,-3.7531607437745116,0.13147561808030042,1.2543901650148415,-2.129220178777577,-4.669407567034781,2,left
6.992000000000001,-0.2175117220410188,1.2847029411252344,0.3787164478911089,-0.7466241706189969,-3.7281576746689575,0.13429635171505655,1.2544795878579036,-2.128689757400701,-4.669421052267607,2,left
6.995,-0.21156162889586103,1.2999239450497209,0.3355275111608179,-0.7720238634831565,-3.760196038660663,0.13073968413309867,1.2574309509383996,-2.0862792424652916,-4.667165587982568,2,left
6.996,-0.20239794518727788,1.3104136670927136,0.2896635440765337,-0.7507933044392945,-3.7334709270525837,0.13368398228666123,1.250122993340275,-2.190435708645204,-4.672653404614975,2,left
7.001,-0.17007839971075323,1.323314704718336,0.20720108280139138,-0.7514673275415935,-3.7340988186931985,0.1337031909915276,1.2622542514038746,-2.01776451407727,-4.663574521970373,2,left
7.002000000000001,-0.13608316211894,1.3325722862003773,0.14061798699930247,-0.7916222174389785,-3.7853857650639613,0.12776034847467113,1.2462513541985372,-2.2455096164730124,-4.675539026279235,2,left
7.005,-0.13106819663363184,1.3341965617679137,0.13038195824549217,-0.6928107597671023,-3.6594270337260806,0.14225476427888403,1.179147467253596,-3.2015918930306997,-4.725866359153892,2,left
7.006,-0.08403225042510803,1.3442938824022121,0.05231831335379995,-0.8566726341330846,-3.868265091264279,0.11824600356639375,1.1631481173055556,-3.4293305485157313,-4.737810875439372,2,left
7.007000000000001,-0.035476243385067927,1.3538416044182198,-0.026926147866522504,-0.6405402348746738,-3.592781474341373,0.14991975280727188,1.1752766023554877,-3.2566734550345005,-4.728765605585378,2,left
7.01,-0.02699834562604267,1.3553092534483255,-0.034732596637957955,0.26654614357015655,-2.4364444043682436,0.282969953553564,1.167963413234344,-3.3608073338167257,-4.73421918876708,2,left
7.011,0.028301636154450593,1.3629384549874126,-0.08382445472335578,0.48265882983834546,-2.160869318143652,0.31467916748377045,1.1709352829900068,-3.318425716771169,-4.731979521712753,2,left
7.0120000000000005,0.11083734095746496,1.3668606357570914,-0.1362052513089401,0.31882154684982,-2.3698435162574243,0.2906213456149477,1.1709857780724273,-3.3178678810375892,-4.732017494600095,2,left
7.015,0.18750957488903136,1.3580737472084805,-0.1471141833546848,0.4176295579290635,-2.2437907430715427,0.305139034538596,1.1694116703498039,-3.340004816168649,-4.7330459265433324,2,left
7.015,0.2774826058306259,1.3414825246784443,-0.15285346774146724,0.37742774913632493,-2.2950208893177257,0.29924540501021746,1.1712985257925204,-3.313503792188273,-4.731841308126027,2,left
7.02,0.36567650876171975,1.3181757807527692,-0.14712401170205877,0.3768705970840068,-2.295952355832872,0.2991065726384722,1.1698260418043498,-3.334119512517006,-4.732740002493715,2,left
7.021,0.4518983792838048,1.2905098167787827,-0.14042756156172004,0.39792084130544547,-2.268646773983765,0.30231922538787975,1.1706177922506371,-3.3229897597535647,-4.732233794280685,2,left
7.025,0.5337627625020764,1.2637413567216806,-0.13433621399405282,0.3727166254993213,-2.3014445502887524,0.2984431729417129,1.1704533963505028,-3.3256415719827666,-4.732531730815154,2,left
7.026,0.6040006133587745,1.2441438658377972,-0.1188238273524799,0.39233338422328295,-2.2757769644688617,0.3014985792963716,1.170198478182795,-3.328292273895525,-4.732162960007177,2,left
7.029,0.6639535000995497,1.2286044874648072,-0.08909036623718491,0.38175037383108884,-2.289552703877177,0.2998691819167844,1.1706387722124725,-3.323700964344443,-4.732795660468108,2,left
7.031000000000001,0.7127686090813916,1.2160291534490644,-0.04214132935784185,0.3842175981779377,-2.286967888853343,0.300079998247555,1.1702028288619641,-3.327853549352769,-4.731942176143045,2,left
7.034,0.7534852306171635,1.2108160854070165,0.01079397056904215,0.38688630827660436,-2.2817598552367135,0.30095926166287323,1.170507344099381,-3.3251529839501206,-4.732654097202889,2,left
7.035,0.7830864556845888,1.2106420330524017,0.055493525147051984,0.3822668353378373,-2.290759030728098,0.2994410963311765,1.1704091912622787,-3.3265691857672843,-4.732736887174031,2,left
7.039,0.7972790110797408,1.2156768019938666,0.07677973104230973,0.38652907982658463,-2.2815098694520994,0.301097719760236,1.1702642751664363,-3.3255892027623117,-4.731099460425768,2,left
7.041,0.7932713803670461,1.2232617876188336,0.07824610521571965,0.38371004228959094,-2.2881446759337196,0.2998621059128997,1.170649538626799,-3.3270517788513714,-4.734799239168469,2,left
7.045,0.7726138969855211,1.2273214632116696,0.07685611664636649,0.3850517259973454,-2.286462084837195,0.3000513192584654,1.1700877352028742,-3.324690196751665,-4.729271419561057,2,left
7.045,0.7434882150300791,1.2284647834405762,0.0744245280235245,0.38459736508336223,-2.2813973977525217,0.30151069260689917,1.1706695362491564,-3.3274462296158935,-4.735175539965182,2,left
7.0489999999999995,0.7091291991503341,1.2218070694408993,0.07459142082981209,0.3848980531448263,-2.2939103879953917,0.29806796265400276,1.1703336635993695,-3.3258574398674776,-4.7317662993188545,2,left
7.051,0.6675056602610525,1.20434992164112,0.0833784136946204,0.38427950509302256,-2.275461417584596,0.30317844120726556,1.170079920101725,-3.3239539797522593,-4.728793246222537,2,left
7.053999999999999,0.6206593671563303,1.1802267723997883,0.09014647194047076,0.38516442266351253,-2.2948389908076487,0.29776436459059635,1.171235561468998,-3.331590549081139,-4.741755324879392,2,left
7.055,0.5720828479607835,1.148366145037722,0.08871307537559106,0.3846580797913822,-2.283639557721771,0.3008920708029468,1.169091292321823,-3.3174655499188876,-4.717724350730877,2,left
7.058,0.5175102745930082,1.1172187508056868,0.08226252731970979,0.3837102240404924,-2.274627107512126,0.30351724319483486,1.1718402887297201,-3.3356438539899846,-4.748578136358583,2,left
7.059,0.46479420062901367,1.0918713551253312,0.07503445045030682,0.38719005291806086,-2.31490053815414,0.29193865801702057,1.1695485371823584,-3.320451862782075,-4.722826801164656,2,left
7.064,0.4123212639230348,1.079981667336619,0.0605308013168326,0.3807760210105522,-2.2401718209958412,0.31341351961230235,1.1696102245230864,-3.320797520486903,-4.723502356578981,2,left
7.065,0.3532797517753243,1.0900529076767425,0.0366261693796997,0.38904690884079585,-2.3360738681795317,0.28584731647063133,1.173973629640377,-3.3500269443821447,-4.77266183643836,2,left
7.068,0.29722830190624283,1.1116042339974528,0.015923526417627048,0.3821327156684765,-2.2560343091675135,0.30885465962017067,1.1632545687251266,-3.2782465804057637,-4.651873542119415,2,left
7.069,0.22487253601543133,1.1570712936255951,-0.02462618826380069,0.38224462791237923,-2.2582682747821137,0.3082321458736005,1.181020438304376,-3.3972507639325746,-4.852117835736478,2,left
7.0729999999999995,0.1733042945716471,1.1929483565691323,-0.060493187085304004,0.395707136856571,-2.410599494835396,0.26437602835085156,1.1575948674402343,-3.240286496666079,-4.588024513584662,2,left
7.074,0.16311603199751257,1.2005533258513326,-0.06588281302455333,0.3627044791987074,-2.0361366472439393,0.3721582754912538,1.0592013353308474,-2.5811111191892477,-3.479160976907124,2,left
7.075,0.11655382132593632,1.2480794812923088,-0.11218360899584878,0.4173905012624782,-2.6570086064354244,0.19346438265231816,1.0357881254443637,-2.4241521935557424,-3.2151141435704758,2,left
7.077999999999999,0.074064209550147,1.290788487888051,-0.16060707612906316,0.3452899192711244,-1.8380971729173734,0.42914373757672114,1.0535398960460838,-2.5431609331046956,-3.415308684081857,2,left
7.079,0.07306138964752354,1.2944333282848635,-0.16648245477672943,0.042284384469911056,1.599102523417493,1.4184677075706709,1.0428183173710202,-2.4713417631745935,-3.2944993303979704,2,left
7.079,0.05658848456621326,1.3239809343647133,-0.205024710308847,-0.02972366733367801,2.417994690481149,1.6541058493058074,1.0472207889028762,-2.5006658280119405,-3.3438296307589335,2,left
7.084,0.04957111938285545,1.3545573271080635,-0.25392538606600257,0.024817720598053507,1.7971528456445538,1.4754763773773996,1.0471948821235162,-2.5008582734615192,-3.344140301983286,2,left
7.086,0.06299597539955878,1.3651506381620502,-0.27338731902038926,-0.008065312977942022,2.1715907891718955,1.5832053419107663,1.0450315552646043,-2.485845589634425,-3.3189100088344086,2,left
7.0889999999999995,0.07531861588733518,1.369433253912677,-0.2839355846357884,0.005404163429985001,2.0192581104755845,1.539346124619649,1.047649129241595,-2.5038957670111017,-3.3492476033460736,2,left
7.09,0.09436118044880282,1.3559852837395714,-0.27900210857380076,0.005283886688117281,2.017072502503899,1.5388270231796417,1.0455681371949477,-2.4897324075892215,-3.3254344199757284,2,left
7.093999999999999,0.1114482826924018,1.3317193188333667,-0.26224246013293107,-0.0011234979667049563,2.0970065222747216,1.561608638147088,1.046821491243737,-2.497694790384237,-3.338851132557667,2,left
7.095,0.12284463972157951,1.298777001204305,-0.2437667611686245,0.0064254893635469195,2.0012547950374717,1.5343639681236014,1.0462269416455348,-2.4951130067557536,-3.334433145926717,2,left
7.098,0.12692955239648973,1.260416683780651,-0.21701451399195326,0.0007263456155927267,2.0758346662532325,1.555520413645786,1.0464930764265028,-2.4944822917559364,-3.3335024786808924,2,left
7.099,0.11735733526425758,1.2244261726805503,-0.17838014408132813,0.0038965018921467798,2.035625686250873,1.544079770432636,1.0463203671671684,-2.4962862303201994,-3.3363765610714644,2,left
7.103,0.09783540601157087,1.191400134912525,-0.13326509265910036,0.002347085885870552,2.0447634460566917,1.5469728550535333,1.0463835371120713,-2.4943496153428177,-3.333246821524991,2,left
7.103,0.0692835162115292,1.1663441577684566,-0.081734717589797,0.003784927973020381,2.055557993921445,1.5492346480873564,1.0467204201891689,-2.4965848800120987,-3.3370085063875488,2,left
7.107,0.03187921655093858,1.1506549023777128,-0.019069211329776195,0.001320177150164303,2.036877945639433,1.5453124939753224,1.0455394606038295,-2.4930526820451644,-3.330827902741149,2,left
7.108,-0.01031510810774774,1.1445481205911463,0.049677408410127896,0.004811324870163894,2.0544711874964903,1.54859251024011,1.047906908769777,-2.4989063024493894,-3.341219807825079,2,left
7.1129999999999995,-0.05158064462428375,1.1457244149157924,0.119468491881387,0.001836381719283713,2.0426401622926997,1.5466087914837552,1.0444546224495488,-2.490704980543164,-3.326611203574725,2,left
7.114,-0.08899897828874859,1.1524494998311368,0.1873945745612616,0.0013526543684806258,2.047711177448761,1.5480811481929464,1.0481198136957564,-2.4993491094407068,-3.3420174147536628,2,left
7.117000000000001,-0.12341493901639577,1.1646834525606442,0.2545683215181973,0.008771837791062168,2.048127981509873,1.5455635819069777,1.0460257869758307,-2.49451011730374,-3.3333791318822747,2,left
7.117999999999999,-0.15203515093364273,1.1865747138173954,0.3226841963797764,-0.00793489535663633,2.0443852367939774,1.5505134059531023,1.04410393460368,-2.4895669991664784,-3.324628990432836,2,left
7.122000000000001,-0.18058735857861197,1.2223923613866943,0.38945456830494063,0.017043930467531557,2.049320557098183,1.5429429356587279,1.0523231781736364,-2.5099381124731024,-3.360788908470904,2,left
7.122999999999999,-0.21414104530415967,1.2674130289142531,0.4540480053070144,-0.009657946944210119,2.044919248681599,1.5512603668337048,1.0371157242322477,-2.4723864090099,-3.294116123912313,2,left
7.127000000000001,-0.24864257197789533,1.3282035162056878,0.5129374695454261,0.005766726070730175,2.0474719619993795,1.5464577828647301,1.0566341135329984,-2.520555313602447,-3.379639539167728,2,left
7.129,-0.28729507479328886,1.3954094339382812,0.5637056506153131,0.019239956779301345,2.047763690008094,1.541767127053836,1.0403438360759227,-2.4803592887308534,-3.3082772164008567,2,left
7.132999999999999,-0.32549684576897286,1.471577675619168,0.5931334289802073,-0.039489178257899986,2.04401483655018,1.5615812731393754,1.0407692993714188,-2.4813745863188554,-3.310070286865945,2,left
7.132999999999999,-0.360795817765994,1.5646574120485748,0.6032782919629511,0.069405921392895,2.0510911571773267,1.524872667148687,1.0718791340162572,-2.55826490330759,-3.446594201189709,2,left
7.138,-0.3831755575245951,1.661755202226134,0.6039716438636078,-0.07042675583885759,2.0421617426976972,1.5720522640629073,0.995436196071877,-2.3693575882162436,-3.1112019729392495,2,left
7.138999999999999,-0.376162607113689,1.790681760485504,0.570328426849432,0.04630707265374266,2.049546398405906,1.5326459979333589,1.1221729959645486,-2.6825611580472266,-3.66725018562723,2,left
7.141,-0.34974636485128147,1.8820732497906283,0.5247626366240307,0.043193133939061414,2.0491410170607978,1.5336492726018287,0.9550135762405718,-2.2694382164795965,-2.9338353034977374,2,left
7.143,-0.3296067262665261,1.9038137908844985,0.5049500933791737,-0.1795385197133686,2.035927845287782,1.6090490406807623,0.25328408662185714,-0.5353707217097907,0.14493331471563897,2,left
7.143,-0.2713186343887556,1.9785131783199927,0.4312952636733166,0.367841104707916,2.0685654009867203,1.423780123064175,0.0861321751144531,-0.12221906637305183,0.8783545853247613,2,left
7.147,-0.09641512076717895,2.053907974785734,0.26152758478351523,-0.5397041690784418,2.014459548000157,1.730961484646829,0.21286085028089483,-0.435453704200897,0.3222994623593919,2,left
7.147,0.04108025134138668,2.0650127765364896,0.14882606592739178,0.6573201046580769,2.0857800875810124,1.325782115626557,0.13641482745464442,-0.2465581990530804,0.6576890559842825,2,left
7.148,0.08466161547156109,2.0681789743732364,0.12100535732103282,5.682675927353822,2.384441928878291,-0.37527547886923673,0.167551598472316,-0.32334547738168684,0.521188081099125,2,left
7.151,0.2617261933882392,2.0308161672281657,0.03325490234911738,6.879736625910542,2.4556771581125045,-0.7804836535193325,0.16791909831608368,-0.3245824832378969,0.5193456615593338,2,left
7.152,0.5091637158858001,1.931315374165298,-0.05246450286617167,5.9720463373760015,2.4017286500881614,-0.4732377404577272,0.15171193384715248,-0.28406856762692,0.5907787344617832,2,left
7.157,0.6904294015840913,1.789651516124421,-0.07268337917674429,6.51978503058361,2.434170920471951,-0.6586130576055668,0.17114755351178146,-0.33255403263493094,0.5051848748612733,2,left
7.1579999999999995,0.8449914593558159,1.6165718988555278,-0.1103270760512127,6.2964129456505065,2.4211265506871964,-0.5830728799124157,0.1559758251040334,-0.2948657251388568,0.5718880399474259,2,left
7.1610000000000005,0.9298954443983025,1.430138503984486,-0.17474567642638553,6.2941617973517925,2.4206752819663513,-0.5822088474756508,0.16426611635297866,-0.31496503673491083,0.5357886476363413,2,left
7.162000000000001,0.9438429923029696,1.2413171588108343,-0.2631505695277694,6.410071016986843,2.4278716830764746,-0.6215458627592076,0.16211535247717912,-0.3108975222522079,0.544343878194753,2,left
7.167000000000001,0.9099654105112367,1.0703365622667769,-0.3686242470045371,6.270544280119451,2.4194470699602872,-0.5742723479716654,0.1604157766262186,-0.30454979731808574,0.5533179670165433,2,left
7.167999999999999,0.8263037497425498,0.9280089821048819,-0.4578759285317793,6.380264075548362,2.42571627277838,-0.6113239398826673,0.16359684936750835,-0.31504555249723676,0.5374996735200593,2,left
7.172000000000001,0.7177460561702627,0.8337371958840827,-0.4767710320725302,6.319067752851216,2.4228918764129808,-0.5908934874750682,0.1605305680357773,-0.3053679758509645,0.5524367562003475,2,left
7.172999999999999,0.5749171763106369,0.8157296076811857,-0.35839324201389755,6.336695951481767,2.4225417354130654,-0.5963704385547142,0.16290135870678443,-0.3112085528193195,0.542047901535626,2,left
7.176,0.4050282889688752,0.8422136902125994,-0.16680336844521965,6.347114531538958,2.4248743256584673,-0.600498859295125,0.16100429931071084,-0.310415635796877,0.5476186535248053,2,left
7.1770000000000005,0.26083403639010716,0.8669931070986383,-0.005448608337795712,6.324269680848563,2.42215127543846,-0.5922859741764993,0.16297788534499968,-0.30639052881162615,0.5452504590821523,2,left
7.182,0.1827469838619194,0.8830048708738242,0.14273268840336797,6.349590105789391,2.4236452532710704,-0.6008529295996126,0.16059921866362298,-0.31379353437758684,0.5463015164498887,2,left
7.183,0.1744434486058703,0.887119653505787,0.3002776132893995,6.325020095682084,2.4247135155137807,-0.5934260852046325,0.16302973909575708,-0.3056410155334003,0.5456431392593242,2,left
7.186,0.23264412014607191,0.8772647119121193,0.4347614136491102,6.349853865107128,2.4204098324745993,-0.5997975335159405,0.16179144932963013,-0.3107634110375517,0.5452939629288557,2,left
7.187,0.33449652800924506,0.8633273682509095,0.532013394706867,6.323834470380789,2.4274862581961223,-0.5940260729742854,0.15990090235130855,-0.31314018714976827,0.5486074464448865,2,left
7.192,0.4422731672856025,0.8545990416573555,0.6039739475547066,6.347537228099419,2.4197018666173755,-0.5988122217731178,0.1668279595868989,-0.299399918624605,0.5400219492999871,2,left
7.192,0.5455070562370088,0.8469835757743935,0.6699841384434819,6.336545412391236,2.424362466423249,-0.596963082188638,0.1542242756026515,-0.3254850427529956,0.5548766804662773,2,left
7.196000000000001,0.6246677941516576,0.8345006723092395,0.7338935684714156,6.318664754192909,2.427873475517007,-0.5925203820184257,0.17035425347458305,-0.2918534708160969,0.5360411017580611,2,left
7.197,0.6878538725434076,0.8056252044104252,0.7693601848962066,6.38141387366227,2.411571730760477,-0.6067079624071665,0.15690898476799942,-0.31998841617610785,0.5516705108105977,2,left
7.2,0.7298065280010719,0.7573735095459944,0.7525573824059797,6.268705300039943,2.4420268662410876,-0.5816390168283905,0.1571910359570266,-0.3190102863305241,0.5516160649251132,2,left
7.2010000000000005,0.736308889236067,0.7097926497332097,0.7140850027371065,6.412114028264925,2.4028370321970742,-0.6133807324691752,0.18309966860696328,-0.2660671677157955,0.5206014289402121,2,left
7.205,0.7304881829650942,0.6721699797920688,0.682515734447839,6.292937051831978,2.435595863592823,-0.5870710696120761,0.11951334273956385,-0.39645592017849385,0.5964004954663265,2,left
7.207000000000001,0.6308635803010122,0.675031921004009,0.6181230282643926,6.295327078675276,2.4346393369394486,-0.5874899054595824,0.22492121816036398,-0.1801911708429041,0.47082944756290723,2,left
7.212000000000001,0.5276211566222961,0.6973279075660329,0.5646669281391783,6.524802925434298,2.372355829124845,-0.6384366887283801,0.0858861397649666,-0.46545894656826947,0.6364539687200517,2,left
7.212000000000001,0.5094004159128818,0.6997229913383991,0.5549690879404772,5.961973570013036,2.525552864096923,-0.5136410140205016,-0.4977803764016102,-1.662443513790996,1.332128505490851,2,left
7.212999999999999,0.36047343561452255,0.7504348081352601,0.49509239402715066,6.89473892516728,2.271488587828895,-0.7203959325230276,-0.636833969221061,-1.947703386244878,1.4978093266718355,2,left
7.2170000000000005,0.213462681332125,0.8086939205063646,0.43870504053521664,5.664557986901553,2.6066371061212013,-0.44774796013067,-0.5314060626132894,-1.7314471855461377,1.3721773683150773,2,left
7.218,0.19544258607227144,0.8198411040095892,0.4334406402274393,0.5006603375046226,4.0130475753984625,0.6969501936597471,-0.5949847691762313,-1.8618391978961806,1.4479532589292516,2,left
7.218,0.09746635642621276,0.8718764779655697,0.3860939172007005,-0.7295571360679058,4.348246628906299,0.9695834323259066,-0.5691425840348325,-1.8088676994530044,1.417140694965271,2,left
7.22,0.011923078342541934,0.9422760625616813,0.31981997698652426,0.20314815061234762,4.094121765060246,0.7628781669709577,-0.5687175637319057,-1.8079506216971195,1.4166514779775552,2,left
7.22,0.022418341393037607,0.9815299388319509,0.26903320589088875,-0.3593133945487409,4.247318944802798,0.887560494938552,-0.5823678202649418,-1.835998039310939,1.432904250671928,2,left
7.225,0.057120679296671535,1.010150828249623,0.2169406921345985,-0.13069595090974706,4.185173632454688,0.8368070085659581,-0.5660337183884492,-1.8024536160468765,1.4134479442353736,2,left
7.225,0.13428715940110492,1.0195061468857403,0.1823762573645481,-0.12694482989364891,4.183890921390095,0.8361367292994475,-0.5787254760738132,-1.8285011570000593,1.4285704849530918,2,left
7.23,0.22376125100317096,1.016330072638449,0.16709997108014588,-0.24768434784784077,4.217140524178335,0.8626752432219783,-0.5719737071872295,-1.8146860071149584,1.420518066920731,2,left
7.231,0.3072654863576558,1.0080592287518417,0.16740627315576267,-0.10320554001916639,4.177433143818893,0.8308701047404916,-0.5732996103521321,-1.817303917885913,1.4221144474585985,2,left
7.236000000000001,0.37953219832470103,0.9954610620253734,0.17839942505629458,-0.21547356328627934,4.208165146447499,0.8556610111773955,-0.575510800077065,-1.8220108731471254,1.4247238585156534,2,left
7.236000000000001,0.4261222558023321,0.9898455587646416,0.19368331574564904,-0.1557223759099907,4.192184420323946,0.8422316175526635,-0.5718862928129175,-1.814368155973673,1.4204346092243898,2,left
7.24,0.4610817722105989,0.9912414107293361,0.2194023505914663,-0.16752261325889525,4.19444903788178,0.845442663663587,-0.5752168553054504,-1.8213647942915165,1.4243802884083236,2,left
7.2410000000000005,0.4837995279872098,0.99730806577538,0.2524352976685253,-0.18696064668590523,4.201377750581456,0.8487266668439672,-0.5732517710259135,-1.8173359018734465,1.422038085024946,2,left
7.245,0.49396235121992615,1.0035076092530937,0.2837873043816441,-0.1550489007268112,4.190681806848062,0.8429095699134149,-0.5733823200868968,-1.817297471379639,1.422236735621396,2,left
7.246,0.4921881625965908,1.0050983043894406,0.30254780304159645,-0.18439057670615538,4.20027072553852,0.8484122460318464,-0.5750485588440799,-1.8214140933710943,1.4241245648739376,2,left
7.25,0.4819544043245892,1.0024830914995886,0.2970598029635375,-0.16700550623254684,4.1955490676901155,0.8445496509797478,-0.5720922754701354,-1.8143081387831699,1.4207471135066254,2,left
7.251,0.47039697278189185,0.9951462623277278,0.26896631683128625,-0.1683876802523258,4.192965192582541,0.8467134138084087,-0.5753313667703969,-1.8220627761642056,1.4244522021554817,2,left
7.255,0.4568101661769176,0.983114875741987,0.22700145747627165,-0.1826079449308757,4.203603924603833,0.8456213160541912,-0.5733214742222814,-1.8172983494615766,1.4221464120820622,2,left
7.256,0.4414241104481978,0.9697282326643916,0.17621890509149624,-0.15723178479185132,4.18659929011196,0.846327486011227,-0.5722742110175739,-1.8145973326458096,1.4209756528707598,2,left
7.2620000000000005,0.4235434790599064,0.9593324417309168,0.11948163110130819,-0.18505785145471737,4.204937510581985,0.8457469075310989,-0.5779792373735295,-1.8287196745557743,1.4274367009112656,2,left
7.263,0.40431040627590176,0.9578969947595517,0.06009746248305651,-0.16775700184438178,4.194008403376923,0.8458105101104562,-0.5671968230226605,-1.8021142767653602,1.4152132139657732,2,left
7.263999999999999,0.3822058893796203,0.9678761786428509,0.004533183069222076,-0.1589031824234069,4.186238686336077,0.847210893002982,-0.581087289130386,-1.8363701684629101,1.4309629610867476,2,left
7.265,0.35943216518097876,0.9850825329079923,-0.04336228679714259,-0.20756905440011036,4.222945487890502,0.8432854010195114,-0.5694726056652617,-1.8077337304167034,1.4177923479824939,2,left
7.269,0.3351881052904282,1.0118705218348398,-0.08280635972846892,-0.11552981985675764,4.15438482797867,0.8501668267213207,-0.569857170160825,-1.8086540575753496,1.4182329237031557,2,left
7.27,0.306839313496466,1.0441066532590129,-0.1128575072024208,-0.23411101744028048,4.24252913333579,0.8414211938778251,-0.5917733941534633,-1.862781889135799,1.443070766187212,2,left
7.274,0.2842204309657238,1.0718105911381448,-0.13658668045372108,-0.1349562070181659,4.168898063990909,0.8486843788342953,-0.537823636540995,-1.7295707637559274,1.3819233098103418,2,left
7.275,0.24823183833581108,1.1008589412566696,-0.148833057713566,-0.1382514824933871,4.171059968503197,0.8486309836526397,-0.6272955876649109,-1.9504856526131955,1.4833341111074672,2,left
7.279,0.21692225162619677,1.1203612905366063,-0.15034641768603188,-0.3253027470846319,4.3109042320515805,0.8343157845259426,-0.5092815403261514,-1.6590955764472817,1.3495717486015588,2,left
7.279,0.21221288401461044,1.1240944612720176,-0.15201730245918943,0.1351569373327689,3.9669860047137857,0.8693284686940245,-0.014015321773546086,-0.43619975068597683,0.788225106962899,2,left
7.28,0.1716570286460817,1.1336677775617208,-0.14314483997607658,-0.6284786568886598,4.537268124574528,0.8113240372672984,0.10398851810191709,-0.14482426235604284,0.6544727655275426,2,left
7.285,0.1292967006193597,1.141802286030414,-0.1303527437943396,0.3787542905627499,3.7850662688263093,0.8878236784680358,0.01452817784210186,-0.3657252568742295,0.7558730825875613,2,left
7.2860000000000005,0.1232398901205248,1.1409972712508116,-0.1265247855864857,4.606069691548704,0.6279269980758388,1.2092704428064738,0.0684801272338969,-0.23250143872189527,0.6947202348962279,2,left
7.287000000000001,0.0838882005599223,1.1417706591108758,-0.11225989388004326,5.61323528277458,-0.12425367122064768,1.2857930628540721,0.04653141066968479,-0.2866954162049234,0.7195966552624254,2,left
7.287999999999999,0.030145840753800314,1.1367628332446358,-0.09500608111053921,4.849629367990513,0.44600750315262727,1.2277455111884144,0.04621952432437071,-0.28748263614107034,0.719955971839275,2,left
7.289,-0.00992565812007451,1.1257539470930311,-0.08559470127572257,5.310269768987222,0.10207355561113468,1.2628134122596548,0.05772778728049969,-0.2590296697008121,0.7069004699131185,2,left
7.296,-0.0558066108561981,1.113848500661033,-0.07240682532133691,5.122661347005659,0.24200829026444573,1.2484473526436926,0.043946060419595624,-0.293112077211225,0.722537336583639,2,left
7.297000000000001,-0.09499103271346658,1.099184998981103,-0.06319665149897502,5.120354143406848,0.24398517866459,1.2484143187033903,0.05467641798163771,-0.26656442130587144,0.7103593125399688,2,left
7.297999999999999,-0.12744407389498524,1.0871510179807358,-0.061471314349498235,5.218260965926408,0.1706116638830003,1.2557196213495887,0.04888985527510815,-0.2808751711749146,0.7169247651649906,2,left
7.2989999999999995,-0.15745432298523207,1.0783611566694755,-0.06549555740595445,5.100711773823745,0.25850914287811866,1.2468429734139574,0.05022013595418616,-0.2776350786174009,0.715430545236403,2,left
7.3020000000000005,-0.18558514511648994,1.0704700643075316,-0.08016238081812327,5.192697034181937,0.19003707502222628,1.2539463377218039,0.051730817431588014,-0.2737609958123912,0.7136747945528659,2,left
7.303,-0.2132768786023831,1.0689324964602536,-0.09874520167665063,5.142243280374466,0.2269970957016792,1.2497522109301873,0.049116656494496994,-0.28046383970673733,0.7167125941368506,2,left
7.308,-0.23634811420887508,1.0732783480824897,-0.11536161754264017,5.155305114712263,0.21848268431739654,1.2513622366416752,0.05155638598434932,-0.2741353710852651,0.7138555677637046,2,left
7.309,-0.25640598559073763,1.0795517413691995,-0.13174005089361135,5.166236057619333,0.20879641123044945,1.2514368739587436,0.04992772834377261,-0.2783994383808044,0.7157746633484796,2,left
7.313,-0.2731351131258382,1.0890028361491257,-0.1482324896964011,5.145292121584999,0.22565216982804195,1.2504473895537154,0.05065901070376891,-0.2765959037482657,0.71494646615175,2,left
7.314,-0.2833268115810418,1.1012526412798618,-0.16183232281452858,5.166579047660622,0.20976546536905794,1.2520702874227898,0.05057797589534005,-0.27634588115643255,0.7149026318378886,2,left
7.318,-0.2863321507295442,1.1130731257718767,-0.17106793630740433,5.1491046519787265,0.2205614223584298,1.249626262376729,0.05036129147763485,-0.2779095841354415,0.7154582754704686,2,left
7.319,-0.2856427552844031,1.1229429937697715,-0.18014118713969204,5.162693767823229,0.2155650816390856,1.2532094623987282,0.05059103514937493,-0.27580770128007653,0.7147353578676788,2,left
7.3229999999999995,-0.27960146047028644,1.1320568134244449,-0.1896823598706996,5.151698310505772,0.2160897151982385,1.2485689123300465,0.05047011112437424,-0.27774220536239913,0.7153654616282972,2,left
7.324,-0.2642022804424867,1.136783258398795,-0.19982397151320727,5.16002596669531,0.21806573983909616,1.2532582730221957,0.05054125638486503,-0.27662130655501477,0.7149999498804719,2,left
7.327000000000001,-0.2439405334592316,1.1346887645126964,-0.21295117833763738,5.157488882075231,0.2152241074051477,1.2507207486382446,0.050327878247286746,-0.27633334690637723,0.7149962170415576,2,left
7.327999999999999,-0.22020591334151063,1.1308463014828898,-0.22451436518589174,5.14822943294932,0.2180597644285452,1.2479988347332516,0.05090621281210461,-0.27847135947286544,0.7154154574179517,2,left
7.332000000000001,-0.19121389658434573,1.126020940572466,-0.230836243349669,5.175707207008269,0.21539982985561118,1.2589258962549317,0.049851278923202874,-0.27446299657335593,0.7146180650725851,2,left
7.332999999999999,-0.15793858818131146,1.1184878346775742,-0.23134201406405724,5.127829324743663,0.21802949112036046,1.23889311698372,0.05122872577976502,-0.27955340584352917,0.7156159823466772,2,left
7.3389999999999995,-0.12461221701978147,1.1104504351620106,-0.22952160570212013,5.18820021771673,0.21548237443988189,1.264534568404113,0.05006835533349406,-0.27532956168319395,0.7147948199026392,2,left
7.34,-0.09062564394765166,1.101235129852632,-0.23486991930280793,5.138261801366756,0.2172592834276943,1.2431592893103638,0.05007078937229685,-0.2755148796561372,0.7148494218693687,2,left
7.3420000000000005,-0.05101676026675858,1.0886048713119338,-0.2459128417829993,5.138906704055461,0.2177489407332365,1.243692511317248,0.052407064995181815,-0.28326505989618056,0.7162763541573336,2,left
7.343,-0.013121341165528433,1.0769537526508508,-0.2550056284579646,5.236014327595656,0.21292943403880293,1.2845742731098135,0.046686441004626,-0.264163258545299,0.7127451299189929,2,left
7.347,0.02877042455378296,1.0627705943268575,-0.2624737962765752,4.9983467694722785,0.22399937705560302,1.1841513153872674,0.056174462874002316,-0.29582791583683793,0.7185970167429713,2,left
7.348,0.06506614789345208,1.0470870766170068,-0.26676729743807215,5.3920444857882615,0.2059350185764945,1.3506434907113505,0.04365062763045235,-0.2540831432108761,0.710887083041879,2,left
7.349,0.06411646028466841,1.0463073839880839,-0.2665570060112928,4.8728695773323665,0.2296603192463204,1.1310335368023712,-0.009044219253756095,-0.07910493680517386,0.6786091080557768,2,left
7.352,0.06666593798623506,1.0463002511240949,-0.2669460217586295,2.6932523930259187,0.3296371348248066,0.20927971645471188,-0.02159330711310836,-0.037405900337717984,0.670913090195925,2,left
7.353,0.10491657500749516,1.0296459785394743,-0.2692499398640693,2.174016492316478,0.3533580688483588,-0.010376584153899387,-0.0120571524368366,-0.06898787363496876,0.6767424282126919,2,left
7.354,0.14251346853685332,1.0121000592213694,-0.2707237504644578,2.5677374426777737,0.3353543879333925,0.156182555918147,-0.017841098759639882,-0.04998484909392823,0.6732320172790385,2,left
7.357,0.17552702821317734,0.999107055439666,-0.26866043707051845,2.330246424148452,0.34622794025750997,0.055719090525987294,-0.015443483673212053,-0.0576567331565125,0.674654178006874,2,left
7.357,0.20469884238978497,0.9874551767435134,-0.2619797101501634,2.426822941219551,0.34180134522701716,0.09655734708328238,-0.01547150622187932,-0.05784855283433544,0.6746824941394305,2,left
7.361000000000001,0.22208838350790167,0.9789775296996127,-0.2515564562838055,2.4284020127169805,0.3417185609467027,0.09726623386241535,-0.016669487413204103,-0.0537450547988806,0.6739282851673414,2,left
7.3629999999999995,0.2367249792481816,0.971362115629182,-0.2383523657812071,2.3772911686828166,0.34409770334276873,0.07557338772010039,-0.015153064998178046,-0.058553658041218856,0.674822974867562,2,left
7.367999999999999,0.24097495574290492,0.9677307452981212,-0.2260510584939516,2.438620991936879,0.3412238520367512,0.10161314057714432,-0.01645648438006484,-0.0549676521926787,0.6741380086705262,2,left
7.367999999999999,0.23561871546455812,0.970044125442905,-0.21528712027358626,2.390716620385435,0.3434876133899224,0.08125608698788939,-0.015563103029111547,-0.05665463016099931,0.6744894630020972,2,left
7.372000000000001,0.23028895902875313,0.9717297794211416,-0.2049869113350063,2.4164786269264202,0.34227621345061154,0.09219234506167792,-0.016044001458261493,-0.05662730058844786,0.6744349843714318,2,left
7.372999999999999,0.2223572075123368,0.971717636339419,-0.19675020149857103,2.4112108876049785,0.3424551020227303,0.09004497795238584,-0.01593621590966079,-0.05573422300080978,0.674309666775177,2,left
7.376,0.2157324286058186,0.9705324655946667,-0.1899052127704714,2.402667678569711,0.3430504060271795,0.08617457458013345,-0.015651401621923404,-0.056670191872525214,0.6744827911287994,2,left
7.377000000000001,0.21368212232937267,0.9648347782073038,-0.18191825396007355,2.417440171747793,0.34202009263493494,0.09286372792554444,-0.016418667546837556,-0.056438646910653575,0.6743664770045519,2,left
7.381,0.21636059155111212,0.9566266866534405,-0.16792977663302744,2.402691047423422,0.3431310571799913,0.08608530666333211,-0.015093251546504802,-0.05554552590341262,0.6743698491938779,2,left
7.381,0.22555395306666604,0.945761902425045,-0.149192139039227,2.4130578890945706,0.34230856806997834,0.09090021784874794,-0.016883178284305106,-0.057500119264355096,0.674479586685356,2,left
7.386,0.2360906381813402,0.9329224560466718,-0.13265871319803696,2.4098682051169296,0.34245146009861316,0.08955507852576121,-0.015057633151889816,-0.05514244006907593,0.6743120815395762,2,left
7.3870000000000005,0.24397110286444135,0.9200659148584939,-0.11759954952529131,2.404286645311785,0.3433533549534461,0.0863963053645,-0.016070295661335228,-0.0566446581037458,0.6744346512508929,2,left
7.391,0.24769270584086692,0.9049812548131411,-0.09863715919573873,2.4188111048984218,0.3412110688596577,0.09436281444204395,-0.017031913547937136,-0.05764471829778604,0.6744859783628915,2,left
7.392,0.2443032881243233,0.8925708740261646,-0.07373636796689079,2.397554533347548,0.34438823089055404,0.0826524408460772,-0.01301066725550523,-0.052645628879644246,0.6741467115310205,2,left
7.396,0.2321316001553344,0.883476035169485,-0.039154761782564065,2.41966856061348,0.34102645587364,0.09490488175454238,-0.020413483528455144,-0.06209790161518136,0.6748092606766436,2,left
7.397,0.21003854139425587,0.8721813745184912,0.009447687872431025,2.406886481965394,0.3429685656618311,0.08782358619103318,-0.010932170855547573,-0.04988019431583213,0.6739437567961848,2,left
7.401,0.18372945239527244,0.8594338208254717,0.062460244091821646,2.3970733875949923,0.3445894013568078,0.08222894211765042,-0.018837240239833204,-0.060114654610272426,0.6746725494584461,2,left
7.401,0.15571726421898088,0.8506226806170236,0.11592666492430898,2.441577294108763,0.3374284185075437,0.10737184945977249,-0.018632328622914314,-0.059807576447234445,0.6746475896192643,2,left
7.406000000000001,0.12540927616734981,0.8460725710899737,0.16993442099360112,2.358970085522718,0.35071032485017395,0.06071289237088861,-0.0035421531806045167,-0.04034841199082038,0.6732675066303612,2,left
7.407,0.09993796405911679,0.842813750031894,0.21452355359607495,2.4649378065816308,0.3336621410223021,0.12058109642971693,-0.04061569926529611,-0.08823061996191171,0.6766688801788957,2,left
7.4110000000000005,0.07905263236967629,0.8494191016529442,0.2531181901468369,2.376521867562157,0.3478898799197806,0.07062204661373456,0.020846102147452195,-0.00881375992276958,0.671024991984569,2,left
7.412000000000001,0.06668639066347107,0.8616571022521791,0.274980024479097,2.379029192711401,0.347505773432481,0.07202200632882885,-0.060217796824428856,-0.11357718307622382,0.6784710393920802,2,left
7.416,0.06443943044955036,0.8661703671560951,0.2786994351315396,2.5471096501601806,0.32038448616966597,0.16706910684890536,-0.40048272824790176,-0.5533208638215222,0.7097290428665539,2,left
7.417000000000001,0.06417147963954224,0.8807178961472677,0.28854432011978537,2.1339173985836104,0.3870365294090281,-0.06657398011752634,-0.4815443995474066,-0.6580924392065843,0.7171750005239055,2,left
7.417000000000001,0.07196221595088277,0.9141590368059971,0.2900984980686905,2.818982508249155,0.2765336857433772,0.32080495775341367,-0.4200874208308,-0.5786583829133538,0.7115304311408519,2,left
7.42,0.0792541334365923,0.934494580721237,0.28316042268216024,1.9154294884721441,0.42227822738334153,-0.19012653732609516,-0.4571533384346832,-0.626566904607617,0.7149345983666104,2,left
7.421,0.08020430705074591,0.9414948829818104,0.2825223988173666,-1.8772422634341146,1.0342218889421257,-2.334778828789391,-0.44207278486755214,-0.6070758332300459,0.7135485099258022,2,left
7.421,0.0910250094061409,0.9647958076866631,0.2716924973121586,-2.7807580314969313,1.1799713656889312,-2.8456951005321316,-0.4418589394232256,-0.6067965459740265,0.7135326749131434,2,left
7.425,0.10612675857115593,0.9920647138191375,0.25637513679242885,-2.095716334863802,1.0694395048597676,-2.4583236462298492,-0.44976739611206934,-0.6170238725174934,0.7142514238110146,2,left
7.426,0.12190097936042776,1.0086172556452744,0.2414821147038765,-2.5089837433980957,1.1361733843836257,-2.6920048300623556,-0.4402944787584824,-0.6047724094649785,0.7133921254884235,2,left
7.43,0.14312048164939856,1.018838428772773,0.2236515449786243,-2.3406462520481917,1.1088969085223028,-2.596837468686763,-0.4476718202992611,-0.6143151182074073,0.7140590449226136,2,left
7.431,0.16314130418358697,1.0195587892811486,0.21691300073709457,-2.33860956962912,1.1087312023504292,-2.5956524239060252,-0.4436937156492362,-0.6091701970133667,0.7136982113177837,2,left
7.435,0.1832156418969268,1.0100283469661013,0.22173547226322377,-2.4264166681219965,1.1227382758998892,-2.6453384279163554,-0.4446029906042558,-0.6103392499302878,0.713791070007789,2,left
7.435,0.20564592119086716,0.992926030038317,0.23423347022030996,-2.320972834532098,1.1057943175602858,-2.5856982818823884,-0.4456566534239079,-0.6117210663057825,0.7138579493928056,2,left
7.44,0.22922659315313315,0.9733958284168488,0.25166171316573716,-2.40350697898913,1.1192457514646938,-2.6323402374180764,-0.4438330480871073,-0.6093297211333846,0.7137419199135779,2,left
7.441,0.2529050244692396,0.9503288480665687,0.26581759820480655,-2.358200717784011,1.1115010140345596,-2.6068139364057923,-0.4455433176996692,-0.6115823312497188,0.7138358544980464,2,left
7.445,0.2733424191890834,0.9259740825590156,0.27365793110434034,-2.369991940754021,1.1141519745048385,-2.613320898727477,-0.444397094339542,-0.6100673185755776,0.7137809248838216,2,left
7.446000000000001,0.29142481265508946,0.906876688955974,0.2736094556286715,-2.3797100248588405,1.1148018809140265,-2.6190134743798676,-0.44489929203622497,-0.6107160810827164,0.7138274954727004,2,left
7.4510000000000005,0.3064097317168074,0.8895117046190071,0.26696633017524185,-2.360990325018863,1.112513247193209,-2.6082706479647397,-0.4448943053783314,-0.610771866076294,0.7137336014161468,2,left
7.452000000000001,0.3157468654046061,0.87710075745196,0.25653059604422657,-2.380087929862891,1.1156009352451464,-2.6190685333501262,-0.44462951520608596,-0.6102874831328589,0.7139228339774615,2,left
7.454,0.32259260409019214,0.8714765910897648,0.24159178192894334,-2.364283759486441,1.1116939784493116,-2.6104234835704467,-0.4449603411240494,-0.6109270621361683,0.7136346062914515,2,left
7.455,0.32839746627551325,0.8699772398006496,0.22296858478285836,-2.376765215108306,1.1168090529562376,-2.6168143755530293,-0.44469283848832414,-0.6103554077588764,0.7139497250216211,2,left
7.46,0.3347624685564825,0.8742768057224692,0.20228343796642356,-2.3664689560867846,1.1105213064319985,-2.611987399535941,-0.44484826575967706,-0.6106867058073684,0.7137676634359487,2,left
7.46,0.3456253167916396,0.8806686439375557,0.1811685038451168,-2.3743990470015315,1.1167327261959685,-2.6154104551917112,-0.444793582088545,-0.6107288141984233,0.7135935941421596,2,left
7.4639999999999995,0.3597703741332098,0.8878467285054861,0.16354268999527588,-2.371859661385389,1.1134732790890933,-2.6145879908619856,-0.44478878836565594,-0.6102297983367706,0.7143334095506533,2,left
7.465,0.3755985740790416,0.8961248796061434,0.1462237578666047,-2.363319877277891,1.109639134159789,-2.6102867943109507,-0.4448097014073655,-0.6111704325871652,0.7129623360325866,2,left
7.468999999999999,0.3922278598292759,0.9029804754150486,0.12491025111672252,-2.3889774624720475,1.1245292174238999,-2.6224833194873614,-0.44479864604507596,-0.6099833733055487,0.7147245012872276,2,left
7.468999999999999,0.40869248065962305,0.9105557202570098,0.10683941059818099,-2.344163663173749,1.0973619262504581,-2.601431107790609,-0.4448005360714067,-0.6109643851867752,0.7132523951713543,2,left
7.474,0.421884275446563,0.9196554690253942,0.09506640890060147,-2.4007086910655944,1.132085179015907,-2.627897939672132,-0.44478110696852735,-0.6109140191178812,0.713291149454261,2,left
7.475,0.42922934006827285,0.9260023206992072,0.08443811412421515,-2.3539242834056022,1.1031643497061037,-2.606042041799401,-0.44486105220625416,-0.60914839953022,0.7161041461067849,2,left
7.479,0.4285271597986264,0.9321549284183956,0.0773712691811298,-2.3545394466537513,1.1038426617164976,-2.6062627574530914,-0.44467864783510425,-0.6135039049894981,0.7091901062717845,2,left
7.48,0.4175582158733804,0.9422625063376286,0.07867140927566835,-2.4454793377198634,1.1592668572673075,-2.6489227947645437,-0.4449831967240143,-0.6062866125669597,0.7206549880014328,2,left
7.484,0.40932802992243,0.9487983512898033,0.08238800516224562,-2.2229030104649574,1.0231918215610887,-2.5446084991497786,-0.44457611669544284,-0.615798016835474,0.7055316989792517,2,left
7.485,0.40292492383319534,0.9499864997517985,0.0853973202151648,-2.5915872406830243,1.2487538951112471,-2.717359196101738,-0.44282599002519035,-0.6557046131301065,0.6420684418414684,2,left
7.486000000000001,0.3919421789206925,0.9512434768642442,0.08969039401289508,-2.105426999687426,0.9512585362008101,-2.4895831206813535,-0.4424115053594404,-0.665207767883543,0.6269452228595008,2,left
7.489,0.3860624212204784,0.9526887378572647,0.0919859466654783,-0.0642681550253269,-0.29755785505480165,-1.5332084705862001,-0.4427269062920425,-0.6579985128994792,0.6384076987763854,2,left
7.49,0.3738282036427022,0.9552020127281259,0.09769085239816891,0.4218577261759442,-0.59505322663149,-1.3054733559267908,-0.4425374870332634,-0.6623605583217371,0.6315018831639547,2,left
7.49,0.3551326663341434,0.9566256119638987,0.11127080437493844,0.0532944965256098,-0.369500842197371,-1.4781175258693908,-0.4426116013201854,-0.6605588476909401,0.6342981167228657,2,left
7.495,0.34048316882619745,0.95357848058465,0.12906849775316698,0.2755880504938983,-0.5055415050236364,-1.3740067249624852,-0.4426185763392628,-0.660581804343384,0.6343615722641367,2,left
