time,gFx,gFy,gFz,ax,ay,az,wx,wy,wz,subject_number,foot
2.656,0.422439243777072,0.17602078580740116,0.39587529839401353,1.5060177908272083,-6.0002173878803085,0.04213195745553048,0.5450815413147947,0.278825036820583,-1.0316859840262254,2,left
2.659,0.4295274404726175,0.17500949901891955,0.3835399690185207,1.5048604979841473,-6.022628917122567,0.0417229718755584,0.5423458082486546,0.2775234485397988,-1.0285494870336467,2,left
2.66,0.4362271596667797,0.17354784923180758,0.3702597990288363,1.5075611611100435,-5.983817602045903,0.04276867419442293,0.545039775503435,0.27819018506324295,-1.0317027019872627,2,left
2.6639999999999997,0.44346900701186337,0.17052637723023367,0.35523286418798306,1.5047883232456947,-6.020233581289865,0.041671767498331416,0.541606371749557,0.2779651935136531,-1.0276181372062156,2,left
2.665,0.4497076197459951,0.16922859715937733,0.3436593629028201,1.5075649016856372,-5.995792511902112,0.04285027524104659,0.5460760027616026,0.2779895650146992,-1.032963972257864,2,left
2.6689999999999996,0.45543472228604925,0.1690607798542348,0.33209998939140395,1.5038483878291926,-6.006570163788983,0.04112720124846353,0.5414330690698917,0.2780218284719591,-1.0274044950608405,2,left
2.6689999999999996,0.4635811108508959,0.16929743904880518,0.31796863665515507,1.5095826497412301,-6.006330298841199,0.04389421336913421,0.5439233938560738,0.2779112481261081,-1.0303967021758076,2,left
2.675,0.4692019920318167,0.17033654159932732,0.3063061558195024,1.5016890180728248,-6.000846548553211,0.04004703436142125,0.5470219073991216,0.2782703800345703,-1.0340658105930873,2,left
2.675,0.4717480174026183,0.17276592208405428,0.2915568861337019,1.5099807640472571,-6.007780317790884,0.04409561675389464,0.5350201387725375,0.2774432482473941,-1.0197920944513599,2,left
2.678,0.47510985174299203,0.17499621779116684,0.27344485452759737,1.5053839179281623,-6.002055713318506,0.04183925300001973,0.5569953043560734,0.2788420371591672,-1.0459405461393665,2,left
2.679,0.47733602045476337,0.18085989483108017,0.25954996558212673,1.5004595050872203,-6.0056319136513405,0.03948457877776673,0.5288426383036988,0.2770772417135841,-1.0124373732806737,2,left
2.6830000000000003,0.4823503715844231,0.18816297185864783,0.24666054598826145,1.520436996126515,-6.003912285294606,0.04911851086416062,0.5523181390106021,0.2785365445641895,-1.0403775033052964,2,left
2.6839999999999997,0.4850157418970667,0.19301243350005792,0.23326793024535727,1.4836722916690985,-6.004586557373561,0.031374152371161784,0.5517857448254723,0.27854802558730885,-1.0397351374710282,2,left
2.69,0.48182184452400717,0.20191672991708998,0.2206512008548907,1.5308168218565625,-6.004285473557113,0.0541305187935467,0.5066893484869266,0.2756020227941827,-0.986086867379156,2,left
2.6910000000000003,0.4839807710072166,0.20937141678156973,0.20417590943770958,1.4914830376258505,-6.004307531549182,0.035144992343344325,0.6174050272384117,0.2827792038554309,-1.1178121247857966,2,left
2.693,0.48023214456140173,0.22432923695706314,0.17828119458223513,1.4924509445586924,-6.005185186174129,0.03561308994069959,0.4338710207547417,0.2708999255060025,-0.8994423147631317,2,left
2.694,0.4726702216685559,0.24052843914431593,0.15933900830018216,1.56777203266258,-6.002263644043268,0.07196138718862347,0.6759411339158639,0.2865608256351808,-1.1874656839143727,2,left
2.698,0.4723612768600042,0.24221560133205608,0.15643242014978662,1.3827538095054752,-6.008407900354804,-0.01732096360982089,1.6922591395338547,0.3524408485488707,-2.3966312309410354,2,left
2.699,0.4558317060182532,0.2635741951352293,0.1474889871812955,1.6894964473574436,-5.998489802361075,0.13069418886507286,1.9343283744328643,0.36809636938550205,-2.684664511643817,2,left
2.699,0.4386353026732295,0.2873790626381732,0.13827252979562846,1.2849021797485767,-6.011546872473721,-0.06452895652632686,1.7507953173718152,0.3562229158656619,-2.466283974834015,2,left
2.702,0.4351261942186657,0.2915012164735726,0.1373345209224211,-0.4134948294672821,-6.067622353577889,-0.8840744110198231,1.861511360354418,0.3634022935153609,-2.598005164812042,2,left
2.7030000000000003,0.41450215820416136,0.31621344284575187,0.13522865364710304,-0.8181140320274145,-6.080776683469039,-1.079284779048829,1.816411806203095,0.3604370200600665,-2.5443924431509393,2,left
2.7039999999999997,0.38672743678271126,0.34947068451311614,0.14185973661381002,-0.5113385172916305,-6.070760491762963,-0.9312921895520127,1.8158862025470652,0.36048998767733004,-2.543673575116169,2,left
2.707,0.36375133256334363,0.37719736846223784,0.15899076929333245,-0.6963673738905919,-6.076839453976529,-1.0205488454761138,1.8393519701384935,0.36188978849049896,-2.5717234059930787,2,left
2.708,0.33772084991326745,0.41039256869160445,0.18247926393698277,-0.6210926993726251,-6.074319066370962,-0.9842185035661726,1.811208992334048,0.36018426798905795,-2.5381109787162406,2,left
2.7119999999999997,0.31309475978279183,0.43929654148740316,0.214270165001744,-0.6199961507571063,-6.074368394063162,-0.9837544035163319,1.833179984867199,0.3615574375322006,-2.5643066000043753,2,left
2.713,0.2871806568187587,0.46693611325979245,0.25304706081904893,-0.6595374210076271,-6.0755502364566185,-1.0027000665241514,1.8211698801248395,0.3606795054935563,-2.5501266366086375,2,left
2.718,0.2620778511650544,0.491024977994665,0.29644487268213787,-0.6121574974252462,-6.074129061482962,-0.9800260318657683,1.824295217845921,0.36120245070234236,-2.5534936293648043,2,left
2.719,0.23665617298423838,0.5111639475282064,0.3417264326555042,-0.6490772173288715,-6.0752219837911845,-0.9976556876242327,1.8267393397856146,0.36080951579445264,-2.5570064579826823,2,left
2.722,0.20629335878179317,0.5345166829299783,0.38650832748268804,-0.6291786996334101,-6.074613163129751,-0.9881335101194203,1.822153091216249,0.3611884024962083,-2.5508079801806494,2,left
2.7239999999999998,0.17455502088265978,0.5533945592928394,0.42304234243608896,-0.633636849282619,-6.074867416094726,-0.9904420575752393,1.8265775560531066,0.3609362747721747,-2.556663358140268,2,left
2.727,0.1395697895837608,0.5691700723629503,0.45168934313155434,-0.6391573455173537,-6.074721201789716,-0.9925997452312916,1.8231436900563802,0.360709174690643,-2.552583102201459,2,left
2.728,0.10082244036525556,0.5866475615656581,0.4714224392197649,-0.6296043713944324,-6.074963326050044,-0.9888614080765136,1.8259216108827507,0.36188820507169406,-2.5547912725244917,2,left
2.733,0.06059652981642263,0.6035076555678365,0.47475519496934826,-0.6386941942864248,-6.074583832609778,-0.9921787676476848,1.8229941242669543,0.3594152102533754,-2.553814937301393,2,left
2.733,0.021442107842332452,0.6193798572737075,0.46686231182099486,-0.6325317460389741,-6.074920284128066,-0.9900571522027227,1.8265419800913985,0.36305156097045643,-2.5542965812440785,2,left
2.737,-0.011814384767280353,0.632104593569453,0.44770335770560893,-0.6350350032997438,-6.075008248755786,-0.9912722892008207,1.8229125725107105,0.35918475159850605,-2.5539647495460667,2,left
2.737,-0.04079890515903559,0.6438045935492747,0.41675288790025566,-0.6358274463854764,-6.074033432087967,-0.9900748887022182,1.824768633487648,0.36140392389876985,-2.5538697676262387,2,left
2.742,-0.07127233555373122,0.6568241922633298,0.38304041556719925,-0.6326371336954735,-6.076214206122906,-0.9921462381362111,1.8275622122606212,0.3633924633186878,-2.5552079483199046,2,left
2.7430000000000003,-0.10011536319980394,0.6689018154173642,0.3508801423979284,-0.6370766195357537,-6.072950973669413,-0.9889013815648868,1.8172900575554556,0.3548125695183102,-2.551675930192264,2,left
2.747,-0.12100007785411135,0.68119377161052,0.3222953668162455,-0.6327685560233491,-6.076443716950097,-0.9925658563238562,1.8359871475177874,0.3707027388596055,-2.5578065120645235,2,left
2.748,-0.13289793313295362,0.6923335402082693,0.30244510786086837,-0.6352630109805624,-6.074424891279561,-0.9904500798781124,1.812058380009044,0.35030258671840275,-2.550028720273127,2,left
2.752,-0.13539559755121508,0.701070933146549,0.29585826748502536,-0.6364686264223458,-6.072656761711497,-0.9881735160289462,1.8320031743750362,0.3673338445552452,-2.556483850763799,2,left
2.753,-0.13070036557036996,0.7098199566402845,0.29666185654923305,-0.6299675885901594,-6.080361297882638,-0.9975524252518423,1.8315864103581845,0.36687553020817254,-2.556455417195334,2,left
2.7569999999999997,-0.12303642797774668,0.7173910734325153,0.29812364579897516,-0.642086433996115,-6.066072355717733,-0.98018661025977,1.793152116799662,0.334386949935947,-2.543666938526135,2,left
2.758,-0.11217226447781498,0.7219800673444525,0.2963290639786601,-0.6266014606978796,-6.0844256567570385,-1.0025247628191307,1.8874737511680602,0.4142412430629342,-2.57492704753148,2,left
2.761,-0.0972031090189624,0.7230941010041332,0.2881870989861045,-0.6394964661733507,-6.069097441497096,-0.9838556945151261,1.7311217426187955,0.281833461333571,-2.52314083322685,2,left
2.762,-0.08489718724118532,0.7214520428411904,0.28306200254591285,-0.639041138681942,-6.069520637070903,-0.9843200587771734,1.9373460791214643,0.45648666711997493,-2.591443026794634,2,left
2.766,-0.08035993509715497,0.7200194416363347,0.2816175464500388,-0.6148934474962288,-6.098733965367716,-1.0201054006111412,2.803149203130454,1.1895086835068178,-2.8783513182432507,2,left
2.767,-0.06870691998818965,0.7198471656855312,0.27530730601356357,-0.6743343670146932,-6.026911289000941,-0.9321722839135179,3.0093886951576057,1.364176825067323,-2.946671677646656,2,left
2.767,-0.0403503776772261,0.7164021109616557,0.2687753598831176,-0.5757767427888596,-6.1460118159438135,-1.0779819115302023,2.8530202891790095,1.231752884110435,-2.8948658108915097,2,left
2.772,-0.02205329147952769,0.7111836866131234,0.2651619766681197,-0.7057562583013348,-5.98890668755981,-0.8856412101054741,2.947335687654972,1.3116010301901504,-2.9261184384145893,2,left
2.772,-0.016993862151488043,0.7088078195942005,0.26264252830917284,-1.2508549810930867,-5.329792775408919,-0.07836342316373265,2.9089557843586054,1.2791660547817723,-2.913395167798536,2,left
2.773,0.004370922303052826,0.7040675918247621,0.25854002269359033,-1.3807871886311478,-5.172698939688569,0.11398884205874332,2.9084219921855547,1.2785924043384083,-2.9132264396994527,2,left
2.7760000000000002,0.0326102359110749,0.6978032219140713,0.2499865642729065,-1.2823307107412838,-5.29174457689046,-0.03181848793560033,2.928534581693853,1.2957890295044245,-2.919882717011223,2,left
2.7769999999999997,0.059592301044754076,0.69237126353238,0.2416489045735126,-1.3416141298648947,-5.220068398375522,0.056057416777874236,2.9044387246008316,1.275224207551184,-2.9119046337941024,2,left
2.781,0.09212092552610279,0.6841472383650189,0.2333989117677662,-1.3176614910124766,-5.249010655147785,0.020421714317771095,2.9232079118138046,1.2911854260127642,-2.9181216213091252,2,left
2.782,0.12118561443174328,0.6764627417097634,0.22294178880239524,-1.3170302167056678,-5.249808928220533,0.01970762427933241,2.9130792361537248,1.2827469426892293,-2.914761633566261,2,left
2.785,0.15261344916536285,0.6722040726053375,0.21491398335402934,-1.3299823566687148,-5.234109588589928,0.03867691199232591,2.9154106248585077,1.284279971493873,-2.9155457222132006,2,left
2.786,0.18593879382214276,0.6693372385156964,0.20769182834255756,-1.3146842389819442,-5.252624277854045,0.016112044409265027,2.918063061005423,1.2872840008988433,-2.9164054267835877,2,left
2.7910000000000004,0.21409979222795644,0.6682351543844796,0.19906202960475924,-1.3262698167995617,-5.23865227036105,0.033441539090922165,2.91345629901343,1.2824539823093808,-2.914901995078775,2,left
2.792,0.24227080207882787,0.6695420899060984,0.18809705734464288,-1.3206513381408802,-5.245327471275402,0.024566402268862256,2.9177833524078074,1.2868582389864036,-2.9163176356908362,2,left
2.7960000000000003,0.2691218669326376,0.6693874778401577,0.17398766965283663,-1.3208083171106784,-5.245342684822875,0.025751952965298655,2.9148628018969687,1.284392112705818,-2.9153497607649594,2,left
2.7969999999999997,0.29399319943168345,0.6688116644263635,0.15927959801700725,-1.3240910062295779,-5.24112108235061,0.02944565393537813,2.916194755685945,1.2841460545305332,-2.9158243660108543,2,left
2.801,0.3140418628707201,0.6713072441655162,0.14025569713127026,-1.319897274129447,-5.2463931830998,0.02416541604479045,2.9160654195880342,1.2871757099637948,-2.9157056345093117,2,left
2.802,0.3263197167665018,0.6761475412383853,0.12022554236243414,-1.3226296874956853,-5.2430919580053725,0.02821906369323724,2.9155600507573425,1.282065068647882,-2.9156512605045983,2,left
2.805,0.33394197233116824,0.6846882052651797,0.10674099615338371,-1.323144127278886,-5.242093680713584,0.02725889651639644,2.9162291377360825,1.2876232021070617,-2.9157524756617015,2,left
2.806,0.3332928487969652,0.6924541171213966,0.095524264430811,-1.31857032527058,-5.2484827239599054,0.024421892135074348,2.915636736067799,1.2842378105239936,-2.9156258017211716,2,left
2.81,0.3255385821715939,0.6993566001076903,0.0851641132420948,-1.3265906352552792,-5.237504936983405,0.030426156394970257,2.916144446611276,1.2821807908567173,-2.915853957701094,2,left
2.8110000000000004,0.31778401410697643,0.711606517998409,0.07821851957826781,-1.3176021758724437,-5.2497366313300216,0.023377001774402384,2.915590186088568,1.2925931961775095,-2.9154079052150683,2,left
2.815,0.30574871291794703,0.7245915784643182,0.07300704651492784,-1.3230909463199376,-5.242314499428094,0.02788494603572607,2.9163162639254643,1.2730286597491332,-2.916135150989888,2,left
2.8160000000000003,0.28734794969345734,0.7384707247874411,0.0656742623220672,-1.3269041906306964,-5.23701919216944,0.030418646326101476,2.915452718249418,1.2982078425589814,-2.915224073217865,2,left
2.82,0.27031651861212347,0.7537861920347937,0.05393203089321834,-1.308520387921332,-5.262228100948477,0.016835063562798618,2.9161444005068136,1.2771634462384027,-2.9159750812164438,2,left
2.821,0.2500878312836358,0.7677997711063054,0.040966405638377286,-1.3430158251297706,-5.21499772593981,0.0426156302066157,2.916234811585701,1.2778227469344647,-2.9159906979109342,2,left
2.826,0.22443613688617675,0.7831390969163288,0.028842570517515265,-1.298573971496554,-5.275816383289372,0.009299270635503626,2.9145619594819654,1.3176568439573524,-2.914441922657544,2,left
2.827,0.20193252100241282,0.7982066913196659,0.018941414898146266,-1.3357437196013868,-5.224969838024668,0.037203916239175336,2.918541029963471,1.2196428664865242,-2.91820513263135,2,left
2.83,0.17508044408515383,0.8180932953683496,0.018058418929941155,-1.3346282220147783,-5.2264563645925595,0.036308557657023975,2.9119828257061737,1.3821832240257903,-2.9119782128740135,2,left
2.83,0.15751763733849616,0.832334461396828,0.022688652503463018,-1.2640399361890124,-5.323116408801511,-0.016527854695859174,2.9206220842893518,1.1677891167336907,-2.920188259730475,2,left
2.835,0.15497358694676494,0.8342376171849016,0.022817432385705168,-1.4377048431451538,-5.0853798697714865,0.11354120927898154,2.9570799804665775,0.2680090930359993,-2.9547121262518896,2,left
2.8360000000000003,0.13178734485279672,0.8503687006764715,0.024576385756328097,-1.1496848777536692,-5.479615510010342,-0.10219748579503124,2.9657101837898376,0.0536200609959486,-2.962920246118326,2,left
2.8369999999999997,0.10963702581408566,0.8658330186232858,0.029288489784941495,-1.5296251020989478,-4.959602333671253,0.18239097440573163,2.959172580616076,0.21615794138546957,-2.956698475510911,2,left
2.839,0.10672846020212406,0.8675745191558257,0.029472867309035273,-3.124061555336949,-2.77689608242466,1.3768070789341742,2.9631171097050375,0.11813120004288377,-2.9604516247138264,2,left
2.84,0.088550492375863,0.8845155529479292,0.03579232403444406,-3.5040470627581652,-2.256885063725125,1.6614053803042275,2.9614906514220802,0.1580055198927086,-2.9589183096366733,2,left
2.841,0.06743538975484786,0.9068957045184709,0.05068147772457808,-3.2159673067824333,-2.6511314400989074,1.4456400365519508,2.961533945803099,0.15859297927997745,-2.958915610502382,2,left
2.844,0.05773813898508565,0.922794882655102,0.06068785232041454,-3.3896518242214304,-2.4133477169461095,1.5757617275408644,2.962250985854747,0.13763981689497468,-2.9596809111942153,2,left
2.845,0.04941572025991856,0.9403826820517696,0.06975207740750033,-3.3191472096933206,-2.5101109489066813,1.522843789637792,2.961414901215596,0.16274285478028847,-2.9587705514586613,2,left
2.85,0.04703761714918951,0.9544876323643169,0.08387243731989052,-3.317799010338424,-2.511439216504712,1.52204578459525,2.962031240180427,0.1431838652327767,-2.959469723185121,2,left
2.8510000000000004,0.049343496112783033,0.9652942547612547,0.10428821502152277,-3.3553445756322415,-2.460768533570511,1.549873339796732,2.9616789709585634,0.1537245847697079,-2.9590870325349456,2,left
2.8539999999999996,0.05375480784186425,0.9733254205738594,0.13285797620589773,-3.3104758122482276,-2.5214758334977847,1.5165556844492958,2.9619240520426597,0.1513624808663437,-2.959221141254814,2,left
2.855,0.06477091152704723,0.9794817270876657,0.15706644777697598,-3.345253267061807,-2.4741750985930846,1.5424817676488385,2.9615639148431896,0.14844131716418454,-2.9591940438116042,2,left
2.859,0.0834635320676814,0.9875406675869897,0.17382614203182423,-3.3270106704022195,-2.49975247249735,1.5285652814955113,2.962181799962197,0.15349496225734854,-2.959239378382936,2,left
2.86,0.10607582616249184,0.9944850580296803,0.18754670187800215,-3.3299813012990107,-2.4937396282877837,1.5315967206255132,2.9613680180375366,0.1486890977475534,-2.95913050292771,2,left
2.864,0.1287603434945079,1.0007340455786164,0.1894052118390641,-3.337142063896085,-2.487287358488003,1.5355732734205205,2.9620396915736014,0.1519456935520183,-2.959239253361551,2,left
2.865,0.1491902099733347,1.0100216383291896,0.17916263417529787,-3.325867853711115,-2.4986118132134303,1.5288297871930516,2.9621004414091456,0.15061975877364375,-2.9592921216318544,2,left
2.8689999999999998,0.16850419935100247,1.023025174562401,0.16193371485125369,-3.3360598001217925,-2.487934443499939,1.5351080506549526,2.960626522902663,0.15021463429920873,-2.9588743881357313,2,left
2.87,0.1865173637902589,1.0375495770837864,0.1394236224912389,-3.3307010615771366,-2.495299800800068,1.5310815488433556,2.963965321671176,0.1518705740044778,-2.959801118142636,2,left
2.8739999999999997,0.20211108055178492,1.0535361299241472,0.11022599021098942,-3.3290309007469783,-2.4915100907740775,1.5323477280707887,2.958977455187388,0.14957011422524896,-2.95841198372412,2,left
2.875,0.21910448589271192,1.0723153937375793,0.0704983829053485,-3.3382140737177917,-2.492822959328853,1.533474486153714,2.964304007299375,0.15179715198103644,-2.9599016438991415,2,left
2.8789999999999996,0.23527517914318513,1.0879233140105646,0.02577376336114543,-3.323229598714036,-2.492624615747805,1.5308308387498808,2.9612258304936367,0.15050813748769376,-2.959040665318172,2,left
2.88,0.24650195648348341,1.098513916565372,-0.02108546102818403,-3.3394421333387236,-2.4925075807422608,1.5338281530197102,2.9585541110361353,0.1498957925398116,-2.9582804413220867,2,left
2.883,0.2565028495786229,1.1088838713350966,-0.07051320748262269,-3.3296973181183356,-2.4930941166234866,1.5318133295740521,2.9702247304600062,0.15322101103193567,-2.961585080009426,2,left
2.885,0.26787683743530105,1.1139020119593577,-0.11475516433751468,-3.3231672741438354,-2.4910318013942616,1.5314787179096123,2.9485810392369416,0.1470226715425923,-2.9554568457590125,2,left
2.89,0.2795990125965699,1.1113078821780031,-0.15301575585266025,-3.3548058415133903,-2.495852116768691,1.5352379984720477,2.9763760590441417,0.1549397770716912,-2.963328400792048,2,left
2.891,0.29141958688441216,1.1082737361753083,-0.1868496520841855,-3.295580823917608,-2.4876739748200816,1.5278525432190273,2.9531678576684417,0.1483496979906313,-2.9567545527077628,2,left
2.895,0.2998209458892892,1.102103795638938,-0.21081977811931468,-3.371750561078854,-2.4980013637844767,1.5374282147102365,2.953800555801328,0.1485790855423218,-2.9569341999338246,2,left
2.8960000000000004,0.30183790640999153,1.0934044237005311,-0.2329643374793936,-3.3081131544108042,-2.489453967838943,1.5293971726712448,2.9980466656633182,0.1609246385760182,-2.9694686597296376,2,left
2.898,0.29591408484171255,1.0868129845717336,-0.24648633512632118,-3.310021221275941,-2.489408333267275,1.5297570260296527,2.889283895162121,0.13054396320768394,-2.9386548081245523,2,left
2.9,0.28516609396272186,1.0753051538124048,-0.2379698640489424,-3.4307495390196854,-2.5066037029397013,1.5446014038896587,3.0696263051356465,0.18091061341662074,-2.9897505651329936,2,left
2.903,0.2818046744910658,1.0647259309177866,-0.23173121799382007,-3.1338015368377192,-2.4646769241213082,1.5079495530870748,2.831748575390863,0.11449172807799425,-2.9223513783278916,2,left
2.903,0.2790467358000376,1.0623021683352867,-0.22407509995213282,-3.62620230995703,-2.5340933530109107,1.5687607910588854,1.833451139922657,-0.1641972864833584,-2.6395485526470353,2,left
2.904,0.2709242906438816,1.0600638528154869,-0.208289789702646,-2.9767347293021578,-2.4425597976630233,1.4885507063875738,1.595579863393302,-0.23059678817439647,-2.572152619518703,2,left
2.908,0.267140075977058,1.0577525649488635,-0.20008060938826275,-0.25075224388502926,-2.0577400104789927,1.1520421261498943,1.7758905884207836,-0.18025792298722348,-2.623231333550227,2,left
2.909,0.2585215729054511,1.0570167941394089,-0.17238708389234414,0.3986734896252855,-1.966207071283608,1.0718550662606732,1.6672126611061495,-0.21062244219080256,-2.592464040882251,2,left
2.909,0.24225877812208038,1.0576428354891538,-0.12825133179656717,-0.09368201090737463,-2.0356228343400176,1.1326413941554563,1.7113015438088337,-0.19825707468544568,-2.6049114317418387,2,left
2.9130000000000003,0.2248465347253149,1.0612518280507934,-0.09244931016986868,0.20328322274271246,-1.9936957991328106,1.095980064444448,1.7121520267522659,-0.19810355788039155,-2.605212450568028,2,left
2.9130000000000003,0.2021871675082131,1.0703313674225963,-0.05531324980069428,0.08240469676140325,-2.0108933859680582,1.11090708439649,1.6887280470625619,-0.20455824218565988,-2.5985173950144875,2,left
2.9189999999999996,0.1778599815046965,1.0842429518609717,-0.021698228693886882,0.0808198056894919,-2.0108429848127303,1.1110891289548315,1.7166174236876648,-0.19680920448854947,-2.6064436770208443,2,left
2.92,0.1542187459928743,1.0959401906923967,0.0050238638551795564,0.14399385681276183,-2.0023024200411546,1.1033130237751743,1.6951568074250543,-0.20287328998549553,-2.6004143331903844,2,left
2.923,0.12707640979290358,1.1067572644418795,0.030920498442728848,0.06828550887466592,-2.012623010503353,1.112634837456773,1.7062307413009814,-0.1995460134313115,-2.603389699293318,2,left
2.924,0.09753539692042218,1.1182431910026676,0.051496667751997655,0.12731147565379491,-2.004447794701508,1.1053589058186515,1.704593977466582,-0.2004097083946036,-2.6032045265840256,2,left
2.928,0.06467476414467674,1.127197530056723,0.0655773499087988,0.09527663860311857,-2.0092739648049642,1.109336203171992,1.700236176318727,-0.2011267411477594,-2.6016284134443053,2,left
2.929,0.028476066661712637,1.1351467187258935,0.07490376934309248,0.10308305663442649,-2.007192818752853,1.1082993445331402,1.7065982371607076,-0.19974910951355127,-2.6037029048079408,2,left
2.9339999999999997,-0.007204350276141011,1.1416308042087229,0.07852522527007764,0.11062869452848319,-2.0078117845221923,1.1074944960432682,1.70158405121387,-0.20115223128249482,-2.602285031786214,2,left
2.935,-0.04443336620916958,1.1469432735566338,0.08046385718820401,0.09711502890447624,-2.0076549673556507,1.1090068953085426,1.7030824328743819,-0.19999488242864427,-2.6022041525163724,2,left
2.937,-0.08304500920690569,1.151660782459742,0.08398657837117454,0.10994794448609178,-2.0074883139400037,1.107547052443469,1.705879542217272,-0.200903465813675,-2.6041510694963392,2,left
2.938,-0.12358048431250783,1.1530372758969798,0.08890442147489176,0.100745346122747,-2.0088015250409272,1.1086844553971382,1.6995158819060485,-0.20015924658808618,-2.6006262698419658,2,left
2.9410000000000003,-0.1667364331364935,1.150570023401679,0.10073326377983002,0.1064088094974727,-2.00495286835878,1.1077535878993414,1.7071012109660417,-0.20072925185646823,-2.6046104725849886,2,left
2.9419999999999997,-0.20741707474897259,1.144215776200681,0.1176634372748505,0.10264198061971902,-2.0124528295478656,1.1087478951430483,1.7021811302562517,-0.2005492665599213,-2.6021568242292954,2,left
2.947,-0.2501868640106052,1.1325071740128285,0.13464508584672985,0.10606353091785256,-2.001574739406598,1.107536067153974,1.6996103833443623,-0.19992967933644715,-2.600512987240927,2,left
2.948,-0.29544889957859827,1.1152581378508968,0.15777512228836388,0.1028258813999721,-2.013113061706962,1.108777023409528,1.7139427221602932,-0.20178506820093853,-2.608576022035245,2,left
2.9530000000000003,-0.3370011232140076,1.095292100019519,0.19156025312267136,0.10404919200408957,-2.00653739840521,1.1081405220794416,1.686635618837673,-0.1985456752824784,-2.5934186410666604,2,left
2.9539999999999997,-0.37708786878543354,1.0760329242798692,0.23186105146995134,0.10830872832261107,-2.0004176253194585,1.1071942011096165,1.721960932468888,-0.20263384420397462,-2.6129538669772443,2,left
2.957,-0.415906047145007,1.0564828315687307,0.27665824438302056,0.0949146977242771,-2.026461784059909,1.1106838104151158,1.6923599782431529,-0.19924898270357147,-2.5966163451353546,2,left
2.958,-0.4478594088658485,1.0382504370131713,0.3254555414297514,0.11880522716920783,-1.978295901694555,1.1043311057015015,1.6933291246822826,-0.19929940973190874,-2.5971003051982766,2,left
2.9610000000000003,-0.4716145944360455,1.025550647551337,0.3702625323446783,0.08834378713204569,-2.040113554585843,1.1124600805152178,1.7493246236647302,-0.20586495306123712,-2.628139823438132,2,left
2.9619999999999997,-0.4918168730224329,1.0146659254148533,0.4068982946066881,0.11368432922864122,-1.988516747230002,1.1056871246438775,1.611453402868614,-0.18978343447020754,-2.55179195434523,2,left
2.966,-0.49524254518803956,1.0071317904474684,0.42964159527409596,0.11333779114647251,-1.9898679821554588,1.1058230995893825,1.8401388437870079,-0.21643132784463603,-2.6783963865099607,2,left
2.967,-0.4885569498963177,1.006001045345652,0.43799597842051724,0.0639140578098727,-2.0884024029591544,1.1188870167359175,1.5384746999378454,-0.1812822271926295,-2.511406499274633,2,left
2.972,-0.48854532150082547,1.0057457096552185,0.4419030040799107,0.18498298993114318,-1.8462691634989592,1.0868392873510428,0.27232343903474177,-0.03382293056411728,-1.8103883202621616,2,left
2.972,-0.464766865599978,1.0077611748635835,0.4327650080780474,-0.01563842523686338,-2.247725063407485,1.1399523268347669,-0.02933916244131861,0.0013415009798450356,-1.6434138186913425,2,left
2.9730000000000003,-0.43770894854203546,1.0107738118645935,0.42034661065051193,0.24895387253595924,-1.718205465521788,1.0699101236658999,0.19936439499397574,-0.02531745736880598,-1.7700072076641595,2,left
2.9760000000000004,-0.43063835124631933,1.0125662817193546,0.41403211578119314,1.3601466009033014,0.5045016687152616,0.7757823916656521,0.06142245959446953,-0.0092618065800938,-1.6936331611752378,2,left
2.977,-0.39720575476701336,1.0189564622362446,0.3875259748793268,1.6247320949674586,1.0340342187551927,0.70576776959889,0.11756797053386428,-0.015732005957848048,-1.7247688117307391,2,left
2.978,-0.3490146619544162,1.0301712383891228,0.34766358086499216,1.4241416027439262,0.6325609375068266,0.7588351926531958,0.11831086634894275,-0.015960639106681433,-1.7250732647610283,2,left
2.9810000000000003,-0.308672588099103,1.0440999267587552,0.30638041261976956,1.54512987826781,0.8747007766073157,0.7268319908903806,0.08895703547061662,-0.012341833373357172,-1.708971235873045,2,left
2.9819999999999998,-0.262032668586474,1.0592039425537891,0.2616284330234091,1.4958537798593543,0.7761882460272892,0.7398796976304993,0.1241327882668032,-0.016636022548332068,-1.7282992946926041,2,left
2.986,-0.21682173259098836,1.0773341311403044,0.22677972041219996,1.4953045299627694,0.7747734813875917,0.7399735925609132,0.09671097942268213,-0.013357761037869828,-1.7131805429793803,2,left
2.987,-0.17653530128642342,1.098454385037496,0.19476846006020543,1.5208436916533046,0.8264745320502059,0.733322586981841,0.11158475500086135,-0.014920967753489153,-1.7215384364362993,2,left
2.992,-0.13825443192595904,1.118003181615605,0.16228178154947964,1.4902994258143498,0.7645366423749678,0.7412531563028553,0.10798042058296167,-0.015044271031821592,-1.7191459975535115,2,left
2.9930000000000003,-0.10078115960966604,1.1369675330568914,0.13709561680196136,1.5140122085430239,0.8127849204009057,0.7351289954976207,0.104437870199139,-0.013696839021058126,-1.7178679845686835,2,left
2.995,-0.06348501920904998,1.1537023477852415,0.11394653489434745,1.501181243882074,0.786773691594763,0.7384596046481746,0.11076104585892226,-0.015580021367071376,-1.7205307155906504,2,left
2.9960000000000004,-0.02949638343918845,1.167999193720119,0.09496969101192751,1.5044732521300812,0.7926664227334753,0.7374588639104322,0.1047635131256876,-0.013967532541074355,-1.7178781763283595,2,left
3.0010000000000003,0.0036415572557301377,1.179804498293763,0.08051944050451215,1.5068833034014524,0.7997019504120257,0.7372377417949526,0.10903770647864572,-0.0144570335029124,-1.7202502485201907,2,left
3.002,0.034153525566862686,1.186149574047609,0.06682193153350724,1.5026992093829759,0.7875263618986366,0.7376274715924078,0.10647507792668179,-0.015854763831130065,-1.7175930320765294,2,left
3.0060000000000002,0.0587145446429606,1.1903220142742588,0.05484267358902847,1.5061136797664814,0.7990213792299734,0.7376042209404963,0.10806953089776572,-0.012164470865616157,-1.7213062098821474,2,left
3.0060000000000002,0.08222407465485443,1.1903404590047817,0.0428868427570433,1.504099674781572,0.7912763577274105,0.7374355017593759,0.10671152206264078,-0.01778840498085442,-1.7163317494141745,2,left
3.011,0.10347847227583011,1.185892291246541,0.03225928743115092,1.5057557732478424,0.7945548522989634,0.7369908150071685,0.10796921250602642,-0.011771251262758846,-1.7215296309389077,2,left
3.012,0.1189426068756108,1.1816249972175261,0.025063605483462,1.5025305638221902,0.794999311793172,0.7391467707278104,0.10754260665163662,-0.015282587709457195,-1.7186920572038216,2,left
3.015,0.1333128924942115,1.1735043864186436,0.019598239423177937,1.5089975482305307,0.7921791136024419,0.7344591872188952,0.10568809586310382,-0.01813729256036265,-1.7154241324191064,2,left
3.016,0.1465845362541908,1.1625966224200917,0.013599351265897746,1.4991414295642482,0.7959672018520211,0.7415071998174846,0.11137089374859663,-0.005362462150913678,-1.7283814821349877,2,left
3.0210000000000004,0.15602872497954406,1.1550891955662066,0.0072048216432410075,1.5099254308116756,0.7924851425131494,0.7339207849494568,0.10127109308644744,-0.02910376455215414,-1.704593953864825,2,left
3.0210000000000004,0.16397457529707532,1.1487426305774353,0.0017144165515687625,1.503698468533533,0.7945030725681113,0.7383026829735915,0.11414148604477674,0.0013918312384978062,-1.7350849400168133,2,left
3.0260000000000002,0.1701853199330986,1.1414918267102827,-0.003162140197924155,1.4977110556499884,0.7950090246613909,0.7422454277209902,0.10343608547077962,-0.02407082786592077,-1.7096498751969686,2,left
3.0260000000000002,0.17121515966983872,1.135519690084886,-0.007878233804200682,1.523110077383897,0.7911977528690342,0.7252061623650936,0.10357379310120968,-0.023366590362815756,-1.7102576060040535,2,left
3.03,0.16969843944002855,1.1317184823292266,-0.013055181615203967,1.4760497984376313,0.798345297901443,0.756793111714024,0.12448666327781939,0.025133637768811376,-1.7590256462262295,2,left
3.031,0.16698045258633487,1.128090601495153,-0.017895255655446824,1.5365259182422846,0.7892697200388603,0.7162224266521497,0.07326355390352786,-0.09408921245017328,-1.639251185887066,2,left
3.035,0.15808427246942774,1.1243702947177905,-0.024201881558849933,1.4860181459367423,0.796800013543425,0.7500959816860905,0.15814914909180358,0.10358845844972059,-1.837823850256769,2,left
3.035,0.1498321430167192,1.1247584002193258,-0.030412560040412442,1.487310926107007,0.7964660382969229,0.7492035022825247,0.04618708111950768,-0.15714258413674848,-1.5759017388928833,2,left
3.0410000000000004,0.14654298122647752,1.1251777316953882,-0.03203957589291409,1.583918784733683,0.7826618110033001,0.6845226464142788,-0.4239796809768867,-1.251561713859976,-0.47640724243882765,2,left
3.042,0.1359622062694727,1.1230886516867693,-0.03771671772240964,1.3465358391546183,0.8166898609714235,0.8434733528923051,-0.5359660278970259,-1.5122775554042058,-0.2144541008030978,2,left
3.042,0.11904554349301155,1.1265166708061998,-0.05085945377389117,1.7401201386980114,0.7602789865627808,0.5799339256423779,-0.4510519058076379,-1.3146225482884037,-0.41307005313358136,2,left
3.045,0.11073165111273545,1.129888136797366,-0.058514507628838586,1.2209777899619025,0.8346529747520617,0.9275381966428669,-0.5022730247986213,-1.4338296320122697,-0.2932739499897316,2,left
3.0460000000000003,0.10752190941654641,1.1307094714718957,-0.05926186496346119,-0.9585701001696885,1.14646105810405,2.3868594230979703,-0.48143079554725443,-1.385320248768895,-0.34200156890824635,2,left
3.0469999999999997,0.09520702225002056,1.1386241684987986,-0.06248765191803643,-1.4777481656835185,1.2207828042533042,2.734478074978054,-0.4811300764926081,-1.384666039723605,-0.3427436657893582,2,left
3.051,0.0789231062906722,1.1484480912675057,-0.06449702086157513,-1.08407610056946,1.1644603967841864,2.4708930523851764,-0.49207802424354496,-1.4100326847615334,-0.31707800142480624,2,left
3.052,0.06795435772130602,1.155899004193616,-0.06231909326359859,-1.3216183415213703,1.1983967960163402,2.629944230118436,-0.47895508497364336,-1.3796630328457509,-0.34784601710708996,2,left
3.055,0.05852035146317828,1.1641028193798337,-0.05999376874110607,-1.2247799637014205,1.1846383434265735,2.5650956545080383,-0.4891843194650635,-1.4032936606925825,-0.32385092978163765,2,left
3.055,0.04967091505449395,1.1721075312665814,-0.05508683033400539,-1.223743539135422,1.1843617148860601,2.5644175188441034,-0.48367122812319097,-1.3905404895284887,-0.3367732333229053,2,left
3.0589999999999997,0.04365317482824656,1.1810773902344498,-0.049676326932571596,-1.2740756058215652,1.1916850171043558,2.598101059469323,-0.48489794435357114,-1.3935487268792621,-0.33396714048063725,2,left
3.06,0.036137237053307014,1.1889549534385018,-0.04568961835939564,-1.2135348028293174,1.1829714122662958,2.557573056067577,-0.4864523127547812,-1.3966687706827945,-0.33013574887099084,2,left
3.0639999999999996,0.02733070895936391,1.1913817577530765,-0.040362811629729003,-1.2610680167377284,1.1896733474571808,2.589413696629599,-0.48376168811049486,-1.391266400078504,-0.3367635746908494,2,left
3.0639999999999996,0.023842616615435307,1.1922197547126254,-0.03448319688486198,-1.2346990838639056,1.1862181732832289,2.5717107769538163,-0.4863351107155157,-1.3961992286660703,-0.33033505198179874,2,left
3.069,0.025477728634274863,1.193522995801759,-0.028292102657052908,-1.2420467081315472,1.1867243393607758,2.5767126601738326,-0.48458345852328555,-1.392965309039509,-0.3347580354792905,2,left
3.07,0.028150647666838266,1.1891386457243254,-0.025763986970407306,-1.2469314650171262,1.1880906450743327,2.5798819945990354,-0.4852760030368088,-1.394584663239488,-0.3331414096881061,2,left
3.075,0.02844255350335976,1.181922403678203,-0.027200639782623635,-1.2367311218272459,1.186099784954688,2.5731333381783275,-0.48558047988612923,-1.393728373214672,-0.3318238659981121,2,left
3.075,0.027969429427958367,1.1747533258157214,-0.02768675912359854,-1.2477108526571956,1.187666193780519,2.5804851317973982,-0.48450280971852333,-1.3947968109713944,-0.3357276307183924,2,left
3.0789999999999997,0.029169732860457865,1.1635281816574348,-0.03126507310027517,-1.2375958685022552,1.1872034643686147,2.573563141407187,-0.4860218802005519,-1.3929964981488863,-0.3301111426636908,2,left
3.0789999999999997,0.03011924323157276,1.1525719103137646,-0.03997017840896069,-1.247128294982001,1.1863177029368486,2.5802880688742675,-0.4845202359405063,-1.3951895034144104,-0.3358234406663439,2,left
3.0839999999999996,0.030042628511695146,1.1401531950847812,-0.0521930084624269,-1.2376916609022859,1.1883233313350279,2.573458137350837,-0.4853889004358169,-1.3939253121788913,-0.332519751450144,2,left
3.0839999999999996,0.023299951900137915,1.1298960577850865,-0.06952858062105366,-1.2460003361183019,1.185934889430012,2.5795674597712566,-0.4858776479816623,-1.3922282684065341,-0.33028258651113174,2,left
3.089,-0.0007221788450303438,1.1363155232534012,-0.08170674095836872,-1.2423741211070634,1.1874830519397568,2.5768225083981715,-0.4834026539458379,-1.3988691968094353,-0.3408644929803143,2,left
3.09,-0.05088721139698094,1.15756243739783,-0.08748311527271282,-1.2355966739763637,1.1882946720909127,2.572015749282359,-0.4880086063016539,-1.3865926091782645,-0.3212004892060072,2,left
3.095,-0.12416368079988968,1.185357560959798,-0.11204320818799249,-1.2585205428485255,1.1837778209352356,2.588550521955347,-0.4821167637217461,-1.4024067517613665,-0.34639990391639297,2,left
3.095,-0.20555231169440213,1.2120723031317213,-0.15482038392451247,-1.2176007972449228,1.1923825423324084,2.558949279555501,-0.48702449766467953,-1.3891813161591742,-0.3253844754248385,2,left
3.0989999999999998,-0.27290209986852854,1.2372910182284043,-0.18796125711521539,-1.26956837175667,1.1812510403129823,2.596577198680597,-0.4868671141812732,-1.3894755289247298,-0.32601931389051914,2,left
3.0989999999999998,-0.30939684286975955,1.2571721260044193,-0.2025029205067247,-1.226428436537456,1.1905797411352823,2.5653223496784765,-0.47761903991962995,-1.414965981741712,-0.36581317366864774,2,left
3.1039999999999996,-0.318943966697129,1.2709224825961405,-0.2124528514949206,-1.227216112519233,1.190271696282649,2.5659260958627454,-0.5003648376017568,-1.3523616577381046,-0.26795263089199867,2,left
3.1039999999999996,-0.3079480335093268,1.2901739145567896,-0.23764083944147166,-1.3104839713999152,1.1726309107704815,2.6261693293907573,-0.46265708564756014,-1.4561674162575777,-0.430207439695094,2,left
3.108,-0.29373775458966744,1.300663978064883,-0.2611895467307228,-1.1063755641893058,1.2160714826834989,2.478444236945842,-0.5123837849728268,-1.3192322675963748,-0.21620826717338282,2,left
3.109,-0.2895284718187192,1.3098585843443113,-0.2635514575715724,-1.4445815873044419,1.1440122807159305,2.723255791144166,-0.7211189585557805,-0.744274610510241,0.6818153395119064,2,left
3.11,-0.28285183553064697,1.3276707946168518,-0.26637127355061646,-0.9985762255120403,1.2390726741999394,2.4003853651411253,-0.7708378023771087,-0.6073141892404584,0.8957868101900266,2,left
3.113,-0.279402646739118,1.3374897641058359,-0.26684809333101145,0.8738861493774915,1.6380241895377192,1.0450246862447141,-0.7331342771363849,-0.711161461152753,0.7335841947451636,2,left
3.114,-0.29217428612468166,1.3673199654988881,-0.25767279034631313,1.3198464330525679,1.7330972121160357,0.7221243217387059,-0.7558984403936817,-0.6485173459315827,0.8313774266130382,2,left
3.115,-0.32506973279309354,1.4169118538158223,-0.2621843112566452,0.9817480469624539,1.6610129550876618,0.9669577817802362,-0.7465909752376777,-0.674020571226501,0.7916464164028219,2,left
3.1180000000000003,-0.3767520734133246,1.456140544820867,-0.2881772943327296,1.1856665006468923,1.704488678131714,0.8192821494369696,-0.7465405366983406,-0.6743564292792075,0.7909847548427457,2,left
3.1189999999999998,-0.4266556679455049,1.4852225634883771,-0.33347617167320814,1.1026667104690409,1.6868100358630511,0.8793413679301025,-0.7513116189800025,-0.6610159374977328,0.8119518499022043,2,left
3.123,-0.4574511216830469,1.4910883178262848,-0.39585074961089806,1.1015894165748539,1.6865278743052168,0.880289894089969,-0.7455350123869025,-0.6770137865897536,0.7869089799777136,2,left
3.1239999999999997,-0.45709840897374426,1.4700113425945398,-0.4534228138734816,1.144914695152774,1.6958639545864405,0.8485816505874815,-0.75012993991786,-0.6645295466774108,0.8063041094759795,2,left
3.128,-0.4096423313139222,1.4284309873526744,-0.47247260697709936,1.0930497401501835,1.684669529603327,0.886609910766742,-0.7474668286884903,-0.6713085684491351,0.7960516955364372,2,left
3.1289999999999996,-0.31125996475808304,1.3640608080694863,-0.47418585929493895,1.13339191226863,1.693404603544179,0.8569308935250823,-0.7484081454930132,-0.6696756193810396,0.7980255586772518,2,left
3.135,-0.17557152247332633,1.2870899726718812,-0.4993237821517698,1.1116087760483726,1.6887039770637982,0.872903085813055,-0.7485841275343197,-0.6680121046712727,0.8013298836642851,2,left
3.136,-0.02657166816433016,1.21397343241669,-0.5145257213398702,1.1168256600989392,1.6896984825438048,0.8695320771848951,-0.7478400188406953,-0.6710019050098026,0.7960978777719059,2,left
3.138,0.10917955767636849,1.150760160061396,-0.5251380303516076,1.1219406563988827,1.6911637642367092,0.8645270743537969,-0.7488935190526185,-0.668108237576742,0.8006128441532402,2,left
3.139,0.21408436963318755,1.0924475697853735,-0.5886470530166634,1.1130793772049596,1.6886304250872302,0.8731828270712296,-0.7474929570656863,-0.6702213392429384,0.7983534424779763,2,left
3.1430000000000002,0.2831995176482065,1.057139058119803,-0.6744074444953982,1.1210525235573552,1.6911199678158786,0.8646625349208228,-0.7493930358854989,-0.6689754528547776,0.7979204162827775,2,left
3.1439999999999997,0.28886435229461627,1.0852055940891396,-0.7402297311133457,1.1158904888405754,1.6893904774386388,0.870589548983254,-0.7470164177082723,-0.6695721131029934,0.80053719939541,2,left
3.147,0.18248561652063958,1.1820298148574744,-0.8083195572374522,1.118664762643756,1.6899751973084993,0.8686016809402334,-0.7493824658756106,-0.669397863025412,0.7970265809497035,2,left
3.148,-0.03455922890353354,1.3126691893841649,-0.8782363261934907,1.1165117972301646,1.6906859772044749,0.8660946091628239,-0.7481275328415862,-0.6691889462794403,0.799538508621868,2,left
3.1519999999999997,-0.28664932956166483,1.4502575410199534,-0.9024356869244431,1.1199106134673196,1.6887391823827902,0.8729234305759426,-0.7466969934845948,-0.6699713112026549,0.8002005145878118,2,left
3.153,-0.5071011170225725,1.579401830210711,-0.844108990834286,1.1144881502276653,1.6915670678216816,0.8629923138678824,-0.752314491861054,-0.6683229511040535,0.794529936578711,2,left
3.157,-0.6767862197341523,1.6898107762934576,-0.711777685654682,1.1207360323459103,1.6886536597065906,0.87323910106424,-0.7420484804160531,-0.6709603610825003,0.8057011684635949,2,left
3.158,-0.7829750845404937,1.7909594972226397,-0.5399298267800599,1.117132532423287,1.690335853665546,0.8673164264732084,-0.755176275339059,-0.6677249076947529,0.7911208491473144,2,left
3.162,-0.8437012524311918,1.8831854354047337,-0.3494793775449643,1.1129827372324514,1.6915715403339218,0.862958124960147,-0.7442387968643988,-0.6703623238440379,0.8033926287422948,2,left
3.165,-0.8456681286940294,1.966381754672583,-0.17131154138736215,1.1297895825214392,1.6858917202605594,0.882995424470385,-0.7445012688191723,-0.6703889312481786,0.8029075530882777,2,left
3.1660000000000004,-0.7860436650744755,2.042800899334286,-0.03975324785422913,1.0986920362759187,1.696433113382453,0.8457919352255064,-0.765446699591454,-0.6650991469817669,0.7799147638785091,2,left
3.1689999999999996,-0.6943228733154119,2.105784068887891,0.04804277390054455,1.138705048835931,1.6829219129861865,0.8934963738699615,-0.7140126799744584,-0.6779593340414565,0.8366488606934839,2,left
3.17,-0.5169281838285061,2.1694459034462286,0.07810889236977972,1.105266616250435,1.6941844345889465,0.8537050102626325,-0.7992764722647099,-0.6566895796898323,0.7424985627066972,2,left
3.174,-0.37294667344882826,2.21244603781365,0.06696839834570728,1.10604930593815,1.6938770159706655,0.8548466381029175,-0.6868176640009807,-0.6847254983119055,0.8667114290023108,2,left
3.175,-0.3350159895807562,2.2267879731472826,0.05999049086174826,1.170307154306788,1.672451368855177,0.9304180463503476,-0.21478404477420276,-0.8024743729578561,1.3879888272773608,2,left
3.175,-0.20866524734745173,2.276226647298173,0.008099514839278038,1.0124785359323631,1.7250887165303581,0.7446421761700543,-0.10232067402496761,-0.8305081490609929,1.5122048596563813,2,left
3.179,-0.061113408115416344,2.3526682010022704,-0.08634247065823178,1.2741533311215467,1.6378470655259063,1.052639109780777,-0.18758526876722859,-0.8092521130170853,1.4180333432440748,2,left
3.18,-0.01956941302346782,2.389566298593376,-0.12889365299467176,0.9289996061917501,1.7528807730765996,0.6464340656373746,-0.13616776882066872,-0.822072801749643,1.474829160265957,2,left
3.185,-0.007556459554172347,2.400752114463203,-0.13315126137711206,-0.5202994542709526,2.2360381042025748,-1.0586532067994774,-0.1570666390019899,-0.8168585754525473,1.4517178056473017,2,left
3.1860000000000004,-0.03087731229384827,2.432635626937186,-0.1452179366605113,-0.8654582052834927,2.351010199936807,-1.4647934735990997,-0.1574091256036632,-0.8167782244765385,1.4514010386757104,2,left
3.187,-0.12128961324570446,2.4567374660932115,-0.13906667661531094,-0.603757732144391,2.263839533609757,-1.156881287220708,-0.14637306774297504,-0.8195244719934592,1.4635009905568312,2,left
3.1910000000000003,-0.2777837326138613,2.4319679150024514,-0.11158051093097075,-0.7616559730012629,2.3164869158948824,-1.342631878403572,-0.1595788601078983,-0.8162362613703681,1.4490049729597763,2,left
3.1919999999999997,-0.48892576745353095,2.3603625709534457,-0.07526433616197173,-0.697268365855706,2.2948717315183877,-1.26693505978868,-0.14931664360774577,-0.8187931582934129,1.4603010195225812,2,left
3.194,-0.7235920935567601,2.238520413661086,-0.009053208775722497,-0.6966661298038943,2.294993223666005,-1.2661347966784349,-0.15478087244372585,-0.8174280755698763,1.45418663253756,2,left
3.194,-0.9506558095210028,2.0759314934884263,0.10685467459154188,-0.7299248824758393,2.3056238828681153,-1.3053794441114417,-0.15369560097489893,-0.8177073320529321,1.45563928899907,2,left
3.2,-1.1257586798318422,1.8903472532102064,0.2778079343290756,-0.6899920424116402,2.292762985637868,-1.2582909581900328,-0.15193003866819793,-0.818132862890583,1.4571516568941056,2,left
3.201,-1.2248454103569624,1.686032141638846,0.49022148356331663,-0.7212383833548709,2.302984600708666,-1.295095825252255,-0.15483324394861286,-0.8174268423772463,1.4544824685280653,2,left
3.2039999999999997,-1.2431707820771654,1.4715654743612911,0.7135308230775141,-0.7039401041999722,2.2968366518653065,-1.2748357324210753,-0.15216212326866313,-0.818078618598862,1.4570040858628521,2,left
3.2039999999999997,-1.1807891781175384,1.252192562579491,0.9207194459458543,-0.7089459861893461,2.2997356378330602,-1.2804383353490976,-0.15375164195274688,-0.8176824361651547,1.4552448014355273,2,left
3.2089999999999996,-1.0578228847526816,1.0384206183913691,1.0806642922127407,-0.7114870440198657,2.298463732290093,-1.2839181088575138,-0.15360413456640068,-0.8177448013124669,1.4562030584079357,2,left
3.2110000000000003,-0.8921761451972264,0.8379616312118414,1.171105830436036,-0.7061049578932326,2.2992693487599163,-1.276986731552698,-0.152352292523834,-0.8179980781716596,1.455767646702463,2,left
3.214,-0.6972469528686599,0.6486486121429108,1.200222658119284,-0.7114914240332768,2.2989924570275084,-1.2838006887250364,-0.1546004758884347,-0.8175256067848604,1.455997243783858,2,left
3.214,-0.4913243852671509,0.48059247133702626,1.1743292437634774,-0.7065865198656935,2.2973397211713977,-1.2780348900838794,-0.15213282245706922,-0.8180466053812823,1.4558303996523054,2,left
3.218,-0.28134720090976234,0.3372048385051288,1.0960920851984788,-0.712259984468411,2.3030742185900692,-1.2838246733747682,-0.1536708565685928,-0.8177182890826394,1.4558037237738084,2,left
3.219,-0.06596600758328906,0.2148928858137754,0.9837877736760867,-0.7041725497527667,2.291594268184987,-1.2763310940982289,-0.1544413450257044,-0.8175714979974278,1.4563914288905357,2,left
3.2230000000000003,0.1476596519320913,0.11922046848502942,0.8510215329395525,-0.7150692850278191,2.308331590194345,-1.2861365459536729,-0.1501598669642627,-0.8184360054868876,1.4548181852066788,2,left
3.2230000000000003,0.3554332428726801,0.052813509837341746,0.7069561917458016,-0.7036704153642033,2.2905608176642005,-1.2759386994536768,-0.15826453781579136,-0.8167936542670904,1.4575563311132242,2,left
3.2289999999999996,0.5667258199621243,0.013890682194520216,0.5563047050066097,-0.7099138697812608,2.3007160241822615,-1.2814284606790642,-0.1478201437958216,-0.8189099646400173,1.4540795706124179,2,left
3.23,0.7705991157471828,-0.0035689738591454384,0.39719737409996714,-0.7169951733244408,2.3100316088425688,-1.288157829367,-0.1565557886246129,-0.8171419723224602,1.4569678035064526,2,left
3.233,0.9702819279556102,0.004430811273985079,0.2288912050264138,-0.6887844093218956,2.270178827358133,-1.2619733939923692,-0.15625932172949514,-0.8171982058207048,1.4569478295308314,2,left
3.234,1.1618490943409054,0.02937446701408954,0.0684487648866577,-0.7406009768711337,2.343923461323956,-1.3099456714276476,-0.13979653043118395,-0.8205367546623459,1.4512453146116415,2,left
3.237,1.3331716436466792,0.06295021709523314,-0.06707799464437601,-0.6741765652025435,2.249264642065935,-1.2484752615997405,-0.18033326008435546,-0.8123260831155563,1.4651969375945981,2,left
3.238,1.5214892443863834,0.12315823024855546,-0.18413931734773092,-0.7295885130160005,2.3282820049816646,-1.2997462722281115,-0.1130996735499346,-0.8259350880003762,1.4420761876594557,2,left
3.242,1.64609393763399,0.1714407820611033,-0.24321711286774655,-0.728256662811446,2.3261866809633216,-1.2985508594396817,-0.201786338193719,-0.8079935824976243,1.4725783514833424,2,left
3.2439999999999998,1.6777339466995032,0.18652901738490674,-0.25201514591956964,-0.6220392619890623,2.175359722311854,-1.2001431509177924,-0.5739134729097144,-0.732601161988797,1.6006152790977515,2,left
3.245,1.7736107333250961,0.23341295165692721,-0.27578245199804663,-0.8829179022211706,2.5460375453198445,-1.4418042774168494,-0.6626007444165034,-0.7146765386789995,1.6311379048617276,2,left
3.248,1.9072356391668128,0.31296406431316026,-0.2712192927936715,-0.45040857661441697,1.931426037312286,-1.0411554483052028,-0.5953665011009732,-0.7282672818814766,1.6079950139888801,2,left
3.248,1.964078141633134,0.3572010365963415,-0.24465551610116243,-1.0208995634215792,2.7421302929493,-1.569637500808748,-0.6359029817247919,-0.720049650153338,1.6219382257194535,2,left
3.253,1.982590886616918,0.37230945747950317,-0.23955846466274075,-3.4157778209160625,6.145134853747763,-3.788224870154483,-0.6194423669587267,-0.7234488144578757,1.6163091282375057,2,left
3.2539999999999996,2.014362992821344,0.41644285013267446,-0.20324370735440536,-3.98635061883379,6.955970125199096,-4.3168450350018475,-0.6191412160306213,-0.7233746444749447,1.6161311754694028,2,left
3.255,2.0329202185111725,0.47649373370780346,-0.1432921040648119,-3.553711926389905,6.341131895013051,-3.9159699246569066,-0.627883577572011,-0.7217936096051514,1.6192459274288185,2,left
3.258,2.0077137446345428,0.5274076032341819,-0.09536960422515804,-3.814701602372135,6.71205677685664,-4.15784643244174,-0.6174324941592497,-0.7237237677198929,1.6155435893056698,2,left
3.259,1.9549593703564285,0.5870740219429169,-0.06196308490111882,-3.7084794989430985,6.561079540039984,-4.059373200140795,-0.6255400531213551,-0.7221617036876986,1.618379089887216,2,left
3.262,1.8775343414438903,0.6566317819006844,-0.04988965571608808,-3.7069584718786857,6.558893032785866,-4.05794385180244,-0.6212643152618639,-0.7231861408020854,1.6169995014131109,2,left
3.263,1.7766408280516026,0.737564708445289,-0.04855171497635737,-3.7628012263694903,6.638373023562149,-4.109850456476954,-0.6220163059707343,-0.7225243075658138,1.6169633023449015,2,left
3.266,1.6652641413197995,0.8286115287975466,-0.05479762088237289,-3.6957484935542855,6.542838930240333,-4.047372148267675,-0.6235862164306933,-0.7230833534318467,1.6180116888016367,2,left
3.267,1.5440784737345543,0.9215735833850051,-0.07185892937086913,-3.74820634364824,6.617731174718945,-4.096475693706291,-0.6210794385255815,-0.7225154180131843,1.6165254213485194,2,left
3.2710000000000004,1.4181133504090888,1.0163856017701842,-0.09964469171405382,-3.719682101010621,6.576855743440543,-4.069552022887201,-0.6233588200931015,-0.7229109750195293,1.617807004376046,2,left
3.272,1.289153571562514,1.1057809452198821,-0.134830272621755,-3.7263058386440346,6.586413501099486,-4.0759022302627415,-0.6221072415932407,-0.7231722691729725,1.617380788132711,2,left
3.2769999999999997,1.1590802843916808,1.1878985481684294,-0.17000403374598025,-3.7341705306516846,6.597883691553388,-4.083612044756139,-0.621901871854425,-0.7216231566428043,1.6163872488253022,2,left
3.2769999999999997,1.031843319486022,1.2627258455034083,-0.2022175579869383,-3.7198979141082047,6.576660248809712,-4.069026482075207,-0.6236236514404713,-0.7249092254134604,1.6190887932465232,2,left
3.282,0.9068190096142852,1.3246061134921971,-0.22388635289928116,-3.7344058117480996,6.598895905204236,-4.084813382780705,-0.6207551981691047,-0.7200680909092605,1.6149553183491547,2,left
3.283,0.7833815071981517,1.3721237489944014,-0.22917488891640658,-3.7233129170628674,6.581146779505039,-4.071658630106089,-0.62386878984356,-0.7252171418869282,1.6193809348838142,2,left
3.286,0.6631176043873009,1.4067862152932062,-0.22151871761203365,-3.72925132758132,6.591167470179647,-4.0794535992870955,-0.621981625479131,-0.7222605121377675,1.6167934330352365,2,left
3.287,0.5459993935620098,1.4295417400846202,-0.20059527549284786,-3.7292549125791807,6.591188215986735,-4.079478302331344,-0.6207916551444559,-0.7196213879104923,1.61471338333928,2,left
3.2910000000000004,0.4319904768502484,1.4393384287149846,-0.16346179945223488,-3.7228921225408573,6.5792076334696015,-4.0693263774417545,-0.6267143624205409,-0.7310224960296539,1.624062943148993,2,left
3.292,0.3185293113102431,1.4409111172474485,-0.11958305330682518,-3.7354705510231145,6.6037953455299885,-4.090706468182244,-0.6156017765937186,-0.7099068662916077,1.6066796146260234,2,left
3.2969999999999997,0.20010945690332535,1.4383635129225991,-0.07121195959785273,-3.7183222739257995,6.569413979659009,-4.060310370418183,-0.6298996116531752,-0.7370128593913103,1.629010682529311,2,left
3.298,0.0888407026273624,1.4304184102115634,-0.014154111970861138,-3.7356582674843923,6.60472087301652,-4.091836374770313,-0.6179516541994778,-0.7143881347483263,1.6103634635532813,2,left
3.302,-0.026215456673958706,1.4206190059895727,0.04356142441495753,-3.725941972231449,6.584751282468396,-4.073902181016213,-0.6183193459553575,-0.7149861017571338,1.6108838923233066,2,left
3.302,-0.1461022490046073,1.409879712460261,0.0938304609357283,-3.7176974841599764,6.567711615021858,-4.058554102009648,-0.6409556959494884,-0.7581693014399904,1.6463890417827607,2,left
3.306,-0.25040206162193995,1.3960188204881656,0.1381146704900415,-3.753427164197264,6.641759958255913,-4.125377387852266,-0.5852667588500673,-0.6520520334030904,1.5591030045860281,2,left
3.307,-0.36853886248073514,1.376146281964055,0.1867809435205099,-3.6875088159533,6.504934058523421,-4.001779304942761,-0.6776140417843173,-0.8279876299839017,1.7038323428772246,2,left
3.3110000000000004,-0.44657210335520825,1.3596992165549784,0.21875362920630492,-3.7719155063962084,6.6802796178269155,-4.160257909043668,-0.5558086714844662,-0.595939716739251,1.512934219667333,2,left
3.312,-0.46395156031950263,1.3556755680213584,0.2251981911963905,-3.7015465392902547,6.534047710827634,-4.028056442202113,-0.04458873442598088,0.378146440771851,0.7116656379530397,2,left
3.313,-0.5269445140535746,1.3322205844736739,0.24871801738105154,-3.7034825418705557,6.538011896872003,-4.031631327642801,0.07720799073014278,0.6101699999791155,0.520767787797854,2,left
3.3169999999999997,-0.6000939682958446,1.2910068514999637,0.28174812758056234,-3.8373989390818197,6.816566755559052,-4.283548448959934,-0.01512854815377645,0.43427303358562935,0.6654976527957572,2,left
3.318,-0.631183515315989,1.2549520295832715,0.30203368431640976,-3.508274598035122,6.1320238358039205,-3.664453567938472,0.040559020938433,0.5403568246257888,0.578208591223774,2,left
3.321,-0.6457183456237772,1.1943257630408102,0.32546046367163933,-4.053935623659153,7.266917482933923,-4.690859934695722,0.01790179880030769,0.49717589741407114,0.6137207240228182,2,left
3.322,-0.6411730452696794,1.1471952294829846,0.34081743707338574,-3.3342441777398326,5.770082698043618,-3.337097366629784,0.01758579980028708,0.49663295083339687,0.614230137942805,2,left
3.322,-0.6337675445674678,1.1346582703026697,0.3436030691511764,-0.3140421347111315,-0.5129992621716095,2.345607622294893,0.029454209041946185,0.5191308211843804,0.5955955009190028,2,left
3.326,-0.6059542569250007,1.082672298982076,0.34747239843482536,0.40558390335896743,-2.009782104898393,3.699344068106227,0.015242371957980626,0.49221106597199704,0.6179180510161801,2,left
3.326,-0.5444366660155331,1.0124981595777645,0.3449539492212349,-0.13991074265496148,-0.8749389952275847,2.6729355305521203,0.02630525187000592,0.5131350666953594,0.6005309487131636,2,left
3.3310000000000004,-0.4717183780437813,0.9604075330776816,0.33504962215514356,0.1889018512581871,-1.559523339143024,3.2921489567843842,0.02033773047090151,0.5018304405044502,0.6099049880739109,2,left
3.332,-0.3831736468049861,0.9059753354854458,0.32119906532331577,0.05544889680240739,-1.2807407291009216,3.0399158527425114,0.021722003871548195,0.5045998522498933,0.6077756114047164,2,left
3.335,-0.2786682165728319,0.8606310358731768,0.2992487015422503,0.052982170607679596,-1.2772389680987137,3.0368723822438195,0.023246026870384472,0.5070816267615437,0.6052563412431964,2,left
3.3360000000000003,-0.16564178088183112,0.8246137872256847,0.27121301880586735,0.12373865130714284,-1.4228299481679096,3.1684307622485806,0.02060819859089664,0.5027811517022067,0.6096160151242538,2,left
3.34,-0.044982958741104535,0.7943300835777598,0.2351415156159046,0.03941254682380103,-1.2480950352847913,3.0104440901058602,0.023052400928330517,0.5065487896325832,0.6055085374964422,2,left
3.341,0.07921233050474051,0.7742238920719132,0.18835966823627615,0.1044298863958807,-1.3847086387804821,3.1341055536778812,0.021430291138552448,0.5041667790657794,0.6082714766167682,2,left
3.346,0.20150319697428626,0.7611722367082631,0.13589043880640794,0.0706270671155003,-1.3100180464578475,3.0662247430020724,0.022185679486558134,0.5056124849310117,0.6070894069049633,2,left
3.346,0.31936752055249484,0.7582727527803542,0.07742022843644755,0.07609846234934126,-1.3289235956222853,3.083886673979432,0.021992562165723505,0.5039296547989831,0.6069830594409199,2,left
3.3510000000000004,0.429153814585552,0.7645086939828962,0.012500591493365711,0.08864361135432652,-1.3457936842233278,3.0984545360655504,0.022019006313343567,0.5069845962681288,0.6078764743174654,2,left
3.352,0.5289630948292801,0.7785758043620952,-0.051870087239592924,0.06990584515519702,-1.3141674991052508,3.070400491695432,0.021883072808554643,0.5022435140284768,0.6066948346366164,2,left
3.3569999999999998,0.6218251687263145,0.7993988266242256,-0.11257127144293355,0.08507959190496363,-1.3457994208772277,3.0990144093038086,0.022155942349615307,0.5075413217850278,0.6077539443918554,2,left
3.358,0.7081693558873887,0.8223424248670239,-0.16802254403412273,0.0796014682394228,-1.3207593572130432,3.0753473957097075,0.02199960192610706,0.5044828193957074,0.6071399130372146,2,left
3.36,0.7870391869365616,0.8449189757788483,-0.21571444653303462,0.07329960969824387,-1.3388276074867176,3.0940197606129054,0.021581270512786497,0.5013059532272044,0.6070550453146961,2,left
3.361,0.8558826589326751,0.8665042069161356,-0.25843242919318754,0.08932860137490312,-1.3256628351209012,3.078635720135134,0.023045111261508468,0.5145100239752198,0.6080016422633998,2,left
3.366,0.9105194183378819,0.8861935171498123,-0.2951307806015727,0.06981668530736446,-1.3346503297484063,3.0904717204467462,0.02034855508362232,0.49005756050384663,0.6062177377569087,2,left
3.367,0.9527143720410025,0.9023931820636821,-0.31941302175352687,0.08271590437351105,-1.3328419063369106,3.0866930540144635,0.02383470757514652,0.5215008607254261,0.6084712618806785,2,left
3.37,0.9857260561408914,0.9169213060414947,-0.3324052787949716,0.08878213602512736,-1.3207600863652647,3.073921473072245,0.020913412170722453,0.49522931982858226,0.6066070569788158,2,left
3.3710000000000004,1.0012852704999267,0.9317760783231679,-0.3382412672975751,0.052911960850094225,-1.3542214713512726,3.1122632216331096,0.020963018081019608,0.49588553266739416,0.6067034135154228,2,left
3.375,1.00232574696181,0.9445116853071089,-0.33934180673267367,0.12163445228311362,-1.296755183402889,3.0453051594272376,0.026659722338541587,0.5462171351275553,0.6100607835290175,2,left
3.3760000000000003,0.9930922021475034,0.9555135533448806,-0.3347156902862526,0.03260018516725069,-1.3688893474089419,3.1297880313482356,0.01267977140219258,0.4225484846862321,0.6017748838589747,2,left
3.3789999999999996,0.9630513881395304,0.9666394741632418,-0.32016756222014897,0.10726163628766845,-1.309370371363979,3.0598888251553795,0.035861877636201536,0.6276007113044113,0.6155091717147302,2,left
3.38,0.9351196128593628,0.9723551238915915,-0.306480584215313,0.10473353145124274,-1.3098962460170773,3.0608080710926306,0.005277086435750115,0.3571286915532447,0.5974048851165017,2,left
3.3810000000000002,0.9255396143073074,0.9731792729547367,-0.29956451779669324,-0.03627848045109232,-1.4262705833340004,3.196679213721656,-0.12317393647369251,-0.7781332804988428,0.5214920801282057,2,left
3.384,0.8948070422958221,0.9778452530046193,-0.28142639151402216,0.3110390835273276,-1.1418117542046733,2.864130952811859,-0.1537700438033924,-1.0485817760949243,0.5033974314598861,2,left
3.385,0.8290750226817978,0.981223270407894,-0.24898087639927008,-0.26509483008493384,-1.6128549156100693,3.4149808986912005,-0.13057035527859573,-0.843594171583214,0.5171217870038729,2,left
3.391,0.7862156321490927,0.979062191212571,-0.22927092869344584,0.4949065677069488,-0.9917817662161118,2.6886043159761286,-0.14456456046883892,-0.9671337587285288,0.5088301669201863,2,left
3.392,0.7727777611995431,0.9791091625735484,-0.22262982760602984,3.6847050731624216,1.6160967810408478,-0.36110584486678377,-0.13886948217069478,-0.9170037652178432,0.512225743715816,2,left
3.3930000000000002,0.7216540655759541,0.97989914954648,-0.19393259780925476,4.444677500156432,2.2370889290811466,-1.08745256289026,-0.1387903322362696,-0.9161048489241305,0.512242308897285,2,left
3.3930000000000002,0.646497313714298,0.9800598994819788,-0.14830178757662177,3.8685373555731215,1.7662795499756714,-0.5367462222235302,-0.14177484089108933,-0.942571400922618,0.5104905770650499,2,left
3.3939999999999997,0.5810051096287372,0.9822460450453998,-0.10270567427473029,4.215999934335043,2.050254064394591,-0.8689125674852205,-0.1381996921871712,-0.9111249772176453,0.5126345096164497,2,left
3.398,0.5048774096448831,0.9843934703625297,-0.05012457695016377,4.0746095640843105,1.9346562006018067,-0.7337469355944845,-0.14098302353508207,-0.9352240130514042,0.5108934287608438,2,left
3.3989999999999996,0.4249019754684566,0.9903689245403855,0.001018627376107432,4.072712240543165,1.9331725852336006,-0.731852620743573,-0.13948413183246933,-0.9228400565945674,0.5119444005380678,2,left
3.404,0.35003822021533915,0.9995361359199969,0.04999622603344449,4.146616031724548,1.9934939770282412,-0.8027152055242757,-0.1398236119740403,-0.9247815509913935,0.5115410225227687,2,left
3.406,0.2742874235102526,1.0072435381831895,0.10363581943064029,4.058152934728187,1.921273749223404,-0.7178159546572653,-0.1402246606583411,-0.9291699731477975,0.5114656787398497,2,left
3.409,0.20032148970543018,1.0158924658662558,0.15985442243108772,4.1269693476728495,1.9774531954620418,-0.7839454504700609,-0.13953591660743872,-0.9230886795828425,0.5118745580812882,2,left
3.41,0.12965673968611208,1.0230016104215993,0.21481317237752162,4.089824430065709,1.947116490180899,-0.7482844405017595,-0.14017597624417188,-0.9271855764762449,0.5111948161189195,2,left
3.4139999999999997,0.06363890167004474,1.0285061623668486,0.2618479858186163,4.09864764949301,1.9543812901806905,-0.7564173968300408,-0.1397568649351571,-0.9270478012434447,0.512131176259043,2,left
3.415,0.004943657806375264,1.035142603404299,0.3029074927581224,4.107562584944407,1.961510067688865,-0.7659195414871955,-0.1399253808523716,-0.9232165948304573,0.5110042090795203,2,left
3.4189999999999996,-0.04687237316786497,1.039424311078386,0.33761800384486446,4.092126538308394,1.9491575084738344,-0.7494693122884736,-0.13994693783151652,-0.9290789671871666,0.51208672771587,2,left
3.4189999999999996,-0.0935587503041819,1.040190022953936,0.365175022170781,4.106122386284819,1.9602774271725107,-0.764931269906723,-0.13983178582615985,-0.9247838068606726,0.5115219109234882,2,left
3.424,-0.1302733496238912,1.0376373681402624,0.38717781984442873,4.097001248957491,1.9530752756982648,-0.7545500725395049,-0.13994871934076092,-0.9229931909222571,0.5109072454543899,2,left
3.425,-0.15800010598417777,1.0335630093820147,0.3990207277930579,4.101724450658089,1.9569380278098614,-0.759050535888863,-0.1398933841971079,-0.9348657070018922,0.5133276476399387,2,left
3.428,-0.1809216614699171,1.0289313701717409,0.40086793553021227,4.09866089148275,1.9539669547965943,-0.7592076218357247,-0.13986291980092821,-0.9116712050396978,0.508917546399605,2,left
3.429,-0.19221599197025174,1.020579444701399,0.39576909355948364,4.103071926150715,1.9586389467356127,-0.7563714882992614,-0.1399611010610598,-0.9419765692505733,0.5145455433285372,2,left
3.4330000000000003,-0.19459276443967607,1.0100819294059504,0.3898188203024954,4.0958903087413,1.9511780991007757,-0.7600286168210189,-0.1398538820864027,-0.916452259773088,0.5098617688215212,2,left
3.4339999999999997,-0.1920359857858562,0.9977124400311214,0.377521697735563,4.104343457028721,1.9597837654824684,-0.7568920601858717,-0.13987864125267563,-0.9173379320270808,0.5099759807715707,2,left
3.438,-0.18467755576093842,0.9835299317301512,0.35892179480388037,4.099469320797826,1.9548179587917056,-0.758713635257646,-0.14004259466829228,-0.9656458843733682,0.5189301231052785,2,left
3.4389999999999996,-0.17408188592839868,0.9713557213968945,0.34248585142674876,4.093492523568324,1.94909233743795,-0.7585886834187059,-0.13960043411197548,-0.8465610537536972,0.4969443042265812,2,left
3.443,-0.15079568428982482,0.9566119257187934,0.31311818464253083,4.117347798955501,1.9722810492697853,-0.7569383506988284,-0.14035227037430847,-1.0441775819182963,0.5333874448471179,2,left
3.444,-0.13189295279729363,0.9443719182301723,0.28886410073493046,4.073226245330996,1.9293689908657226,-0.7601106285621682,-0.139351499268286,-0.7834380264074111,0.4853235942588196,2,left
3.447,-0.12521102396906397,0.9417394245250634,0.2807356752330916,4.1300230275601475,1.9845918257238895,-0.7561749572229371,-0.13514954540412444,0.31102516424957255,0.2835766288371847,2,left
3.448,-0.10140546941710367,0.936602281073914,0.25622484553243025,4.082545623991893,1.9384317721762345,-0.7594005095558916,-0.1341442320568818,0.5718186502633849,0.23551227070561304,2,left
3.449,-0.06235200135776561,0.9312780249849834,0.21785947870893732,4.083629954769616,1.9395352093663665,-0.7591265174078736,-0.13490627370145028,0.37408752406415796,0.271955027663463,2,left
3.4530000000000003,-0.025135861563107778,0.9303491905277248,0.18088176964088312,4.174988862385923,2.028187273894368,-0.7537560542864071,-0.13444724143853432,0.4933493974706773,0.24997272165013618,2,left
3.4539999999999997,0.013246033498937698,0.9299557722151441,0.14787878699457416,3.9506103077892494,1.810394074906136,-0.7671084835265392,-0.1346335294591685,0.4448242521070614,0.25891823075631715,2,left
3.458,0.062285350936171935,0.9387615974765775,0.10818947794039166,4.322631280442502,2.1715256254425697,-0.7449689521035139,-0.13463604368626902,0.44413150034002113,0.2590464680752055,2,left
3.4589999999999996,0.0951040562259794,0.9473258252583956,0.0766152530684436,3.8319152531380936,1.6951487802734269,-0.7741416549425493,-0.13454005583572345,0.4695988815723103,0.2543462260281082,2,left
3.4589999999999996,0.10474679766803668,0.9488578145841591,0.06820709308506431,1.7713912311514843,-0.3047288681412343,-0.8959685078709888,-0.13465286238268337,0.4390758152564693,0.25998607379367,2,left
3.4619999999999997,0.14030428778546025,0.9585223269242702,0.04006837342853821,1.2806466363750135,-0.7811759993198347,-0.9251011720242712,-0.13456816396169552,0.46287376427100996,0.25557930003968155,2,left
3.463,0.18828849206815668,0.9711019951427803,-0.004026778093150334,1.652733025119674,-0.4199402187050998,-0.9030379253590711,-0.13461069106193332,0.45001419259800757,0.257970082522621,2,left
3.469,0.22354929001910573,0.9802565769927454,-0.03910431783255285,1.4282439979916575,-0.6378043280422152,-0.9162900657380311,-0.13460236575722173,0.4529645573027866,0.25741736236987245,2,left
3.47,0.2637836971149534,0.9887897234017379,-0.07536364500577497,1.5197523641627508,-0.5491986975120495,-0.9110166292343251,-0.1345951600140225,0.45640827229038305,0.2567648371078321,2,left
3.472,0.3035977393582655,0.9919337361796613,-0.10337039031255965,1.5206834589439264,-0.5478578536837104,-0.9106946903807014,-0.13459886009354805,0.4503725141158822,0.25793473922461485,2,left
3.472,0.33897878499322764,0.9915348486176346,-0.12174936445567501,1.4732909829594332,-0.594468386304563,-0.9138602313301308,-0.1346102666937412,0.45616286406239337,0.2567684702958988,2,left
3.4789999999999996,0.371889276250875,0.9861791348509785,-0.13638446882088534,1.5301715592169542,-0.5386594529418208,-0.9101451573964758,-0.13458443326006916,0.45212450717290287,0.2576343764604869,2,left
3.4810000000000003,0.40167257367705445,0.9733545925657128,-0.14311813813826763,1.4857011863685976,-0.5820797773044206,-0.9129235634299699,-0.13461015268070883,0.45401602158461984,0.25718879239383885,2,left
3.4810000000000003,0.42844625655750646,0.9580951164638912,-0.14233232137151647,1.5102049924629415,-0.558805881760496,-0.9117720823151348,-0.13461046499979362,0.4540107295667747,0.25718890395109933,2,left
3.4819999999999998,0.44718546753388005,0.9398872683607801,-0.13719895387461878,1.5033785120268768,-0.5637935845820663,-0.9112242051497562,-0.1345545353239063,0.4526281859455184,0.2576236750560645,2,left
3.487,0.4598535155555509,0.9204525045245112,-0.13042331066639307,1.4992649073175328,-0.570605461476889,-0.9131024359599944,-0.13468581945379432,0.45489010687103815,0.25679551336802664,2,left
3.489,0.4668443716921489,0.9042364905722977,-0.11989987137757109,1.5075316007030777,-0.5591241508608182,-0.9106098705434462,-0.13448711067863064,0.4522550135672202,0.25789473987735295,2,left
3.491,0.46571169303005155,0.8918063392151153,-0.10941161724143314,1.4993831708684258,-0.5697886793982835,-0.9126879750974037,-0.13470060806692552,0.45463194318473643,0.25680258109101195,2,left
3.492,0.4602740386937163,0.8832419586860578,-0.10465236807314032,1.5063528176427001,-0.5630483991507643,-0.912290244759733,-0.13457671557568673,0.45339662417459037,0.2574081810289562,2,left
3.498,0.44960747746248964,0.8799151566281754,-0.1010287280508742,1.4991950935024847,-0.5648836928842367,-0.9097524722576846,-0.1344696947238796,0.45238937987723704,0.2579196144957827,2,left
3.498,0.43325764297438685,0.8823986877501382,-0.0980041086098051,1.5086163547031908,-0.5674214774791797,-0.9159613432606456,-0.13493871244544675,0.4566317124048912,0.2557119343959108,2,left
3.502,0.41666631761315875,0.8870732821177604,-0.09547913123361465,1.4962231296947703,-0.5620230780509073,-0.9066011105319697,-0.13406829324491187,0.44892294665433274,0.25977683123228273,2,left
3.503,0.39653918747076744,0.8939861916952369,-0.09093482407029052,1.5091249095198513,-0.5680782448391204,-0.9165973164707504,-0.13518640127862908,0.45871157842506616,0.25457758475521985,2,left
3.5069999999999997,0.3740819563396616,0.9023098316567449,-0.08917999944902999,1.5021589234989703,-0.5641053893002596,-0.910792748703743,-0.13425270078974413,0.45058744762456115,0.25890924056182846,2,left
3.508,0.3473860153729787,0.9118764270473212,-0.08479652637110908,1.493734084176746,-0.56302936194325,-0.9059320312491699,-0.134278147653113,0.4508142111578818,0.25879105373130984,2,left
3.511,0.3165376852451618,0.9236623782259374,-0.07702218888859602,1.5266437968094175,-0.5715830149784398,-0.9274386672728224,-0.1360583376009239,0.46620324958403314,0.2505493429379585,2,left
3.512,0.28830066823339195,0.935245520648873,-0.07300404091853052,1.466327440889488,-0.5550263336498747,-0.8875122194728078,-0.13168251876111087,0.4284052222206362,0.27080121864460893,2,left
3.516,0.24844154333349983,0.9519432058486619,-0.06509378226294811,1.5436162953258603,-0.5764415670442158,-0.9387893929494682,-0.13893777789017242,0.49104675194572955,0.23722788221541113,2,left
3.516,0.22146871264433937,0.9638787120551884,-0.05892995808620516,1.4791560607934993,-0.558500055814234,-0.8959760327452218,-0.1293688457206995,0.40844604942775514,0.281507846064905,2,left
3.516,0.213250068621207,0.9675174861349551,-0.057789251132983985,1.4806537109301308,-0.5592275095321957,-0.8971522659454336,-0.08922960161272651,0.06184677660898138,0.4673911217082549,2,left
3.52,0.17954637594561546,0.9799081951909113,-0.05145451790550022,1.6043776967464303,-0.5926447748791269,-0.9787324528226546,-0.07966728918518673,-0.020725986663106412,0.5116759587973383,2,left
3.5210000000000004,0.13980253867941167,0.9956633289840906,-0.04432797425894352,1.300570472549078,-0.5102246295651449,-0.7781981077835138,-0.08690810780068042,0.04186349007562878,0.4780904042584478,2,left
3.5260000000000002,0.10398715716151163,1.0115414841188461,-0.0365579697169409,1.8042194299888368,-0.6469535265681137,-1.110695101457009,-0.08255534525735053,0.004131268928300118,0.4983648761787062,2,left
3.5269999999999997,0.0765974078544799,1.022325711321217,-0.03045967462391914,1.139923269518575,-0.46660507869358925,-0.672144633938758,-0.08430614393187026,0.019461210544950043,0.4900899361015261,2,left
3.5269999999999997,0.07040411934391895,1.0241591086284783,-0.03012166988426454,-1.6485298151004921,0.2900175192073017,1.1682676878044367,-0.08435932384025613,0.019708660276797872,0.490009364109544,2,left
3.53,0.045616862057264104,1.034833352076348,-0.02646237374530874,-2.3127877450597936,0.4703230650778835,1.6067206266050547,-0.08341428539861208,0.011640111073944266,0.4943142126476215,2,left
3.531,0.01311296475310762,1.0484113334501983,-0.02056034345363157,-1.809256878463305,0.33365368709579557,1.27443382885143,-0.08450817924256072,0.021266916803548287,0.48910778262987564,2,left
3.536,-0.0054681285827807066,1.0554288071967721,-0.014559870178046604,-2.1128080614705045,0.41604507909979516,1.4746375397647848,-0.08371413492646185,0.013825709819108297,0.49323868266628357,2,left
3.537,-0.027668146429806195,1.0593032692137216,-0.002446933952628386,-1.9895071587864235,0.3825695170054969,1.393471707946716,-0.08405204098847849,0.017751363968547564,0.4908922386658005,2,left
3.54,-0.047470952133557294,1.0589011428780553,0.011579354670982249,-1.9874734922612216,0.3820314105040775,1.3919145773648998,-0.08410601538351409,0.01698039491881422,0.4916012960522269,2,left
3.5410000000000004,-0.06329604471714395,1.0587712920039825,0.022959559728037107,-2.052402605611249,0.39965026722517394,1.4348652556517567,-0.08385312150079668,0.015782905691015495,0.4920080038457053,2,left
3.5460000000000003,-0.07663469888279795,1.0576306696510733,0.03461111604241479,-1.9750211302289298,0.37862024206927103,1.3839619601845072,-0.08406727581578889,0.017640964172966483,0.4910094297819184,2,left
3.5469999999999997,-0.08550799713829446,1.055612607150742,0.04164918781857527,-2.034682453973062,0.3948920377157028,1.4227789367464425,-0.08410370572971271,0.016125213985910068,0.4922591060135129,2,left
3.55,-0.09298707373644784,1.0575682624542737,0.04022647186054905,-2.003453644753646,0.38628104665594115,1.4031359167591257,-0.08369430628013455,0.01677280070507834,0.49091374653158065,2,left
3.551,-0.0985088487597524,1.0604897348244209,0.035957952339153984,-2.0092189776564657,0.3880122355846434,1.4057521255495091,-0.08444775685492438,0.017039050140617247,0.49225977445449315,2,left
3.555,-0.10272908396774813,1.0634230347889422,0.027939279657060778,-2.019202987180557,0.3905890859055269,1.4132898180011058,-0.08358172815005357,0.01621237415932128,0.4911161156183531,2,left
3.556,-0.1037169067087787,1.067694704965898,0.018131374280667596,-2.0042593600170227,0.3865309689163633,1.4034340514163128,-0.08411415729277295,0.016967249051480362,0.49162811329110884,2,left
3.5589999999999997,-0.1001047215020007,1.0682508447073051,0.01315125641676948,-2.0157961551084673,0.389913015420322,1.4092931255174614,-0.08450571324374179,0.017034002528050235,0.4923830278552073,2,left
3.56,-0.09507420384446935,1.0614648355415048,0.011341627966582637,-2.012089049496439,0.3883342943356063,1.410859007727884,-0.08264978426955652,0.015509222789697403,0.48974105284280733,2,left
3.5669999999999997,-0.08865564303571648,1.0507994989543943,0.01802368206100211,-2.007704052228043,0.38799843862204747,1.4019786215762768,-0.08613305865587731,0.01869637758306627,0.4944474993672374,2,left
3.5669999999999997,-0.07793100097940232,1.0363460892462237,0.0362152459991279,-2.0167469422459705,0.3895418725531191,1.4143282461440934,-0.08164206210095934,0.014444243412342577,0.488490174580541,2,left
3.571,-0.06880753973775561,1.01719543343911,0.05862586470890756,-2.0092906053589035,0.38804462295255815,1.4057203992064504,-0.085399036737899,0.01806273687945625,0.4934263553557515,2,left
3.572,-0.05037456529846982,0.9895687858174023,0.08450839627603082,-2.0075636099255427,0.388029561574754,1.4014012480618825,-0.08529103233915367,0.0179047093391744,0.4933261195670018,2,left
3.575,-0.01879318667143932,0.9573162088614385,0.11067007070340812,-2.025044330647477,0.3907879114648465,1.4268497706098757,-0.07813866256745322,0.01111691925909908,0.4838510454636677,2,left
3.576,0.013618891632854855,0.9235869684218183,0.13513881827066088,-1.9897316444803204,0.3848873790874004,1.37774631078391,-0.09572951669073859,0.02790845607685379,0.5070793870896882,2,left
3.58,0.06930109993617091,0.8773457393792535,0.15734087051942103,-2.0363623188617908,0.39281285352215084,1.4416457049079758,-0.06655801223835567,1.5065957399518909e-05,0.4685955229679276,2,left
3.5810000000000004,0.11159813625828817,0.847425852120008,0.1696645747420256,-1.996876682831796,0.3860461249576197,1.3879346735781115,-0.10503715240574343,0.036832767079369874,0.5193395850872132,2,left
3.5839999999999996,0.12287192775123942,0.8393301790628015,0.17102170931881927,-1.9984382359957609,0.38636131652581424,1.3897082921644235,-0.26656288142367046,0.1913631794318826,0.7323634829975809,2,left
3.585,0.1687083397774095,0.8117925761438992,0.1678578496335128,-2.0728063880329453,0.3990176372777452,1.4915281556280202,-0.305042321685859,0.22819743076355425,0.7830957964485215,2,left
3.585,0.2250927493109119,0.7851057508678765,0.1591008298292017,-1.889130721696177,0.36767249826329557,1.2406924034575844,-0.27586866939853105,0.20027039645773848,0.7446330848975893,2,left
3.59,0.27229614872445346,0.7771213111819402,0.1356575462865042,-2.194108339376532,0.4197595287072031,1.656868248471588,-0.29346585769770595,0.2171108672682637,0.7678363617385702,2,left
3.591,0.30910250629887603,0.7719192502532687,0.11567340439853281,-1.7916168379020998,0.35099796261110694,1.1077926435026568,-0.28630125178935295,0.21026755121831947,0.7583807635826196,2,left
3.594,0.3173745101518606,0.772152703272246,0.10993500892657651,-0.10242346038868061,0.06241153855044978,-1.196870329757434,-0.286210681133937,0.21015222074779416,0.7582798017390828,2,left
3.595,0.3471209552117199,0.7770093790446342,0.0909610399673986,0.3002258895740195,-0.006388254402621297,-1.7460363567907409,-0.2899497796182118,0.21377095957577558,0.7631840562456458,2,left
3.596,0.3921530153084267,0.7866525803518075,0.06393434935663475,-0.005049143357977043,0.04577449969631619,-1.3296790968406542,-0.28546769050883863,0.20944181027562409,0.7572997005150466,2,left
3.6010000000000004,0.42325548459623386,0.8012610395814511,0.043019621926649335,0.17901010932289174,0.014323369926614014,-1.5807736987605954,-0.2889636354879634,0.21280474880141126,0.7618982017609656,2,left
3.6010000000000004,0.4567655829331845,0.8189287731698005,0.019513511650179567,0.10428374451232553,0.02709343933871182,-1.4786679950819335,-0.28706200704687496,0.2110176405598238,0.7593697429831567,2,left
3.6039999999999996,0.4842866328891346,0.8387901530450588,-0.0027823439759868404,0.10287517790473398,0.027331526856692375,-1.4771016509183108,-0.287535307807358,0.2113643088044596,0.7600620996445632,2,left
3.605,0.5014077935668952,0.8595035482857747,-0.023177536217765707,0.14263602745557968,0.020541139054115348,-1.530841929524104,-0.2879640597673865,0.21195776179408904,0.760509776949051,2,left
3.609,0.5089384292720738,0.8849189495433909,-0.043312027054516325,0.09511357064210199,0.028657806590612667,-1.4665056816487427,-0.2871857771443124,0.21098828747257403,0.7596279038574874,2,left
3.61,0.5039381890741157,0.9147619713227375,-0.061266659360702316,0.13195808138092574,0.022363504998628114,-1.516554735176842,-0.2879283022037939,0.21187794384400757,0.7604919130660843,2,left
3.614,0.4856075655463913,0.9505048590778299,-0.07854959662474287,0.11260021148979328,0.025674891412073214,-1.4897368814117162,-0.28738284834992633,0.21135746999128247,0.7597717438273532,2,left
3.615,0.45450304661795937,0.991828297535927,-0.09340229582607351,0.11582686958060212,0.02511231368191065,-1.495465687174081,-0.2877515870859032,0.21137839890982976,0.7604711913733129,2,left
3.6180000000000003,0.4161998556047121,1.0327217909686048,-0.10689617183476267,0.12328117121597583,0.02385779149699057,-1.5033488487909015,-0.28745262463289123,0.21185092629575036,0.759589605602335,2,left
3.6189999999999998,0.3702753780943805,1.0747209587718052,-0.12063713535137499,0.11149774018475088,0.025847719966301558,-1.490078057476587,-0.2877683950952258,0.21102140381177892,0.760733080576143,2,left
3.6239999999999997,0.32013243980619294,1.1190929973246866,-0.1301276515756432,0.12216775126373243,0.024043242100851143,-1.5023991197109665,-0.2874560377785741,0.21192885712222775,0.7595460838903941,2,left
3.625,0.26903206908740473,1.1647830049330508,-0.1364765363893678,0.11648750796430113,0.02501408838067435,-1.4946308298423359,-0.28759820530116104,0.21136794251340477,0.7601814513826086,2,left
3.628,0.21689064660493285,1.204484118610626,-0.1416579947167158,0.11496076841095722,0.025239980221872425,-1.4966922401342906,-0.2879105064937677,0.21106579247408833,0.7609792145511773,2,left
3.6289999999999996,0.166404411533282,1.2360348780749482,-0.14571688731783541,0.12413703819669673,0.023751848906549442,-1.4997397940832857,-0.2868543423446796,0.21268491968904557,0.7578971184726824,2,left
3.635,0.11992284315470601,1.2620124606460137,-0.14927050223761396,0.10908602064541428,0.026204610544608688,-1.4933353498132025,-0.28875692579178003,0.2096287762533554,0.7635390494869763,2,left
3.636,0.0822397459402796,1.2659681916396919,-0.140594552483444,0.1253837610211736,0.023546608969689922,-1.5005084860649287,-0.2863265271164487,0.2135648646636749,0.7563110632567722,2,left
3.638,0.05253332486423915,1.2537301356456694,-0.11922358007575069,0.11556722370559327,0.02515081791580715,-1.495817581642664,-0.28835040183576,0.21027421528151158,0.7623387150464929,2,left
3.639,0.04033314871924469,1.2130401171192247,-0.07439924375397125,0.10908692391070673,0.026194675819858987,-1.4944803340041837,-0.28831527206199603,0.2103813640318207,0.7622011217179125,2,left
3.6430000000000002,0.045103741414965905,1.139541205935556,-0.001687847243709342,0.14069025792339707,0.021071429208193604,-1.5047623975616946,-0.2843917889955329,0.21659610045835945,0.7506235935706311,2,left
3.6439999999999997,0.059504022632147255,1.0592115967017173,0.08004510918191816,0.08149781037892861,0.03067260421586327,-1.4848951170466917,-0.2940119822466749,0.20130025672077725,0.7790498024235477,2,left
3.648,0.10223038714213306,0.9348999684047192,0.18661164013554143,0.1576328744319465,0.018321866045828722,-1.5105844605995635,-0.2780673672803369,0.22666619207425492,0.7319253579001925,2,left
3.6489999999999996,0.1323060843714362,0.8459727217329915,0.26064001832103567,0.09402175126732029,0.02864182200389584,-1.4890659758889584,-0.2990975942794556,0.19320915847978182,0.794081965753304,2,left
3.6519999999999997,0.1418489064131122,0.8230374191692879,0.2778718502421597,0.09593996051762596,0.028327923788458293,-1.4899250774987398,-0.387401731143076,0.052789633538001854,1.0550168465135505,2,left
3.653,0.18431569365183742,0.7312811916135664,0.33416280499455564,0.2165817273402207,0.008763593800152899,-1.530046897948007,-0.4084341251382172,0.019336480652730064,1.1171772698366844,2,left
3.653,0.23386815493156204,0.6198351767109987,0.39408946074777473,-0.08016534091792864,0.05689074204059432,-1.4311082816844782,-0.3924871658246844,0.04469821672469947,1.0700486974647112,2,left
3.657,0.2957953381977667,0.5263794445559733,0.4109058885963772,0.41190363250196915,-0.0229162882457283,-1.5952341520491173,-0.4021064666600033,0.02940077825410641,1.0984733354251628,2,left
3.658,0.34799249265036997,0.45327609616139064,0.4228092770792252,-0.23712290659368815,0.0823489834179356,-1.3787501669348337,-0.3981907621408657,0.03562943762743466,1.0869095022843678,2,left
3.6630000000000003,0.3621106914007738,0.43574140949256024,0.42428894535738026,-2.9611952177586143,0.5241527517506026,-0.4704364928139956,-0.3981388968281955,0.035706626448939696,1.0867424436075535,2,left
3.6639999999999997,0.42249136657055736,0.3789971537361704,0.42113491577885603,-3.610159652685616,0.6294123154171989,-0.2539962334486498,-0.40018676612357923,0.03245893588781233,1.0928123417773359,2,left
3.6639999999999997,0.5136969259091788,0.3017682289851129,0.4110953979471954,-3.1181751803189286,0.5496120578755845,-0.41807091083799935,-0.3977324748461229,0.03635224332737076,1.0855422881562293,2,left
3.668,0.591139658550365,0.2575727103630207,0.389190031767445,-3.4148864973247868,0.5977394401026812,-0.3191280609555553,-0.3996453656732618,0.03331456456584919,1.0912023682665908,2,left
3.6689999999999996,0.6781012166471581,0.2166937998242102,0.370355187362005,-3.294148235586703,0.5781589847018991,-0.3593784418126976,-0.3986097226116689,0.03497041568251982,1.088156401028251,2,left
3.6719999999999997,0.7601938189647977,0.19589161582347653,0.3415607654001903,-3.2925220841389673,0.5778826950386999,-0.3599419791931853,-0.3988559270281261,0.034549946168378184,1.0888377920320464,2,left
3.673,0.8326927657627088,0.19231093617910397,0.2928704432974756,-3.355646852374267,0.5881463959537807,-0.3388624459238583,-0.39911197788732383,0.034192913216203075,1.089673668587185,2,left
3.677,0.8962832882058507,0.20939522742044142,0.23088360097537589,-3.2800805437733533,0.5758545891226339,-0.3640957327858122,-0.3986598616019865,0.03485013961086325,1.0882406023922029,2,left
3.678,0.9427674643789693,0.25689029972578414,0.16433027088195623,-3.338870759283721,0.5854249266097626,-0.34446042865156845,-0.3990870480209665,0.0342201295269528,1.089580247770857,2,left
3.682,0.9690696305882822,0.3261722848636685,0.09743199512832934,-3.307140406572053,0.5802635408779615,-0.35505300881215895,-0.3987890937477756,0.03469439015055424,1.0887004288635143,2,left
3.6830000000000003,0.9731275552363389,0.42476936082532246,0.03131499221282748,-3.3146515278269515,0.5814516997904681,-0.35257598212628705,-0.3989510388688916,0.034345179499690806,1.0890357930775654,2,left
3.688,0.958451384693221,0.5467324385013488,-0.025802413207757217,-3.3223390547126357,0.582795099977961,-0.34992815739187977,-0.3988781494187307,0.034670678604848765,1.0891476415856025,2,left
3.688,0.923263147188039,0.6802262590471707,-0.07570852581823043,-3.3090287740468964,0.5804700991414407,-0.3545098445588868,-0.3989157075215955,0.034298216281549096,1.088770442291482,2,left
3.6919999999999997,0.8738952533782978,0.8223558666396746,-0.12082649724738284,-3.321138556374022,0.5826380767354289,-0.3502969941454961,-0.3988889088931252,0.03467426874196275,1.0892116946805444,2,left
3.693,0.8167297510504983,0.9661249314068727,-0.15571301419165118,-3.313223732384323,0.5811918259102093,-0.35307509068236675,-0.39888350619696694,0.034490153884915484,1.0888949337741152,2,left
3.697,0.747220584504009,1.102229660338021,-0.18677289099048483,-3.3172551962410695,0.5818443213568231,-0.35173231898351515,-0.3989823822168771,0.03416691009153799,1.0889281168137628,2,left
3.698,0.6685769899297492,1.2284818335292718,-0.2137651629722182,-3.314874743477116,0.5817596359173474,-0.3522681106304921,-0.3987190545972026,0.03531244498554667,1.0892840753910116,2,left
3.702,0.5805400127036308,1.3451208692213477,-0.23363061170154553,-3.318104185411269,0.5815944901854013,-0.3517802084179611,-0.3991769004293936,0.03323642481425268,1.088533584695431,2,left
3.7030000000000003,0.48242924293415085,1.4453129817605237,-0.24932423240679977,-3.3127721759724342,0.5817575742434177,-0.35267987611790896,-0.3985957405709142,0.035891532719947924,1.0895173959252378,2,left
3.7060000000000004,0.38991818012791574,1.5293499270731719,-0.2533644732147783,-3.3191383021545184,0.5816941906799968,-0.35149317750423553,-0.39907833984612207,0.03367887143749938,1.0886880813550643,2,left
3.707,0.2912726818996669,1.5969321428247347,-0.24434842604539855,-3.3154665132963905,0.5817321595201858,-0.35217680644566635,-0.3990754913422292,0.033722854657408576,1.0887415178772848,2,left
3.7119999999999997,0.18992522248323868,1.6425685692273926,-0.23322259867963338,-3.3107919822445684,0.5815191974443892,-0.35326907987961176,-0.3981213411373794,0.03799512247080586,1.0902206715633893,2,left
3.713,0.1041886910857748,1.6702287792317292,-0.21880004664720398,-3.3292978621097253,0.5821327395182783,-0.3491389598327854,-0.4004549097990441,0.027512178685592942,1.0865490885639029,2,left
3.716,0.007878173965164884,1.6623545597655385,-0.1824716999641631,-3.295073836007604,0.5810111681099629,-0.3567668287622582,-0.39658820607775913,0.04489003913701002,1.092645370925795,2,left
3.717,-0.05292515005856495,1.6354767880287124,-0.1484567826974887,-3.339146595555821,0.5824711783568427,-0.34692950945502976,-0.40168899635874267,0.021967082603020098,1.0846047174138311,2,left
3.721,-0.06719181076731809,1.6280942626675245,-0.13966603200116587,-3.3022922260733063,0.5812437600790705,-0.35516264018356253,-0.4231099581181462,-0.07426494784079442,1.050893312573943,2,left
3.7230000000000003,-0.10461721125333019,1.5652710995039016,-0.09679007841218737,-3.3031381504005877,0.5812494301298119,-0.35498952370611925,-0.42821434810385955,-0.09719532878797446,1.0428592649177895,2,left
3.7230000000000003,-0.13447966076039913,1.4478460237323199,-0.023400961359448753,-3.3740722130758263,0.5837042069703506,-0.3390724526126365,-0.42434267475825477,-0.07980690846569985,1.0489471633697582,2,left
3.7260000000000004,-0.12924318712541216,1.3306158448065915,0.043064451528942116,-3.1998309525289024,0.5776935851504307,-0.378160925003048,-0.4266785697626859,-0.09029574833816428,1.0452772428950778,2,left
3.727,-0.09026018977111641,1.1439791608376826,0.13962547110043327,-3.488752394455171,0.5876591100973017,-0.3133422147652447,-0.42572948874988215,-0.0860316721578399,1.0467710727885584,2,left
3.7319999999999998,-0.04983584130115008,1.0077371401714745,0.20897772109226317,-3.10762000282763,0.5745099963393114,-0.3988540799055359,-0.42571048909132786,-0.0859577352669726,1.0467868980081438,2,left
3.734,-0.03418235353734234,0.972988688016227,0.2256305207442859,-1.5075965800491085,0.5191929159042749,-0.7578404480442518,-0.426220444508407,-0.08822321456980875,1.0460163411342909,2,left
3.735,0.022035480156805207,0.8304207640413579,0.2866290385903677,-1.1264089262794486,0.5060316375196474,-0.8433698960129405,-0.42560679883278235,-0.08550318104651715,1.0469356076111205,2,left
3.735,0.10537991458075813,0.6351168954164909,0.3606437307251965,-1.415399036487997,0.5160228531279568,-0.7785321436579725,-0.42608840165764617,-0.0876301128615489,1.0462241729759325,2,left
3.736,0.184249054578584,0.4841863074490621,0.40123704538571436,-1.2411490691194909,0.5099728577825108,-0.8176134468116828,-0.42583052573123803,-0.08648756670051931,1.046609733926667,2,left
3.741,0.2728118051119355,0.3238157420388308,0.43376035755411146,-1.3119496327078428,0.5124754691602975,-0.8017593425489293,-0.4258732307177381,-0.08671041652659485,1.0465031377673943,2,left
3.742,0.35182441547182297,0.1796904664154781,0.44427818558258214,-1.313126109648734,0.5124393395848816,-0.8014506535491647,-0.4259865283915053,-0.0871190346190129,1.0464524366264847,2,left
3.747,0.43253446009853624,0.05123264099156614,0.44352986437332864,-1.2757631144188721,0.511222917607528,-0.8098782422913707,-0.42579078736185805,-0.08641276188427377,1.0465403971545644,2,left
3.748,0.5175188436980742,-0.07003838015860403,0.4390857500856056,-1.3203856861139809,0.5127331045277629,-0.7998471875920319,-0.4259977828141608,-0.08713018074497555,1.0464848383088203,2,left
3.75,0.5943690586801168,-0.17262833402831634,0.4171137641219267,-1.2858439541243243,0.5114763705074183,-0.8075588328301222,-0.42584643042896375,-0.08661974934948903,1.046507541611474,2,left
3.7510000000000003,0.6714772120391387,-0.2620211539505012,0.38703590306906754,-1.3040631604314532,0.5123083891998959,-0.8035946438281958,-0.42587737415799287,-0.08676003206388659,1.0464570680963117,2,left
3.755,0.743165634597295,-0.3282469744478055,0.3519983882187282,-1.3006310569357231,0.5118416297592512,-0.8041516924134016,-0.4260239197045583,-0.08710439596684405,1.0466259799911852,2,left
3.7560000000000002,0.807114544463786,-0.3679088536430729,0.31118969368352506,-1.2946375410440103,0.5120614590742115,-0.805757903508258,-0.42567158246626713,-0.086239504114313,1.0462671647856983,2,left
3.76,0.8664825594566471,-0.37746270642440705,0.2676235570246397,-1.304044986249392,0.5120461482116632,-0.8034386509391402,-0.42619319872429323,-0.08751144722471271,1.0468089272312047,2,left
3.761,0.9171649199188361,-0.3509309913489701,0.22322366558095288,-1.2960018944444767,0.5117656766708705,-0.805241566280795,-0.4256424718440225,-0.08617982454689559,1.0462228452668252,2,left
3.765,0.959993698079258,-0.2839439537022893,0.1779104808695449,-1.2998657036284782,0.512529440071168,-0.8047612656496874,-0.4259607918467684,-0.0869491250117255,1.046561570894335,2,left
3.767,0.9916986452197529,-0.16706886924692232,0.12873941336399486,-1.3010070700849745,0.5111277710808378,-0.8036213255807887,-0.4262231399453037,-0.08756003123918008,1.0468717224259632,2,left
3.77,1.0100296294645048,-0.009702922772916261,0.07555075167773267,-1.2957926938663384,0.5130981351620256,-0.806110092738703,-0.4250592466638179,-0.0848197208168827,1.045537416309537,2,left
3.7710000000000004,1.0163819450385998,0.1774283195409857,0.018699332972966973,-1.3026361440990988,0.5110411980704721,-0.8031684141868216,-0.42721860739994866,-0.08990406060778502,1.0480111798834784,2,left
3.775,1.0099034100876105,0.39855784015316936,-0.04076542055467654,-1.297820899774229,0.51220152164272,-0.8050618646050489,-0.424446721926986,-0.08338100112577294,1.0448327037570841,2,left
3.775,0.9983707198647194,0.6254393904692197,-0.09678539162153144,-1.2963470406389206,0.5132892323494651,-0.8060917326638535,-0.42676060558101614,-0.08882316543161231,1.0474877049583826,2,left
3.779,0.9698094253970887,0.8650661764867548,-0.15072093666042075,-1.307735711475658,0.5086890118668272,-0.8004729478084421,-0.4266961878835307,-0.0886740375483464,1.0474160378332626,2,left
3.78,0.9273832977624106,1.1108797997367463,-0.2034951462709013,-1.2854492189877798,0.5171842438992635,-0.8111561673346999,-0.42229073149949625,-0.07831161885814963,1.0423494299803417,2,left
3.786,0.8854262616283237,1.3267447024467505,-0.2416655357967408,-1.3144853996054462,0.5062860777343282,-0.7973428398076814,-0.43312078979287183,-0.10377809385809744,1.0548044707728028,2,left
3.786,0.8203882006332792,1.5637012792662133,-0.2665374393315201,-1.290069122838113,0.5153847736492689,-0.8089164430819529,-0.4151634563806269,-0.0615588638058824,1.034150998366203,2,left
3.7910000000000004,0.7632082203355411,1.7246246623865398,-0.2812481266856174,-1.2909984556091199,0.5151328511297808,-0.8085378689597729,-0.4388493020354362,-0.11724069427606451,1.0613950440072335,2,left
3.793,0.7438517422318305,1.7655191201729723,-0.2836075019521542,-1.336839828371997,0.4977945438506497,-0.7866420636744103,-0.5382508745474311,-0.3510596276318666,1.1757048782113046,2,left
3.793,0.6809344776622137,1.8920686643342892,-0.28413910267903686,-1.2237822754882455,0.5404268873698344,-0.8405559554301693,-0.5619356292904156,-0.40674326177728803,1.2029477899699486,2,left
3.7939999999999996,0.5419070785749783,2.0648272543093604,-0.2789872620854658,-1.411377900824721,0.46972246593264805,-0.7511248118308698,-0.5439818116966595,-0.3645094234886712,1.1823017160017817,2,left
3.795,0.45246700549560304,2.132440780619221,-0.27218585869484796,-1.1638944974690193,0.5630027419252013,-0.8691021563665129,-0.5548040464096051,-0.39001998693627304,1.1947353632230446,2,left
3.801,0.4247399950568752,2.154260010237237,-0.2696218281976335,-0.12520186149109222,0.954285067485166,-1.364194541991072,-0.5504117293991377,-0.3795716186547049,1.1897097528495857,2,left
3.802,0.31845169057919664,2.193090318289127,-0.2530327366932081,0.12227695601705421,1.047604259033856,-1.4821840883758266,-0.5503304341409034,-0.3795456783006448,1.1895799817980466,2,left
3.803,0.1736221953678327,2.206918867712578,-0.22358981308543224,-0.06534542245080152,0.9768588307224388,-1.3927326270394687,-0.5526593950394965,-0.3848606493229205,1.1922941880530662,2,left
3.805,0.0628442428579555,2.1557410168761653,-0.18991757149105262,0.047826351850260775,1.0194712743899448,-1.4466667033501224,-0.5498838897423493,-0.37840250222142174,1.1890868642756431,2,left
3.806,-0.03912085927304606,2.0552298773948188,-0.14384837170703282,0.0017369328392298974,1.0022806423364168,-1.4247627253367314,-0.5520236541143987,-0.3835734920109619,1.1915171655188543,2,left
3.8080000000000003,-0.09812629291166053,1.9030226232752372,-0.08319738510255067,0.0011865880245655186,1.001716330636156,-1.4243670210693673,-0.5509116230436824,-0.3805132414762211,1.1903364596283,2,left
3.8089999999999997,-0.10698387168011593,1.7050285192187318,-0.01765337213092533,0.025183339277305962,1.0112586438123385,-1.4359929785234622,-0.5510907831514893,-0.3817002370670207,1.1903734574255695,2,left
3.8139999999999996,-0.08232840789605786,1.487856877633822,0.051414323150552735,-0.003589801801895107,0.9999240803383231,-1.4220928011339704,-0.5515048229657153,-0.38173496045258226,1.1910570096389044,2,left
3.8160000000000003,-0.023976250467155662,1.2589037619166195,0.12595351613354863,0.018870503334733443,1.0085976696025272,-1.4328779610124363,-0.5508871941590399,-0.38103077428647925,1.1901813805500034,2,left
3.818,0.05064803054990334,1.028267001023433,0.19668885362826888,0.006593929022522416,1.004395093002182,-1.4271852097529192,-0.551386592286595,-0.38221201499611956,1.1907542992166014,2,left
3.819,0.13233131390484051,0.8002748522702865,0.2631516152817439,0.009789029079219053,1.0042412879338394,-1.4281977894866529,-0.5512080098390324,-0.38040340187034116,1.190855527913997,2,left
3.823,0.21113140768064528,0.5798411755729406,0.3243554116282371,0.012285106622821167,1.0075184235844068,-1.4302661124840836,-0.5509966779502536,-0.3830795900982421,1.1899117011036453,2,left
3.824,0.2849999768642575,0.3705542014014441,0.3736858781638245,0.007601118380399008,1.0028873876187685,-1.426955732249784,-0.551530078079902,-0.37960031368504144,1.1915706655478338,2,left
3.8289999999999997,0.35605366390577053,0.1751784876435955,0.413676425992457,0.012119948757824586,1.0068744461181258,-1.4299686769255162,-0.5508816716514051,-0.3831215609062563,1.18971030547412,2,left
3.83,0.4209616455460894,-0.0044367089101611905,0.4473566054919904,0.008609927030489625,1.005572488129709,-1.4283033234214453,-0.5513097877664745,-0.3812128117822197,1.1908468976931026,2,left
3.835,0.4843456798666612,-0.16617333634872788,0.47277042414570825,0.011457350201823344,1.002406255458196,-1.4280665280883018,-0.5515125971086106,-0.37917624433519687,1.1916348947596522,2,left
3.8360000000000003,0.5455772435831443,-0.307815622451503,0.4877396503989594,0.008446310050972142,1.0109589343428014,-1.4302740258957214,-0.5503183746933895,-0.3873675995915673,1.1878323636347967,2,left
3.838,0.6070074214931825,-0.43572574763358607,0.4982608307794208,0.012101217383556776,0.9978846257483026,-1.4265818940276085,-0.5526054422868106,-0.3723470556807935,1.1949679352979796,2,left
3.839,0.6693214263551039,-0.5327709963279565,0.5012080261290786,0.008360516773592867,1.0118806667575924,-1.4305918993793405,-0.5496427606592327,-0.39157289955653624,1.18577513703461,2,left
3.843,0.7199983997885873,-0.612134604579682,0.4932047450442032,0.010276254829744463,1.0037011757836676,-1.428157827160919,-0.552126959533929,-0.3755478456152226,1.1934628977454773,2,left
3.843,0.7660975552481557,-0.6540636662127755,0.47775857161676255,0.013145710390786249,0.9971093335033754,-1.42664021544158,-0.5520432452459676,-0.3759423507875345,1.1932342015927122,2,left
3.8480000000000003,0.8112239984835576,-0.6473489572536129,0.45837959132092043,0.002580398518230142,1.0267094728190616,-1.4342319346405752,-0.5473503662074817,-0.4066035017753933,1.1786297230604574,2,left
3.8489999999999998,0.8481999969323395,-0.6220137743943094,0.44163564233343533,0.021815196801278976,0.9716804644053815,-1.4199820247007882,-0.5589083673742267,-0.33129837945935287,1.214556217448452,2,left
3.852,0.8876191822585373,-0.48720966825659917,0.4137095010429946,-0.0028040520161257626,1.0423703932028618,-1.4383173860181346,-0.5397363059151243,-0.4561372221527356,1.1549760092258785,2,left
3.853,0.9129433936040731,-0.37331589598406734,0.39419234360971733,0.017718959251519374,0.9833431764253651,-1.422995554684809,-0.5650264921537635,-0.2914817850816369,1.2335678772309366,2,left
3.8569999999999998,0.9170040439219257,-0.3372838985485507,0.38762020829669397,0.017283781886091948,0.9849869067090476,-1.4234678210212586,-0.6711741922932357,0.39968068383862543,1.5634305946868312,2,left
3.858,0.9297894335008914,-0.15910800404570508,0.35285381649018677,-0.02224927579311658,1.097387567113679,-1.4524924074151984,-0.6964623399335409,0.5643390843019684,1.6420284553249727,2,left
3.859,0.9390970911707781,0.07737815381857956,0.3049470394189029,0.07478161688215335,0.8210674229828491,-1.381087977522995,-0.6772917698283696,0.43949959678657874,1.5824369298149623,2,left
3.863,0.9294682570230776,0.3571612395426069,0.2404207531391977,-0.0860719579333167,1.279230944523075,-1.4994936147568267,-0.688853139858288,0.5147944272158504,1.618378079173958,2,left
3.864,0.9233077891021849,0.5808651132229593,0.1832689354400423,0.12610280383426023,0.6749171160469305,-1.3433211674796879,-0.6841477286822877,0.48416261530930765,1.6037598111322147,2,left
3.8689999999999998,0.9224612975639063,0.6387343001571899,0.17114307050916505,1.016881011996126,-1.8616208830864271,-0.6878718542160687,-0.6840874944570476,0.4837174785264018,1.6035372045933576,2,left
3.87,0.9106248051976107,0.863898615754539,0.13842245233641998,1.2291143140539196,-2.4659215073682414,-0.5317245152374516,-0.6865408171746508,0.49980512447459957,1.6112351129750946,2,left
3.8710000000000004,0.8834126321591809,1.1937919449736976,0.08683151862376587,1.0681681908141654,-2.0077771904699997,-0.6500909853053201,-0.6836053977757103,0.48052944667278313,1.6020086275237233,2,left
3.872,0.8401576794615258,1.4483749156060257,0.05597166770738434,1.1652784627378492,-2.2840853463909143,-0.5787187334878074,-0.6858871711684296,0.49554829203736495,1.6092025271733668,2,left
3.873,0.7799388557666037,1.7256706346841322,0.021883058992282347,1.1257421902905929,-2.1716732140021193,-0.6077457924706254,-0.6846546336559611,0.48745318813614347,1.6053280125987404,2,left
3.8789999999999996,0.7006049036300227,1.9683880480385205,-0.014944966277273179,1.1251714237815071,-2.17007816186025,-0.6081541899905787,-0.6849552211936738,0.4892716780268232,1.6061742900347338,2,left
3.88,0.5975342307168725,2.1745665132427465,-0.04948699608798008,1.1460029397629885,-2.229016372711829,-0.5929708105657239,-0.685229425758134,0.4915039596419303,1.6073090083313053,2,left
3.8819999999999997,0.4722897991003263,2.350390104371325,-0.08504299133335691,1.1209339552806963,-2.1584390738662247,-0.6111097444035877,-0.6847544293469277,0.48764113866125575,1.6053463056577228,2,left
3.883,0.329193912272413,2.456792448968068,-0.11260578342479957,1.140627499087916,-2.2133749164248666,-0.5970533385297503,-0.6851727240029164,0.49130980535537555,1.6072431740748863,2,left
3.888,0.17944943670653468,2.5094244896749,-0.12812062179072875,1.1298384240813837,-2.1837807628778867,-0.6045631313389436,-0.68490703910791,0.4888263021031614,1.6059416507744309,2,left
3.89,0.04301433174411515,2.490346078738244,-0.12801243940993492,1.132379440499128,-2.1905299911919673,-0.6028783454459106,-0.6850644902508456,0.48984510771570117,1.606426816278286,2,left
3.892,-0.06297889318399115,2.3967297286901106,-0.10228569909635755,1.1354566103854735,-2.1983380281982803,-0.6009769900153076,-0.6848924816895805,0.49012278790770064,1.6067749724334943,2,left
3.8930000000000002,-0.11658945165809047,2.236684556992488,-0.05178351058879546,1.129658378242908,-2.184904296013932,-0.6040734935607709,-0.6851994841214826,0.4889270422902065,1.6057116457627436,2,left
3.897,-0.09827881736918698,2.019606568908718,0.012243172192192963,1.1358975681571974,-2.1973713705898206,-0.6014974591784548,-0.6847214041872138,0.49058060287739313,1.6072356493386637,2,left
3.898,-0.013030509234532417,1.7783044792238067,0.08334109798431605,1.1307374898432179,-2.189179007020258,-0.6028225075929812,-0.6852576859671968,0.48899073611730604,1.6056936425664805,2,left
3.9019999999999997,0.1145340945715323,1.542679553585398,0.15543369160023202,1.1337704337316115,-2.1926333731728898,-0.6025610867216344,-0.684947978312064,0.4899113262732503,1.6065853977205315,2,left
3.903,0.25634352133320326,1.3297505390346864,0.22330299881004884,1.133779210530315,-2.1926129785315718,-0.6025719022091949,-0.6846224981455824,0.49032101310553444,1.6071713514717674,2,left
3.907,0.38492121372250504,1.1491965328165916,0.2828936437628886,1.1298833312385577,-2.191131604192077,-0.6017838371600042,-0.6859715416773433,0.4880307903386825,1.6043705989014958,2,left
3.908,0.48456639720686556,1.0053763410468222,0.32902428040326265,1.138056298227148,-2.192437105170538,-0.6041222652298037,-0.6834731681608859,0.49230302471824544,1.6095761391635097,2,left
3.912,0.5569568748864822,0.896553144300697,0.3554973728864068,1.1264652653798048,-2.1922025404959937,-0.6001911205525281,-0.6866864386566929,0.48684878560625644,1.6029074189464665,2,left
3.9130000000000003,0.6022828479244193,0.8196720097964905,0.3631998542987479,1.138469873064662,-2.191451275420117,-0.6046405177270733,-0.684001097382777,0.49138819503859066,1.6084675028951283,2,left
3.917,0.6253377829238729,0.7820212758066165,0.36569538036684474,1.1316460047318735,-2.1922053235931536,-0.6019870019484859,-0.6840687861453432,0.49122398587018273,1.608298625635634,2,left
3.917,0.6353189223889195,0.7827189544400568,0.37092526585656915,1.125810490115596,-2.192988765449253,-0.5996650840225419,-0.6892127394626704,0.4827427302624034,1.5977767190896985,2,left
3.9219999999999997,0.6369798672654019,0.8034861244842249,0.37353319462475826,1.151214289143403,-2.189175402436966,-0.6099261518128154,-0.6765717936629558,0.5036212097937804,1.6236511039576116,2,left
3.9219999999999997,0.644157263735517,0.8449516420901214,0.3698345502038547,1.1042319855865068,-2.1966155442833326,-0.5908018676008918,-0.6975333498929035,0.46900509858955497,1.5807529126495097,2,left
3.926,0.65331220488298,0.8795166693062698,0.36645480864144186,1.1644699791701756,-2.186806257319238,-0.6154242820662434,-0.6698818175449881,0.514655448350247,1.6373294500157183,2,left
3.928,0.6563232744544498,0.889719487868806,0.3658106296505642,1.1142197228572481,-2.1951101661455406,-0.5948390744580649,-0.5538197599875229,0.70614762125491,1.8747730862708125,2,left
3.928,0.6738068329563014,0.9296003852720225,0.35638383318488587,1.115584187476363,-2.194889863764138,-0.5953938080447888,-0.5261629024069346,0.7517864338440117,1.9313406751592612,2,left
3.931,0.7038091259783544,0.9860262692865993,0.34004228878690945,1.2113216712333827,-2.1788526535777972,-0.6347018380454709,-0.5471313686653387,0.7171902812854074,1.888455737171267,2,left
3.931,0.7296403285634556,1.027421347086161,0.32687532619974613,0.9760337191295186,-2.218344324430881,-0.5380699195580689,-0.5344885462428879,0.7380470275081091,1.9143211534156732,2,left
3.9360000000000004,0.7557378512768731,1.0806593337288015,0.3077880299417717,1.3661284059712462,-2.1528062167694504,-0.6983060584293695,-0.53962177434144,0.729578958915331,1.9037932127765977,2,left
3.937,0.7718467509521069,1.1155326107650168,0.2917961989001475,0.8516107976707084,-2.239259189595363,-0.4869487337774697,-0.5397181424482228,0.7294228478560912,1.9036547424888859,2,left
3.938,0.7754124889650549,1.1220985024828845,0.2869815794114561,-1.308108993209705,-2.6009129316458566,0.400058277243197,-0.5369871950949001,0.7339214456702158,1.9091572788094149,2,left
3.9419999999999997,0.7876928686324676,1.1402987829093463,0.26672215583112846,-1.8226364030174267,-2.6870528491446737,0.6113734178132681,-0.5402514831160177,0.7285443226466625,1.9025632900744318,2,left
3.9419999999999997,0.8040240890226404,1.1493682096299915,0.23151718459482912,-1.4325132498457287,-2.622216364939331,0.45123432755584436,-0.5377206906126619,0.7327155440332274,1.9077042237270698,2,left
3.947,0.8138260169084939,1.1359827563800686,0.1955979747107171,-1.6678604357323836,-2.6605513880443605,0.5477015149008206,-0.5390499035328219,0.7305151945568794,1.9049138701618413,2,left
3.948,0.8222213981756639,1.1214238987677159,0.1609074888933238,-1.572027696116462,-2.6460407880975594,0.5086174885359236,-0.5388295525166519,0.7309038944844404,1.9055946076758632,2,left
3.95,0.8266318850170733,1.1054476884639017,0.14278458075819764,-1.5707810534158195,-2.644306202496397,0.5078315652960744,-0.5383152893239066,0.7317082304496385,1.9062502319537074,2,left
3.951,0.8280771772523225,1.0883779600293595,0.14208537848810943,-1.6209321309359008,-2.6533639287485613,0.5285474815561804,-0.5391274700288672,0.730422854815385,1.9050753234050988,2,left
3.957,0.833892944021231,1.070663032996984,0.14580789478203657,-1.5607057814111853,-2.6445742988167984,0.5040456714611731,-0.5383923062243943,0.7315919945545184,1.9061912059449504,2,left
3.958,0.8470300241745898,1.0441656756158135,0.14948859106006168,-1.6078448116203954,-2.6482873041990596,0.5226522944615064,-0.5387824579718254,0.7309481235621019,1.9053899553426374,2,left
3.9610000000000003,0.8677640714191255,1.0055858178533195,0.15069683433923958,-1.5820583447934902,-2.65117237711174,0.5133605015205283,-0.5388915591801274,0.7308490538358052,1.9058860243337825,2,left
3.9619999999999997,0.8915314031827015,0.957545351007313,0.14854365853560592,-1.5884852868384667,-2.6434096017817588,0.5144059883451993,-0.5382515417644155,0.7317195982486935,1.9055509994209414,2,left
3.965,0.9134688056479068,0.9027580336682912,0.14480033329812475,-1.594654320371634,-2.6514894573428407,0.5182106546198966,-0.539299910497735,0.7302668243788403,1.9058598173707972,2,left
3.965,0.9316479499736383,0.8422186128725306,0.14594591542094965,-1.5830662055319655,-2.6496095505566206,0.5134622542808593,-0.5381648922735096,0.7318439760787276,1.9055657593176962,2,left
3.97,0.9458126997980836,0.7832780758573589,0.15544288269603207,-1.5949042948067302,-2.6385220551215163,0.5159667161651618,-0.5388482432677488,0.7308877020910527,1.9056801941123105,2,left
3.971,0.9598473282839294,0.7253044560566031,0.16842567061801392,-1.5853989357782972,-2.6668019184715357,0.5174511222912219,-0.5393009338917918,0.730287048390578,1.9060551247202937,2,left
3.9760000000000004,0.9764728135988825,0.6641235372494663,0.18073752570167237,-1.59190093787897,-2.623325592597036,0.512082633618234,-0.5370964949925546,0.733281323138768,1.9048652840432665,2,left
3.977,0.9940381766936034,0.610574280832507,0.19199071039253252,-1.588351138250054,-2.6702406097790616,0.5191948477245484,-0.5412249694177707,0.7276630533850008,1.9069917234354228,2,left
3.9810000000000003,1.0107939717716068,0.5692244078490057,0.20455558310753721,-1.5886773174751467,-2.642840880050336,0.5143762127681362,-0.5359147200305443,0.7348910306067935,1.9042775220212045,2,left
3.9819999999999998,1.0248681170222507,0.5399415801571456,0.21465777436626937,-1.5925888062010582,-2.6198402401392236,0.5117158124968172,-0.5403517185337472,0.728852257550328,1.9065392636824772,2,left
3.986,1.0413376635428282,0.5158366448333379,0.21545970908040663,-1.583133565571785,-2.721807505475976,0.5265113677943152,-0.5402174006912414,0.729035313796728,1.9064991619267417,2,left
3.987,1.0624961944274274,0.48781615658859034,0.2104641327924835,-1.5984358135820993,-2.532325212008824,0.4981538513984253,-0.5318034384754794,0.7404825624460454,1.9021104854833188,2,left
3.99,1.0794856950514489,0.45429251367661694,0.20221948336243145,-1.579774807812,-2.775804239751553,0.5349740575967155,-0.5525008431729934,0.7123265323354587,1.9128788646833779,2,left
3.991,1.0942015013161281,0.40539523831557545,0.19325048690419994,-1.594937076428633,-2.572452531000587,0.5040604603860661,-0.5181790548268774,0.7590120886713414,1.8950214454205165,2,left
3.995,1.1052717781620522,0.36996805031655544,0.19142953212678465,-1.5948763695830377,-2.5780465701048705,0.5050478867525832,-0.5634499440346996,0.6974390123534233,1.9185863564849306,2,left
3.9960000000000004,1.1090135180508196,0.3622910609847564,0.19237077893591356,-1.5653268077061453,-2.965614977265063,0.5637148004407592,-0.7534504322884465,0.4389572551675558,2.0174064010947994,2,left
3.9960000000000004,1.1183330519074675,0.3388186086646117,0.1906197330088678,-1.6373331760664538,-2.0128513369854,0.4192485649042708,-0.7987201118783969,0.37739617004238396,2.04099457756986,2,left
4.0,1.131571571660369,0.31234685706818327,0.19239276261938332,-1.518231020277701,-3.5926734041314923,0.6589092152046385,-0.764399635388747,0.42406874903417824,2.023111988638645,2,left
4.002,1.1377759156975005,0.3067462063367175,0.1953276464743075,-1.6751994802101715,-1.5088261582874107,0.34273502793059063,-0.7850975267529681,0.39590779758223715,2.0338707872459056,2,left
4.005,1.1396958099724117,0.3041694240522482,0.1961915547728184,-2.333705723045144,7.2375990995119315,-0.9844270292572188,-0.7766792462168551,0.4073980544323414,2.0295656219797253,2,left
4.006,1.1429665176593131,0.301488199345212,0.2038366957781489,-2.4906354769615455,9.321536954834869,-1.3006359440144897,-0.7765542350457963,0.4074885553063663,2.0293458451515827,2,left
4.006,1.1475626985807224,0.2931131246941272,0.21793268832917465,-2.371673279858907,7.741600419914738,-1.0608974363474961,-0.7809778774529501,0.4015825021234086,2.031865196587057,2,left
4.01,1.1494205916488967,0.27434108856234873,0.2321601148966283,-2.4433481683473683,8.69438498560719,-1.2054920707486456,-0.7756809432115856,0.4086783002486505,2.0288944793701216,2,left
4.012,1.1518529256287398,0.25083437045358736,0.24779533418915095,-2.4143759111052963,8.307021757469768,-1.1466556215907047,-0.7798036440567165,0.40311709638337345,2.0311315824351546,2,left
4.013999999999999,1.1589498628877681,0.22380062199180806,0.2627161714296145,-2.413551528643061,8.300906079252488,-1.1458364531437177,-0.7775878365926663,0.40622479870008,2.030162056701762,2,left
4.015,1.1648548567424948,0.19608805985311956,0.2760870558741971,-2.429425697859469,8.505069896112811,-1.1766661331770425,-0.778077260828611,0.4052586326568634,2.029827364382928,2,left
4.019,1.1652389400980094,0.1709830390664659,0.2941952147433426,-2.4105342355317694,8.260702011046433,-1.1397329802747478,-0.7786972545257931,0.4049322258482092,2.0311644678402487,2,left
4.02,1.1640605702495264,0.148590370773991,0.3167530693726077,-2.4250475074270477,8.450716689640458,-1.16850412522649,-0.777640059270154,0.4057362939627529,2.02936993278004,2,left
4.025,1.1643504560538553,0.12689986529609376,0.3377546790269177,-2.417837192034435,8.349169703118278,-1.152964791564771,-0.7786262826977177,0.4048999769820032,2.0308749375343362,2,left
4.026,1.1613377088562777,0.10632955600363413,0.3540825091094906,-2.41803906193791,8.37022639173366,-1.156574571671817,-0.7779859441135697,0.4057757450628222,2.0305507244185934,2,left
4.03,1.1520617946681062,0.09043819442975434,0.3668480948244429,-2.4227572746082435,8.40131070807458,-1.160578751680486,-0.7782098369373891,0.40453331336981546,2.02882663838129,2,left
4.031000000000001,1.1391505623688192,0.07937979133603418,0.37962216886182676,-2.4159419150154005,8.349517796284953,-1.1535934651278712,-0.7783372295991515,0.4065028946220437,2.033098904939848,2,left
4.034,1.1230427291278848,0.0682397163169682,0.39165567179074684,-2.421871710428497,8.397415115833034,-1.1601650880482426,-0.7779943980417394,0.4037727950948573,2.0266461447494937,2,left
4.035,1.106434741028375,0.05578028943824042,0.40296672203128747,-2.419675419123606,8.367949122374654,-1.1556872914778062,-0.7783879286113826,0.40664458372354856,2.0335393196855067,2,left
4.038,1.092528445897646,0.04436619565616182,0.41404372261109174,-2.4157886843246406,8.373645122561953,-1.1578448455233759,-0.7781162670464801,0.4050461141013737,2.029533723127377,2,left
4.039,1.078380951101015,0.031038149902316257,0.4214149232302588,-2.426885621738527,8.390066731921028,-1.1573816720437309,-0.7781028310990062,0.4033660061663781,2.026194681798226,2,left
4.043,1.0634045052046552,0.01547956734173808,0.4258188230539032,-2.4098008260927104,8.358518846459948,-1.1570028305689244,-0.7785218283455011,0.41022494480029237,2.040993253162786,2,left
4.044,1.0501526552016442,0.0013962527496804377,0.42901836837165164,-2.4281120389268995,8.393461374733192,-1.1576056834826816,-0.777680978130575,0.3975934664339723,2.0135168175698066,2,left
4.048,1.0402138479930665,-0.013762130386335936,0.4323992354985957,-2.4173761960241134,8.371199692052613,-1.1569431083988952,-0.7787733680542648,0.4137939687025646,2.0488036697720333,2,left
4.0489999999999995,1.032219785370242,-0.029889485994048753,0.4348989067653646,-2.4088934049337407,8.36227622227527,-1.1579293870025058,-0.7778584682646734,0.4002753713630317,2.0193441285799114,2,left
4.053999999999999,1.0252450770774568,-0.041552132549478274,0.43453929189354046,-2.4472807592859853,8.418131765777954,-1.1561615894381192,-0.777899087517893,0.4006141121088288,2.020146999177041,2,left
4.055,1.023759814047789,-0.050879964036809056,0.4334967123817161,-2.3758637519763077,8.311517377938351,-1.1589806946518695,-0.7795853025369752,0.42648407556631124,2.076296641457983,2,left
4.059,1.0267224341274015,-0.06095068240127663,0.4331228217620584,-2.4676169361467566,8.449091604814678,-1.155462953901555,-0.7754281362024522,0.3629274081048586,1.9382866713355391,2,left
4.06,1.030750684589232,-0.06933516417399552,0.43653807340873896,-2.3909973399400597,8.33396861573052,-1.158359588885708,-0.782316943198743,0.4683040697321763,2.1671072214136036,2,left
4.063,1.035356812144682,-0.0734623713606888,0.4410009003325549,-2.39314798591052,8.338127790836833,-1.1584379181600033,-0.7732411058658982,0.32930718598031083,1.8653037446660459,2,left
4.063,1.0383511485983932,-0.07438103287861464,0.44189538896218994,-2.5389914381596386,8.554207823819292,-1.1523968093249397,-0.7350522699993094,-0.2541026155944507,0.5983907210815078,2,left
4.064,1.0447025955655085,-0.07948157259759245,0.44510066299103457,-2.180438240493396,8.021894549064285,-1.1670641532147037,-0.7259977129615769,-0.3931141813090957,0.296605023474352,2,left
4.0680000000000005,1.0557030912906296,-0.08611364331944377,0.4527110794730102,-2.7749549034456824,8.90478839045397,-1.1427866415070282,-0.7328634931898705,-0.2877216353694496,0.5254063346746516,2,left
4.069,1.061344603068705,-0.08590100972812563,0.4589630417124607,-1.9907946851982012,7.740263906488134,-1.174813649049519,-0.7286975803558853,-0.3512722591345847,0.3873890592160877,2,left
4.073,1.0643125166836134,-0.08615307154583572,0.4607851949297072,1.300602649689395,2.853667164223426,-1.3094723153738994,-0.7304601466937427,-0.3254549918920743,0.44360248665313096,2,left
