time,gFx,gFy,gFz,ax,ay,az,wx,wy,wz,subject_number,foot
16.33,0.7840683747168421,1.3987363097042183,0.35813641750627667,-1.1470793527702348,-0.8193859595024755,-0.498659529849913,-0.6407489433277214,0.5473183927234918,1.8999977186687402,2,left
16.333,0.8112407162636861,1.322949348705516,0.3767044835949226,-1.1464526156715111,-0.8078960955868049,-0.4953738101558128,-0.6404254379093891,0.5464827303736919,1.898638551299875,2,left
16.334,0.8394723382783793,1.2412977129604905,0.39597337559955414,-1.1465117968410283,-0.8061680460738043,-0.4967894666277542,-0.6407443245459907,0.5476467766836726,1.9001222136906573,2,left
16.338,0.8698016011843068,1.1527487035131116,0.41574569618342827,-1.1467824855624265,-0.8146339460058033,-0.49683252732449545,-0.6405055889260111,0.546249725258068,1.8987891902495901,2,left
16.339000000000002,0.9031207604569935,1.063043775643857,0.43544592366694057,-1.146456647883641,-0.8074003192970428,-0.49562533183301977,-0.6406472821784615,0.5477811350704505,1.8998773220621872,2,left
16.342,0.937686708948556,0.971920296432413,0.4514252393040075,-1.1466117182492408,-0.8063091847649633,-0.4979599777943653,-0.6405907552935265,0.5463921883827543,1.8991142862829438,2,left
16.342,0.9750484730700909,0.8808735893665943,0.45878715193980135,-1.1467515803001644,-0.8198188945748862,-0.4944448308883013,-0.6405750653717517,0.5470701729867722,1.8993520008277096,2,left
16.346,1.0165835041242244,0.7931031285624552,0.46105907765140147,-1.1463269657863315,-0.7948441617621467,-0.49889236903150974,-0.6406634998889897,0.5479172212906267,1.8999855486044654,2,left
16.347,1.0580420040985903,0.7035131881150211,0.4637781334809187,-1.1468744351936726,-0.8235914504047332,-0.4945018397388091,-0.6404916960560896,0.5447644369850559,1.898117604808109,2,left
16.352,1.0985161273679918,0.6190220149363497,0.4625957182003695,-1.146510153521521,-0.8058966499648227,-0.4968600800083529,-0.6407474441217218,0.5504494916995621,1.9013173515974724,2,left
16.352999999999998,1.1348178123403252,0.5382903724909379,0.45629681347667345,-1.14629654386661,-0.7929280073067237,-0.4992684174495685,-0.6404471561773735,0.5432218153136377,1.8973271355483896,2,left
16.357,1.1655924801775088,0.46008871597865947,0.4478723030967884,-1.1474432582364367,-0.8545076742615765,-0.48952107694743224,-0.6406854508777484,0.5492242115313161,1.9006057078938248,2,left
16.358,1.1905701054469504,0.388077414895734,0.43677562202814785,-1.1452554919116449,-0.738901026495227,-0.5073669062570935,-0.6406905104922451,0.5490906536569153,1.900566650146502,2,left
16.361,1.2018491038349104,0.3183645746742896,0.4260793326632667,-1.1480908447922256,-0.8879707901089146,-0.4845536221261342,-0.640214166192757,0.5375904658548734,1.8942196329669405,2,left
16.362000000000002,1.2040321876908684,0.2613164479864305,0.4221301399357354,-1.1457143316285985,-0.763250745335843,-0.5035572089227037,-0.6413639678553588,0.5658039977626292,1.909728856987893,2,left
16.367,1.2020199469994912,0.19791238473793327,0.4206396236197597,-1.1457833766392973,-0.766863298752136,-0.5030765734628956,-0.6394684414141267,0.5190514634776959,1.884061889276289,2,left
16.367,1.1975013843135445,0.15234036378479257,0.41718726882191104,-1.150308769192816,-1.0042376031516393,-0.4667801399590169,-0.6419619609599441,0.5807021039226847,1.9178859123737193,2,left
16.372,1.1963118523184426,0.14648228375297323,0.4171625487900913,-1.1391795330167929,-0.42037385036895114,-0.5559334997514003,-0.6524402663958933,0.8395025488891572,2.0599252728294077,2,left
16.373,1.1906320336804717,0.09777493483837739,0.4168855720520478,-1.157630502829225,-1.3886558011191261,-0.4081374435952184,-0.6549253798578977,0.9011354406849679,2.0937073994584767,2,left
16.373,1.1848122246665924,0.046147040638964035,0.41418309218932775,-1.1333029388672795,-0.11138565103821707,-0.603074428288121,-0.6530445270713662,0.8544146053794253,2.068112363850937,2,left
16.375999999999998,1.184192924741474,0.0383487078306477,0.4136837625703219,-1.0311856098955305,5.249960410600519,-1.4213178490713287,-0.6541780274514981,0.8825911792133609,2.083544599976962,2,left
16.377,1.175702694809606,-0.005506306796089986,0.41511813441455436,-1.0069012670491309,6.5273324918896165,-1.6162831635354564,-0.6537122525816293,0.8711185431488386,2.0772414816077593,2,left
16.377,1.1625561214560989,-0.060262031879975336,0.4215502217886955,-1.0252767752701264,5.558847275350046,-1.4684407514629165,-0.6537217860596529,0.870986664233488,2.0772377476980655,2,left
16.381,1.1489180564966892,-0.09693657454970969,0.430008327365011,-1.0142314068005924,6.1429984320133695,-1.5576380808115138,-0.6539318772108671,0.8769378480411886,2.0803617707811712,2,left
16.382,1.1298028500659596,-0.13825798372903617,0.4360098055832544,-1.0187023484846052,5.905310963246075,-1.5213286399396153,-0.6536868906201885,0.8698221304106903,2.076655238120376,2,left
16.386,1.1104140696326388,-0.1673347147365553,0.43925551276228036,-1.0187485450155322,5.901918622193776,-1.520799375159064,-0.6538682369739781,0.875345673581443,2.079491573330638,2,left
16.387,1.093523178108153,-0.18965126728120418,0.4386948891860807,-1.0165168887703393,6.026686083058702,-1.5399340324115651,-0.653765402240926,0.872357595674884,2.077935370498154,2,left
16.391,1.076694200065963,-0.20838288914306766,0.43967170116324483,-1.0190679623966195,5.8771154903742655,-1.5169135904527526,-0.6538320172136182,0.8731228363792674,2.0785201013051324,2,left
16.391,1.0647164188010527,-0.21600730236457966,0.43936338890211846,-1.01726291565009,5.9937805721244555,-1.5349911438835389,-0.6537401825757462,0.8736870069207976,2.0782995554684986,2,left
16.397000000000002,1.0609539146502027,-0.2179199628021912,0.4360745817015119,-1.018054461050986,5.930690042324716,-1.5250936631218268,-0.6538979009296831,0.8727083285181383,2.078674917825583,2,left
16.398,1.060913900080564,-0.21402817829744303,0.4341963330105021,-1.0179540844471755,5.945186428361783,-1.5274214350423216,-0.6536883080611451,0.8735083444350953,2.0779949221669107,2,left
16.401,1.0648357456277227,-0.20162482447460622,0.4310137745475141,-1.0179797600028726,5.962144615108432,-1.5302386305355402,-0.6538619643478842,0.8730356747967067,2.0786273023504167,2,left
16.402,1.0728435544789805,-0.18147476534544932,0.42793352792845674,-1.017427637068054,5.93228785230847,-1.5249451879786946,-0.653879388323263,0.8734210791771224,2.0788468205838218,2,left
16.406,1.0804234365391845,-0.1558798909415436,0.4227725093376744,-1.0188068519041429,5.961155666308243,-1.53061938961892,-0.6534914035314913,0.872677168655725,2.0767840880258808,2,left
16.407,1.08615716488395,-0.12384952500112704,0.41564666251287175,-1.0168294218601392,5.940753482254694,-1.525949610875048,-0.6543693165684831,0.8741672450663561,2.0813824673826637,2,left
16.412,1.0890486275903204,-0.08726071076118688,0.4092960817549641,-1.018529209912797,5.950514456386493,-1.5286795748189146,-0.6530578563536749,0.8718954487016948,2.0744959864441848,2,left
16.412,1.0942101762582852,-0.0477855721140699,0.3964762668523273,-1.018546418488079,5.950492985330875,-1.5286873322275039,-0.6544582810420815,0.8743820799865452,2.08187238738062,2,left
16.416,1.1030994312481226,-0.009920805424496382,0.37800140757315076,-1.0151945298561627,5.942799841381375,-1.5252121122711975,-0.6536495340121198,0.8729457935338887,2.077611039326589,2,left
16.417,1.1066399632401098,0.022527316223057852,0.36183509402431335,-1.0229380455707386,5.955984626718497,-1.5324829769817723,-0.6529453564241352,0.8715647562360447,2.073857828540855,2,left
16.42,1.1085048788851646,0.052950850358447106,0.3514366318183274,-1.0113173294189601,5.939936215542027,-1.5221888151720133,-0.6560170959806753,0.877424331114351,2.0901794240843956,2,left
16.421,1.1115377034331728,0.07907583944234606,0.3435696254416251,-1.0237454348673198,5.954927589925324,-1.5328395421924674,-0.6503219665154816,0.8665663647200185,2.059916889314067,2,left
16.425,1.1102072775282363,0.10395017460055475,0.33947181496497403,-1.0165516909914496,5.9469418916359515,-1.5267888071837792,-0.657634214860284,0.8805210123874192,2.098781071960947,2,left
16.426,1.108617062494221,0.12942441482008743,0.3426652495923312,-1.0103449599759589,5.940340131228119,-1.5216158913705036,-0.6515309109534435,0.8688646856806503,2.066333652179468,2,left
16.43,1.1053830145813097,0.1554851424621668,0.3456642564670704,-1.037523564406809,5.968419787736062,-1.5441307836979696,-0.651691921486416,0.8691671050946415,2.067200608281073,2,left
16.432000000000002,1.1007918532502499,0.18465538318962976,0.3501395183946795,-0.9871060290479713,5.917123509557068,-1.5024954320946273,-0.6633408609171524,0.8914529326812134,2.129113810540226,2,left
16.436,1.0978149195180347,0.21292791510530876,0.3600306109866768,-1.0518545589200865,5.9824515017154605,-1.5558750792834921,-0.6347168915891139,0.8366844403092424,1.9769510884972086,2,left
16.437,1.0892187268327413,0.24398320134906837,0.3694530445299127,-0.9977952868287332,5.928149999290268,-1.5113470119623114,-0.6821712941634761,0.9274972968082525,2.229239817644276,2,left
16.44,1.0807143159457042,0.26455488441804337,0.37513390276892344,-0.999256501935974,5.929644285370491,-1.5125571525645465,-0.619584551859117,0.8077088369212289,1.8964748870118484,2,left
16.44,1.077899258482003,0.26985726035213,0.3762302850595347,-1.1023498496451263,6.032712764652724,-1.597387438703509,-0.3568126552448091,0.304894302874047,0.4996236381611999,2,left
16.441,1.0713550759391937,0.2880318222197804,0.3766913188289447,-0.8489583782846407,5.7795227050674365,-1.3889051039210478,-0.29423485922821757,0.18509512892964697,0.16686310049366274,2,left
16.445,1.0585754131697134,0.3122729474113615,0.3775891001879691,-1.269096063510903,6.199186353310939,-1.7345561060242989,-0.341679697258111,0.2759223766948354,0.41914861471568776,2,left
16.445999999999998,1.0492746367284285,0.32129333282436456,0.37824284228801064,-0.7149307871002506,5.645730643363509,-1.2786617400192366,-0.31305164013103765,0.22114837771011067,0.2669786374561797,2,left
16.445999999999998,1.0460970180656903,0.3249675608053787,0.3772692430212401,1.6113221050681967,3.3220034006817967,0.6348670129106668,-0.3247335246384041,0.2434161953060319,0.3289188361164216,2,left
16.45,1.0373682412521303,0.33387036360273215,0.3706710231242474,2.1655241016716404,2.768390023335526,1.0907408764322342,-0.3248242095267098,0.24377102178598875,0.3297352089055774,2,left
16.45,1.0233210233952184,0.34257153206276825,0.3642805605944398,1.7453073064522244,3.18843969301594,0.7451279507425443,-0.3188212900895803,0.23202862023215542,0.29735430826212195,2,left
16.454,1.0101449131895688,0.34883688816036806,0.3573639400722747,1.9988231569574384,2.934551431544378,0.9535624250322807,-0.3260341363702054,0.24608263850240109,0.33615975552867733,2,left
16.456,0.9954617511634034,0.35503111899296813,0.34572563482144236,1.8955740220303294,3.0386272366672316,0.8687746197079329,-0.32038085724894816,0.2351564316708168,0.3059086289253572,2,left
16.459,0.9803862453866367,0.3569603913975974,0.3367662957319155,1.8942558903989006,3.039005080292615,0.8675506133144087,-0.32354035059857966,0.24098912299170577,0.32231277245065226,2,left
16.459,0.9623135018357963,0.36000248867248996,0.33049505070879037,1.9482638128699845,2.985462978251826,0.9120364828730237,-0.3225576158107093,0.23979522843939124,0.3183488911562913,2,left
16.464000000000002,0.936432473013524,0.3669706785677189,0.32463742826401176,1.8833743108783354,3.051085595045442,0.8587764006933665,-0.32222649468355513,0.237979417478795,0.3144191825245708,2,left
16.465999999999998,0.907372880462793,0.36927500462787455,0.3216773075150159,1.9342093892675933,2.9977110293832894,0.9002161585518731,-0.3230432368308668,0.24099241084226541,0.32142186773061965,2,left
16.468,0.8780696768014533,0.369547570053265,0.32114417032195214,1.9063299122267408,3.0300332723482204,0.8779304242568542,-0.3221934064432158,0.23821048513852427,0.314783615809879,2,left
16.469,0.846967334217369,0.3697044716398802,0.32218973747076673,1.9133802347620152,3.0175000590020113,0.8829360005162151,-0.3230839721019726,0.23990427287708155,0.3194986263875703,2,left
16.475,0.816051622241137,0.3654315836343917,0.32405236067773546,1.919923378757713,3.0153417515813508,0.8889510335080903,-0.3218197394094518,0.23962935875611785,0.3167128093767212,2,left
16.476,0.7843680929878557,0.3587616806451406,0.32857955617704515,1.907440705920821,3.027849543569098,0.878688181100031,-0.3238241869159887,0.2385650484067288,0.31837719218940946,2,left
16.477999999999998,0.7537699062450316,0.3505087701799815,0.3338682235823973,1.9203799139407067,3.0068011202016995,0.8881592107613404,-0.3210459551607461,0.24055824051692315,0.31702060848531255,2,left
16.479,0.7265161790796428,0.337168251832502,0.3365719090744534,1.9097117020063594,3.0360225668441485,0.8820638781645216,-0.32396790485613225,0.23835787502367736,0.3182566716073846,2,left
16.484,0.6990399492502197,0.32109279018385384,0.3391919273418473,1.917356050751264,3.000690731833413,0.8843532748309497,-0.3223423088158339,0.239748618629904,0.31787427737041407,2,left
16.484,0.6720402390692222,0.3055070549726472,0.3388863365257756,1.9128495915241623,3.0347165280430795,0.8849096072354707,-0.32063116233509326,0.24035645121386054,0.3159022329717435,2,left
16.488,0.6456093627518641,0.2862637260816989,0.3340327282087231,1.9135950097288081,3.0169134314182493,0.8830583964831724,-0.3276121762540376,0.23672864568409333,0.32184352921988146,2,left
16.489,0.6148115668654164,0.2625402230923988,0.3282995706146946,1.918149341768634,2.997656971478415,0.8846838038091953,-0.3147580967894976,0.2436313309472612,0.31131168155237865,2,left
16.493,0.5787350104000393,0.23774001081164578,0.321791124314912,1.9064748788969395,3.0736792749813966,0.8843698633465227,-0.33124180973511064,0.23472837945164082,0.3247246697781837,2,left
16.494,0.5455650373194559,0.21264212826938428,0.3177048628678147,1.9257191660157105,2.9351006008033433,0.8829698848507619,-0.31749026205936437,0.24217748414513296,0.3135733206008861,2,left
16.498,0.5103993839688332,0.18485901792992127,0.32030145386215214,1.9020739233862614,3.1119762454146938,0.8856468197086652,-0.31782701648832024,0.24191359708254995,0.31370057044132915,2,left
16.499000000000002,0.47570818887147664,0.1580324528666045,0.3258112711115351,1.9213631566242455,2.964764983581243,0.883036640068657,-0.3441614994225481,0.2279126449838093,0.33553168469135386,2,left
16.503,0.44492382345810677,0.13455283402776907,0.33434100169144976,1.9212222796774252,2.968362142947682,0.8834310305154498,-0.27947944497555605,0.26239986246620184,0.2820839453911008,2,left
16.503,0.4040352429734262,0.109204722109221,0.3459179216177818,1.8837432849464122,3.2497776075270552,0.8878093172266021,-0.3867099539957394,0.20519779088316342,0.3706427905409371,2,left
16.508,0.3806425644597886,0.09428908806200743,0.35030258068461306,1.9751819461498246,2.558785444514349,0.8764680160734283,-0.24527988377234258,0.2806507320764101,0.25384686007265156,2,left
16.508,0.3695983412809769,0.08808826340287859,0.3528554288256588,1.8238893704847563,3.70415541743999,0.8955486784684119,0.3484815525336965,0.5972504241203718,-0.2367448071035009,2,left
16.508,0.34536279095115563,0.0776337742403779,0.35863703306171013,2.0232999941338776,2.1935715979347723,0.870247619325915,0.4899062614571723,0.6726996511666758,-0.3535473321251361,2,left
16.512,0.3336868812213043,0.07250787015094212,0.3615746114301204,2.8600092806891366,-4.146885582634972,0.7639682657459794,0.3826815552462201,0.6155015977433601,-0.26498135429029446,2,left
16.512999999999998,0.3150983614549624,0.0663783754828589,0.3697435128382301,3.0593664220101013,-5.657400820852662,0.738596692916099,0.4473658079224396,0.6499903446509354,-0.3184263722165139,2,left
16.512999999999998,0.2838679945213484,0.0582432674016775,0.37995460174036855,2.9082373591941657,-4.51221055749264,0.7578405461573285,0.4210121002529265,0.635976060714817,-0.29661894099928665,2,left
16.518,0.26395388744716597,0.0564618236439385,0.38777851647268713,2.9993238177586172,-5.202857224642224,0.7462204595794353,0.42071672114394415,0.6357408572846238,-0.2964407448346065,2,left
16.518,0.24311493479621366,0.056272378720951,0.40124714653468685,2.962424354711022,-4.921966085729393,0.7509802456703465,0.4344089362994802,0.6431488366696523,-0.30766513212751295,2,left
16.523,0.22562224016590365,0.06256965336490417,0.41506347589148623,2.961551925059326,-4.917755476427068,0.7509777128092159,0.4179843170381118,0.6342868358993179,-0.2941794238942014,2,left
16.523,0.21238240776702783,0.07418749645629674,0.42673623445214304,2.9814774477498016,-5.0654342366683816,0.7485972553161775,0.4308128784736128,0.6411718544675329,-0.3047426290025137,2,left
16.529,0.1988795815549907,0.08603832333156933,0.439423014043453,2.9577139546100537,-4.888607742264939,0.7514693376214259,0.42378116666014476,0.6375088776523055,-0.29886382412627277,2,left
16.529,0.1908471116940819,0.09867338769191991,0.45270177818304524,2.97605230803148,-5.026209515010159,0.7491980257534001,0.42565570503082834,0.6382299955546544,-0.3006346455433071,2,left
16.533,0.18525754342183384,0.11107426690723063,0.4655202265213745,2.966684349819398,-4.952347058015153,0.7505301692255635,0.42699972468022934,0.6394255501617369,-0.3013637104944329,2,left
16.533,0.18581253583835744,0.12329596293352804,0.4741142488487499,2.96760241991363,-4.968434677013148,0.7499734779838164,0.4244233879059266,0.63746472375767,-0.2997022431811849,2,left
16.537,0.19207797865216006,0.1345676379917648,0.47966090653712207,2.9724591870585817,-4.989546578787394,0.7501103053182581,0.426926008593174,0.6392669538516071,-0.3013979083803634,2,left
16.537,0.1990389102782249,0.14465497594818075,0.4820990299505714,2.965195551845988,-4.9537455098108865,0.7501091722306616,0.4249192700430756,0.6382009184381918,-0.2997367113474766,2,left
16.543,0.21163836994267654,0.15394215607325407,0.47887596077003,2.9716173779316932,-4.987076513957009,0.7500293799599358,0.42669458545948125,0.6382804327667819,-0.30189290655296575,2,left
16.544,0.2287101298952712,0.16180922560399477,0.474116048345354,2.9688167372032215,-4.965705310676867,0.7503932510919267,0.4246357261014092,0.6391642758995896,-0.2986164934356271,2,left
16.548,0.246606202022266,0.16675022022189762,0.4698432652403457,2.9659428184338914,-4.972408789522301,0.7493879433131259,0.4272287015534362,0.6375906220304445,-0.30310883072932004,2,left
16.548,0.26918686527320523,0.1719972217310377,0.4642235906266828,2.975324632547508,-4.978429031920102,0.7513263294431496,0.4245534295954876,0.6393156104966532,-0.2983934480142125,2,left
16.552,0.29266660425908264,0.17863429909426104,0.456602007983993,2.960655025664943,-4.964336976420866,0.7485205290574889,0.42595890281180565,0.6382439282766579,-0.3010020726156771,2,left
16.553,0.31438042302708635,0.18449198038488418,0.44716694638930754,2.9764181428698837,-4.980311330004416,0.7514956800893517,0.42786621706476546,0.6376917548123793,-0.3038254936880948,2,left
16.557000000000002,0.33878565992429854,0.18964615489291103,0.43817699821360745,2.9671127197246863,-4.969577831302223,0.7498016949691357,0.42065708904169374,0.6407165201390862,-0.2924090806754514,2,left
16.557000000000002,0.36477529845881274,0.19087551788511253,0.4276552928964522,2.960071023131531,-4.967772346966626,0.7482169067690867,0.43382179305946533,0.6349974139237602,-0.31341183977696085,2,left
16.562,0.3930519972237434,0.19058394508554868,0.4130711646617994,2.992491465336159,-4.9878642280931125,0.7549491938985133,0.4169625988218957,0.6423654804631851,-0.2864803523061551,2,left
16.563,0.42203901671770494,0.1915410539081708,0.39766693237523204,2.9320793483628984,-4.948402937761337,0.742500464241884,0.4310206598356948,0.6362045302392032,-0.3089502844584142,2,left
16.567,0.4504537706135816,0.19070455733736155,0.3762422466179557,3.0097146122003204,-4.999567671240345,0.7584775746605561,0.43070763780189786,0.6364090005856782,-0.3083975998124304,2,left
16.567999999999998,0.4777257851937043,0.18929539184314725,0.35219769427189834,2.9448771205413102,-4.956651563264988,0.7451415388560494,0.4036764176926283,0.6480324239015101,-0.265366425889341,2,left
16.572,0.5024386611411801,0.18886328754529744,0.32743332115773227,2.946727323223569,-4.958582931554464,0.7454916437106558,0.47004024338441597,0.6194195583152095,-0.3710698386899343,2,left
16.573,0.5280418646294542,0.18900519819030803,0.2927039976756661,3.070041167379265,-5.037892881964198,0.770958351684712,0.3600204947563579,0.66687165224379,-0.19582031390319768,2,left
16.576,0.5424297847843498,0.189418132398898,0.27167904537781357,2.766844272300971,-4.8420486544938495,0.7083750762893077,0.5051425223488245,0.6042827404396145,-0.42697944923543485,2,left
16.577,0.5470299368581678,0.1901460813063116,0.2631937182641128,3.2695783522929487,-5.167006189908636,0.8121409769091233,1.1143487289498117,0.34161505569697365,-1.397312903192348,2,left
16.578,0.5559126406465064,0.19072003832685386,0.24801974453333472,2.6064857915266315,-4.738362352835427,0.6752696413230264,1.2595011495982413,0.2790334877380692,-1.6284986592800168,2,left
16.581,0.5607535059578941,0.19117502111675153,0.23948886561925756,-0.17670122909848873,-2.9402160780671127,0.10073532735893673,1.1494383113997715,0.3264764583693991,-1.453211174366334,2,left
16.582,0.5660366471622493,0.19436273414671437,0.22222162145333035,-0.8397375134031704,-2.5116362838642594,-0.03615457956026711,1.2158257813639883,0.29786474240649474,-1.5589360714634997,2,left
16.583,0.5747968890270221,0.19998255481797267,0.19528122673067194,-0.3370941327292802,-2.836547929359346,0.0676430536306919,1.1888291100339035,0.3095059218159425,-1.5159335611405775,2,left
16.586,0.5783044626416656,0.20517576421748046,0.1777292416299082,-0.6402085910607532,-2.6405944644848143,0.005026192543551661,1.1883919619413845,0.30966644225979556,-1.5152745259713443,2,left
16.587,0.5813204305534208,0.21156836936376855,0.16266793606218455,-0.5169104690992209,-2.7203051297712477,0.030511244715446396,1.202667858293985,0.30357310728323905,-1.537932713426574,2,left
16.590999999999998,0.5821361081814196,0.22037700109673009,0.15264770467202388,-0.5151718723241283,-2.7214884657202623,0.030878662357403757,1.185541949246053,0.31086809699778595,-1.5107690801613887,2,left
16.590999999999998,0.5794925445124004,0.22890906092363114,0.1460151763185153,-0.5797329020041149,-2.6795534851954312,0.017472340558066526,1.1989142108075086,0.3051911930660505,-1.531954984851784,2,left
16.595,0.5784082936004804,0.23844209405701433,0.13940604155201072,-0.5025183945133231,-2.729855395406263,0.03357623305719276,1.1917210193171925,0.30825412066124147,-1.5205467057804203,2,left
16.596,0.5735833984119876,0.25019480703487473,0.1360130905680088,-0.562478831328217,-2.690554361774271,0.020967330392914714,1.193210422608456,0.3075367158152086,-1.5230149929856522,2,left
16.602,0.5647932882954109,0.2629795101010082,0.1302471009334904,-0.5303195700032077,-2.711875772568723,0.027833789993184324,1.1955440467124236,0.3067737442767724,-1.5264222343681833,2,left
16.602,0.5556786371655213,0.27930260352727965,0.11965046356063734,-0.5375907317700657,-2.706950144021876,0.02623487369094335,1.191508792059353,0.3080943760689948,-1.520528524443523,2,left
16.608,0.5443354566209281,0.2968155714501201,0.10318347247543586,-0.5458930232547261,-2.701115735240272,0.02432794332694234,1.195515925649433,0.30688116453032943,-1.5262563171384729,2,left
16.609,0.5376766258246415,0.31330952192249817,0.07865139789919717,-0.5320061524953377,-2.711584082772745,0.027816322098342002,1.1927103742554224,0.30768060283412135,-1.522309589874596,2,left
16.61,0.5349913999803304,0.33055227644406565,0.04684705725125933,-0.5442166118931135,-2.701125537165841,0.024225239591614055,1.1936029389837366,0.30729219375968453,-1.523735822778292,2,left
16.611,0.5299921481083162,0.3468078458015761,0.009817675119678517,-0.537029578526804,-2.708918136621596,0.02702210599835286,1.1949913880450025,0.3074545078253339,-1.5249791568606512,2,left
16.616,0.5308678226065864,0.36386671155373607,-0.030341216745359223,-0.5393834149970103,-2.7048884421487505,0.025489247478440814,1.191323772117391,0.30729671187574853,-1.5213500522358723,2,left
16.617,0.536390367495194,0.37968071502020384,-0.07117945862286551,-0.5393488303392309,-2.704887675583471,0.025487717378051295,1.1966803017465986,0.3075817052894857,-1.526580997272986,2,left
16.62,0.5406649869814263,0.391113173221705,-0.10795429820232225,-0.5403869748212657,-2.708873027221138,0.027214255259404355,1.1911225959584846,0.3072121416267682,-1.5212475485689896,2,left
16.621,0.5480027769437352,0.4038435552681521,-0.13666271314652512,-0.5357315529322432,-2.701241638303358,0.02373886059381001,1.1943354086439049,0.30742499752508395,-1.5243317237492624,2,left
16.625,0.5550009700282652,0.41469429494103216,-0.15395125828143497,-0.5445568471810422,-2.7114111516490853,0.028536188509085344,1.1967670472003809,0.30775417947289824,-1.5264521628851777,2,left
16.625,0.5581282009693886,0.4181270360183201,-0.16094890044998103,-0.5340493486251474,-2.701280342122577,0.023648112051812102,1.1856878086033773,0.30650207488731135,-1.5164756451310262,2,left
16.631,0.5604748902020763,0.41981197714477464,-0.16304624885885866,-0.5404732735090432,-2.706907133534338,0.02640140829437704,1.206255937970211,0.30881478712550725,-1.535011579043878,2,left
16.632,0.5562601267882468,0.422891484712844,-0.15369909124658443,-0.5461520052638753,-2.7116626552967498,0.02874005032646848,1.179873701503812,0.30583301200657353,-1.5112555185299275,2,left
16.636,0.5475936214926591,0.4222512074594965,-0.13567832153775172,-0.5208663581799561,-2.691122169319783,0.018582602954057996,1.2018858233214975,0.3083279155562234,-1.5310673889572706,2,left
16.637,0.5388806466039657,0.41548572048778354,-0.11177901868384496,-0.5681668860355165,-2.7289543458322263,0.03734033845193233,1.2012552123507674,0.308275593570158,-1.5304758431550687,2,left
16.64,0.5245078270967656,0.4098469757734328,-0.07643190784478465,-0.5071468854068477,-2.680555915527637,0.013308208584932885,1.1594323663957906,0.30345318537941823,-1.4929367712986803,2,left
16.641,0.5099307675796031,0.40701091848108645,-0.041584403749891044,-0.558218216421877,-2.7208833720323833,0.03335202775889036,1.2622533874466653,0.3152947642607704,-1.5852438618445153,2,left
16.645,0.4879924038187802,0.4032045196476802,0.006662511075291822,-0.5568368983425243,-2.71977885578858,0.032792588410458734,1.0917747539034475,0.29565945571720986,-1.4321994732462486,2,left
16.645,0.4700604708944986,0.4011990153013608,0.04495817959553075,-0.45923448046587,-2.6430540985769087,-0.0053415023418090166,1.3166264523619404,0.3215625238957917,-1.6340513119432103,2,left
16.646,0.4675825157950587,0.40172536352196775,0.05025080856503701,-0.6992291274756974,-2.8315946234160223,0.08840063632944105,2.260376071025248,0.4303353799725474,-2.481250936289624,2,left
16.65,0.44212355690169347,0.40465233148433033,0.09037116026866397,-0.30120836158111963,-2.5190306124374633,-0.06703340042200029,2.4852195223742046,0.45624629640032444,-2.68309717759801,2,left
16.65,0.41632236270550105,0.40714141357725686,0.13411792708354128,-0.8262773854295385,-2.9312673740260236,0.13799230482750793,2.314750439958954,0.4365975255846027,-2.530051597641866,2,left
16.651,0.4109652974577763,0.4079432364738186,0.13887206670108215,-3.0301950492815077,-4.661440155063078,0.998299796527208,2.4175726292822306,0.4484534822979034,-2.622386662009964,2,left
16.655,0.3815080208293638,0.41339568589828657,0.1679367484026929,-3.5553610651961263,-5.073647274700024,1.2033491336462676,2.3757247729558695,0.4436229413016217,-2.5847745788458516,2,left
16.656,0.3413359705650505,0.4218875581983655,0.2073559166233907,-3.157197716391784,-4.761139664950051,1.047897298531621,2.375151040594086,0.4435638679700893,-2.5843047724340815,2,left
16.66,0.3083907764744864,0.431541398189775,0.2325191808933204,-3.3972857869168314,-4.949606207944188,1.1416021921709965,2.397079154076587,0.44608786659914523,-2.6039703943274572,2,left
16.660999999999998,0.26993951930619886,0.44397054048150686,0.26093519877176774,-3.2997565797059245,-4.872952735545999,1.1036096495303465,2.3707836433006455,0.44305286744191463,-2.580324623303567,2,left
16.664,0.23214715154462545,0.4570555788468339,0.28493993063269574,-3.2980340980644067,-4.871813535350896,1.1027835557558952,2.391308643391735,0.44543357928957406,-2.5988785872725373,2,left
16.666,0.1983719209360541,0.4720666113661087,0.3048356846125033,-3.3497416208545823,-4.912095689102474,1.1231793552988263,2.3801680985648597,0.4441234078658912,-2.5886561895167652,2,left
16.669,0.16901068094932906,0.48729796111354645,0.3219758649989734,-3.2879044344805735,-4.863861084562787,1.0988346368357362,2.3828198394410722,0.44446111651559794,-2.591308528828513,2,left
16.67,0.14364335572151843,0.500617921410198,0.3353160233138157,-3.3358986613351442,-4.901402108741189,1.1176568446785473,2.3856406116487983,0.444760627873579,-2.5936240098472974,2,left
16.674,0.12360657221880038,0.5143953004506183,0.34202764037880756,-3.310528716372973,-4.881228980573668,1.107930058931105,2.3805775369055895,0.44417708633370845,-2.589076778404234,2,left
16.675,0.11209245718833707,0.5255795003652544,0.34086970130874783,-3.315126881796715,-4.8856750625992635,1.1091605022762037,2.3855197299388884,0.4447934718862841,-2.593916125134811,2,left
16.68,0.10482958601784538,0.5346325817434723,0.33615540717874115,-3.3241800851802603,-4.891339020666091,1.1136648728785543,2.381894107252029,0.44426843561925,-2.5897412165623623,2,left
16.680999999999997,0.10064122833931086,0.5467737500728315,0.3199123462130275,-3.3096311611328284,-4.881689132084954,1.1067959348082197,2.3839473110036504,0.4446650959719618,-2.592957043176237,2,left
16.686,0.10167814768341252,0.557925768923714,0.2942615027705835,-3.322894862166731,-4.89068903460775,1.1129214333636852,2.3832365250251577,0.4444124259460528,-2.5908557874077394,2,left
16.687,0.10353942308989918,0.566735952187529,0.26707882366289964,-3.3154799443904,-4.8848563547227,1.110035611085756,2.382892890690213,0.44447178301409007,-2.5913925205514996,2,left
16.689,0.10478439083745636,0.5780516675120524,0.23156169761743506,-3.3147007182552217,-4.886863260839175,1.1079724770613817,2.384184907711913,0.44470501178873245,-2.5932816679053152,2,left
16.69,0.10914236423729404,0.588833426483337,0.19168406232778856,-3.323900311446521,-4.888099932206961,1.1155828889840134,2.3818830104825586,0.44406864202164953,-2.5880249369170008,2,left
16.695,0.11843138647039496,0.597571424535351,0.15620465979901063,-3.308399356101456,-4.884860530834388,1.1035361577654994,2.3851747236778342,0.44513700384073174,-2.5968957946220943,2,left
16.695,0.13559885022033635,0.6064605379320058,0.121600404626502,-3.32525454396114,-4.8885734130602465,1.1165072543264878,2.3813812208351623,0.44381428620819807,-2.5858946557945757,2,left
16.698,0.15429241864462273,0.614269429979707,0.09132926769405397,-3.3149931192502726,-4.886017990032007,1.1088086565224629,2.3843637777394733,0.4448985031181333,-2.594912531833904,2,left
16.699,0.17568584388003186,0.6228155155872441,0.0642789258594301,-3.308735854343393,-4.885846897585265,1.103182536879273,2.3844411637406457,0.4448845783984505,-2.5948123456348675,2,left
16.703,0.20228519276566725,0.6309163675505571,0.03475694896244379,-3.3403572023625925,-4.889921215661812,1.1294586405467917,2.378462425768633,0.44279031094415344,-2.5773506012903233,2,left
16.704,0.2255320770435596,0.6371207493783639,0.014096408242125704,-3.2809505566194543,-4.881765272666955,1.0804309160487275,2.3928745266378453,0.4479108236326378,-2.6200115096227994,2,left
16.708,0.2578543013209945,0.6449465266829155,0.004086009113881572,-3.3574031034628793,-4.892372334480169,1.1434520587735257,2.3691124624628372,0.4394319118201042,-2.549400939016368,2,left
16.709,0.2819507725095537,0.6487496056262426,-0.0010274359108392419,-3.293507082193694,-4.883462974126152,1.0908110083866616,2.4003909520646847,0.45061255213005613,-2.6424758586804584,2,left
16.713,0.28835780929252824,0.6497168878229764,-0.0030996392220182787,-3.2955038382380923,-4.883911971107851,1.0923424322074142,2.5316156051616696,0.49748594856845246,-3.033131573132076,2,left
16.714000000000002,0.31242668126335066,0.6550793489966815,-0.008300674614258527,-3.4164636684998615,-4.9002177119375485,1.1923693398494906,2.562863420821694,0.5086702974609305,-3.1261739927359145,2,left
16.714000000000002,0.34001066187110607,0.6595187598040748,-0.012851735045502626,-3.118844869888467,-4.859895551142685,0.9463902589202207,2.5391774019264766,0.500192314260609,-3.0556370569192675,2,left
16.718,0.3631366343136071,0.6663622732524073,-0.016520272908112216,-3.612389244913515,-4.9268153576102325,1.354263539020216,2.553450320222789,0.5052937995127729,-3.0981750702846855,2,left
16.718,0.3827983444247769,0.67361913634042,-0.02129821520870584,-2.9614068688898225,-4.838539816113186,0.8162903920311726,2.5476744583435202,0.5032489226055353,-3.0808776188982963,2,left
16.719,0.38752082467227206,0.6753527643010764,-0.022727872490115913,-0.22947166420317522,-4.4681600709079765,-1.441317282899778,2.547524404530681,0.503152831769677,-3.0806116120905394,2,left
16.723,0.40487521323114134,0.6841012923753764,-0.02610363687563657,0.42143040883192784,-4.379876310610079,-1.9791802807215801,2.550665682342163,0.5043355609701649,-3.0897169899782115,2,left
16.723,0.4287831396270141,0.6991283075863279,-0.034747748988693365,-0.07197649814333286,-4.4468432846469685,-1.571532163648238,2.5469231914317834,0.5029388485142057,-3.0788163860303808,2,left
16.727999999999998,0.4420629047631983,0.7146230459102909,-0.04826664639899591,0.22549616926922042,-4.406388933264726,-1.8171811543924168,2.549804688429956,0.5039943819348462,-3.087295389512902,2,left
16.729,0.4561523528165942,0.7330487651502615,-0.06739124489469986,0.10461753000982581,-4.422944674704574,-1.717532893569597,2.548353466279429,0.5035246759891988,-3.08275526371924,2,left
16.733,0.46853118724586656,0.7533108319472529,-0.08546213700773393,0.10269285117685137,-4.423042481821499,-1.7157038063663823,2.548444172011761,0.5033984583661016,-3.083717474882505,2,left
16.734,0.47751780165898294,0.7782802555633386,-0.09888196616505672,0.16628796764407477,-4.414487172517616,-1.7683577078453305,2.549296607750679,0.503976412450887,-3.085066949994371,2,left
16.737000000000002,0.48394526362280055,0.8060447104140733,-0.11015269804676887,0.09038181861026505,-4.424928383444255,-1.7058407892106004,2.5480463040288535,0.5031943236677945,-3.082801604683268,2,left
16.738,0.4886869043443122,0.8343287006080672,-0.11607782224191199,0.14909450449308712,-4.416497306360079,-1.753690911165859,2.549141982805116,0.503853080741083,-3.0849026140746707,2,left
16.742,0.4906993649395152,0.8634722166680128,-0.11978513072083305,0.11805971344986273,-4.421512877730853,-1.7291938886115763,2.548703858504102,0.5036988477953213,-3.083586709575835,2,left
16.743,0.4875914436104424,0.8925162813598466,-0.1267555420206192,0.12424393745689197,-4.41968414114666,-1.7328949423584659,2.548087777467968,0.5029831840101393,-3.0839103826648144,2,left
16.747,0.4820126737438294,0.9238921518213993,-0.12607154583460028,0.1335998220221803,-4.419204505698273,-1.7417494891077028,2.54993681602408,0.504776248842103,-3.084485184143942,2,left
16.747,0.4750567767677542,0.952561211672935,-0.11872486555975785,0.11895170197790012,-4.421198969853053,-1.729655603555766,2.547072672523723,0.5020636739966127,-3.0833127321465703,2,left
16.752,0.4675925252248617,0.9757488938264066,-0.11373230712266039,0.13105522879690162,-4.41809029646159,-1.7375712872439433,2.55014570301204,0.5049622248864202,-3.0846214375913954,2,left
16.752,0.45748013272552,0.9962316185050383,-0.10225463703147084,0.1255976317012774,-4.422182425368019,-1.7378278987662372,2.548338803930088,0.5032765537558731,-3.083772292304178,2,left
16.756,0.44466692851017475,1.0117841813255413,-0.08275875073536404,0.12402387407529428,-4.417395868642689,-1.7294171288614182,2.5469358616440356,0.5018778273695249,-3.083500143306865,2,left
16.757,0.4308203681936047,1.0227767467331528,-0.06329707167367798,0.12998174794193898,-4.421917265089377,-1.7419195710403819,2.553329279067671,0.5080879709512884,-3.0854444578224482,2,left
16.762,0.41482512932738075,1.0280377932102858,-0.04481589951896517,0.12435277123696255,-4.419602666625009,-1.7328898795253265,2.5414265086527843,0.49655553749013503,-3.0817021424350233,2,left
16.762999999999998,0.39830300549687697,1.029019330092031,-0.025860426212940456,0.12410722187991118,-4.416978309232377,-1.7289094888342156,2.556721095940742,0.5113668149099113,-3.0865389232008003,2,left
16.766,0.3816092078396508,1.0311775854073197,-0.00801699361555995,0.13490598581062735,-4.427135943847813,-1.7543580546406505,2.543947333248588,0.49900096231136,-3.0824870874420185,2,left
16.767,0.3620124268450723,1.0301829134485851,0.011204340480705021,0.11204305113928609,-4.4086868710987845,-1.7048223679390344,2.544311099295367,0.4993394837394057,-3.082647493717632,2,left
16.772000000000002,0.3398705420873909,1.0244715722780775,0.033402839772223775,0.14266190541829127,-4.432201649010822,-1.7694683988396804,2.5686109492619487,0.5229044427201265,-3.0902102951927746,2,left
16.773,0.31798193129932306,1.016868839606857,0.053956160178646545,0.11655460905545154,-4.412649582312056,-1.7150523343313688,2.508861684805359,0.4649818236208351,-3.071558896834681,2,left
16.776,0.29621490798402283,1.0047240366021792,0.07588958610008338,0.11774497999909526,-4.413100859272158,-1.7169153163039288,2.6079371901789354,0.5610187840879187,-3.1025040412331757,2,left
16.777,0.2852485735557414,0.9966945536508641,0.090121001165322,0.16661977856228266,-4.450535232284274,-1.8199496974800802,2.477252532005928,0.43434987169793177,-3.061679699587045,2,left
16.782,0.2830605779461093,0.9959071236295959,0.09129723153169549,0.045619896511329416,-4.358669257635555,-1.5660029819926407,1.9287499357865006,-0.09735252403954593,-2.890423337195391,2,left
16.782,0.2644604708574453,0.9862169253327998,0.09745058466003967,0.24667064449157605,-4.51091037369461,-1.9873966902030826,1.7980561462610911,-0.2240119728972151,-2.8495873299284886,2,left
16.782,0.24666075650914165,0.9747215552422956,0.10435756915365678,-0.01873845014088099,-4.310154518055031,-1.4314100854156009,1.8971468998158028,-0.12798945738233203,-2.880553615116009,2,left
16.785999999999998,0.24538805799271132,0.9741722306021292,0.1048188814643522,-1.1325214892658355,-3.4672302397150014,0.9022845686742621,1.8373823769685371,-0.18590107282472496,-2.86187684137716,2,left
16.787,0.23343874508467552,0.9713901007174047,0.10493387812945987,-1.398087096064225,-3.2665271195874865,1.4583761340896653,1.8616886585845371,-0.16233286362385696,-2.8694599863046086,2,left
16.787,0.21454811180329803,0.9630329058136438,0.09975116485350696,-1.19674293308849,-3.4186943614544525,1.036766329674232,1.8620647764522777,-0.1620218540450334,-2.869618181693174,2,left
16.791,0.20001982284509168,0.9559327497974386,0.08929043666280395,-1.3181179034527513,-3.3268662557359647,1.291033039187894,1.8492523347893368,-0.17433183227413476,-2.8655362408940617,2,left
16.791,0.183736699747722,0.9510589158544849,0.07450952512667504,-1.2688987494413202,-3.3643670818271003,1.1876266060670841,1.864611631884718,-0.15959671524275332,-2.8704445658519093,2,left
16.796,0.17121353189215222,0.9509182704280623,0.0559871678664359,-1.2678440105558129,-3.3645933347339976,1.1860639432492022,1.852632297060799,-0.17105817769466825,-2.866594189875461,2,left
16.796,0.16027272582115132,0.956633075226717,0.03934368792616358,-1.294241426934145,-3.345429588493672,1.2404498625619547,1.8590822385168242,-0.16487045115121635,-2.868654942478617,2,left
16.801,0.1482331105021,0.9669726916630336,0.021219557684758923,-1.2627284072032134,-3.3684756418898107,1.1753336736496622,1.8576900410486439,-0.166348032652514,-2.8683137012910813,2,left
16.801,0.13882194103215778,0.9800923559844887,0.0025794691581987206,-1.2871010567706833,-3.3503811494128755,1.226000985541378,1.8557551784440114,-0.1678120856979437,-2.8674099222599834,2,left
16.805999999999997,0.13005178200381753,0.9968355230788635,-0.012215790820054171,-1.2744805029146464,-3.3605902837284907,1.1988161556383465,1.859101454065676,-0.16527655295644267,-2.8689700740909245,2,left
16.805999999999997,0.12351440488266016,1.0170748303991073,-0.028090126418562095,-1.2761391122730368,-3.357196139232494,1.2047076827801062,1.8558459256658888,-0.16756375354870762,-2.8673217705533833,2,left
16.811,0.11793295276241605,1.0362642034435907,-0.042419695598484124,-1.2818631907549822,-3.356550815494764,1.2125350194633455,1.8580908788047967,-0.16607980544374068,-2.868526130679369,2,left
16.812,0.11176071070052034,1.0553430078110577,-0.05139447692340997,-1.2731008972524576,-3.3586593000459217,1.1992871176736832,1.8572850161941976,-0.1668671523047096,-2.868279146558243,2,left
16.816,0.11001684548774494,1.0787085801139673,-0.058096706641129384,-1.2809278870510183,-3.3563409555375965,1.2116120905440897,1.8565558547815537,-0.16628976637882492,-2.8671172981225146,2,left
16.817999999999998,0.1097553632811546,1.1028804299637474,-0.06181944803947944,-1.2771883472410568,-3.35920094238808,1.2037440335968197,1.8586670494714181,-0.1671779093323706,-2.869910986078605,2,left
16.82,0.10719390782607634,1.1235025831771521,-0.06320981082670754,-1.2747166476276799,-3.3543902809672073,1.2061136496151055,1.8556213037509273,-0.165752463398678,-2.865775981309235,2,left
16.820999999999998,0.10574747690028813,1.1439031132783135,-0.058577078391002464,-1.2841166641218926,-3.362546531310749,1.208555395901066,1.858730515135627,-0.16740533546062428,-2.870140742718796,2,left
16.826,0.10462648687218137,1.161957492042065,-0.04507704746643451,-1.2691948919465244,-3.35105891838763,1.203030823351289,1.8569331361503976,-0.16645124070617134,-2.8676189006075514,2,left
16.827,0.10147505666069118,1.1751771922628842,-0.03002374201458206,-1.285269491155866,-3.3631777099394364,1.2092708653525954,1.8556863043417904,-0.1653352919454047,-2.8655383096462153,2,left
16.831,0.0970475747766675,1.187284040915878,-0.01036460294911885,-1.275716563083538,-3.3563763992365048,1.2051113582266346,1.8615331985470847,-0.16984051490138535,-2.874763292173734,2,left
16.832,0.0924192151342052,1.1968242680922012,0.016482283204811786,-1.2687932157653503,-3.349520354486479,1.204269022908857,1.8506720967863568,-0.16150317667518094,-2.857650902848256,2,left
16.835,0.08919741317298144,1.206190302241501,0.043279930507090954,-1.3012409339139572,-3.3778983583185163,1.2124466399053913,1.8645914327013697,-0.1722345544463778,-2.8796146402747227,2,left
16.836,0.08463755429003365,1.2165908631008695,0.07290817897877827,-1.240677422234017,-3.3255664939371927,1.196469669870228,1.8529847146243381,-0.16326231422122417,-2.861284012541602,2,left
16.84,0.07514859771521096,1.228940631984662,0.1025527860735761,-1.318532936812042,-3.3926945964332758,1.2171682100663985,1.8533254847823972,-0.16347878597636392,-2.8617850789234742,2,left
16.840999999999998,0.0644535808425655,1.2442411589593636,0.12636082920396197,-1.2534967508404655,-3.3366835511085,1.1998120531816578,1.875333523635367,-0.18070825007364744,-2.8967074049357495,2,left
16.845,0.059159585277582936,1.2600375037820624,0.1434579093038525,-1.2553997924403002,-3.3380878335814574,1.200569696834387,1.8212271327346337,-0.13837442159761437,-2.8108753091133907,2,left
16.845,0.0587933006809153,1.283535529329628,0.14837914047270312,-1.3789494073196138,-3.4452474938343207,1.2327248875951975,1.9109274050301328,-0.2085752253422392,-2.953180324932257,2,left
16.85,0.0576369804747649,1.3018056322051579,0.1480503790250736,-1.0751046917298277,-3.1820021370395626,1.1533474831936248,1.792629218849873,-0.11596607000404643,-2.76549096419094,2,left
16.85,0.05876840831084415,1.3084976470241843,0.14227215377245656,-1.5789462150752356,-3.6184289362874242,1.2850530822167139,1.2960633912131634,0.2727592837735959,-1.9776040603761404,2,left
16.851,0.06157375369386808,1.3186549022918983,0.13247544843896086,-0.9143662619384304,-3.042801765167648,1.1113187283538002,1.1777902753621743,0.36539152901427097,-1.7899310990707824,2,left
16.855,0.0628971869799714,1.3244245693794792,0.12655741751910915,1.8748648088928215,-0.6262945196567575,0.3825748828756304,1.267457488683421,0.29515999209447963,-1.9322165157275126,2,left
16.855999999999998,0.07098336304923653,1.3303345699402984,0.10514687073944198,2.5394494308070286,-0.05067928360261642,0.20886105259505822,1.2133618016851802,0.33750469083765927,-1.8463842457927049,2,left
16.857,0.082782524675312,1.3391337950290576,0.06847967439697959,2.0356028519013583,-0.4870931686445122,0.3405444463239295,1.2354164798726768,0.3203160956487118,-1.881351874160814,2,left
16.86,0.09289415913163035,1.3387735872976854,0.033296706728814074,2.339445661367808,-0.22384290506008742,0.2611585970291975,1.235627948852739,0.3199836317738851,-1.8817464123666479,2,left
16.861,0.10115958915810314,1.3355188300225338,0.001167499032353512,2.215912771132051,-0.3310453896951353,0.2933874435138147,1.224229801503164,0.32914464506161434,-1.8635757737473018,2,left
16.864,0.10014860509541124,1.3291182647342723,-0.02421447403503335,2.2139737236410744,-0.3323575240724902,0.2939866070690778,1.2379124900922456,0.3181972276767908,-1.8853711398280675,2,left
16.865,0.09173033669276826,1.3186333759904951,-0.045023288068077115,2.2790615513376933,-0.27647860524687234,0.27685767889147705,1.227207267560431,0.32667989423856547,-1.8683482164360081,2,left
16.87,0.07767566575868387,1.308308071014612,-0.06034872297612286,2.201154591658235,-0.3434751312938003,0.2973299462158303,1.2331334681866735,0.322240104638276,-1.8776790296353076,2,left
16.871,0.055483683309889835,1.2931039432334779,-0.06605162388967625,2.2617403394370577,-0.291200050910142,0.2814506096553405,1.2314180209147096,0.3229387034188471,-1.8751908664747716,2,left
16.874000000000002,0.028291981478622292,1.2722601930141808,-0.060985732317283076,2.229336709084806,-0.31969101518489373,0.28982252771675054,1.2305490712943807,0.324729162063049,-1.8734091266555646,2,left
16.875,-0.009154895562444759,1.2500741776790916,-0.04575934383604965,2.236117884963735,-0.3124710494824863,0.2883542917130304,1.2323904181731047,0.3219253761060286,-1.876825424424529,2,left
16.88,-0.05585587829800363,1.2263213971379527,-0.025945662011670353,2.245915866785978,-0.3062968147530333,0.2852732393588379,1.2305473060427674,0.32445429815819726,-1.8735065759714025,2,left
16.881,-0.1022350170676388,1.1996293836467404,-0.0026163232759373574,2.2295404336236104,-0.3176460004168773,0.29018974512832807,1.2322277214115132,0.32314811431975454,-1.8761694585379787,2,left
16.885,-0.1516393235763262,1.1713851897114123,0.023097691961619315,2.244702181539231,-0.30677199389068627,0.2857203623645673,1.2302794274133169,0.3226591333923551,-1.8738097434442285,2,left
16.886,-0.20569084351864125,1.143535211034648,0.05233622148501549,2.2353039903597525,-0.31493362172416167,0.28817150529919794,1.2330608237847107,0.3250852066510025,-1.8765508388765912,2,left
16.889,-0.26060207781384204,1.119901136363909,0.08706604187565742,2.237331075689067,-0.3089844771572496,0.2885829843182338,1.229311562777001,0.3211524742526697,-1.8730964945273885,2,left
16.89,-0.31443586551143987,1.102812395905365,0.120375030650198,2.2420872778082446,-0.31444644103403,0.28518993218237576,1.2332340247477669,0.3254032867745721,-1.8766609317011413,2,left
16.893,-0.36416893724437027,1.0895285665742684,0.1469367144795581,2.2327431305034375,-0.3082462380335268,0.29083891979197685,1.2310849980509797,0.32285487749685216,-1.8747876437658422,2,left
16.894000000000002,-0.40757890188953605,1.0807654893866099,0.16521054072636668,2.243123326343125,-0.3144930366777965,0.28470777695074634,1.2286504488046353,0.3211150224247096,-1.872249295115004,2,left
16.898,-0.4421561671891754,1.0773031216659292,0.17577522632977488,2.2364634316519005,-0.31145635142174977,0.2884231144007589,1.2383529970386173,0.32947755950331564,-1.8818474392462465,2,left
16.9,-0.46135630112646253,1.079202700230248,0.17839682021280456,2.234001267260708,-0.30600152346643983,0.2907697115050675,1.2205308277257456,0.3138339462431576,-1.8643193966305258,2,left
16.903,-0.46420603094573704,1.08832706222764,0.17121541924397599,2.250145098626482,-0.32523073834604466,0.2790986513143978,1.243377712833217,0.33395171056248885,-1.8867665164758471,2,left
16.904,-0.46005722708345687,1.0985540725077088,0.15870755242792778,2.219235919303243,-0.29040775637196276,0.3009956326966391,1.2243181066685835,0.31714361511863115,-1.868048939879167,2,left
16.909000000000002,-0.43741301896923546,1.1150815302444093,0.14033591403407808,2.259144440937389,-0.33493469241225804,0.2728220582208441,1.2247776325968867,0.3176468438448541,-1.8684661248408068,2,left
16.91,-0.40196387667769,1.1380918265677349,0.12137473610274355,2.225735248821341,-0.29783657709926875,0.29636587764643507,1.2613084080191406,0.3495391177169034,-1.9044550437499397,2,left
16.913,-0.36543459605136314,1.1632391749986692,0.10254945937911578,2.226985192712745,-0.29855079992740424,0.29564008901749544,1.1715838371559952,0.27109396537996555,-1.8160996427872012,2,left
16.914,-0.3109954247182528,1.200001806635177,0.07086269528507243,2.289563367506389,-0.3702425884556462,0.25103691995788857,1.3203378410343474,0.40117550067339985,-1.9625756066517621,2,left
16.919,-0.27572403008710644,1.222410982459541,0.0485561783453219,2.1353390487252186,-0.1943724061283649,0.3607707137494911,1.1241298628366265,0.22959631755034515,-1.7693710550821093,2,left
16.92,-0.2584335493863259,1.2336368256341443,0.037966736072362284,2.3911665435186427,-0.48588841844481867,0.17879964010612656,0.3005722463923364,-0.490498298032023,-0.9584322975110918,2,left
16.921,-0.2285334208715562,1.2553695706749208,0.020540507961736128,2.0537072322064303,-0.10138279626708449,0.4188214951981797,0.10436059176160663,-0.6620699321088297,-0.765221826487125,2,left
16.923,-0.21100236768033448,1.2661965507610478,0.010284477566021112,0.6377915624121384,1.5129681945237898,1.4261811587231275,0.25310474995630317,-0.5320018579064882,-0.9116825608995205,2,left
16.924,-0.17341297666947672,1.2885006322793298,-0.00985526964010151,0.3003313741337079,1.8975218765076254,1.6661948197470844,0.16343065457005884,-0.6104313668502024,-0.823406223650655,2,left
16.925,-0.11491299857477942,1.3225566473317558,-0.04181731488419088,0.5561809994982525,1.6059487261493177,1.4842311330307134,0.19984729447597405,-0.578550654866518,-0.8592159225225904,2,left
16.93,-0.07175517022299868,1.3381117600722225,-0.06316426924696064,0.40188201540189067,1.7818173398446904,1.5939735355704232,0.2004849625388036,-0.5780483727677137,-0.8599131846359334,2,left
16.930999999999997,-0.027332510885252567,1.3503638819110138,-0.08770844920718789,0.4646117160683917,1.7102604952978377,1.5493301625851075,0.18122392572695253,-0.5948344363882123,-0.8408785285528089,2,left
16.933,0.013031003745583537,1.3551833765949906,-0.11142231466460986,0.4656389656296445,1.709230846428301,1.5486836649642748,0.20420395650461695,-0.5747644355664756,-0.8635358522854978,2,left
16.933,0.044895101262107065,1.348955827327547,-0.12362393286676505,0.43246633991187283,1.7468012962988275,1.57211957202551,0.18644956546631908,-0.5903394849054102,-0.8461130961266309,2,left
16.938,0.0708134197134595,1.3411112258377789,-0.1323461906875973,0.472242636525829,1.7017789334249551,1.5440462420194851,0.1957492247858174,-0.5820464320239492,-0.8550791388989486,2,left
16.94,0.08998520476341827,1.3268954848977494,-0.13632508915826735,0.4411985898263118,1.7368622585030793,1.5659133661444713,0.19411606695908643,-0.5837525600846201,-0.8538000443794869,2,left
16.942,0.11039709333074421,1.3101553054567683,-0.13257013147328578,0.457898214740648,1.7179511461066226,1.5541253549493923,0.190868041309964,-0.5862511578921803,-0.8501980837433809,2,left
16.942999999999998,0.12705103821227703,1.2915691669880776,-0.12437825174095767,0.45440646607037427,1.7221966510510138,1.5567955795134063,0.19583992559856475,-0.5821760997649544,-0.8554155839578964,2,left
16.947,0.13817506189184858,1.2719767560808213,-0.11800461494346305,0.4490887585461597,1.7274218468512426,1.5599834359890699,0.19170124791934182,-0.5857974491256701,-0.8513432706045557,2,left
16.948,0.14416818160049485,1.255640313628458,-0.11381199347629481,0.45828022372933697,1.7183779359101787,1.5544676423298074,0.1934494606086239,-0.583762918380325,-0.8524673293267928,2,left
16.953,0.14426048099059857,1.239393113931821,-0.10905877731456051,0.44919909232896826,1.7269742935386465,1.5596738373627568,0.1945864225695879,-0.5839250115118113,-0.8549519373733474,2,left
16.954,0.1396874794859836,1.226365587785843,-0.1055612163698724,0.45553346341456635,1.721151264013872,1.5561668429510878,0.19108292945794725,-0.585263323505604,-0.8494657233944938,2,left
16.957,0.12766419947490387,1.2174556553267375,-0.10298539734481607,0.4534580747992562,1.7235309132455057,1.5576523204951136,0.19547895178654384,-0.5832587406528662,-0.8559652021437656,2,left
16.958,0.10888477263099727,1.2094934418233365,-0.10402196266167735,0.4505759232966691,1.7242207037893291,1.5578486180945865,0.1924957523131229,-0.5848041243727904,-0.851773484569431,2,left
16.964000000000002,0.08547618364676397,1.2029886923276953,-0.1090923829898097,0.45831044336209925,1.7213332130850247,1.5565829958565507,0.19130200031374875,-0.5849326135502014,-0.8495166189797398,2,left
16.965,0.05974499239980312,1.1949527357493852,-0.11543056066689733,0.44703995874850255,1.7253366830620964,1.5582805479654993,0.19906812169227342,-0.5821502246956348,-0.8618960131565485,2,left
16.967,0.035246220680847144,1.188582734990558,-0.12289251897693311,0.45869942403629366,1.7214727119490996,1.5567235547402127,0.1840656406235149,-0.5878339157631352,-0.8383475548825385,2,left
16.968,0.013174346827285814,1.183314460313429,-0.12421748032528328,0.4519597766262195,1.7237096280219784,1.5576249925486134,0.20354529065256008,-0.5803481826916873,-0.8687971744554794,2,left
16.974,-0.006148831781916366,1.1749827004877718,-0.11862065571707184,0.4469329838752757,1.7247422395857557,1.557845781188702,0.18719246926098684,-0.5866750250391357,-0.8432877104424994,2,left
16.975,-0.0248670107936368,1.1698318576843765,-0.10971036552071295,0.4699437455238752,1.7190636569647846,1.5561616407294308,0.18777316356968404,-0.5863865732120598,-0.8441135500658907,2,left
16.977,-0.04048160555908498,1.1662950826991794,-0.0997104855404017,0.427222042799808,1.7296521670303555,1.5593184381553828,0.21858663296690553,-0.5746359457845525,-0.8923939173125249,2,left
16.977999999999998,-0.05248225347130878,1.15865732863192,-0.0875251312602421,0.48201108638984413,1.7161305081762048,1.5553138077180408,0.14265291324152818,-0.6036835098418412,-0.7735329009941825,2,left
16.980999999999998,-0.06699967779274085,1.1476908341235257,-0.06527558456068569,0.43630385941156635,1.7273848817894033,1.5586322046586418,0.26862691815377315,-0.5554634244794431,-0.9706803307880651,2,left
16.982,-0.07568188348325391,1.1381894675184066,-0.04830229297327969,0.4376149638068286,1.7269868215695365,1.5584924798832405,0.10244447069577836,-0.6190804319326941,-0.7106217358093618,2,left
16.986,-0.07774428450447066,1.1338509025783647,-0.042836373912433084,0.5244380104137933,1.7059270660094075,1.5523940672408538,-0.5950464131415639,-0.8861241519116403,0.3809240702539013,2,left
16.987000000000002,-0.08640366351023272,1.1255658481754622,-0.02840275738466298,0.31099189164765606,1.7577591312867513,1.56741050230218,-0.7612262798374495,-0.9497296325273785,0.6409787700006105,2,left
16.988,-0.09736113246693287,1.1057811359960734,-0.008477258666257082,0.6648777720835184,1.671827290172856,1.542528521485417,-0.6352387466400464,-0.901507752869845,0.44381948027373236,2,left
16.991,-0.10213676578482131,1.0900715460109156,0.0015191579502890989,0.19813314268399743,1.7851468707296547,1.5753244641238058,-0.711231335977887,-0.9306105892047033,0.5627390351181303,2,left
16.992,-0.10483794217957516,1.0854829097105618,0.0058571303810839165,-1.7610414284065565,2.260563238675066,1.7130812092919592,-0.680289428472346,-0.9187144228205854,0.5143273099689092,2,left
16.993,-0.11146335107303791,1.0692362175572532,0.01992960959170765,-2.227762132481712,2.3738460304994593,1.7458632388984179,-0.6799054681789689,-0.9186695241932055,0.5137056876172343,2,left
16.996,-0.11863151544521458,1.0422331140704821,0.04217106725958095,-1.8738901307467575,2.2879732280792027,1.720977076979468,-0.6960399549347285,-0.924702876936295,0.5389851260302101,2,left
16.997,-0.1288110364497546,1.028009814256248,0.06441100972971292,-2.087388623611297,2.339752298468378,1.7360673648997107,-0.6766981010394877,-0.9174398035669721,0.5086861453433111,2,left
17.000999999999998,-0.1561320854898957,1.0286153084617569,0.08178057026087407,-2.000392033937476,2.3187009754559034,1.7297785678748947,-0.6917889759798157,-0.9231566556090438,0.5323152258875969,2,left
17.002,-0.20045960081872677,1.0379540032623331,0.07899620673449698,-1.9993957563229336,2.31837861039907,1.7299546494363187,-0.6835638454385662,-0.9198852795247612,0.5194709332099312,2,left
17.007,-0.25068398292511,1.0464429223301923,0.057941809033778074,-2.0446984776964197,2.3294493218101215,1.7328953637307891,-0.6856500896431205,-0.9210766246134849,0.5226481030127033,2,left
17.008,-0.2994558558169688,1.0453437494199562,0.03333592705234713,-1.9902536689579016,2.316204402069574,1.7291729982024464,-0.6874282319746976,-0.9210815117695041,0.5255818230586977,2,left
17.011,-0.33740995373789623,1.0373993951168496,0.015472277398884281,-2.0329355915918645,2.326499219696145,1.732382232918626,-0.6841577196290765,-0.9206586031543392,0.5202781560947403,2,left
17.012,-0.3552344516771626,1.023248726222817,0.013577977181037825,-2.0093786593709178,2.320984608452001,1.7300542538276336,-0.6872919269311952,-0.9211974700322072,0.5253310714757407,2,left
17.016,-0.3570907890828116,1.0041777872513769,0.024527256879108478,-2.015733695597275,2.3221798968586347,1.7316583390759526,-0.6849359455283308,-0.9202897814407158,0.5216452117897141,2,left
17.018,-0.3579191185945544,0.988651150249141,0.04336094459832329,-2.0204295425233734,2.323744357509232,1.7305684597516544,-0.6866624293093919,-0.9221769988383632,0.5240725644496242,2,left
17.02,-0.370253651317784,0.9874420041063993,0.07302348256192691,-2.0110182004706947,2.3211220202612033,1.731038726304747,-0.6850644532597874,-0.9187625060998509,0.5221996569528122,2,left
17.021,-0.40285708532727416,1.0048493589429097,0.11403694129299896,-2.0208852789189073,2.32351375988074,1.7317426510119138,-0.686886347124566,-0.9236415555287552,0.5241136966484121,2,left
17.025,-0.4631963663319146,1.0375011446652918,0.15596032888557015,-2.0122423778373717,2.322043117622101,1.7290343686198704,-0.6850485195102134,-0.9184798164661838,0.5222372150498709,2,left
17.026,-0.5586250086943164,1.0860451270307863,0.18337566188812238,-2.019785287716875,2.322441056354469,1.7343649684033668,-0.685945609831268,-0.921400068859014,0.5230625011931374,2,left
17.03,-0.6816337294879891,1.1489891341896827,0.1525225695162099,-2.0128318121971427,2.3228908254107514,1.7267151833103207,-0.6875363835002147,-0.924227552673144,0.5250563947447351,2,left
17.031,-0.8171237731404936,1.2164216963482986,0.015523115686131093,-2.018671686719638,2.322029457019233,1.7347590700413291,-0.6819116081976355,-0.9123591747448426,0.518429584143409,2,left
17.035999999999998,-0.9474069117286186,1.2670788780845763,-0.1972721484734608,-2.016351277371374,2.322783504015976,1.7301860953242056,-0.6921023628590097,-0.9342796162154179,0.5303399485816274,2,left
17.037,-1.0287834856409752,1.2831062915407678,-0.41564110577867286,-2.0110744557325297,2.322636335834919,1.7260115268962846,-0.6790696639275546,-0.9061504080574991,0.5151318043664092,2,left
17.042,-1.0180263095414968,1.2526218783047833,-0.5909134365938459,-2.0281243858793543,2.3218095265058816,1.7438518938154743,-0.6899303350596245,-0.9296301997131972,0.527793374405447,2,left
17.043,-0.8896568062865593,1.1712902549073085,-0.7227769055436964,-1.9979317544420738,2.32369073566229,1.7108689510370383,-0.6897153605900505,-0.9290164135154043,0.5275839148029788,2,left
17.045,-0.6844515100481736,1.074437918262883,-0.8118065388294602,-2.036188317052817,2.3211492383342867,1.7531828302612873,-0.6687423644737547,-0.8841645538816737,0.5030047965840689,2,left
17.046,-0.4744969310659554,0.9750810525356624,-0.8521593519230184,-2.0044632627577696,2.323325110610086,1.7178746322342868,-0.7202029113989075,-0.9943882736527325,0.5632592372715175,2,left
17.053,-0.2843555255232744,0.8968066222103757,-0.9023792733453835,-2.004996000156777,2.3231819294210334,1.7188017620408145,-0.6348963191377581,-0.811625881706102,0.46339657189680916,2,left
17.054000000000002,-0.18369099448811863,0.8654462409885075,-0.9514871131897533,-2.066359547311426,2.3192562397702146,1.7862016345675125,-0.7474216000720677,-1.0527041429352644,0.5951099015371806,2,left
17.055,-0.1648897414464528,0.849409577509751,-0.9740505978907588,-1.9160000151581997,2.329029034205527,1.62058577916203,-1.2197707492958911,-2.0644859895645093,1.1481859085111747,2,left
17.055999999999997,-0.1349006887652391,0.8962137821830787,-1.011128275651814,-2.1651379879240773,2.3127754469985238,1.8951622629007443,-1.3323206076845704,-2.3055959494373788,1.279912698563952,2,left
17.057000000000002,-0.11971408346908714,0.9616636078535772,-1.033921681799867,-1.8365697875484666,2.3342368289967483,1.5330135881522264,-1.2469874231452316,-2.1227992622073977,1.1800354679611074,2,left
17.059,-0.1327198329651454,0.9939055730220177,-1.0192413626694021,-0.4571498217780776,2.424256838662889,0.012876247176526134,-1.2984378604341464,-2.233009936153966,1.240284376656496,2,left
17.06,-0.17206014498902628,1.1357482302897766,-0.9644289225683962,-0.12851538467976098,2.4457442731164774,-0.3492332410550032,-1.277553061881585,-2.188271843245747,1.2157535520134148,2,left
17.061,-0.27098255575089913,1.348063227771362,-0.9093658921196093,-0.3777394847447732,2.4294370309868905,-0.07472829271197381,-1.2771483140434963,-2.187413276505073,1.2154401732616695,2,left
17.064,-0.39742329851350444,1.5372324281647716,-0.9111423725484299,-0.22735597897869325,2.4392893127249184,-0.24025706527243795,-1.2882810858216676,-2.211244031444132,1.2282507498188457,2,left
17.066,-0.5029119913618696,1.7290680676375731,-0.9207848806435859,-0.2885874235128959,2.435271150750535,-0.17292932917465223,-1.2749774262584903,-2.1827653400315095,1.212894216785227,2,left
17.069000000000003,-0.5511683070921807,1.8814950566756963,-0.9182374691439752,-0.28947495793456385,2.4352026936440687,-0.17198913610057776,-1.285285105021142,-2.204836571609437,1.2248686257478623,2,left
17.07,-0.527302454591391,1.9979705805772616,-0.9232051750438237,-0.25718469431356666,2.4373708990461673,-0.20720225456104768,-1.2798929846579692,-2.1932683116001224,1.2183691980496227,2,left
17.074,-0.4312973863472299,2.0905984339313113,-0.9343651482908268,-0.29607468471506154,2.4347127801408925,-0.16512522358375814,-1.2807342748761665,-2.195129054871454,1.2199526869711792,2,left
17.075,-0.2506860232557896,2.128353222080332,-0.9591953920598415,-0.26547760507523344,2.436875059952209,-0.19774194935053466,-1.2829227776359993,-2.199715028731978,1.2214851565569567,2,left
17.08,0.010980231467947618,2.1038653703210826,-0.9939745964436953,-0.2822858471908091,2.435616668345611,-0.18030660312737312,-1.2795000408780923,-2.1925090456814202,1.2187407421023513,2,left
17.081,0.331746031014676,1.9997254188275044,-1.0420763134222775,-0.278307333697992,2.4359450367818076,-0.18422307243332292,-1.2825855339416754,-2.1990178440906543,1.2213468016287483,2,left
17.09,0.6729894881256919,1.8229876899451165,-1.0702966735119683,-0.27345509702514414,2.436398927084941,-0.18864673845755403,-1.280998742493821,-2.195617923640171,1.219479918782509,2,left
17.090999999999998,0.9690308265892245,1.6181002709269612,-1.0156157269785693,-0.28271466562487907,2.4353546607403826,-0.18141669897637214,-1.2803804946119917,-2.1944806459424147,1.2206233921391427,2,left
17.092,1.14819916812481,1.4237102869839795,-0.8659598948949561,-0.2725690493660682,2.4367735711105594,-0.18747599101452095,-1.2833831427926619,-2.200484846452467,1.2198718816586454,2,left
17.092,1.1753922893502815,1.2573865385121568,-0.6378622660113558,-0.2811537421246121,2.435285183663387,-0.1842981888186236,-1.2785230348499117,-2.1907123679063867,1.2205470183208962,2,left
17.095,1.0516929403642648,1.122413784301672,-0.3516279255146489,-0.27598339686539025,2.4363626133496235,-0.18498820566208796,-1.2837747881029282,-2.201281513859781,1.2199104198178061,2,left
17.095,0.773781990420459,1.032278671729968,-0.05216202984522371,-0.27596557918177234,2.436369414116118,-0.18496360433762268,-1.2806285953715992,-2.1949354140895263,1.2201471117300453,2,left
17.099,0.3621871925713609,1.0054118157630834,0.20987251996385203,-0.2828776984076704,2.43454776815598,-0.1866364964172849,-1.278470404735822,-2.1906512665621363,1.2210005793848768,2,left
17.099,-0.12133478121292499,1.0498013549536482,0.41158020157484354,-0.2682122412822494,2.4386385767983105,-0.18156732410880305,-1.2888219392351203,-2.2113416224358593,1.2183284611455032,2,left
17.104,-0.6059442977038103,1.1651255308333488,0.536259128265935,-0.28915898961879316,2.4325952578552226,-0.190156016221542,-1.269461772499481,-2.1726218775003643,1.2230920628519724,2,left
17.105,-1.013500405948197,1.3306240743840356,0.564466947021967,-0.2673738735906834,2.4390038006815873,-0.1804003263108102,-1.2943571934480533,-2.2224168955843178,1.2170183890139608,2,left
17.109,-1.3153950248608517,1.5363334661461976,0.48874750853037396,-0.27978724403183824,2.435309149408026,-0.18622887309204833,-1.2735594893123539,-2.1808163042684674,1.2220716359129398,2,left
17.11,-1.4837969899959644,1.759292828444666,0.3483756193698679,-0.29041549377407133,2.4321389970382503,-0.19133316658790334,-1.2741768726582094,-2.182058354283276,1.2220015296915214,2,left
17.113,-1.5268974501052384,1.9599804463319903,0.2356205488372966,-0.24411079792794296,2.4460204010018343,-0.16876397736626342,-1.3136530033735572,-2.2609962346419117,1.2121471287359684,2,left
17.113,-1.4927163021383762,2.124393624035147,0.19923213380348964,-0.32978305589670187,2.4202815469019634,-0.21083912616105338,-1.216563367509052,-2.066844638714736,1.2362896514080868,2,left
17.118,-1.3343655092547202,2.204283183780687,0.2089849843608314,-0.21991435840426318,2.4533311430584894,-0.1566600294992592,-1.3775562552766254,-2.3887857155773817,1.1962802612064358,2,left
17.119,-1.204493010968543,2.2267696192406543,0.21171848202304056,-0.311577426257631,2.4257308406436073,-0.20195820189782215,-1.1652087946475773,-1.9641505258363507,1.2490510957650254,2,left
17.124000000000002,-1.1642055686547015,2.219047334269405,0.21289223244750893,-0.3090887429900854,2.4265081712534364,-0.2007409636660903,-0.27388911968027896,-0.18174505193406887,1.470646255346975,2,left
17.124000000000002,-0.9904508702162435,2.140236573701044,0.23504392254183526,-0.1344318874560605,2.479056737467809,-0.11422666232062233,-0.06154629268783779,0.2428808675906124,1.5234254672913636,2,left
17.124000000000002,-0.7667949287859985,2.011020940883518,0.27028820873995507,-0.5636820885948437,2.3498407990245074,-0.3269060070323056,-0.2225433837776727,-0.07907219423397747,1.4834076020978482,2,left
17.129,-0.5767955266706565,1.788542299402316,0.3496855079677653,0.1479964463223226,2.564129985068456,0.025767246392815135,-0.12541919571163807,0.11516119308102149,1.5075445920149302,2,left
17.13,-0.44226655577449503,1.6127267564177066,0.41787686866614515,-0.7906746371057349,2.2814394956115507,-0.4394388059213979,-0.16497925782326256,0.036029286413717235,1.4977245559556858,2,left
17.13,-0.4144596472618395,1.5649100577162067,0.436230162227136,-4.730632744296411,1.095384096094076,-2.392252725371069,-0.1654610138709298,0.03509731335821971,1.4975833816730757,2,left
17.133,-0.32269545450097564,1.3859637752898455,0.4913832890196798,-5.66927593996493,0.8126180974840238,-2.857490593762112,-0.1448217749617715,0.07633929888911917,1.5027362261160824,2,left
17.134,-0.19523911796980387,1.1432511074523817,0.5306155629993852,-4.957646200540692,1.0269877403292798,-2.5047623526907854,-0.16960436090050257,0.026793978396995603,1.4965662463651714,2,left
17.137999999999998,-0.1130067308737096,0.973872582211471,0.5037781431683805,-5.38684191517288,0.8978072625481888,-2.717501445926678,-0.15020938539068746,0.06560541889074695,1.5013660682538488,2,left
17.139,-0.007408451979990894,0.808345662574091,0.4592786990361999,-5.212220960568733,0.9500757871390251,-2.630951161283494,-0.16085020475125966,0.04424109855611442,1.4987889399105274,2,left
17.143,0.1065781670772657,0.6900724587673959,0.38884161159938474,-5.2097458812127435,0.9514496172273261,-2.629711022660108,-0.1580911355956125,0.04990567678929213,1.4993575640152108,2,left
17.144000000000002,0.2483245390315883,0.6038916954221234,0.31082434304615325,-5.301316705406447,0.9229988958608397,-2.675122353088862,-0.15579237218294106,0.05432207577244572,1.500073048623214,2,left
17.148,0.4289915969416074,0.527953319287766,0.2427766473750131,-5.191630727478223,0.9568892854135619,-2.6207302352935287,-0.1602036899826963,0.0456444586093923,1.4988616012132263,2,left
17.148,0.6343551438750012,0.4760727358860582,0.1852911167406984,-5.277055400479414,0.9307988733607887,-2.663083640130936,-0.1557154280469666,0.054621172550161495,1.4999759852244332,2,left
17.152,0.8714644495235735,0.4190540336879177,0.164511237409411,-5.230982655685805,0.9439324025775964,-2.64026797096692,-0.15940794387410437,0.04696998349724814,1.4992722497987518,2,left
17.153,1.1190122696594376,0.3590425930449167,0.1763236769794358,-5.241532631307692,0.9431268488193845,-2.6454275875693734,-0.15652440088552444,0.05334661260643341,1.4994999613397195,2,left
17.158,1.3703664387813765,0.29052341701940887,0.2048170491147902,-5.253701221982391,0.9353831601433267,-2.6515800493395325,-0.15886980134380557,0.04774609772994151,1.4996463764811137,2,left
17.159000000000002,1.614153572320915,0.21419950158989587,0.24286932875288858,-5.232619523329786,0.9467340667418062,-2.640981796930014,-0.15708549439815647,0.052284514826697534,1.4993125784969854,2,left
17.160999999999998,1.8302655356917432,0.13868529668001617,0.27141422080237343,-5.252403715258838,0.936790504938096,-2.65090673156977,-0.1576362584680947,0.05062278066697287,1.4996243179417656,2,left
17.165,2.01528315400843,0.06897596141421938,0.27125836743990484,-5.239112612058206,0.9407543990554137,-2.644320349484785,-0.15960407385387282,0.04620377446496333,1.4995235457396001,2,left
17.166,2.163159299818539,0.018041112262150178,0.2389456343527027,-5.245006527454616,0.9463819221828604,-2.6470202986327,-0.15374662087598676,0.06003308412954844,1.4992832208833122,2,left
17.17,2.266495922325679,-0.01180320858486394,0.17366629255188853,-5.24480208103021,0.9295321748730995,-2.6474242101516197,-0.16395826656769866,0.0356891827863076,1.4998893691905808,2,left
17.171,2.318802134902219,-0.009872235295077303,0.08062341170851695,-5.241928040212363,0.9556225529453142,-2.645246659435446,-0.15108099635397904,0.06647731353521744,1.49905397581433,2,left
17.175,2.3337883085615996,0.01465298652095432,-0.01927026183118761,-5.245586978962153,0.9276346384923599,-2.6478619330760687,-0.1617317573162625,0.04097451446018474,1.499774280375761,2,left
17.176,2.323917781050584,0.06404210507290392,-0.10663609680180122,-5.242532384814552,0.9440823722703198,-2.6458865474283835,-0.16159788644386058,0.04135364070889358,1.4997208327871347,2,left
17.18,2.2888598500088033,0.1418739889016523,-0.17842140256078265,-5.244546285041885,0.9568827882445061,-2.6464811539377386,-0.14087882440092483,0.0908082508826738,1.4984388328874756,2,left
17.180999999999997,2.245890514483806,0.22560608503228258,-0.24720123456935378,-5.243348398530574,0.8986139668600277,-2.647641315479342,-0.1915793233987647,-0.030291414906472375,1.5016364023795536,2,left
17.186,2.176371433193272,0.3539885122012596,-0.30496065854340004,-5.244185210796207,1.0070720165116902,-2.644808717206325,-0.10760185040559897,0.17032084918826976,1.4963207043692668,2,left
17.187,2.1101803052563666,0.45992108261244224,-0.3282986073975903,-5.243435495820231,0.8677280511883161,-2.64860150008435,-0.2183341435799937,-0.0942140770523821,1.5033320026244992,2,left
17.189,2.093806748081353,0.4843393497821799,-0.3287189579909534,-5.243909682420672,0.9840759160366268,-2.6453681270256917,-0.6832686083380447,-1.2048946363893638,1.5327733404931538,2,left
17.19,2.0071135989488997,0.5997291010905474,-0.32151515063765446,-5.24443892658422,0.9808327659073424,-2.6457046935248787,-0.7939871710729611,-1.4693905449762892,1.539766348229858,2,left
17.191,1.8569978005848746,0.7754007782504975,-0.30953139512559447,-5.241810977765477,0.7593305700574187,-2.6510637472615084,-0.7100463636218637,-1.2688696733594067,1.534475461689352,2,left
17.195,1.7277466003739657,0.9101860921255127,-0.28778546035616603,-5.247581989759325,1.3038291849732255,-2.6375887219973277,-0.7606752606665403,-1.3898112052278755,1.5376627684648787,2,left
17.195999999999998,1.521880395094489,1.1170632675691388,-0.24016730127493657,-5.238243021432843,0.40104647069399385,-2.660019249802781,-0.7400661840314626,-1.3405756735602687,1.5363517999535778,2,left
17.199,1.366721176286875,1.2654462623791676,-0.20462735962004297,-5.250485715054776,1.5917668093435549,-2.6304154287359998,-0.7398020627183408,-1.339965078992786,1.5363851829917414,2,left
17.2,1.3263623415419459,1.3009407646945343,-0.19456712424034778,-5.304490322918305,6.591035232913908,-2.5068741706011046,-0.7505543932512557,-1.3656076829939625,1.536961373033893,2,left
17.201,1.1575526691508604,1.4499354609203299,-0.15399513895581182,-5.316865091464118,7.7817895001731845,-2.4773147402888522,-0.7376823835820507,-1.3349202570605558,1.536293993677747,2,left
17.205,0.9181451981103894,1.642364213816934,-0.09213258756009654,-5.307137483405397,6.878789491743502,-2.499648271873658,-0.7476941718862908,-1.3587751746535033,1.5367821353662827,2,left
17.206,0.7193378498241775,1.7745964333442803,-0.03431908838484598,-5.313724576704525,7.423913784274579,-2.486328427214711,-0.7422874940616021,-1.3458860120307867,1.5365024140636254,2,left
17.209,0.49832298510458917,1.899410862947724,0.02674404834340923,-5.309776154071756,7.201214676112481,-2.491489215840394,-0.7435865030677778,-1.3490426895900267,1.5367089542682129,2,left
17.21,0.28909128233805326,1.9798681323893148,0.07971326500568005,-5.3119477480685795,7.199665877945369,-2.492013491291843,-0.7448449873495413,-1.3518768424179202,1.5363887982033302,2,left
17.214000000000002,0.10013164952135915,2.0153207416061907,0.124163347579763,-5.311026922937568,7.31428968832894,-2.488702234247034,-0.7426643589105277,-1.3469643247555667,1.5369391600035673,2,left
17.214000000000002,-0.0714499188137087,2.0140886369410493,0.1699814664558158,-5.310467489927808,7.175781534379395,-2.4923336814321573,-0.7446202130150184,-1.3512724130772285,1.536218461137096,2,left
17.22,-0.20629498576273808,1.9633854132584942,0.22006243114230203,-5.313448430641158,7.285514904032067,-2.4900143090305114,-0.7433574534147327,-1.3485462424368269,1.5368116608803453,2,left
17.221,-0.30655035556032034,1.8771512081337345,0.27221489297976564,-5.3069573852030425,7.222758731337413,-2.490290823804945,-0.7440463718225536,-1.3501945032920826,1.5368612903804932,2,left
17.224,-0.3607272880832008,1.7519999126096506,0.3249755922916878,-5.317196867674548,7.243528943603071,-2.4919733487033273,-0.7434769907125571,-1.3482955275647504,1.535576249172634,2,left
17.225,-0.37108719339771046,1.5990913399632487,0.37745205481618554,-5.304979487664681,7.249926182991295,-2.489121804138577,-0.744400548456746,-1.3517332661825483,1.5384889602687424,2,left
17.23,-0.3422220962443018,1.4332450336110902,0.4256631928579061,-5.314562247933159,7.2303624231860555,-2.491752007208619,-0.7429352793492003,-1.3463956299625655,1.5341382305214546,2,left
17.232,-0.2848565037420364,1.2619921353108365,0.4691608240604325,-5.314916088609262,7.255579226804032,-2.4911468461348703,-0.7446134734157395,-1.3523633853955643,1.5387834980388457,2,left
17.234,-0.2147734883462566,1.098781955713068,0.49863802074295066,-5.296434807999991,7.2252697272935285,-2.4879170857518025,-0.7436451730597936,-1.3489182050860844,1.5360996341454456,2,left
17.234,-0.1329254643950726,0.9533779399465147,0.5051718451287317,-5.338339476119764,7.26338292036994,-2.4960684383816973,-0.742552233237276,-1.345332265265223,1.5337694752109239,2,left
17.238,-0.04898403509446878,0.831748033668741,0.4968550171836785,-5.275940901731431,7.217495422258212,-2.4836372409868144,-0.7470008813881457,-1.3602284675199412,1.5439456261050173,2,left
17.239,0.027561455013125246,0.7340577807694201,0.48044707157316296,-5.342418671921301,7.262399293418897,-2.4969878338900786,-0.7387676962862642,-1.332642923103341,1.5250751550280703,2,left
17.243,0.1014706059328094,0.6591544680975072,0.45767419859495473,-5.304031279747251,7.239142844951204,-2.4892080638255623,-0.7493606592008899,-1.36811534334264,1.549306880317641,2,left
17.244,0.17077340400673577,0.604687703215192,0.4324946686293629,-5.270868697229735,7.210735304705066,-2.4827065992381963,-0.7405077083780591,-1.3384776614881133,1.5290767357153627,2,left
17.248,0.24510444617554122,0.5685325761515543,0.39695804042343574,-5.4158753812815315,7.31963947768387,-2.511537248989509,-0.7407194585507395,-1.3392156934581136,1.5296218505976809,2,left
17.249000000000002,0.3233200832157823,0.5466626019610581,0.3522811729958384,-5.146983182123778,7.1213152916885125,-2.4579824257886864,-0.7577177402395084,-1.396003654212148,1.568205723254453,2,left
17.253,0.3973317919212784,0.5383785974465807,0.30406813332844906,-5.4922547805663475,7.3746671087438695,-2.526779822267943,-0.7159600953859508,-1.2564735805288834,1.4733740627016547,2,left
17.254,0.48857132298232897,0.5446295968717185,0.24408468315979617,-5.203988414061096,7.163698837502457,-2.46933363342119,-0.785196994028725,-1.4878264792694,1.6306082916143685,2,left
17.257,0.5528609520448824,0.5530064062254711,0.20391821022290735,-5.21183404868064,7.168583528987035,-2.4709027376655595,-0.6938684992875264,-1.1826565899429746,1.4232178380697729,2,left
17.258,0.5716465636107901,0.5585656318942167,0.19306132289564906,-5.761398372305164,7.573061248391095,-2.5804012769344684,-0.31043356646814363,0.09844967123526144,0.5526818290366563,2,left
17.259,0.6328658576423304,0.5741186318477778,0.16102644441856862,-4.410543798632413,6.58008067052296,-2.3112507391349952,-0.21909730875851124,0.403644478557865,0.3452923732304972,2,left
17.264,0.7284732768815623,0.6076587987973957,0.1092733462525899,-6.6503977444420475,8.226067618989722,-2.757515466261089,-0.2883476322599383,0.17225261341837766,0.5025258422777759,2,left
17.266,0.7753300193043113,0.6325943539856449,0.08104374905854345,-3.6959624285634605,6.055141214989217,-2.168901101720513,-0.2465753802117899,0.31181496167939016,0.4076926390536318,2,left
17.268,0.79075006843676,0.6409243416561764,0.07280239191024135,8.704319053808856,-3.057417875428102,0.30190641809625535,-0.26358250116980214,0.2550287529038249,0.4462824264136868,2,left
17.269000000000002,0.8352816758007184,0.6715537358578039,0.04669854187916204,11.658893469860176,-5.228397044818182,0.8905042511725945,-0.2637997504608115,0.25422837785332864,0.4468163743092478,2,left
17.27,0.8867367710801897,0.7132184320422791,0.00925563463773482,9.41889009144537,-3.5824520733480103,0.44425496996267816,-0.254919285041705,0.2840023431783709,0.4266009925103593,2,left
17.275,0.914132290472979,0.746573552219614,-0.01730887128841896,10.769683655167878,-4.575060045286587,0.7134209530621901,-0.2655641677645868,0.2483356321833534,0.45081957656886873,2,left
17.276,0.9329948263871326,0.7826131245611077,-0.039642532959579466,10.220626319464488,-4.171495094978172,0.603845266621701,-0.25726304305108016,0.2761137980765629,0.4319518797045313,2,left
17.278,0.9367098408792469,0.8080934603537515,-0.05346139536007291,10.21169503073361,-4.165129740854318,0.6024302508414489,-0.2617720405170856,0.2611337488361468,0.44214598848232534,2,left
17.279,0.9230931055512038,0.82445810852543,-0.05961009548622397,10.501513846244597,-4.377834066683473,0.6596650380938935,-0.2606652103099595,0.26455854008168933,0.4397694620896079,2,left
17.282,0.901087180030546,0.8345579127573942,-0.06504938234843369,10.154701527174671,-4.123236793924334,0.5910662496494838,-0.2596183829120566,0.2685261654113863,0.4371589751287199,2,left
17.282,0.8666944106456759,0.8354622420492306,-0.07167445977125637,10.424248872595513,-4.321200916750222,0.6445574820970562,-0.2615017309514856,0.26165735916149946,0.4417211088894007,2,left
17.287,0.8194625799171716,0.8406760820602854,-0.07764031362038673,10.28058745043576,-4.215434176997352,0.6155053503235139,-0.25971044424940704,0.2681014717481962,0.4374263255258982,2,left
17.288,0.7600920914680283,0.8458396044769054,-0.07348511635858512,10.309454814336867,-4.237292835001158,0.6226326417813601,-0.261004994359776,0.2637803503449552,0.44036331391522565,2,left
17.293,0.6934507278275892,0.8468271554269358,-0.06616554183829625,10.35522133575861,-4.269813517258822,0.6293838345343297,-0.2601830265315539,0.2656747826998633,0.4389199109492994,2,left
17.293,0.6267245941264133,0.8522755884242735,-0.06055038732572074,10.27971058433426,-4.215685236960363,0.6172427273868408,-0.2607707182903982,0.265657775961466,0.4392883012159655,2,left
17.296,0.5621509704766786,0.8607328220864351,-0.057330692886661844,10.349276230634505,-4.265721756425727,0.6287886096525808,-0.26020318790788166,0.2646502470241745,0.43944057171882334,2,left
17.298,0.4968678205085082,0.8699511549203673,-0.060867802876017084,10.307514767321384,-4.235025034264734,0.6204476030556237,-0.2607505499597925,0.26591670068853074,0.43914747279925104,2,left
17.302,0.4319714260958467,0.8844659127652232,-0.06686716504916303,10.3125138279661,-4.240703335692267,0.6257373195883702,-0.26052526961179423,0.264881162434381,0.4395233655799927,2,left
17.302,0.37095686299678404,0.9061243324546686,-0.08066795641079831,10.34282750635792,-4.258397572972111,0.6219643443838766,-0.2598805571095675,0.26549312933750546,0.438824573781895,2,left
17.305999999999997,0.31266170276335,0.931076802205629,-0.09154871435307159,10.2876089248354,-4.224654840392882,0.6256018170866606,-0.26196458238196985,0.26527778143456704,0.4402083973985039,2,left
17.307000000000002,0.2554137754663993,0.9621341807617746,-0.07412535786681113,10.34833446019918,-4.26199372798061,0.6220942836586523,-0.25823296248192984,0.26523259032251933,0.43794451924964806,2,left
17.312,0.19852213466487245,1.002005292360738,-0.039872001604079416,10.310307083303531,-4.238258243963821,0.6235365983545,-0.2629945115189064,0.26539039622844507,0.4407832771976222,2,left
17.313,0.14507872498237062,1.0406008901311234,-0.012833994925911484,10.292090813408855,-4.228501148723805,0.6276770176384774,-0.25903168563204715,0.26521821382004873,0.4384413948728157,2,left
17.316,0.08425785086950921,1.083916642953214,0.0005036469622503182,10.39565341912077,-4.288723788466585,0.6142965832021454,-0.2590919581208623,0.2653779097040045,0.43839805091824313,2,left
17.317,0.01894895771612055,1.134526146748236,0.008429951130685238,10.19929266717075,-4.173877037512987,0.6382575152667205,-0.26680190107926327,0.26519769014468886,0.4432124937653764,2,left
17.320999999999998,-0.04115302972273095,1.1810249328098466,0.021514951240488293,10.452395346223156,-4.322057004424526,0.6076788105472234,-0.24790762977802958,0.2654579236151553,0.43150601707571357,2,left
17.322,-0.1157351133533407,1.2319984461668765,0.030544113973383896,10.240700630847785,-4.198059043851783,0.633135514135011,-0.2792203276331457,0.2650735553419911,0.4508820819018717,2,left
17.326,-0.16839212000577858,1.265552763294477,0.03168887317372948,10.247932868197982,-4.202523496751882,0.6327314048735222,-0.23792072105621392,0.26557686458018626,0.4253290059403324,2,left
17.326,-0.18331098874459173,1.2739270026339615,0.03164530176376332,10.646665422687498,-4.435332309171429,0.5832436181173523,-0.06448117411284822,0.26791694515799824,0.3178753040821176,2,left
17.327,-0.22999207517076015,1.3003209356785708,0.029077308135401173,9.664857255131452,-3.861805701172009,0.7045546034101812,-0.023174936415364847,0.2684403852481806,0.29230707505250264,2,left
17.331,-0.2978736477931484,1.3316921675274878,0.03204013017011901,11.29319931278723,-4.813083095520193,0.5034848059917885,-0.05449723053613189,0.2680331440125362,0.3117053654961651,2,left
17.332,-0.32924502198247885,1.341862712936776,0.038337213655995135,9.145384448639097,-3.5583170687829098,0.7687092463752265,-0.035597109722686274,0.26828896413170117,0.2999844706780616,2,left
17.336,-0.33963391189128367,1.3454151262421337,0.040100226070445756,0.13216044276991168,1.706854245354735,1.88216786177462,-0.04330093914800604,0.26817301258736437,0.30478711026337113,2,left
17.337,-0.36290280264401975,1.343569280085316,0.04914197248568482,-2.0154773867982456,2.961500847159609,2.1474658408445606,-0.04338618011930634,0.268189097262763,0.3047976079439985,2,left
17.338,-0.38138830991982275,1.3276357864524333,0.0643211646250247,-0.3873268753302406,2.0103526509543137,1.9463164796266237,-0.039378095729447435,0.26822709180792137,0.3023557539374704,2,left
17.340999999999998,-0.37317840443176586,1.2964453654049288,0.07971062190532469,-1.3692078689626248,2.5839284434100875,2.067597203347131,-0.0441965276502736,0.2681702746846344,0.3053225092468286,2,left
17.340999999999998,-0.3511867615631973,1.2518843083037101,0.09891978794043232,-0.9698400055916787,2.3506909433125083,2.0183733396825962,-0.04041842412632765,0.26822758822538245,0.30295057874572057,2,left
17.345,-0.31954934796669165,1.1969081844709464,0.11388868837473834,-0.9639747458168466,2.347148807942344,2.017401368066313,-0.04250415765936005,0.2681737304974703,0.30434620813386903,2,left
17.346,-0.27851608647131954,1.137716252773706,0.11993173643924707,-1.1737094684607459,2.469824398867976,2.0436722698449326,-0.041940914877439325,0.2682262528813818,0.3038187888548881,2,left
17.352,-0.23562669619515386,1.077419060598595,0.12164445675072363,-0.9225585634347773,2.322961178016595,2.0122827951474282,-0.041525882566681924,0.26817693821918553,0.3037805173411289,2,left
17.352999999999998,-0.19172179577042225,1.0180153292692378,0.12058027956095307,-1.1180771047666744,2.4372398853929043,2.036593556649878,-0.042358558772673145,0.2682093883373573,0.30412196291490234,2,left
17.355999999999998,-0.14272641870288047,0.9619225525058003,0.11957665824860443,-1.0128386174569597,2.3758862915841874,2.0239093463479896,-0.041485208119585025,0.268221017734775,0.30357969231033954,2,left
17.355999999999998,-0.08686286945532176,0.9056671015134923,0.12171244003621846,-1.0364535846668783,2.3892860720630757,2.0258070478168144,-0.04225057742001766,0.2681317006859679,0.30437624571119787,2,left
17.36,-0.026638128941607185,0.8515820971300883,0.12852306326714757,-1.0651786573961903,2.4067453025546337,2.031113651289828,-0.04158220999246221,0.26832159403958555,0.30322513747586866,2,left
17.36,0.03861450432286053,0.8054727773110413,0.1353357957504914,-1.0158695111130105,2.377108690278921,2.022863675328522,-0.042198651786094984,0.26804348019075896,0.30470662975613727,2,left
17.365,0.10547873384726308,0.7675325834064934,0.1343235501704556,-1.0619862040819739,2.4047111886813157,2.0302820386541844,-0.041680809467484786,0.26833795866313837,0.30321358283571165,2,left
17.366,0.17100985874452207,0.7356282846153412,0.12614376961160123,-1.031591854019577,2.386961329691224,2.026542788790127,-0.041886635231679625,0.26816918212209023,0.30401853762595565,2,left
17.37,0.23574350394809396,0.7116329627902935,0.11034598493453024,-1.043482482993924,2.3926797512994566,2.0248160989692416,-0.04235434807306969,0.2680195678448214,0.304891789239264,2,left
17.371,0.2944761078027873,0.6975629445064144,0.09142719930771957,-1.0466445883932085,2.3973328066682464,2.0325098570002487,-0.04084297787409533,0.2686665508848517,0.301400891881641,2,left
17.375,0.34658670810865333,0.6897523776534888,0.07767205761929395,-1.0346635562792104,2.3861478991619647,2.0201345214049518,-0.04351929495738756,0.26746874883443694,0.3077967393751296,2,left
17.375999999999998,0.39211650831747036,0.6910109239654231,0.06669067250633365,-1.0487869462896162,2.398861031412345,2.0334939460455645,-0.04012836074702342,0.26900581243505284,0.2996120906333556,2,left
17.38,0.42828824437589996,0.6976636128110847,0.058087096591611855,-1.0384909647796636,2.390267014153018,2.0255112084559896,-0.04294005526807754,0.2677233652186191,0.3064335860320048,2,left
17.381,0.4563884410793103,0.7047580586972186,0.04542415019049832,-1.0401976732743805,2.3890434942534577,2.019936409825858,-0.042893535198052,0.2677565401058052,0.3062662244862558,2,left
17.384,0.4755993932194725,0.7167891740051351,0.02726760497181198,-1.0500472077496392,2.4045215304042147,2.0464724646945553,-0.037453486590250676,0.27020562845478674,0.293212753966401,2,left
17.385,0.48687997996155485,0.730748184101148,0.010261175718421561,-1.0286575447215696,2.373990143169168,1.9968757323466497,-0.050781745994647624,0.26418903755595,0.32527230746394764,2,left
17.39,0.4929463875631729,0.7510775406066181,-0.011414462537205997,-1.0568210476417947,2.413604242182342,2.0606461024239993,-0.028698901356205547,0.2741626512272288,0.2721242626929036,2,left
17.391,0.49615905635377466,0.7661197243035434,-0.024797530680261838,-1.0330294355747842,2.380365618601809,2.0073736527402,-0.05782039758782218,0.26100979050560225,0.34222475552976134,2,left
17.394000000000002,0.4955394361228198,0.7715605852445783,-0.02643751962519376,-1.0347526789437955,2.3819041085419244,2.0089471781721233,-0.18007951109446602,0.20578863308290318,0.6364737253624387,2,left
17.394000000000002,0.4901728011851991,0.7908704149105342,-0.036953927081742506,-1.0765676379370896,2.4431893838783605,2.1100924326374093,-0.20920059266295996,0.19264145894271045,0.7065792279304688,2,left
17.396,0.48481803441806914,0.8126350647477483,-0.0505041600452837,-0.9725297461207333,2.291803181419441,1.8613374053559477,-0.1871213544773293,0.20260614392298948,0.6534251845537389,2,left
17.399,0.4744421038394419,0.8332363524588479,-0.0611176277527407,-1.1453420832100039,2.5430052082836685,2.273820429425066,-0.20043859944885373,0.19659704632430564,0.6854847252846676,2,left
17.4,0.46447059562235893,0.8512861805614182,-0.06886712523280056,-0.9173976901508487,2.211651671766367,1.7297597817340422,-0.19502012176860029,0.1990462708997538,0.6724450105387451,2,left
17.404,0.46096109843929745,0.8551887894179058,-0.07140085098472043,0.03795383538572933,0.8217270816499186,-0.5537686675242204,-0.194942593966831,0.19906560942146187,0.6722452299331787,2,left
17.405,0.4469693921640498,0.8684063580108905,-0.07473464074931938,0.2657129104405126,0.49044020512252195,-1.097799401297141,-0.197786414045576,0.19781384398308133,0.6791154671920889,2,left
17.406,0.4248202409414591,0.8864529086465711,-0.07666136175190719,0.09312317363468232,0.7415772170633435,-0.6853548472335247,-0.19437889474579506,0.19930680999376418,0.6708794586546543,2,left
17.409000000000002,0.40442262319542543,0.8943601909789068,-0.0760088087658311,0.19715904989968197,0.5901384119369362,-0.9341005595024688,-0.19703376119238075,0.19815318908252844,0.6773027107151353,2,left
17.41,0.38177911097001527,0.9017535082789481,-0.07108804289249575,0.15484037364329611,0.6517148171509122,-0.8328925283037267,-0.1956025493104167,0.19878007609673454,0.6738438309989194,2,left
17.414,0.3569495235270642,0.9066197194019419,-0.06182486759107986,0.15430874496476862,0.6526615744848652,-0.8314838578615074,-0.19592545238741482,0.19859548565883206,0.6745931607255525,2,left
17.415,0.33005682771166933,0.9100146116877388,-0.05112395106498377,0.17630551187541843,0.6202436172114274,-0.884496093606473,-0.19631640923522012,0.1985435720180203,0.6756234271379926,2,left
17.419,0.3018090896005619,0.9138998476963469,-0.032571403958582934,0.15003711713926843,0.6590751783077975,-0.8210146289828254,-0.19563974512816562,0.19863454099895345,0.6738413665074959,2,left
17.42,0.27395985907167075,0.9159671266960991,-0.01312126538017286,0.17040885267742084,0.6288170488780461,-0.8704313881099295,-0.19628063308821797,0.19860841549239247,0.6755719100164572,2,left
17.424,0.24502222051808614,0.9168448290899178,0.0011311877290803422,0.15939335079305608,0.6451154429296484,-0.8437747137035677,-0.1958477384284485,0.1985940155246397,0.674380194879633,2,left
17.424,0.21687114297875293,0.9173244276024266,0.019556895949527208,0.1622362372415465,0.641504581098872,-0.8499573354080985,-0.19602795079836535,0.1985108049307413,0.6748126797285855,2,left
17.429000000000002,0.194207419533524,0.9192376548920118,0.03660280173126784,0.1642425675767018,0.6368791654180355,-0.8567683055883205,-0.19606538006544694,0.19888325702150986,0.6751803828615721,2,left
17.43,0.17352232212846364,0.9202833572575915,0.051836696944613805,0.1607709581447433,0.6448756555121138,-0.8449790742302077,-0.19588065623242726,0.19807681239920283,0.6741012896806979,2,left
17.433,0.155057420665945,0.9191835909573225,0.07561413553112038,0.1635455644043769,0.6372213506833808,-0.8559052314689599,-0.19613312836035726,0.19929038512313352,0.6756555423163724,2,left
17.434,0.1442996128979559,0.9162871253610254,0.09484244506726928,0.16194539680427372,0.6424345960939929,-0.8486527451693024,-0.1958946490224346,0.19798275730292217,0.6740723839806771,2,left
17.439,0.13831636052211116,0.9096947508607187,0.10606398115826485,0.16336874796433642,0.6403884399390801,-0.8520269844666943,-0.19603262956280298,0.19873837149954607,0.6749877833573483,2,left
17.44,0.13924068439334047,0.8984604053886871,0.12023926589633573,0.16035307221991388,0.6394238002975352,-0.8511768735614742,-0.19608418653698353,0.19941968288724482,0.6756140244796609,2,left
17.442999999999998,0.14779207433146418,0.8810765858789464,0.1317787017579654,0.166471556377314,0.642755051753861,-0.8512661684890843,-0.19577167542264773,0.1964761703559076,0.6726628243169392,2,left
17.444000000000003,0.15985263309062828,0.8572514765429851,0.14086369597595547,0.157162459357425,0.6380484520929683,-0.8507021342523845,-0.19635520460110195,0.20193356569439447,0.6781459857600578,2,left
17.448,0.17920791330929814,0.8291059561364749,0.14829112546307904,0.1673257531412938,0.6427175395718214,-0.8518748642397675,-0.1956119451920997,0.19492286596800262,0.6711192605594796,2,left
17.448,0.203281717918323,0.799495302807631,0.15281138609737643,0.16145584443025607,0.6400162103534501,-0.8512033263615643,-0.19622931067842106,0.20077778854428374,0.6769788004234577,2,left
17.453,0.22851986961887671,0.7646967092647156,0.15371695719044104,0.15586555148312095,0.6384586999966079,-0.8493573805595822,-0.1962068159787968,0.20062048106768693,0.676804299202638,2,left
17.453,0.25381181175120454,0.727402904432217,0.14943333614380497,0.1796449044037296,0.6462729830821752,-0.8557959501067446,-0.1950568221606368,0.18944751207993843,0.6657015542329315,2,left
17.458,0.2753600912719761,0.6977369959790152,0.14500060515049512,0.13558008876607885,0.6317319193084519,-0.8439370358979346,-0.19788603921774195,0.21691102442158103,0.693001181428424,2,left
17.459,0.2964565423312876,0.668252906391134,0.13094227506330008,0.1922051972983227,0.6503392269293848,-0.859269669538651,-0.19319765451626722,0.1713718760220937,0.6477403395023742,2,left
17.463,0.3086932648664269,0.6481107509981407,0.11772215858266857,0.14491222210425414,0.6348341329478752,-0.8464212133688934,-0.19937781158196533,0.2314417397330495,0.7074330803747615,2,left
17.464000000000002,0.3118578572566659,0.6437198635466537,0.1137412130864176,0.14613516738905577,0.6353349224664102,-0.8466359508368139,-0.22532396240628877,0.4835562669580977,0.9579695762478565,2,left
17.465,0.32301820726424635,0.6271779904485821,0.09503902923546996,0.23655460042168125,0.6645538419304321,-0.8717033707058517,-0.2314981242728834,0.5436326679705047,1.0176530695691282,2,left
17.469,0.33547812019108847,0.6039173421218114,0.05913236553253258,0.01435949653000508,0.592675987920569,-0.8101910492476949,-0.22681754779517582,0.498085849378854,0.9724054142867051,2,left
17.47,0.3437804228611503,0.5915085821469257,0.007725777903369648,0.382771500360522,0.7118466300577467,-0.9121915960997703,-0.22964454995875375,0.5255487871688782,0.9996975782138415,2,left
17.473,0.35017571540795844,0.5848972361181446,-0.029666018193023863,-0.10317441496565238,0.5546812542041795,-0.7776202248927826,-0.22848269222359083,0.5143949184456836,0.9885848761021461,2,left
17.474,0.35174067426924827,0.5851159099916058,-0.035867784542070576,-2.143119476070779,-0.1047900169797533,-0.21239413354998546,-0.22849217251556025,0.5141936007017923,0.988447318976557,2,left
17.474,0.35150110810710944,0.5925847491708536,-0.04838202470865363,-2.6290888778681776,-0.2619229251429559,-0.07776993878448663,-0.22905852961797962,0.5201139578389058,0.994241462567217,2,left
17.477,0.3448465840596979,0.6120110057258521,-0.0638283486599732,-2.260634239347821,-0.1428066685888525,-0.1798575104312557,-0.22837251300315164,0.5130351849420771,0.987295380410313,2,left
17.477999999999998,0.32822021077513275,0.6445021059301468,-0.08230524971897325,-2.482880686023025,-0.2146296717805156,-0.11826111416664135,-0.22891936658252504,0.5185273640942158,0.9927149204655351,2,left
17.482,0.30440898293232765,0.685203146837511,-0.11206898438640955,-2.3924197708135626,-0.18543485310787938,-0.14335709653184625,-0.22858529817778933,0.515629836815626,0.9897608949230707,2,left
17.482,0.28056632512148927,0.7376851921084233,-0.12107475286239733,-2.3912020555082085,-0.1849761536313395,-0.1436561104462103,-0.22875377203214792,0.51614156566994,0.9905105025172591,2,left
17.488,0.26101085929316725,0.8000767862534841,-0.10155957320087608,-2.4385548039752845,-0.20034568292468835,-0.13057014088226265,-0.22866335254082626,0.5172015536753664,0.991148477891064,2,left
17.489,0.2389752993214797,0.8717402661572757,-0.062826233738696,-2.381786142021867,-0.1819673253591485,-0.14628503663742132,-0.22873378703779207,0.5155074557518998,0.989974647895973,2,left
17.492,0.21809120897171294,0.9518223619020869,-0.013747233311629914,-2.426068947250862,-0.19623512116091524,-0.13399052162584557,-0.2286972512216567,0.5170484469592422,0.9910997265831404,2,left
17.493,0.20099840170697222,1.031019258207977,0.030680519032933923,-2.4020532813276754,-0.1886262948228032,-0.1407245316829686,-0.22860828743878972,0.5162004879448907,0.9902534885745691,2,left
17.497,0.1870763793618975,1.1062045079131573,0.06769047015048252,-2.4077862113897055,-0.1902136242649412,-0.1389998112435201,-0.22895649203147211,0.5160672496413803,0.9908747653331785,2,left
17.498,0.1828955150819979,1.1741623532436298,0.10139185982794578,-2.4137614987071814,-0.1924709663983754,-0.13751037229210133,-0.22824804059907533,0.5172203360622392,0.9902982731296992,2,left
17.502,0.1815457741441417,1.230024820762023,0.1346035751070785,-2.4030960153030945,-0.18876362243677622,-0.1403335074680844,-0.22928401737026424,0.5152969098099014,0.990956280034447,2,left
17.502,0.17610663598151716,1.2747729733805888,0.16539863992620468,-2.4133624358137507,-0.19208085419020757,-0.13748790021296103,-0.22818353645504746,0.5173851578656252,0.9902925314347365,2,left
17.509,0.16772962145839632,1.3105228801587903,0.18362437550686084,-2.4059704561656594,-0.1901702986965379,-0.13977977307436507,-0.22881324744475362,0.5161188024881269,0.9906164734867879,2,left
17.51,0.15799934548207875,1.334188188546584,0.184821881901493,-2.4101505071353406,-0.19042602063401748,-0.13806478743685113,-0.22938652527221137,0.5153232536486522,0.991190503411226,2,left
17.512,0.14869951679553156,1.3422303064259793,0.1779277053982172,-2.4083917411625766,-0.19149232105801745,-0.13938247190798553,-0.22692743243132069,0.5192895720934981,0.9891610502151114,2,left
17.512999999999998,0.13934796302767694,1.3361327035976258,0.16909702239208124,-2.408628436994451,-0.18982541035565476,-0.13843189292489272,-0.2314788515012619,0.5118465457438328,0.9928372820814922,2,left
17.516,0.13871910702324974,1.3137629421200976,0.1632244236870095,-2.409589933498468,-0.19114483493643958,-0.13867670784646152,-0.2256366178214872,0.521423359748953,0.9881368079254883,2,left
17.517,0.14976973391003745,1.2769116172166568,0.1634685437184341,-2.407004312555611,-0.19117432165666776,-0.13983401535779655,-0.230513204627527,0.5134202336950104,0.9920523887757569,2,left
17.522000000000002,0.17333937596202997,1.2219055690493008,0.1663054254321556,-2.4120211437387007,-0.18900048112241413,-0.1365149773449663,-0.23038430515025296,0.5136672965037631,0.9919783537116122,2,left
17.523,0.2086158971357544,1.1550020631119744,0.1697228303294959,-2.4042052816824593,-0.19351635047879806,-0.14225761419122457,-0.22107545258688047,0.5288277177513754,0.984408779850931,2,left
17.526,0.2512426241125571,1.0883782484063107,0.1687196293322878,-2.4137055338435323,-0.18754113859841043,-0.13503249955475785,-0.24395186560009488,0.49152942673551814,1.0029748337850264,2,left
17.527,0.310832500974019,1.0080705615535077,0.1655769216412975,-2.40599966728007,-0.19260749683512024,-0.14100155138460732,-0.20602261298562285,0.5533808797625368,0.9722031945158035,2,left
17.531,0.3555337031727197,0.9507735532589998,0.16615391179155975,-2.405861877003432,-0.19234656437400444,-0.14093678292900175,-0.2560511018028206,0.47179846742518555,1.012787566661378,2,left
17.532,0.3688454192601034,0.9360892231676503,0.16607467159667866,-2.4214774900914646,-0.1830125254713219,-0.12929757761225508,-0.4660487203437755,0.12940034700484537,1.1832125681657661,2,left
17.533,0.4093011710618012,0.8930517211945717,0.16199752740521545,-2.3835954118349756,-0.20613975776913074,-0.15776531825546725,-0.5160777804768178,0.04782174318330709,1.223796507420838,2,left
17.537,0.475149009706702,0.8228281856522723,0.15180906272529215,-2.446219557201272,-0.16771544749695408,-0.11061734767414501,-0.47814790986045924,0.10966907590858943,1.1930253354676734,2,left
17.537,0.5071993914273417,0.7882619380709683,0.1429089648703913,-2.363683188457715,-0.2184360667403893,-0.17278610085092871,-0.5010240873399867,0.07236921678083723,1.211591571228247,2,left
17.542,0.5182780485189431,0.7763714446046552,0.14101633556230347,-2.0170183397398445,-0.43105487171100365,-0.4338141325242102,-0.4917172860677518,0.08754330824418541,1.2040204361596745,2,left
17.543,0.5524365389344661,0.7424074729231076,0.13541721908711357,-1.9344861248548635,-0.4818075335835399,-0.49597962346804747,-0.49158397358806727,0.08776095915678504,1.2039497551408778,2,left
17.543,0.5942759182289152,0.6985749526573315,0.12852872391976772,-1.9970653537677823,-0.44333547415848806,-0.44884638851063635,-0.49646688725625737,0.07980000275394908,1.2078605310463428,2,left
17.546,0.6253223677615496,0.6653977674249207,0.12851280360313505,-1.9593247429036669,-0.46649585481049904,-0.47727577923471887,-0.49061835395138537,0.0893348258862704,1.203164836521497,2,left
17.547,0.6552505592330172,0.6301765100872795,0.1293252678197459,-1.9746600910611938,-0.45718129155801873,-0.4657066957085037,-0.4951724900618851,0.08190991540790105,1.20683901551998,2,left
17.553,0.6822436139015672,0.592775433421548,0.1289615412158457,-1.9749281331294377,-0.45681464086627277,-0.46554571840903614,-0.4927188093884945,0.08591229746760262,1.2048054362124034,2,left
17.554000000000002,0.7035555893238057,0.557540441445171,0.13202670925751517,-1.9667982601086407,-0.4620836676693777,-0.47160894720175295,-0.49327465762422174,0.08500058739796532,1.2053927199955021,2,left
17.555999999999997,0.7173632564748336,0.5233697743414796,0.13861354212056265,-1.976523534221378,-0.455842824028357,-0.4643447209363799,-0.49393439796932476,0.08393437716915135,1.2056938463777092,2,left
17.557000000000002,0.7270486902444848,0.4909770851704076,0.1448164129188826,-1.9689767717148035,-0.46059181259218074,-0.4700027156689177,-0.4927970662326674,0.08577700281622613,1.2050580757255709,2,left
17.56,0.7374578516077362,0.45637750462560167,0.14928378219379224,-1.9729565805395253,-0.458373012002506,-0.46695118477234276,-0.49386241816973403,0.0840493898060291,1.205693811017941,2,left
17.56,0.7490087943988846,0.4201660580199833,0.1537780653072781,-1.9722598485713227,-0.4580775587016872,-0.46764921213762733,-0.49315423795141616,0.08520424151989914,1.2051170426356244,2,left
17.565,0.7639940061570031,0.3815167030217979,0.15381000923370353,-1.9707908434719936,-0.4602235667107153,-0.4684569148704023,-0.4934479083151918,0.08470757904017603,1.2057798278582776,2,left
17.566,0.7771630360993338,0.33955212698992693,0.1437562072833769,-1.9731350882312613,-0.45725897935594234,-0.4670581833408489,-0.49348355634785696,0.08469012835057269,1.2048388701796715,2,left
17.570999999999998,0.7892396174412671,0.30002692970937206,0.12628763177147545,-1.9710038823402607,-0.45978306735332086,-0.46837060077249126,-0.493261133442353,0.08499216550743086,1.206105142196787,2,left
17.572,0.802187438954596,0.2641684786286983,0.1039197927342423,-1.9721695272433435,-0.45907736315095504,-0.4674903191024263,-0.4935297117862567,0.08461878612011531,1.2047809352582242,2,left
17.575,0.8109955770850259,0.2301330888433782,0.08405618601734523,-1.972377415109704,-0.4566972673649652,-0.4678766920400776,-0.49332483327756776,0.08491573366551766,1.2055055606304674,2,left
17.576,0.8173299607111288,0.1979916653493364,0.07171763780467463,-1.9707348789976673,-0.46285422884754335,-0.4678723354147691,-0.49339455070552396,0.08476947016876625,1.2063306111205345,2,left
17.58,0.8232478566648084,0.16794272290737058,0.059690761857343906,-1.973465656655836,-0.45349630172072775,-0.46766825554289576,-0.4934924963299459,0.08475114390012581,1.2030479853378986,2,left
17.581,0.8261410283257333,0.13936701106661165,0.04782254801374289,-1.970501319941166,-0.4635057443344467,-0.46792520230222845,-0.493238259650972,0.08490401798496354,1.209076263432277,2,left
17.586,0.8238508274580811,0.11049036455390555,0.03276658072218186,-1.972298243955037,-0.45766868462195076,-0.46771454806323265,-0.4935807892739839,0.08468097293863472,1.2013491823036055,2,left
17.587,0.8160077223292441,0.08646610366823723,0.014645487296536005,-1.9734342446940132,-0.45289693470494374,-0.46784039561816354,-0.49328861915062455,0.08487812272178746,1.2077943877130477,2,left
17.59,0.800271496064958,0.07076412120853211,0.00014977119384215342,-1.9677836257370291,-0.47421045994200905,-0.4677933281433148,-0.4933209436987052,0.08483102232415668,1.20764142409289,2,left
17.590999999999998,0.7831232366417793,0.0568636151465181,-0.02544955854365063,-1.978388370592181,-0.4346017569522803,-0.46778921585245115,-0.49379713239362477,0.08459182406542826,1.1952819667467818,2,left
17.595,0.7664487685135909,0.04986937028060971,-0.06621303426564425,-1.9647390120125279,-0.485486554786111,-0.46781565903047595,-0.49259869466179756,0.08522921154078975,1.225634019572788,2,left
17.596,0.7408750360038413,0.05510751913947682,-0.10220025100583341,-1.9761529767701012,-0.4429858000337102,-0.46778412124711377,-0.4945921869851781,0.08415938000766535,1.1753163277660965,2,left
17.6,0.7231357291031844,0.06358953826569118,-0.1149435437188677,-1.9757838891200186,-0.44419183764861925,-0.4678193876761301,-0.4919631577345864,0.08557178302389515,1.2416837568632482,2,left
17.601,0.7191120105149722,0.06769307494911075,-0.11427661792996083,-1.9542009451104676,-0.5250759524496307,-0.46776915471079333,-0.4809359025761925,0.09142989640173677,1.5203153564508707,2,left
17.601,0.7061715444798948,0.0769618673677852,-0.1102744362987728,-2.0073354994752313,-0.3261817587620438,-0.46784965968493675,-0.4783091041888897,0.09283656524478079,1.5866863579860568,2,left
17.604,0.6866182797411845,0.1107220027035012,-0.07769288433921624,-1.9191952226489788,-0.6560112205266935,-0.46773014197703094,-0.480303696673086,0.0917744501977907,1.5363615718818118,2,left
17.605,0.6758652131861157,0.13885991843777268,-0.04567349095844188,-2.0354810323248387,-0.22092088396852294,-0.4678826225345278,-0.4790918949513173,0.09240883998329162,1.5667235924190808,2,left
17.61,0.6715115975721284,0.14757928792356959,-0.03758994663677545,-2.52320583863919,1.6047975705687594,-0.4686184515526088,-0.47960174858490157,0.09216010700562804,1.5543533760885402,2,left
17.611,0.6579474666381406,0.1909927756014021,-0.011180809988654398,-2.6395338279713343,2.039962805621302,-0.46876748139721564,-0.4795787802935528,0.09214090014166026,1.554207808921866,2,left
17.612000000000002,0.6337483159430763,0.2630499332466731,0.01009537298369809,-2.551347900401292,1.7100522838388654,-0.4686516983400282,-0.47935216519969964,0.09229214904878243,1.560655021219896,2,left
17.615,0.6103729658028736,0.33582610057392315,0.009012177743886855,-2.6044651516489736,1.9089157449351135,-0.46873361899159116,-0.47964655782544485,0.09212219033788192,1.552910188233072,2,left
17.616,0.5870766238730605,0.42670204863631833,0.023768788713203357,-2.5830334748512813,1.8283002508895354,-0.46867101064325006,-0.4793812591296188,0.09223845681432087,1.5589753793779266,2,left
17.62,0.5608738950347274,0.5322133683685488,0.05355345674671506,-2.5823388431244805,1.8265161213728263,-0.46873291013671303,-0.4795938895307841,0.09220611694532946,1.555640590483773,2,left
17.622,0.5336234322002746,0.6470823405616122,0.08118584946978369,-2.5942196309347443,1.869845839032508,-0.4686631812472479,-0.47942036387584436,0.09215931135235024,1.5565177073479313,2,left
17.624000000000002,0.5087744899042612,0.7766728357344055,0.09252938296505674,-2.580105340441799,1.8181354466995758,-0.46872766066193183,-0.47956296336787224,0.0922540522574391,1.5572184563752112,2,left
17.625,0.48578546871120054,0.9116788048040787,0.08575461308723731,-2.590910831436321,1.858100602092307,-0.46870712554837035,-0.47948118569783227,0.09216158157928572,1.5558536291668816,2,left
17.629,0.4638710372979164,1.0488030215498927,0.07678333231596196,-2.585659140139577,1.8374955091419496,-0.46862742100527377,-0.47942439943927817,0.0921907310165571,1.5572567596379017,2,left
17.63,0.4497351604864239,1.1935046174902153,0.07448028205388102,-2.5855095438618863,1.8399843177429371,-0.468858444682436,-0.4797232705552819,0.09228351377758764,1.5560764799852074,2,left
17.634,0.4397522002951606,1.3383221883797078,0.07809294188944113,-2.5895219118838115,1.8497554825297047,-0.46846654314435454,-0.47910900387351163,0.09203475654110682,1.5570371969866807,2,left
17.636,0.42571397213192097,1.479180443596397,0.08099754834475162,-2.5838383445598594,1.8349173743197373,-0.46894595172916853,-0.4800011998834378,0.09241879382843086,1.5562156708596726,2,left
17.639,0.40728498475915076,1.621589281793181,0.07771173803701284,-2.5887375098184844,1.848125741167459,-0.4685644757996884,-0.47905892194692096,0.09200462109111748,1.556867448314639,2,left
17.641,0.3808696483394135,1.7632198947026319,0.06684388984515319,-2.58711317972833,1.8420012653812798,-0.4685586275092931,-0.47959748075930503,0.09224724058414172,1.5566412536594838,2,left
17.644000000000002,0.3480859617322626,1.8899848705797337,0.05635318946541016,-2.5832996774340318,1.8372401550549005,-0.46927399591582986,-0.48008005557563677,0.09244604322892225,1.555978669964952,2,left
17.644000000000002,0.3110663649611146,1.9975922929972036,0.051466188572842166,-2.5936575635728985,1.8542692067646955,-0.46764168850652643,-0.47800183615226793,0.09155681407336572,1.558015484452424,2,left
17.648,0.2678086719152761,2.0871006198011273,0.05028197415481335,-2.5778114027991195,1.8273906762114707,-0.4700761354424888,-0.4818480021640424,0.09321059298850543,1.5544425026263216,2,left
17.649,0.224584725049735,2.1368721485712037,0.05824741686129529,-2.594778104471965,1.856320940689231,-0.4674811360100828,-0.47691209898323894,0.09108511864441812,1.5589561501924059,2,left
17.654,0.17840673862519296,2.159029675634523,0.07155262517213434,-2.5848569534605,1.8391665714789693,-0.46898030206161906,-0.4810318139425788,0.09286080022711929,1.5552202581713033,2,left
17.655,0.13657799725170944,2.1388760939728915,0.08610775864649238,-2.5768844740740113,1.8265411871288504,-0.4702735842253226,-0.4809217333657786,0.09281040676348673,1.5552705604144155,2,left
17.659000000000002,0.10548601428510222,2.0665158962438417,0.1014298107810215,-2.612727945367158,1.8853429828107335,-0.46461523647670355,-0.47306233467628456,0.08943035991997936,1.562528401140017,2,left
17.66,0.08419555869248335,1.9765009017784383,0.11357007020158941,-2.546080694174639,1.7756455875259631,-0.47510831783413254,-0.4923780103877832,0.09774231147624993,1.5447649789607412,2,left
17.665,0.10391236178835278,1.8190574467205591,0.13174928748625897,-2.631702938311813,1.916659914154467,-0.46163486594039715,-0.46035198105701375,0.08395793560914487,1.5741862710894026,2,left
17.666,0.13111663138371304,1.7007669824452745,0.14521889112285746,-2.5601970142361594,1.7988538292680998,-0.47288299477913026,-0.5025946749726478,0.10214218071820816,1.5353950929895928,2,left
17.668,0.1412393479023721,1.6690568990831336,0.1470666031767635,-2.5622120222060873,1.802316164979315,-0.4725789763825734,-0.6799046640943708,0.17845599570080461,1.372500559586128,2,left
17.669,0.187133618192119,1.5441758100385452,0.1603963818240809,-2.698316450408332,2.0260972843570126,-0.4511299659527328,-0.7221496907916372,0.19664683263835303,1.3337262309522213,2,left
17.669,0.2515765256290823,1.387818125686603,0.17845403675591218,-2.3636772518543774,1.47570344385539,-0.5038482076654491,-0.6901202028325315,0.18285205256991668,1.3631164318832072,2,left
17.674,0.3222922501553366,1.2513180828240853,0.19225178435101953,-2.9185738403428427,2.38842982265668,-0.4164395124826748,-0.7094382293836953,0.19117288209202132,1.3453916308410214,2,left
17.675,0.37551626480747136,1.1467528807411091,0.2042730451790014,-2.18663477423748,1.1844612405260193,-0.5317306114430045,-0.7015803773284812,0.18779259773197882,1.3526160272212384,2,left
17.677,0.38736387121206517,1.1235275495707373,0.20679836158256296,0.8852201746948813,-3.867926693855206,-1.0156696143887198,-0.7014624090894768,0.18772675193668648,1.3526755477970216,2,left
17.679000000000002,0.42583373714405515,1.0390362179556034,0.21048214919911873,1.6172061416702828,-5.07200625567358,-1.1309599874529972,-0.7055970842003605,0.18953736989704806,1.3489766709540039,2,left
17.679000000000002,0.4748223526705343,0.9172478228865473,0.22031149567442465,1.0622588064518066,-4.159159801838161,-1.043552079536564,-0.7006417232761528,0.18736114087231823,1.353390712265672,2,left
17.683,0.4967892180604479,0.8371457594448792,0.23219541108863218,1.3968787164293615,-4.70950798296646,-1.0962706132411588,-0.7045047543167122,0.18906646814474176,1.3499772309369868,2,left
17.684,0.5178331220688979,0.7457463839713248,0.2514724259600989,1.2609425873448175,-4.486125139410832,-1.074819011492381,-0.7024237268894464,0.18815250195644112,1.351831076373919,2,left
17.687,0.5319976857691169,0.663779434415737,0.2742651947902271,1.2585654478445698,-4.48180585233167,-1.0745205778840536,-0.7028817743288194,0.18831346072201077,1.351295981241174,2,left
17.688,0.543092920554469,0.5914973938996191,0.294580822518783,1.3305906068479294,-4.600840640123068,-1.0857606918729101,-0.7034816503180511,0.1886879981305472,1.351112323847278,2,left
17.692,0.5586523037829959,0.522814362529157,0.31491045174663335,1.244451298351628,-4.4586027711731955,-1.0722952303371276,-0.7024438914945175,0.18804110137657593,1.3514334739181506,2,left
17.692999999999998,0.5773764974368418,0.47256152284767206,0.3383289359546957,1.3113216805989403,-4.5688281220862725,-1.0827848468428316,-0.7034424175021535,0.18871645616891597,1.351291432573765,2,left
17.699,0.6057791718977297,0.4371736374883971,0.35904344389135817,1.275922155490092,-4.511076950986412,-1.0771196772246103,-0.7027595813759695,0.1882268430036961,1.3513008682300118,2,left
17.7,0.6429809070648225,0.42674816512993063,0.37234315868316337,1.282464454010534,-4.520317907022369,-1.0784350025237623,-0.7030205669202683,0.18833741709073742,1.3510557570450064,2,left
17.702,0.6895856018336826,0.44143124505284637,0.38230111933825806,1.2948499270265745,-4.543303829931503,-1.0798961487410477,-0.7031765316525698,0.18876766005579562,1.3520582593467316,2,left
17.703,0.747524512107429,0.484954605710185,0.3829682625327872,1.2748588203741964,-4.507216742774352,-1.077347850133913,-0.7026761120235414,0.18772251002451362,1.3498994205808268,2,left
17.708,0.814745826561005,0.5640356910194537,0.3679080828955689,1.2931162779590673,-4.539801102932072,-1.0797450037786231,-0.7033892527356127,0.18926726664913146,1.3531507826421258,2,left
17.709,0.881281808499812,0.6701953536512677,0.3424714225587375,1.282779661794978,-4.522822750369956,-1.078112504690716,-0.7026733379950214,0.18763964060235022,1.3496439035804335,2,left
17.711,0.9437045039970946,0.8000143244523806,0.30783255673968024,1.2821189352624884,-4.516995689935746,-1.0788967570391756,-0.7030875724045562,0.18858026844674325,1.351669989828241,2,left
17.712,1.0019463668744315,0.948383429467393,0.268425384865436,1.29396876337011,-4.547317927803377,-1.0787332306249104,-0.7033459276506839,0.1893488058944346,1.353506069546616,2,left
17.718,1.0485891334912902,1.1025842158995902,0.23088895982614793,1.2738144964566238,-4.498010213096565,-1.078587190021164,-0.7020871748331087,0.1859306003985831,1.345585793496233,2,left
17.719,1.0830823511034342,1.2553800861223894,0.1977400303931364,1.295760760279191,-4.5513313552737875,-1.0788153667153186,-0.704428164763497,0.1922723755303868,1.3602689104635712,2,left
17.722,1.1019090135869098,1.402646783565415,0.17601036226597172,1.2823512413609999,-4.519324502076606,-1.0785690578265128,-0.7014300965467672,0.18413278224464086,1.3414068577289888,2,left
17.723,1.1037412849519348,1.5355945826010466,0.16208263147997218,1.2744019144772936,-4.497668276144497,-1.0789242310605216,-0.7039297352551441,0.19092646605735158,1.3571583343978117,2,left
17.727,1.0828365194634397,1.6487694554292536,0.15456189468334153,1.315101843410156,-4.602159809926253,-1.0782983448034116,-0.7038507519233159,0.19073824493386626,1.3567389678691881,2,left
17.727999999999998,1.0422882656757828,1.74283269634522,0.1560092090403819,1.2385558080243493,-4.406626099659467,-1.0792918804238814,-0.6991309357513593,0.17780278910854486,1.3266696144962498,2,left
17.732,0.9909592700694047,1.810984606742036,0.1617639273107875,1.3370855451981578,-4.658094446386289,-1.0780531020169684,-0.7107414848764924,0.20959969690557986,1.4005743279082883,2,left
17.733,0.9147040454683226,1.85336620026832,0.18243835207043232,1.2547286271615712,-4.447996350161631,-1.0790730289648536,-0.6914899076995595,0.15687946985600737,1.2780323666323017,2,left
17.737000000000002,0.8604496447216543,1.86629404654808,0.20582092930354648,1.2573350003457802,-4.454295401849261,-1.0791017371019391,-0.7168816699497841,0.2264159397925642,1.43967079947213,2,left
17.737000000000002,0.8441644349417152,1.8630859936631319,0.2144940196268173,1.4131409038767637,-4.852902265810738,-1.0769700785748069,-0.8234185320621379,0.5182845544908621,2.1181261754864105,2,left
17.738,0.7870658737042893,1.8532656251331847,0.24352599711719355,1.0297388534278387,-3.8724522987020285,-1.0821452452701676,-0.8488092149979042,0.587819251050874,2.279774719929213,2,left
17.742,0.7129480239581383,1.7910659476669868,0.2971811927971616,1.6655608652374458,-5.498271767418377,-1.0735781904316029,-0.8295607250222695,0.5351017701116885,2.15722006203477,2,left
17.743,0.6848000685938853,1.732853388302492,0.3244036722905257,0.8268915195405752,-3.3538046561386845,-1.084881924807326,-0.8411649195354662,0.5668964768576918,2.2311268362359447,2,left
17.746,0.6760163525928768,1.7146281891317525,0.3322282050294013,-2.69289224391971,5.646722122424778,-1.1324112052015993,-0.8364552460547043,0.5539606986764738,2.201080945673927,2,left
17.746,0.6621755544392016,1.624911273187375,0.3612144720046724,-3.5315675018580905,7.791137143508047,-1.1437396681085412,-0.83636380327039,0.5537772076714325,2.2006025269782654,2,left
17.747,0.6650637827132596,1.4865539673583739,0.39226801698427,-2.895702345603551,6.165356106867058,-1.1351339988960778,-0.8388738092702503,0.5605608776562216,2.216445533111708,2,left
17.750999999999998,0.6959833810048613,1.3627389752711851,0.41433177143188504,-3.2792321244900346,7.14589100333931,-1.1403409972948868,-0.8358747824031556,0.5524352930908853,2.197483766084715,2,left
17.752,0.7333785397746801,1.2326864125200356,0.4418142309845252,-3.123179100500484,6.7469662944995346,-1.138211484660869,-0.8381987945206804,0.5587635266680461,2.212225823079267,2,left
17.755,0.7718548987413482,1.1144166330931324,0.466410522198777,-3.1209251675661753,6.741263675144598,-1.1381777191951399,-0.8369809408525688,0.5553505675281392,2.2043544988145447,2,left
17.756,0.816333912398783,1.0108112491283152,0.4869444868987709,-3.202920290652555,6.950576626033175,-1.139333543320325,-0.837176489183391,0.5561319236562513,2.2059698030456256,2,left
