time,gFx,gFy,gFz,ax,ay,az,wx,wy,wz,subject_number,foot
16.309,0.34303044287175133,1.0901857845979241,-0.07153393432038638,0.7829169659409076,0.3294813963274025,0.31434904407048764,-0.04006852761915348,-0.25057538715104655,-0.6052068504519043,2,right
16.313,0.3496144242057959,1.0821366434878152,-0.06604315638146367,1.13641095719383,0.18327133785300387,0.3574727698044826,-0.039301838790743296,-0.2547062913150078,-0.6089670011535291,2,right
16.314,0.3498278548422201,1.0668291231008333,-0.05419819299334713,0.9926178524909736,0.24275301493425938,0.339918507851831,-0.0397158886285776,-0.252475097889173,-0.6069461927872606,2,right
16.317,0.3361384902856044,1.0443312702865932,-0.04986198574971884,0.9904789099952248,0.2436142642138975,0.33970155072959296,-0.03961590258455215,-0.2530169589421921,-0.607349223081935,2,right
16.317999999999998,0.3111341689789057,1.0180192321179646,-0.048778048257656706,1.0660969862548244,0.21238332308839578,0.34883929471056124,-0.039521003773612604,-0.2535197743100903,-0.6080472500754914,2,right
16.323,0.2764210950130904,0.9886314069890236,-0.048280183634888146,0.9754795137518075,0.2498000450272934,0.33790744630670666,-0.039685397574906994,-0.2526487161262744,-0.606840660957793,2,right
16.323,0.2344715160051605,0.960369353636461,-0.054427895960556805,1.0461086823609769,0.2206498889324794,0.3464019711859778,-0.03953887487577816,-0.2534198914414686,-0.6080567595758701,2,right
16.327,0.19091271092942036,0.9361349114549917,-0.060873541440308127,1.0080539994566435,0.23636296474939072,0.3418113536025285,-0.039632950635419155,-0.2529276915446515,-0.6071961930796248,2,right
16.329,0.14254096580633202,0.9126166831012956,-0.059833583966892485,1.0164879540196228,0.23281988361729195,0.3429470974283373,-0.03958014604804269,-0.2532125657829863,-0.6074454422921503,2,right
16.332,0.09050290554076813,0.8900887004549832,-0.052804124657692485,1.0272972330377779,0.22852413999706533,0.3439241039320722,-0.03962875559633714,-0.252922457003236,-0.607973419720969,2,right
16.332,0.03485847420321821,0.8703573974702999,-0.043201806323959646,1.0085965832425412,0.23595759303169947,0.3422307822945006,-0.03954658416772783,-0.25342950679603,-0.6066283206454102,2,right
16.336,-0.025648471779073586,0.8538191991798483,-0.03751494561549916,1.026513382406021,0.22891669074076088,0.34369503519694655,-0.03967588852700904,-0.2526368658349522,-0.6086028426878305,2,right
16.337,-0.08890087416285877,0.8385231241284778,-0.03581531513928432,1.0143016887418994,0.23367292923315286,0.34278039315566605,-0.03952913132390862,-0.2535298848632532,-0.6065405829070156,2,right
16.340999999999998,-0.1507463432835433,0.8264683143905271,-0.03873025178674235,1.0190792540853728,0.2316941048933202,0.34336860944179465,-0.0396138395319987,-0.25301443045279526,-0.6077327166047652,2,right
16.343,-0.2071758937981623,0.8193369891825204,-0.04809698914393097,1.021408772186382,0.23127775286412633,0.34258479975293366,-0.03970660206089157,-0.2524634614428119,-0.6086653816439596,2,right
16.346,-0.2582607474467783,0.8133687831924579,-0.05590505758706435,1.0134515676996672,0.23331869579255804,0.3440545028709767,-0.03932616729280353,-0.2547366751926795,-0.6044603770762775,2,right
16.347,-0.30171256391748713,0.8095647588521777,-0.062122561390468796,1.024710049542875,0.23052711881400695,0.34178734391417154,-0.04003043563162585,-0.2505278856086192,-0.6122649739704544,2,right
16.351,-0.3323536169008108,0.8070374238802671,-0.06896064714786795,1.013520449205994,0.23316715941121258,0.34430321496574023,-0.03912445970421742,-0.2559409771391165,-0.6022510642441953,2,right
16.352,-0.3558743616657023,0.8059518474754653,-0.07244170887228303,1.0199940512732022,0.23163817832872752,0.3428506627154097,-0.039881592610237944,-0.2514178834327269,-0.6106080035418657,2,right
16.357,-0.37224967851639557,0.8070063106862764,-0.07862978064242276,1.0237752262616264,0.2310648345147532,0.34137863349639175,-0.039863103885404275,-0.25152898557756154,-0.6103709243096538,2,right
16.357,-0.3746035063808416,0.8048076911164943,-0.08948123758111076,1.0048989496102705,0.23453799869334524,0.3475361258285636,-0.038410713435477584,-0.2602016935991192,-0.5944805898505139,2,right
16.36,-0.3681297659095296,0.8002258811271139,-0.09999484994071871,1.0400199007287871,0.22804911633751063,0.33613129117569174,-0.04197909059818603,-0.23889397213802313,-0.6335465749098415,2,right
16.362000000000002,-0.3508806785430475,0.7918114827965368,-0.1094211897060302,0.9950734441714415,0.2363193010677282,0.35079374129740637,-0.03606228610284186,-0.2742237462879077,-0.5687725086380602,2,right
16.367,-0.3371044145386093,0.7834650176951785,-0.11324512720397506,1.0325271887814509,0.2294431851327809,0.3385446938490009,-0.043867155000127805,-0.22762151689513227,-0.6542086263254374,2,right
16.367,-0.3329869832551624,0.7801008246571612,-0.1138974740311077,1.0313281341165699,0.22970742096723354,0.338852656796765,-0.0766325514132644,-0.03197936462360612,-1.0127909304292322,2,right
16.368,-0.3120807373312002,0.7700338335574107,-0.11295271355015164,0.9607094272892304,0.24248509878201857,0.3623088529890771,-0.0844384775070871,0.014626039110022512,-1.0982286442565732,2,right
16.371,-0.28514134443753136,0.7565068774710226,-0.10965833156767785,1.1344169254028116,0.21102028830216193,0.3046747822718968,-0.07852002044799405,-0.020708697104995615,-1.0334520828611482,2,right
16.372,-0.2639964628964935,0.7479160964454454,-0.11322712502412571,0.8464214944573336,0.26318422487764476,0.40023581639688477,-0.08208976457048911,0.0006031290523326634,-1.0725201321151954,2,right
16.377,-0.24830132526605272,0.7429035897124148,-0.12061332763846652,1.2262351167575578,0.1943998431896427,0.2741860676601562,-0.0806374533061201,-0.008069341741481335,-1.0566299164285242,2,right
16.377,-0.2445187598327759,0.7432547136333603,-0.12305970687053056,2.8200850249301794,-0.09410828425550323,-0.2549835432028492,-0.08061631234797573,-0.008188406694661816,-1.056388834051286,2,right
16.378,-0.23258517369804388,0.7436617347746692,-0.11130904328334848,3.1998272712926736,-0.16286159993239785,-0.3810429419596877,-0.08137923508592404,-0.003647929277066549,-1.0647545135098924,2,right
16.381,-0.2089952274981221,0.7471507448361789,-0.08728161453534311,2.9119388218025306,-0.11074889018661092,-0.2854645970651967,-0.08046501152577702,-0.009085784678153337,-1.0547281523439258,2,right
16.382,-0.17877569129593643,0.7590927353991492,-0.07055341199388801,3.0855702895290475,-0.14216408987818607,-0.34311903083473494,-0.08117744811981226,-0.004852468620312735,-1.062545082210614,2,right
16.385,-0.13661539406232065,0.7710774521428365,-0.061721020075012706,3.014912716982895,-0.12940355140075155,-0.3196473006403317,-0.08079347367683079,-0.007136312555737851,-1.0583347306462274,2,right
16.386,-0.08892438684100275,0.7822155071652237,-0.060797944909493036,3.0139424546677147,-0.12918837270194328,-0.31933924635345556,-0.08087936599873269,-0.0066059683956357935,-1.0592570284780747,2,right
16.39,-0.03670461552198133,0.7936726750602938,-0.06706878686256727,3.050951929882377,-0.13592534859421784,-0.3316152575579656,-0.08098628356578114,-0.0060238329057883955,-1.0604826865369186,2,right
16.391,0.015762907510997366,0.8053275630436305,-0.06928643015559022,3.006593061432873,-0.1278796623534264,-0.3168924393777559,-0.08080125837292523,-0.007031751197448537,-1.0583626565847868,2,right
16.395,0.05896773781825422,0.8266821841790716,-0.07211598092796201,3.0411908514908803,-0.1341120755096138,-0.3283855651528706,-0.08097751690345742,-0.006098126570162416,-1.0604080678018708,2,right
16.396,0.08638809411549142,0.8607180580308293,-0.07282467447623804,3.022431327211347,-0.13081390772579948,-0.32213648374474013,-0.08085791571608934,-0.0067175685546425,-1.0590064498435128,2,right
16.4,0.09241605436250383,0.9016633760086772,-0.06827880513248505,3.0269052208287537,-0.13145621357193227,-0.32365680820050446,-0.08090620111228933,-0.006428418500557288,-1.0595339590201587,2,right
16.401,0.07944675608280158,0.9486588943452461,-0.0724426725352692,3.0315785895142437,-0.13250724384721319,-0.32516620799815843,-0.08092281631429094,-0.006504876099599334,-1.0598879833307016,2,right
16.405,0.05441545250217222,1.0033450977476612,-0.08568460919673243,3.0232423604310306,-0.13083507354890406,-0.3224318480588624,-0.08085824020130283,-0.006489017650016976,-1.058787925542368,2,right
16.406,0.02419276681316473,1.0648839208917038,-0.09676217400537826,3.0312642514609474,-0.13228551444670267,-0.3250953446434154,-0.08094839859728414,-0.006549553178387824,-1.0603613343983886,2,right
16.409000000000002,-0.00745879091889352,1.1270033292821626,-0.10638365082023338,3.025491493721237,-0.13154341760439586,-0.3231178259704949,-0.08086048680304261,-0.006436072781055087,-1.0587738097184107,2,right
16.41,-0.03892886221677676,1.1891541322160855,-0.1150937289483376,3.028751073604889,-0.13144187715707756,-0.32433913860902397,-0.08091136783860227,-0.006501124749847535,-1.059692001492794,2,right
16.415,-0.0670254089234859,1.248531124891702,-0.11323785151870658,3.027386313523812,-0.13222605054111325,-0.3236786733049526,-0.08093705304870444,-0.006665736471093921,-1.0602846279160179,2,right
16.416,-0.08957722393302275,1.295049865377773,-0.1051512737948897,3.027561137418289,-0.13115895460426208,-0.32395763724667725,-0.08080112008183987,-0.006085799317681686,-1.05743365735513,2,right
16.42,-0.10506497135905019,1.3324835095711212,-0.10310200012013626,3.028318772612968,-0.13193008154630576,-0.3240815929562303,-0.08105437113622171,-0.007154335514834221,-1.0627335168599292,2,right
16.42,-0.11475366580764958,1.3510554635594545,-0.1034709478331135,3.026301970001656,-0.13211417559716768,-0.3233019575595161,-0.08073070424217366,-0.0057732502690115775,-1.0559448461438796,2,right
16.426,-0.12014034554557584,1.3513826945619187,-0.10084965460570805,3.0302026525893306,-0.13042248176485194,-0.32507838854040483,-0.08100020834574445,-0.00693038706059847,-1.0616047007360991,2,right
16.427,-0.1205139697289208,1.3344728820108536,-0.10330928572082185,3.024132963286015,-0.13376812635321964,-0.32217062228270077,-0.08099106144265864,-0.00691041885848039,-1.0614309201412118,2,right
16.43,-0.12138715199182577,1.293331952488991,-0.11686877124789283,3.031506572011748,-0.1293983972254723,-0.3257647100182909,-0.0804851688840586,-0.004655410125779464,-1.0507271621566243,2,right
16.43,-0.12106286398489985,1.251433428555949,-0.13192981694331196,3.025529252817183,-0.13307549248298048,-0.3228236199282922,-0.08172994760081065,-0.01018949413451619,-1.0770508888200039,2,right
16.435,-0.1171674861318596,1.1677487775270725,-0.13666302167257505,3.0254147939451235,-0.1329334428987283,-0.3228111813883712,-0.0796662000172532,-0.0010126396685864857,-1.0334068836675538,2,right
16.435,-0.11400476452298454,1.0955205682404192,-0.13629797664039686,3.037546220157985,-0.12603712953261992,-0.32866365347097093,-0.08238790536385898,-0.013120102515331852,-1.0909677848234314,2,right
16.435,-0.11224961714605602,1.0862773150365412,-0.14059609999931766,3.008130224813321,-0.14304453277684953,-0.31441301417996825,-0.09381203879394624,-0.06397812234013243,-1.332534136525312,2,right
16.439,-0.12513243587123835,0.9836563502991046,-0.13740777534819026,3.056748806727393,-0.11483014520307543,-0.33798936554943676,-0.0965341162128582,-0.07609234066623045,-1.3900883269349449,2,right
16.44,-0.14062567152255268,0.8779040230824375,-0.12863274541716074,2.9926814407757627,-0.15204143854338603,-0.306912938317987,-0.09446910668834661,-0.06690348105058763,-1.346453984231326,2,right
16.445,-0.14620146699208275,0.8607264294847465,-0.12383747675332699,2.7235133693681384,-0.3082678224336034,-0.17638488542714237,-0.09571677626653344,-0.07245141915743868,-1.3727719649044228,2,right
16.445999999999998,-0.17794573692613286,0.7572952773911665,-0.10169821106968469,2.6594715233257586,-0.3454470041308936,-0.14531856339010246,-0.09520594356002164,-0.07018636253537251,-1.3620616616134051,2,right
16.448,-0.23984837724440158,0.6155127659323971,-0.07021869269262584,2.708023032419339,-0.3172778907973498,-0.1688700924356164,-0.09520323373289846,-0.07016510423695821,-1.3619136813934105,2,right
16.45,-0.31637479931626256,0.5075806969075443,-0.05144236397503832,2.6787363110085014,-0.3342612048780793,-0.15466449068836635,-0.09546686456772052,-0.07134243225290862,-1.3675271617835048,2,right
16.451,-0.41583857990421347,0.39141226601793366,-0.03840213788895814,2.6906711650739177,-0.3273265498986415,-0.16045180731189798,-0.09514485441705695,-0.06991833059640043,-1.360796390107521,2,right
16.454,-0.5316618391838069,0.2932468220182929,-0.03214130484360032,2.6907871472791234,-0.32731837423780974,-0.16051180290010722,-0.09540517389532485,-0.07104797077168296,-1.3660495009459677,2,right
16.455,-0.6571156613801827,0.205997066349377,-0.03421330266935588,2.6846335478579304,-0.3307623862336381,-0.15752110363161198,-0.09524988517170731,-0.07040694287988292,-1.3631989716968398,2,right
16.459,-0.7943421270610207,0.13025548811362408,-0.042616068083100936,2.6919901759091545,-0.3266761454992708,-0.16109683179090925,-0.09530706497779687,-0.07059969657278284,-1.36387645621829,2,right
16.46,-0.9346658786843228,0.07344444677523354,-0.05578248911798227,2.6862853175370693,-0.32980403960667504,-0.15832281664308526,-0.09532120241390876,-0.07071200449512138,-1.3645994711646852,2,right
16.463,-1.0714640384496161,0.027077291188334074,-0.06661150778575983,2.689376800101436,-0.32808882173500653,-0.1598250694542209,-0.09525976296499564,-0.07043883994718717,-1.363303439563683,2,right
16.464000000000002,-1.2021276764158888,0.00598350707428912,-0.07134021087063203,2.6885494581612757,-0.32872697772297554,-0.15942983346898312,-0.09535666016750174,-0.07077862274370067,-1.3645668950798184,2,right
16.469,-1.3188549361933632,0.00879646413806242,-0.06976401304737018,2.688062146686331,-0.3285010400118852,-0.15917462213284495,-0.09522799501073649,-0.07041542391725916,-1.3636424997182857,2,right
16.469,-1.4183400979599599,0.03319051077577764,-0.06473470528612033,2.688910412282053,-0.328885489980855,-0.15961820022181383,-0.0953793709813798,-0.07077633449553969,-1.3641626317404876,2,right
16.473,-1.4912600932935982,0.0868532769280346,-0.05663782788351274,2.688285256016922,-0.3281721557458652,-0.1592757612170398,-0.09523582992208243,-0.07047136333841424,-1.363986448420178,2,right
16.475,-1.5323982746765514,0.1618895649073273,-0.051934042312256776,2.6886126287770082,-0.3288402176494966,-0.15946561889966437,-0.09530974183932428,-0.07060673330476579,-1.3638951891968594,2,right
16.479,-1.534433633046282,0.25678390647053184,-0.06210996849665664,2.6882097610823887,-0.32908162612933656,-0.15927083014391819,-0.0953923525148944,-0.0708095953812777,-1.3642230019308528,2,right
16.48,-1.4964808096056572,0.3741390916778532,-0.08430656866106165,2.6892887710967432,-0.3268630474660339,-0.15973580828261502,-0.09507070012822451,-0.07010368567152231,-1.363646352510944,2,right
16.483,-1.429444481339438,0.5055617482810708,-0.10301534127045447,2.687042661145693,-0.3318058534794339,-0.15877915444613183,-0.09565566543494847,-0.07135961436690266,-1.364465694845789,2,right
16.484,-1.3082109738199945,0.6536550227503933,-0.10034783325960864,2.690443179521929,-0.3244029880092666,-0.16023091503442588,-0.09490950440209259,-0.06977081040386224,-1.3635244442150363,2,right
16.488,-1.1574537278027517,0.7998488107363326,-0.08057669190989758,2.686751907637797,-0.33233325236114203,-0.15865060252443267,-0.09553060859224291,-0.07108652912497981,-1.3642631184466558,2,right
16.489,-0.9730177120437493,0.9466550238264401,-0.07049468665838235,2.6888823653634937,-0.3277522575520141,-0.1595635222188002,-0.09551478943736637,-0.0710611554043478,-1.3642834239165285,2,right
16.493,-0.7479057058459629,1.0921127698555524,-0.07889723837506417,2.6908731746182113,-0.3237145084337657,-0.16042231797906054,-0.09432911786776486,-0.06853256815693154,-1.3628006578856553,2,right
16.495,-0.5244440279498408,1.216801674731125,-0.11311344399065622,2.682364315699524,-0.3412688751241476,-0.15675638579342702,-0.0972418509338893,-0.07472871139067579,-1.366373112786465,2,right
16.498,-0.2109026019306175,1.3824051393534162,-0.17879460732538127,2.6981300767219345,-0.3087215880312521,-0.16355070872557198,-0.09241246442121837,-0.06446531236222952,-1.3604836589693767,2,right
16.499000000000002,0.025711200223631037,1.503931402796741,-0.22499326883341836,2.6778779508460446,-0.35051926666030825,-0.15481998020725546,-0.09878340514989833,-0.07799604445381536,-1.368236188840639,2,right
16.503,0.08424210089144589,1.5364182089301779,-0.23171665579423745,2.694784994869784,-0.31562378256881396,-0.16211227477935497,-0.12551538644102644,-0.13480655532316424,-1.4007647776029852,2,right
16.504,0.3134137345843604,1.6671666595239556,-0.24767049974727146,2.694356894448722,-0.3165533338969223,-0.16192087037705313,-0.13189060562049293,-0.14832760029053946,-1.4085122824032994,2,right
16.504,0.6224726204126029,1.8433168582585653,-0.2647727070321569,2.6620189514873136,-0.38314466043864337,-0.14798734507156153,-0.12705482165322063,-0.13808063850385185,-1.4026368306755361,2,right
16.508,0.8219553313380137,1.9609095797224647,-0.2836177120108644,2.7414609916361234,-0.21949037782251182,-0.1822318882667028,-0.12997205804570244,-0.14425967018616062,-1.406181014793869,2,right
16.509,1.0438012652353679,2.0618991231750714,-0.3447488374317249,2.6097646590640275,-0.49082747608441,-0.12544956398362536,-0.12878882778142342,-0.14173981203946295,-1.404742760612294,2,right
16.512999999999998,1.166469419809736,2.104281546585616,-0.39404125702116755,2.7834488661079053,-0.13294409673202723,-0.20035010328383168,-0.1287591286317213,-0.14172471392639346,-1.4047090768662729,2,right
16.514,1.1863575508643338,2.105900935761672,-0.40393645026959335,3.512668492952059,1.3693510027744942,-0.5147469165082504,-0.12940704132491015,-0.14300243565736387,-1.4054917098454194,2,right
16.514,1.266829315463859,2.0834362124564905,-0.4244306156224327,3.686290190280511,1.7272095135205385,-0.5896581871332578,-0.12862555588564112,-0.1414805279005023,-1.4045484653718288,2,right
16.519000000000002,1.3169955348908755,1.9792623049794495,-0.42518709223474815,3.554691571229626,1.4559112894028465,-0.5328590893590863,-0.12924178766640854,-0.14265362961243072,-1.4052910906796898,2,right
16.52,1.278064399632965,1.797983466291862,-0.3738375321534618,3.634052782333166,1.61953341461242,-0.5671175037765026,-0.1289135414359719,-0.14201461935867077,-1.4048948978721647,2,right
16.522000000000002,1.1776401734888817,1.566930802541528,-0.29208685979589005,3.6017101649465135,1.552940229888471,-0.5531847913916463,-0.12895387131419153,-0.1422158941200573,-1.404948951546452,2,right
16.523,0.9957062236059211,1.3174111603694019,-0.19061220124391104,3.601438873931613,1.5520730607817428,-0.5529664513214596,-0.12913668663973712,-0.1422325616468822,-1.4051547461239888,2,right
16.527,0.7524666516534142,1.086973619504974,-0.09325179021543997,3.6180035900479455,1.5868323568995082,-0.5603175314942774,-0.12882122534275078,-0.14220223014522343,-1.4047995786278087,2,right
16.528,0.46768353911398874,0.8914772558215267,-0.023208196030757123,3.5982391216126044,1.5452286845370122,-0.551503075044443,-0.1291668015374841,-0.14215152273589318,-1.4051849516712542,2,right
16.532,0.1605376663005887,0.7383322718939407,0.01589128783468486,3.6135219051495895,1.577583824623687,-0.5583803040793429,-0.12890839505281565,-0.14222819250470276,-1.4048985161439138,2,right
16.533,-0.1367947729785032,0.6239208388063124,0.030118820971488994,3.605222367306473,1.560112738730286,-0.5546784748754647,-0.1289464022448295,-0.14231426391636143,-1.4049448571473264,2,right
16.537,-0.41850672346587636,0.5344477507621772,0.03573078880236864,3.607619344695066,1.5643120660466932,-0.5554674706209118,-0.12925822399914605,-0.1418165667669483,-1.4052728503911682,2,right
16.539,-0.6736672344818382,0.4597590197718168,0.04243281687212905,3.608436680196661,1.568370666955659,-0.5566059136309727,-0.12852385301079547,-0.14290806746640214,-1.4044969828605214,2,right
16.542,-0.8951807616166577,0.39137303429827264,0.05041269652775093,3.6070080493367636,1.5613405504936735,-0.5546370792928808,-0.12961441547875496,-0.14126885240211962,-1.4056482680771798,2,right
16.543,-1.086758046269878,0.3250433453588243,0.057305633262326655,3.607632285352839,1.5676389142111797,-0.5565654775499853,-0.12845846748858786,-0.14303073487056117,-1.4044291479535311,2,right
16.547,-1.2478378402637849,0.2640913576995928,0.059246411595290656,3.607599393621547,1.5635766208026698,-0.5552289772044712,-0.12912658455138995,-0.14201245287245984,-1.4051335719156541,2,right
16.548,-1.3732607594842583,0.21503928742018397,0.059896678186571635,3.6086973620629132,1.5658027019513325,-0.5556904179151343,-0.129687236711927,-0.14110448486675375,-1.4057229918192533,2,right
16.552,-1.4586921238171966,0.18012595104954487,0.061471773085967296,3.604190187929222,1.5639285170626396,-0.5562006870572044,-0.12721342164342866,-0.14504017371126826,-1.4031205327730283,2,right
16.553,-1.5070577532466733,0.1573893260890654,0.05379514091046345,3.6138979129324174,1.5669922221713213,-0.5547796560766338,-0.13180247579465887,-0.13774227264141103,-1.4079477880255058,2,right
16.555999999999997,-1.5156370302884805,0.15079738091295608,0.0429228856523201,3.5992785978099597,1.5621382298497655,-0.5568400238813893,-0.12591075107408295,-0.14711690354898888,-1.4017510381225962,2,right
16.555999999999997,-1.4974128723307003,0.15594725123998454,0.045325306865744014,3.615045207070003,1.5676888476227706,-0.5547226138463839,-0.13082946855000088,-0.13928759629665577,-1.4069234451313581,2,right
16.562,-1.4509674474316783,0.17188364294033565,0.05987286184794197,3.6059376100250904,1.5644851972436133,-0.5559463679421187,-0.13069343982218773,-0.1395001661421742,-1.406782163592664,2,right
16.563,-1.3790390819612826,0.20039213248085797,0.08522450632788206,3.597680922873324,1.5608916467114273,-0.556828444025699,-0.12132429738886485,-0.15443369064272927,-1.3969260446687248,2,right
16.567,-1.3063013372650398,0.23291034520815618,0.11444119509843757,3.633289893569048,1.5755431209523054,-0.5527456729913087,-0.14435638729976646,-0.11772338812904584,-1.4211513725404727,2,right
16.567,-1.2015713227671085,0.28655850005611994,0.1321189043779766,3.567279791391875,1.5484239827387407,-0.5603269746148377,-0.106166192301835,-0.17859708326182003,-1.3809857514600221,2,right
16.570999999999998,-1.118701708915878,0.33278928740558844,0.13864277885972598,3.6520725557634135,1.5833169954398847,-0.5506081825999372,-0.15654055941838668,-0.0982980474233656,-1.4339626028441046,2,right
16.572,-1.098608307742337,0.34498874103252597,0.13846345215126205,3.581269447465787,1.554152653451423,-0.5587130572777486,-0.3679584946791389,0.23869449518724062,-1.6563380518442332,2,right
16.573,-1.0151099516716524,0.40323388054800535,0.1362709832662617,3.583140036784579,1.5548601277100138,-0.55848071658645,-0.4183358356397473,0.31900507996334065,-1.7093127214948192,2,right
16.577,-0.8970249472838074,0.4976935497642717,0.133912373302445,3.718336755423027,1.610830567974882,-0.5430914811393759,-0.38014271220764767,0.25811827599552767,-1.669149811403483,2,right
16.577,-0.815168008389218,0.5789455559559694,0.13230153839847753,3.3860782879109355,1.4733172481324641,-0.5809198094887967,-0.4031725545073894,0.2948259997214022,-1.6933747955799527,2,right
16.582,-0.7053371956692716,0.6888152143225355,0.1422686636809416,3.936976875279403,1.7013346470126707,-0.5182070869004514,-0.39381619568214454,0.27992944201713005,-1.6835134060737476,2,right
16.583,-0.6324760434858341,0.7633386352629333,0.1517778948756774,3.210337263002055,1.4005535781399572,-0.6009150145125497,-0.39365407161637433,0.2796343399153365,-1.6833851747049016,2,right
16.584,-0.6167679462240021,0.7788373138975381,0.15537017499958242,0.16006754439366855,0.1379554320006252,-0.9481865620030469,-0.398609075445306,0.28758437840730955,-1.6885375014500492,2,right
16.586,-0.5538387304445598,0.8371421814886236,0.16845112174079058,-0.5665921229591955,-0.16285421953235849,-1.030892911083978,-0.39268262747658256,0.27808653047703136,-1.6823624573616232,2,right
16.586,-0.4775397272338535,0.9078157955675539,0.17545337994141008,-0.015651269198936793,0.06519248981170883,-0.968166348784167,-0.3972840448828149,0.28544315729168046,-1.6871771712550636,2,right
16.59,-0.4251220647630803,0.9490554395357111,0.1676329205810656,-0.3479743369216349,-0.07230335114193757,-1.006050396646935,-0.39484608258339593,0.28160046445358056,-1.684563391092284,2,right
16.590999999999998,-0.3647578060023778,0.9915364578681118,0.15646196983210636,-0.21269940068148974,-0.0164472777354029,-0.990541963894157,-0.39530162569705074,0.28218682721031163,-1.6852018680349206,2,right
16.595,-0.3081807959503752,1.0271088833305067,0.1461529129506432,-0.21089676802757287,-0.015501602098886139,-0.9904902452226633,-0.3961449566880366,0.2837717582707597,-1.6858146192289052,2,right
16.596,-0.25431172508910127,1.0588535725088828,0.140957878273336,-0.2816827732573082,-0.045001175221193686,-0.9983968672326625,-0.3947802342140929,0.28130117388609915,-1.6847155908038176,2,right
16.6,-0.1944259406318708,1.0875728137809464,0.1410409830990364,-0.1968066945621073,-0.009782208714713666,-0.9887996462979702,-0.39602789738522415,0.28352523530018436,-1.685759803562761,2,right
16.601,-0.13663608227242635,1.0989873935386454,0.1444543995910215,-0.26303908682977734,-0.03702739087042959,-0.9964693356240506,-0.395316432470883,0.2823932966061188,-1.6850090566752183,2,right
16.605999999999998,-0.08082074619230856,1.0905511620640183,0.13698858851438894,-0.2270722764550423,-0.02268944026526226,-0.9919576372427881,-0.3952873895373765,0.28191037820478354,-1.6854759417189327,2,right
16.607,-0.02773724162095747,1.0582854598341331,0.11262119608906396,-0.2357429843960433,-0.025330935279879133,-0.9936630769702944,-0.39606536121172164,0.2841481753963658,-1.6851575535126426,2,right
16.61,0.021908361017837212,1.0022713683447684,0.0900364511121943,-0.24455654071555094,-0.030142087422130093,-0.9937851310746161,-0.3947343504207945,0.2805382267186545,-1.6854531874535936,2,right
16.61,0.06102331544178892,0.926959194437162,0.07891270443929858,-0.228705492036631,-0.022653760803978212,-0.9926830918203077,-0.3961849627191274,0.2844369734374472,-1.6851715194174115,2,right
16.615,0.0772420376045533,0.8390977047711532,0.08900723497836543,-0.24405734931784068,-0.028999899882090074,-0.9944370724273451,-0.3952966785958737,0.28210456221603364,-1.6852813737436407,2,right
16.616,0.06075791098842262,0.7468235896975355,0.11550519991402142,-0.23282477214194897,-0.026071283024856624,-0.9918548341750036,-0.39477925052307894,0.28048920258747945,-1.6856377650384067,2,right
16.621,0.004265157934145227,0.6575731694268099,0.1264460998809731,-0.23948572363963855,-0.02489605574589452,-0.9955919139323497,-0.3974501700043595,0.28820544212941657,-1.684506633818883,2,right
16.622,-0.0904552027102199,0.5795556468729646,0.11424565249820037,-0.23624303553495615,-0.029419936647175262,-0.9907790141773949,-0.3924235814433419,0.2737791771748531,-1.6865267048870702,2,right
16.625,-0.2163954818936638,0.5254072430625709,0.08403504072735299,-0.2372505408238078,-0.02358403001773015,-0.9956307528787346,-0.3988944159486759,0.2923289473057291,-1.6839506109143032,2,right
16.625999999999998,-0.35373296142585575,0.49343280922885124,0.04134809024850004,-0.23831021540615854,-0.027634713395175158,-0.993014467783851,-0.39348558208321693,0.27683275685187303,-1.6860935719624583,2,right
16.629,-0.5006780486366762,0.48869166053815394,0.00797600900129304,-0.23411929880231971,-0.02901652725416521,-0.9901776310356877,-0.39365754218672966,0.2772913242947371,-1.6860640368145547,2,right
16.63,-0.6530881808384463,0.5125786569040891,-0.015107089398240833,-0.24304436938661325,-0.019077374600067407,-1.0015200578179462,-0.4038872286813534,0.3067095955471916,-1.681885841226667,2,right
16.634,-0.7890485144573126,0.5444719343553553,-0.04105353208088858,-0.2287165363859418,-0.03842763262377005,-0.9807389680445916,-0.37871380232981644,0.23435834375185777,-1.6921204627221678,2,right
16.635,-0.925087002822857,0.5965501825795279,-0.06503999617422093,-0.2463141372592919,-0.013252242254319618,-1.0073314513360456,-0.42046024067737564,0.35432990578720625,-1.6751615728437836,2,right
16.64,-1.009430920309501,0.6329080677313295,-0.07763247092235448,-0.2319584879642041,-0.03440535672847097,-0.9851694581686952,-0.3653963008557422,0.19608954682852378,-1.6975271917186623,2,right
16.641,-1.028566168711989,0.64458099629209,-0.07923366720536207,-0.23183214672422284,-0.03362768724950808,-0.9857095238468863,-0.13430272390427636,-0.4680923656749435,-1.7914730235871938,2,right
16.642,-1.0899362002037898,0.6947116039320875,-0.07742136905947199,-0.26057727755247634,0.006158147914019809,-1.0281269025355941,-0.0792419172292974,-0.6263236689405933,-1.8138379506630944,2,right
16.645,-1.1647876553899892,0.7571480121609497,-0.07708065535168797,-0.19066517090762763,-0.09192018209626161,-0.9239568314588626,-0.12098496462566258,-0.5063619059653124,-1.7968798098965664,2,right
16.646,-1.199006359086382,0.8320498442924011,-0.08225540470726989,-0.3063101496109831,0.07079747697722896,-1.0966425953634822,-0.09581025287065337,-0.5787168791868873,-1.8071147138291934,2,right
16.649,-1.218351363523325,0.8944385697418775,-0.08777850336628593,-0.1538642346226809,-0.14384803995187173,-0.868883272387839,-0.10605117587205287,-0.549266118338013,-1.8029340400649851,2,right
16.65,-1.2185192043890245,0.9106724946574499,-0.08985209013261228,0.48635536637976623,-1.0447663807807936,0.08718370711617371,-0.10619895390012278,-0.5488774631222582,-1.8029098401000132,2,right
16.651,-1.2078685698731655,0.9729576876197624,-0.10023434645573644,0.6388201397590749,-1.2593653819412398,0.31493997615083813,-0.10082479647734235,-0.5642734082174528,-1.8050451491175241,2,right
16.654,-1.178431342044205,1.0607086420106224,-0.11505274029081464,0.523197709641616,-1.0966988972671947,0.14226490856691104,-0.10726109516960042,-0.545823468302009,-1.8024766780443255,2,right
16.654,-1.118451914349747,1.124486885595394,-0.12208118417272326,0.5929499184805754,-1.1947933669415272,0.2464100531108554,-0.10224941803859694,-0.5602066458164158,-1.8044934542640565,2,right
16.66,-1.0399620716719862,1.1942552328571305,-0.11853946587922745,0.5645861151852186,-1.1548467791554033,0.20403569341876437,-0.10494997109288773,-0.5524047098180327,-1.8033557903252904,2,right
16.660999999999998,-0.9477579251925305,1.25437916409276,-0.10425540527501885,0.5641015158579334,-1.154419124277753,0.20343912832835023,-0.10433704604366291,-0.5542961709890433,-1.8037332479291823,2,right
16.665,-0.8565390036458487,1.311137080370804,-0.08531496438173519,0.5791653774200924,-1.1750670748027838,0.22565325899881494,-0.10361332933960266,-0.5561528196527235,-1.8038067912930744,2,right
16.665,-0.7742805969518729,1.372469309228969,-0.06370478385783172,0.5610720783377772,-1.1503988689487081,0.19904492052479775,-0.10486195266801758,-0.552837982616908,-1.8035696995317025,2,right
16.668,-0.6990147341219534,1.4325919330803556,-0.04442745182439948,0.5752247101632889,-1.169522572422479,0.21976588392672985,-0.10369201228704379,-0.5559823659589851,-1.8038297747765957,2,right
16.669,-0.6317483339985309,1.5005130704212246,-0.03350446275804926,0.5676218289160524,-1.159165695172104,0.20859138178275163,-0.10447133870088773,-0.5537405218504505,-1.8035111164932771,2,right
16.673,-0.5714612815378779,1.5703014351205915,-0.02365490402038171,0.569096026937899,-1.1619236662397348,0.21115275680059853,-0.10414357664822044,-0.5550871724999888,-1.804043881711002,2,right
16.674,-0.51211408162803,1.634365996651668,-0.020285081428035336,0.5718416369976493,-1.163585930476665,0.21409296263660682,-0.10411493060616696,-0.5542450106736774,-1.8031424917985712,2,right
16.679000000000002,-0.4501984155682106,1.676164947903629,-0.02607253015182796,0.5670943189910638,-1.1606993262802163,0.20900375378864539,-0.10434382159345718,-0.5549661349379212,-1.8044115075547311,2,right
16.679000000000002,-0.3900760373476776,1.6813964433843043,-0.02845750223863059,0.5719284144307166,-1.1628452086573702,0.2137668292119146,-0.10406527839957275,-0.5542968993190185,-1.803072750368888,2,right
16.684,-0.3332430340395446,1.6485345352009317,-0.03133963214415571,0.5684828578108589,-1.1617094332843667,0.21057990383864517,-0.10428077671869154,-0.5545264449935174,-1.803824157675751,2,right
16.685,-0.296039147106411,1.5775098324974344,-0.0305728310439693,0.5694162419334301,-1.1630561123137404,0.21199132523353975,-0.10419585264463707,-0.555503324180241,-1.804581719080934,2,right
16.688,-0.29213541053972414,1.4779454859768135,-0.013693656840859674,0.5717994862381812,-1.1595188718828153,0.21191472630678032,-0.10412479081315837,-0.5525026642019693,-1.801445841414922,2,right
16.689,-0.3151947176027684,1.3697775967695756,0.013197895954332314,0.5658330405638885,-1.1668710943747658,0.2113136255368958,-0.10433611856833601,-0.5578378817273351,-1.807229176544512,2,right
16.695,-0.3687730307579049,1.2761847939554052,0.04464034788528848,0.5746134866623729,-1.1557329949650255,0.21203007679135072,-0.104047406413453,-0.5510380022374899,-1.799809990511058,2,right
16.695999999999998,-0.4405458814404053,1.2058538751568024,0.07172296654131213,0.5654133694388253,-1.167831842786238,0.21150554918003125,-0.10429479764365782,-0.5566952709800536,-1.8060015560385632,2,right
16.698,-0.5271854223581449,1.1745233017370205,0.08118428362646662,0.5707308999656464,-1.160843574629948,0.2118111298812133,-0.10426229605170928,-0.5566193857829088,-1.805843877418885,2,right
16.7,-0.6292309467874462,1.1851608090462014,0.07783662230437935,0.5749597687861425,-1.154319530989671,0.2115442205025605,-0.1038771278450516,-0.5455759924472152,-1.794004034607819,2,right
16.703,-0.7288960996155424,1.2216410257184527,0.06590940457436617,0.5559927760899059,-1.182224420703258,0.21202594104107514,-0.10485241384599456,-0.572630913481468,-1.8230944752665559,2,right
16.704,-0.8388130993265039,1.2908381561575761,0.04263849366649855,0.5911900463809785,-1.1305070333783673,0.21116661395343284,-0.10323015514828521,-0.5277922554767396,-1.7748624136686673,2,right
16.708,-0.9088643343611363,1.3403355670221841,0.028396118127509112,0.5460244488974701,-1.1969554243399037,0.2123141004579971,-0.10536725628571697,-0.5869370875830774,-1.8384822386753066,2,right
16.709,-0.9245983266057964,1.352495438200113,0.025595983485142772,0.5837178267808959,-1.1414639926905248,0.21133611961239274,-0.11433555343487445,-0.8352572850307989,-2.105516124181404,2,right
16.709,-0.9785385448180158,1.3925731261226675,0.006201023766678167,0.5826590392401421,-1.142907392885153,0.2113064086021108,-0.11646362816275035,-0.8944201949816306,-2.1691412077051604,2,right
16.713,-1.0404488804754641,1.430072202250857,-0.017240426437998946,0.5109484898987855,-1.2489600650595436,0.21341068744838093,-0.11485113698822766,-0.8495619770726155,-2.120903459906165,2,right
16.714000000000002,-1.0682231052205893,1.4331789882543164,-0.03140503636773594,0.6872333497434101,-0.9883419992417902,0.2082807261356422,-0.11583013184858083,-0.8766094622343708,-2.149991725489574,2,right
16.718,-1.095555940125573,1.4171431925311522,-0.05132624999333811,0.3949501236784623,-1.4204677306752016,0.21679235147264203,-0.11541258020586265,-0.865630941779451,-2.138170777998944,2,right
16.718,-1.1073579487959386,1.3967940866814699,-0.06464592504118906,0.7804529534404772,-0.8504582483422878,0.2055468461786416,-0.11544976313560551,-0.8654154702678287,-2.137972459198641,2,right
16.719,-1.1091165096307265,1.389550012357748,-0.06663250465050528,2.398265426940987,1.5431040403041594,0.15806747114294328,-0.11559723492045204,-0.8712728807610033,-2.1442222820994514,2,right
16.723,-1.1170412909537197,1.3557598717278034,-0.07074524190633881,2.783692632487935,2.113340605103859,0.14676493047799355,-0.11540802915148476,-0.8642736977351568,-2.1367450993689365,2,right
16.723,-1.1170823934861498,1.2949983376119147,-0.07630761492721588,2.4915651676594077,1.680733057738839,0.15538751181796978,-0.1155764078704613,-0.8696949186970325,-2.1425534302356226,2,right
16.727999999999998,-1.1060246811829748,1.2350359208667063,-0.08653342558966942,2.6676192458348407,1.942094051869387,0.15010658422287576,-0.1154199307062688,-0.8668653853727781,-2.139467421294958,2,right
16.729,-1.0864846725055703,1.1575796777221155,-0.0937524189511654,2.5961772252235935,1.8351320852806121,0.15236578743479903,-0.11561020784034413,-0.8672909883416879,-2.140064455879637,2,right
16.732,-1.0622979661446772,1.066692017322869,-0.08363457761499041,2.5949013686601043,1.834493249753008,0.15224298096167915,-0.11535149193944579,-0.8684704228350525,-2.141092392779611,2,right
16.733,-1.036951917511606,0.9710486227013342,-0.057641005009347074,2.6326172025697216,1.889753294845165,0.15120614149065106,-0.11565496138919484,-0.8666354176887022,-2.1394143333141304,2,right
16.737000000000002,-1.0125202736751135,0.8747558107778368,-0.01955234234174198,2.587789938371489,1.8223834604369211,0.15265248106903195,-0.1154197947347737,-0.8682859761207251,-2.1409537543324446,2,right
16.738,-0.9910425809149995,0.7890109451942283,0.019793708037456916,2.6221714552289814,1.876637286319087,0.15121809663120608,-0.11538712606717492,-0.8674520363475224,-2.14005501103016,2,right
16.742,-0.9762001997750206,0.71299426149469,0.05332790324216628,2.604457185743618,1.8445954172797658,0.15247110256801963,-0.11592027348623818,-0.8670740419641211,-2.140085432200604,2,right
16.743,-0.967895030877751,0.6496339498447821,0.0819409605211983,2.6073058122705968,1.8559668622899173,0.15148813730550603,-0.11473193065737296,-0.8687736954494075,-2.140914367389679,2,right
16.747,-0.9621679065141343,0.6007182575990583,0.09780271033546695,2.6134939855766133,1.8594172689014652,0.15202342329180463,-0.1164975973532236,-0.8660379163430268,-2.139462764154146,2,right
16.748,-0.9618634740809409,0.5620483595285908,0.09819661046187705,2.6048269053232698,1.8465456096204385,0.15228357778178103,-0.11461659226848414,-0.8689915809967158,-2.1410499402373375,2,right
16.752,-0.9650950622693603,0.5374437608723687,0.08731785432914196,2.6107887099720477,1.865944622378351,0.1507804637573827,-0.11570149695440521,-0.8672261481775007,-2.1400701561150974,2,right
16.753,-0.9696689211391587,0.5252287471794053,0.07360872386998452,2.610309861594197,1.841059153100933,0.15383025032320014,-0.11664666134185325,-0.8659956787701464,-2.139537296688697,2,right
16.757,-0.9771015960033393,0.5170465944744931,0.06873524247955226,2.605272310787376,1.8696746505433977,0.1494491701466807,-0.11252619078981049,-0.87185763795618,-2.142378732532171,2,right
16.758,-0.9839858937438262,0.5132646416861864,0.07127623250875537,2.6131755850868066,1.84291701922479,0.1540452624993554,-0.12016503938101789,-0.8609006291943125,-2.1370182564021443,2,right
16.762,-0.9916290901381783,0.5083381125568217,0.07772143618100033,2.6073167696387864,1.856466980555199,0.15142731241928234,-0.11035657641136307,-0.8749890893580681,-2.143920524355675,2,right
16.762999999999998,-0.9996185559706219,0.4979533046418876,0.09208682408542329,2.6049864676337773,1.8721671334536003,0.14909166773943605,-0.1185456366280046,-0.8632198125316295,-2.1381521419169407,2,right
16.766,-1.0046080510979611,0.48459863911079365,0.11190623048826533,2.620926863924553,1.8119414982652928,0.15914686264150651,-0.11832332630095749,-0.863567702300275,-2.1383350203818923,2,right
16.767,-1.0080351568127681,0.46504712087454547,0.1285847649220404,2.589692314954756,1.9211591006173308,0.14054782496556467,-0.10270906563109378,-0.8859124893267647,-2.1492415079796072,2,right
16.771,-1.010127729347483,0.44149329594575243,0.1353562386363289,2.630539478509971,1.7820102838314422,0.1644088153516326,-0.1410892616778033,-0.830957758964834,-2.1224078735054768,2,right
16.772000000000002,-1.0097133038141979,0.4152472176183055,0.13315682179248417,2.5961251837471053,1.8977209567573685,0.14449668637075558,-0.07745079303782558,-0.922083262348014,-2.1669005486421655,2,right
16.776,-1.0082448695112882,0.39665640560355675,0.12917573649883718,2.597320457160132,1.8949664571183038,0.1450301948496705,-0.16139228885558968,-0.801889533739434,-2.1082227379754483,2,right
16.777,-1.0073748323379599,0.39090704849212726,0.1267626301762551,2.6624590665594203,1.6736466809563377,0.1830072342806297,-0.5137062283951118,-0.29740879337884907,-1.8618715667729533,2,right
16.777,-1.0055758332922902,0.37637770580182883,0.12019905951823193,2.5018860407614416,2.2169538379964058,0.08967349163493653,-0.5976524877634293,-0.1772204382792469,-1.8032120521466488,2,right
16.781,-1.00543659587156,0.35587051799575287,0.10459473355658853,2.768341782767009,1.3164290589176266,0.24442219350520256,-0.5340088639159668,-0.268340130225954,-1.8476849304935348,2,right
16.782,-1.0072495536164627,0.3475767363756015,0.09306845720720884,2.4167902388470024,2.504091998326987,0.04030877231096884,-0.5723871046005184,-0.2133831803807496,-1.8208437732361547,2,right
16.785999999999998,-1.0077381161106693,0.345500379317204,0.08948407232618416,0.9409153348183291,7.488705193488476,-0.8164070118307266,-0.5567899298140535,-0.23574726941912844,-1.831815910864822,2,right
16.787,-1.012280599911866,0.343246594578789,0.07715541680467566,0.5893294127408465,8.676352783542121,-1.0205256047770899,-0.556530850448332,-0.23605363995100834,-1.83185752691924,2,right
16.788,-1.0235470620454037,0.34493381091285774,0.05881960561226298,0.8558958211565929,7.775953306127166,-0.8657734647063036,-0.5647726352923113,-0.22434388409514144,-1.826291692582429,2,right
16.79,-1.0399191054383023,0.3527112422084679,0.04100992522625246,0.6950767033599855,8.31888177933241,-0.9590974379944606,-0.5549116629935994,-0.23837308527380366,-1.832992256817477,2,right
16.791,-1.0611703226271714,0.3671720394492076,0.020073401917719183,0.760628442135318,8.098300633524108,-0.9211547124990882,-0.5625731806502956,-0.22744162434793208,-1.827718827108674,2,right
16.795,-1.0850522915937204,0.3873444844525732,0.0030554818511007373,0.7612932301077311,8.094487120657869,-0.9205578971799371,-0.5584977722197244,-0.2333545190445075,-1.830733433735537,2,right
16.796,-1.104922882461449,0.41044026105358294,-0.007785878069648948,0.7273526018832834,8.211291697980467,-0.9405523700096428,-0.5592977305451379,-0.2319600568972229,-1.8296426842501008,2,right
16.801,-1.111427093529979,0.43583726739807505,-0.02169660771694757,0.7680864917638885,8.071583801416939,-0.9166199058134769,-0.560632858845375,-0.23047714234217548,-1.8296242014167887,2,right
16.802,-1.1081482745354205,0.46059096670434174,-0.04239406073970467,0.7362353185277626,8.180058087235993,-0.9352302424177769,-0.5584447374720528,-0.23308413733975272,-1.8300315844273858,2,right
16.805999999999997,-1.1076978680106078,0.4836895106104703,-0.06246497279542061,0.7538063885585631,8.122581078926661,-0.925281447410431,-0.5604552956519171,-0.2306246636619672,-1.8295206219004205,2,right
16.807000000000002,-1.1138030182462968,0.5029015098013219,-0.07110091365748424,0.7488614514619596,8.133330156744691,-0.9273518131958618,-0.5592690349621032,-0.23232695527553765,-1.8303578184269718,2,right
16.81,-1.1212734283926058,0.5142870199397211,-0.06503357417179809,0.7460097402270889,8.153194834174979,-0.9303828642227108,-0.559347958459234,-0.23143580771965258,-1.8286429372824253,2,right
16.811,-1.1284619351002307,0.5229498825376153,-0.051199226663414574,0.7518140297535849,8.121041929362274,-0.9253265234886451,-0.560353524279936,-0.23177427472472065,-1.8317330099951168,2,right
16.816,-1.1385687102658295,0.5314131525343211,-0.035630984813326556,0.7460710371304746,8.150439489845201,-0.930004686716446,-0.5585693348684952,-0.23167604821890025,-1.8273215897387745,2,right
16.817,-1.1459917921575173,0.5366920046473107,-0.020966743206355623,0.7510648534175601,8.13366662713477,-0.9271184235059162,-0.5605242775465304,-0.23170497669011889,-1.8319874834429508,2,right
16.82,-1.1477920391785434,0.5384622207186915,-0.011485025872674401,0.745761072447835,8.133011151491143,-0.9277010050329317,-0.5593110484016194,-0.23180797751868862,-1.8293495639822908,2,right
16.820999999999998,-1.1478154222237613,0.5375002405876839,-0.004261910790752502,0.7529131436647707,8.151285326876906,-0.9292531072560231,-0.5586794144077771,-0.23130393472468752,-1.8267874910840727,2,right
16.826,-1.1439955514632985,0.5349425136170238,0.008061761792501211,0.7434334873974017,8.120005585214667,-0.9262471263335149,-0.562121916941131,-0.23253933026845974,-1.8375292626423074,2,right
16.826,-1.1366281724101412,0.5297859580124853,0.028537861193772954,0.7533175234167568,8.15409889531881,-0.9295800656772355,-0.5556151521963284,-0.23042361781250442,-1.8176929739458558,2,right
16.829,-1.1266774689097523,0.520648257157809,0.05359902060696962,0.7479561894430828,8.133217424659552,-0.9274513387770882,-0.5639979650337792,-0.23310071052647752,-1.843145631418814,2,right
16.83,-1.1142263799956138,0.5102050265552518,0.07771648408046222,0.7416020537172434,8.121072954955695,-0.926621975688664,-0.5569878771464853,-0.2308821224343664,-1.821902598500099,2,right
16.834,-1.0995014230617954,0.4962096667442491,0.09808866240127315,0.7665753151200202,8.183808966152803,-0.9318975165014686,-0.55722164530429,-0.23088001874069938,-1.8224517513941996,2,right
16.835,-1.0837348749675915,0.47857566584250716,0.11055344759837771,0.7207733983390618,8.065733277457213,-0.9218171757206793,-0.5704451990652158,-0.23531337859236376,-1.8630459449486718,2,right
16.84,-1.0727183516840513,0.4610119443224435,0.11725929496007044,0.7794713256746232,8.217738089195638,-0.9348270860931887,-0.5378903841306488,-0.22449080649917103,-1.7632978213527832,2,right
16.840999999999998,-1.062828994311174,0.4380319018672256,0.11797076528751096,0.7305124838860537,8.090676957686718,-0.9239393671745382,-0.5918825074169101,-0.24241514224133492,-1.9286808565102183,2,right
16.845,-1.0538276666452786,0.4200374913588978,0.11220191164274565,0.7316624287914233,8.094725388457649,-0.9243362851252119,-0.520664810719277,-0.21877556493948283,-1.7105383110436208,2,right
16.846,-1.0514620125409935,0.4156092681061432,0.10990104134832253,0.825594873788418,8.335012327446744,-0.9447603352807761,-0.22183337926014476,-0.11942695547767729,-0.7949625715783241,2,right
16.846,-1.0451177306043542,0.4035891463412077,0.10700966749108992,0.5949238461157704,7.743692567687003,-0.8944413211899247,-0.15062275461314928,-0.09577827670191182,-0.5768205550489929,2,right
16.849,-1.032785871156563,0.3804389885274755,0.09976303150941943,0.9773383668828045,8.724321919538271,-0.9779016815098287,-0.2046016180005646,-0.11371694105051627,-0.7421880128140541,2,right
16.85,-1.0277497358732655,0.3677308736601669,0.09724135195898898,0.47293341237969294,7.430849380795822,-0.8678179916846627,-0.17206375807362986,-0.10288224089250567,-0.6424928200843637,2,right
16.855,-1.026087616035369,0.3641858833614743,0.09597055501842883,-1.644521710841057,2.002437528090529,-0.4058762471696389,-0.18527173869892502,-0.10731566094721642,-0.6829793410966967,2,right
16.855999999999998,-1.0180968226519902,0.35017325802925325,0.08748136947434262,-2.1489660412121667,0.7090028067187973,-0.2958117006232003,-0.18551165481561904,-0.10733528946389129,-0.6836869651578534,2,right
16.857,-1.0079633449948764,0.32926936145400265,0.07092785306392645,-1.7665009555104336,1.6896101403434982,-0.37924851285904715,-0.17851465638711322,-0.10506803905373141,-0.6622753213359558,2,right
16.86,-0.9983950474002093,0.31241356647710766,0.04837270765790467,-1.9971839847399906,1.0982078829729884,-0.3289316676950782,-0.18685707428229803,-0.10781545179679662,-0.6878226775984897,2,right
16.862000000000002,-0.9882598633538872,0.29719480821381006,0.02435413804893568,-1.9033347088324322,1.3387685384224777,-0.34940370944816546,-0.18041854667622328,-0.10562879974892236,-0.6680814621544506,2,right
16.865,-0.9753264410336697,0.28023432364128564,0.010348031572311619,-1.9019669695821686,1.342320224031634,-0.349683530888027,-0.1837786644548166,-0.10689735754860355,-0.6784286907647845,2,right
16.865,-0.9592239865392991,0.26072434549555656,0.013650686912792843,-1.9512691854834077,1.215897513199608,-0.3389747826550493,-0.18321100550027425,-0.10644742614412003,-0.6765986849098549,2,right
16.869,-0.9452606047290123,0.24505126028223365,0.029857772824340833,-1.8921904787519106,1.3673587931530333,-0.3517926373010757,-0.18200188915037113,-0.10636582370981784,-0.6730053092624576,2,right
16.871,-0.9314964695484896,0.23124416058570696,0.0555800702713901,-1.9382288426744787,1.2493464030720531,-0.3418208636181322,-0.1838303427573535,-0.106718344724612,-0.6785188728824837,2,right
16.874000000000002,-0.9188085915785928,0.2123041684781059,0.08259939935877536,-1.9134163072432055,1.3129437138797608,-0.34720210641957516,-0.18232844732555176,-0.10621714624923143,-0.6739171169125703,2,right
16.875,-0.9108991719529964,0.19323756712376478,0.10315756204742868,-1.9189667032293634,1.2987035062748657,-0.3459303778545596,-0.18291875536787128,-0.10688584423898952,-0.6758877493616426,2,right
16.878,-0.9049562732512373,0.17564137732264942,0.12365338008052243,-1.9258752499459209,1.2810478133548329,-0.3446216879172216,-0.18343236631358587,-0.10597657599220699,-0.6770906626090099,2,right
16.879,-0.9012906202074298,0.1594307139611153,0.14509080053933066,-1.913920045930031,1.311591319450117,-0.3468868465348105,-0.1820101466991495,-0.10711504127150834,-0.6732862603927878,2,right
16.884,-0.8963408753416227,0.1458664930391832,0.1589922673527432,-1.9253083319025464,1.2825307837114206,-0.34482383383752846,-0.18376640597958027,-0.10598117865103646,-0.6780776365682906,2,right
16.885,-0.890351646524198,0.13186985488811181,0.1636007622014956,-1.917580878356007,1.3022306464432,-0.3461733345794216,-0.1825904254880621,-0.10658290143608104,-0.6748152684878337,2,right
16.887999999999998,-0.8819013911293383,0.1220397957093355,0.16272951482234896,-1.920701483688642,1.294232247415342,-0.34548998669427544,-0.1820779924257451,-0.10726762586245797,-0.6735386747613699,2,right
16.889,-0.8647060117041818,0.12161457819874986,0.1574178154941227,-1.921771896485526,1.2916892565582603,-0.3458796807799457,-0.1852456572323635,-0.10457722689935722,-0.681959416507532,2,right
16.893,-0.8451213636064128,0.12709268677466135,0.14676374530485448,-1.9176058100123266,1.30190448421404,-0.3453635257394377,-0.17915233185564008,-0.10949429908750549,-0.6656725616979122,2,right
16.894000000000002,-0.8200967137464179,0.139278182879207,0.13381010760529516,-1.923422172916377,1.287691043869914,-0.34622107082552833,-0.18705580356098084,-0.10320648248413201,-0.6868287698598587,2,right
16.898,-0.7873453169659173,0.1581450860386283,0.12307747339046879,-1.917750968095083,1.3014827048348931,-0.34519090700027627,-0.18042330474153184,-0.10844509890022916,-0.6690614803285265,2,right
16.899,-0.7451877992752927,0.1800784996156858,0.120366225805972,-1.9210344857052122,1.2935019214291479,-0.34578553567028475,-0.18065647452556838,-0.10831967983566568,-0.6697066896052959,2,right
16.905,-0.6935025620835538,0.20117862166104156,0.12804048849060728,-1.922686777880385,1.2896269869499477,-0.3465525035900445,-0.19316132153777293,-0.09828697013149398,-0.7031504845789892,2,right
16.906,-0.6447882981730211,0.22120636795959145,0.13856025145395934,-1.913927797274206,1.310468828334943,-0.3435236005278448,-0.16234678241696052,-0.12292286298651314,-0.6207073255580341,2,right
16.908,-0.5836336856864832,0.24116691428745934,0.15124749484993255,-1.9302497991439067,1.2716303351749025,-0.3491259441578044,-0.21347079364411217,-0.08208364224701348,-0.757500111284531,2,right
16.908,-0.5369669187190476,0.24899036250698856,0.16250191307087075,-1.9093863280019479,1.3212442650300866,-0.3419093007026814,-0.14602362443696087,-0.13594821347841207,-0.5770256895549793,2,right
16.913,-0.5256771083976379,0.25178614492220763,0.16539995526754286,-1.9267637227540373,1.2799476380118606,-0.3479462840662985,0.13702006199664699,-0.36205093244179976,0.1803148536502864,2,right
16.915,-0.4809907389093339,0.2551813932032587,0.1764406897412964,-1.9261606728048528,1.2813598265520267,-0.34780409130468526,0.20448134037816457,-0.41591815321435477,0.3608322198185694,2,right
16.916,-0.41962742871153613,0.24809807273203618,0.19452411082176657,-1.8935745230839995,1.3588062597262291,-0.33619155710851023,0.15333017763594176,-0.37507648572271357,0.2239566894612145,2,right
16.919,-0.3810580550489715,0.23896499792301487,0.207327739331685,-1.9737793690834349,1.1682577496975843,-0.3647249667163755,0.18418101251252506,-0.39970980107925136,0.3065106872392348,2,right
16.92,-0.3304933127672961,0.2166211804881043,0.22823575494519754,-1.8407909660733928,1.4841386683837992,-0.31740449510193797,0.1716400052315888,-0.3896896663602012,0.27295607896394014,2,right
16.922,-0.29770757199775194,0.19270424487256532,0.24447068746465983,-2.0161864395197036,1.0676039617973243,-0.37983532326494374,0.17142665321642075,-0.3895392388565391,0.27237230427975917,2,right
16.923,-0.2910963261625662,0.18434102497734933,0.24807649745087126,-2.751918087302139,-0.680352421832274,-0.6418574153606844,0.17807716205853655,-0.39481207267475626,0.2901932149011351,2,right
16.924,-0.2623756599576386,0.15367097513086697,0.2649618772851816,-2.927293883956164,-1.0967182875878039,-0.7043126904871502,0.17009776582827735,-0.3884922302950132,0.2688066028345125,2,right
16.927,-0.22585614108228358,0.10975918917382849,0.2868263789706216,-2.7943496708609423,-0.7810787640783299,-0.6569607725887989,0.1763315400084175,-0.3934193194927932,0.28552157979541715,2,right
16.928,-0.2013627080648525,0.07674658923553127,0.3015969515658325,-2.8744814982466687,-0.9714887620429431,-0.6855018193125044,0.1729809261512489,-0.3907651794658191,0.27654125161137166,2,right
16.933,-0.18241452177913514,0.04553172204577617,0.32107443587450957,-2.8419919577892205,-0.8938651678501881,-0.6739405385438539,0.17365579916855517,-0.39134817536279143,0.2783173986088915,2,right
16.933,-0.17310984179916178,0.023026837156276774,0.3409341031542543,-2.8412927601867333,-0.8931206238328996,-0.6736636939385934,0.17479422033039788,-0.39211661812218046,0.2814587038191868,2,right
16.938,-0.17291525947891023,0.00939190179127136,0.35425935701087924,-2.858718564404926,-0.9332306331799242,-0.679913255169075,0.17282672908101038,-0.39078725424233757,0.2760304422790354,2,right
16.939,-0.17753617551777745,0.00261882457104417,0.360063270849735,-2.8379186209929497,-0.8850848232161872,-0.6724605518267573,0.17480174489623823,-0.39206795356130464,0.2815159129508248,2,right
16.942,-0.18971868860320795,0.004859278954275284,0.3511990776820528,-2.854005715253318,-0.922757806801126,-0.6782100200958634,0.1734082105076758,-0.39119137824087447,0.27762707494552513,2,right
16.942999999999998,-0.21092006886612946,0.01657010829150296,0.3278443086700498,-2.8456703267788095,-0.9018812855070488,-0.6752795085443954,0.17382193538267326,-0.3915239343190265,0.2787328010762708,2,right
16.949,-0.2378790481298031,0.041955695510286474,0.2963959893589554,-2.8467806377966083,-0.9079769747852402,-0.6755500815023425,0.17463424463141977,-0.3917341328583249,0.2812030180359799,2,right
16.95,-0.268317619537292,0.07664710547936068,0.2576259348243878,-2.8505311343706805,-0.910934184982773,-0.6771018768254332,0.17254849008805118,-0.3910704852730382,0.2749438568795034,2,right
16.953,-0.29548140850776267,0.11580977285022753,0.21882145293918137,-2.8447825084752805,-0.9045786780787813,-0.6747888886298297,0.1756063630709253,-0.39201767496846196,0.2841378873596935,2,right
16.954,-0.31673348949611824,0.15839020471159743,0.18902021316792883,-2.8499203272292952,-0.9109655386899025,-0.6768306651736202,0.17241776946977833,-0.39106478790164634,0.27452704739416856,2,right
16.957,-0.3349923007487121,0.19914032630011563,0.16922755629796948,-2.8474519136785776,-0.9050490650950838,-0.6759533685114036,0.17426038695635615,-0.3916155194648048,0.28008126118642795,2,right
16.958,-0.3472418204699059,0.23261273683826234,0.15941288222828054,-2.8458737935983476,-0.9120963215547584,-0.674997978874696,0.17569323784925567,-0.3919662177189642,0.2844516736748432,2,right
16.962,-0.35591579836834525,0.2563286956699632,0.15572019165655915,-2.85195562350913,-0.9018739329009087,-0.6780630691237781,0.16922234963697172,-0.3902719640430754,0.26478667066375094,2,right
16.963,-0.36650726638285125,0.26856510245842646,0.15698759431941367,-2.842290300946458,-0.9157149675593247,-0.6732794991962564,0.1812314067184699,-0.3934208056739862,0.3012801006019028,2,right
16.967,-0.37920913659873595,0.271374475346893,0.16054522242923266,-2.8527034748029694,-0.901222867446728,-0.6784179168713873,0.16582558402146488,-0.3893891858476476,0.25445814263160205,2,right
16.967,-0.3930202840754212,0.26657120615641233,0.15993439380721342,-2.8465132322351065,-0.9091810694222652,-0.6753873299801287,0.17867921669788106,-0.3927484234205267,0.29352792467558975,2,right
16.971,-0.41462133220199016,0.2536086261785089,0.154269389377861,-2.8420384889708155,-0.9180970797094525,-0.6730810275211748,0.17831935993881531,-0.3926485194443636,0.29243459899729074,2,right
16.973,-0.4419095893363775,0.23824188730109508,0.14530088994090473,-2.8630306761506876,-0.8824429168702492,-0.6836748277681365,0.15386961038871327,-0.38628931875085326,0.21810495686694664,2,right
16.977999999999998,-0.46604213185534504,0.22574053979030084,0.1365442792057155,-2.823847625427424,-0.9479547389655985,-0.6639390361337659,0.21396736814735773,-0.40192092095512155,0.40081466448426917,2,right
16.977999999999998,-0.4962371567444924,0.21808056380616256,0.12334769112277127,-2.8742154778383195,-0.8639731839132649,-0.6892997362609002,0.11433074871912692,-0.3760104333483921,0.09788966396246757,2,right
16.980999999999998,-0.5178239262346318,0.21464379638536782,0.11167322646458269,-2.832146081858556,-0.9340260050319291,-0.6681211655077529,0.2457399263928666,-0.41017655553922827,0.4974226872100971,2,right
16.983,-0.5230499485475142,0.21406805003457763,0.10856229250686758,-2.8333659621847573,-0.932350705139158,-0.6687213161137692,0.7973652934208908,-0.5536280988086371,2.1744881539258407,2,right
16.983,-0.5383833101904089,0.21675620644820168,0.09851853802333438,-2.913310491974819,-0.7980580541709625,-0.7090120434682237,0.9287570163602382,-0.5877787215128858,2.5739845134072996,2,right
16.986,-0.5540376021652486,0.22196612333202564,0.08918946491347014,-2.7167275366915424,-1.1278648695337643,-0.6099546889143586,0.8291423431467853,-0.5618874459619412,2.271107374945946,2,right
16.986,-0.5605277378491842,0.23553080253970454,0.08832960791480748,-3.042686109922368,-0.5811087113170501,-0.7741985947394605,0.8892364401096905,-0.5775167742774163,2.4538031452201796,2,right
16.991,-0.5661509494026926,0.24820054482992038,0.08499315750581894,-2.6127582800401354,-1.302257794252508,-0.5575683246448999,0.8647464021167641,-0.5711197843545159,2.3794017574365207,2,right
16.991,-0.5668969467882174,0.25186160126493395,0.08424556051806556,-0.8081321897474585,-4.329741287172304,0.351773306935008,0.8644881653246378,-0.5711131046805691,2.3785027762145106,2,right
16.993,-0.567745945857671,0.26712240640354457,0.08155063939839441,-0.3782349744920921,-5.0508933244813745,0.5683875721130238,0.8771841386260681,-0.5743291371164256,2.4172619025453357,2,right
16.996,-0.5693854532004647,0.29012061066885864,0.07249173613121426,-0.7041604275016363,-4.504133954197361,0.4041609807688052,0.8619502479415246,-0.5704520372263908,2.3707892724958195,2,right
16.997,-0.5697082795573585,0.30843041215552736,0.06451668827692433,-0.5075648645724458,-4.833939609210409,0.5032249275885651,0.873857382054074,-0.5735120747535276,2.407057728974197,2,right
17.000999999999998,-0.5701676866704584,0.32971714784109574,0.05329744263867535,-0.5876192869460037,-4.69965744700385,0.46287674747818836,0.8673027706110663,-0.571736131915175,2.387263840075966,2,right
17.002,-0.5672212588976544,0.34965099653452847,0.038951089705084214,-0.5886027332930748,-4.697959502986613,0.46240020492687334,0.8691152695862828,-0.5724377040243096,2.3923437394358618,2,right
17.005,-0.5608572359601123,0.36727920356488364,0.027154842868781018,-0.546872324626209,-4.768044852217471,0.48340155385933087,0.8702413271781138,-0.5723340683538128,2.396508423639333,2,right
17.006,-0.5531894228955363,0.3849964981118936,0.017489335989700407,-0.5969026302033937,-4.684030829714068,0.458217320875777,0.8679983926549512,-0.5722371227837044,2.3887802444211768,2,right
17.011,-0.5459279919615807,0.3996422850508533,0.014292529207467815,-0.557865199093605,-4.74955680249634,0.47787698655694666,0.8702033846069861,-0.5724229581936886,2.3962084509601285,2,right
17.012,-0.5394145431730795,0.41263890463204345,0.018818239483080743,-0.5791473006655441,-4.713930193580379,0.4671316142241543,0.8683377756422452,-0.5719342430354506,2.3905431627089673,2,right
17.019000000000002,-0.533552854778462,0.42357167005279195,0.02529386938056525,-0.5737387651031174,-4.722756883884168,0.4699261071242622,0.8702104376220504,-0.5731405186876208,2.3948920541372534,2,right
17.02,-0.5298001142501116,0.4321769130694342,0.035313995891217496,-0.5691574274273463,-4.7308693064268414,0.4721155585968336,0.8677876378742897,-0.5708669646826205,2.3905981931356624,2,right
17.021,-0.5309994365021463,0.43678874321126104,0.04813604196604213,-0.5775961337438409,-4.716187600890217,0.46800938546563015,0.8709572264274845,-0.5741427755750295,2.3956519601067967,2,right
17.022000000000002,-0.535262047800132,0.43885380579505234,0.06058963091606216,-0.5695048587430536,-4.73018030306332,0.47197005935165137,0.8676613456892237,-0.5706725887722996,2.390516323996578,2,right
17.026,-0.536934144341697,0.44155005438300327,0.07353937162717736,-0.5756009312448485,-4.719958104013809,0.4688974995378445,0.8694346636514827,-0.5726430483237088,2.3930860344641394,2,right
17.026,-0.5410581798558627,0.4438897880115267,0.08378994336994369,-0.5711013001073522,-4.72672657075505,0.47138027935082816,0.8716119283059378,-0.5745119737743842,2.3972708765159183,2,right
17.03,-0.5492190412614446,0.4470844717705491,0.08907406712796441,-0.5753091218716028,-4.721449333113137,0.46876722862311104,0.8631452748437884,-0.5666123925532034,2.3821802041612115,2,right
17.031,-0.5542130991436558,0.4484140991976867,0.08984053742485436,-0.5704873909522457,-4.726880865715671,0.47193228535411513,0.8786546661793768,-0.5812108099376014,2.4095839969930823,2,right
17.035,-0.5594173646487199,0.44910665962753127,0.0902816042253147,-0.5753555100150578,-4.721545836581317,0.468694907571621,0.8587834964440223,-0.562478546573781,2.3745268782949847,2,right
17.035999999999998,-0.5658408605308834,0.4503441954572437,0.09033533998559372,-0.5729723507114819,-4.723909870631459,0.47034966077150187,0.8753545307261879,-0.5781102425053559,2.403741262111488,2,right
17.04,-0.5679738940764015,0.4501981833909849,0.0873745072986651,-0.5687930385600961,-4.7295053639388485,0.472844679256843,0.8749750608674547,-0.5777100615873514,2.403153717008051,2,right
17.041,-0.567348360136767,0.45302132578107773,0.08525702661214257,-0.5836027835452362,-4.710841346469834,0.46367472123582865,0.8431529793109109,-0.5478333174632817,2.346781518707904,2,right
17.046,-0.565001287552318,0.45411733418551015,0.08296806206204943,-0.5567690622045192,-4.74440151471288,0.4803644188315741,0.9212844232111967,-0.6212349869432527,2.4850977705991,2,right
17.046,-0.5621684802473961,0.4551316000047845,0.08501141175703672,-0.5910793255530603,-4.701546348409714,0.4590054027908015,0.791762765254642,-0.49954548525601505,2.2558252385355644,2,right
17.051,-0.5628338470565208,0.45905529998609673,0.08913213892129895,-0.5624999692578614,-4.7372255027669805,0.4768074411365052,0.9625959827750408,-0.6600443115680896,2.5582291720374686,2,right
17.052,-0.5620175551043836,0.4592873417958482,0.08995569444073799,-0.5630370111011584,-4.736633049918234,0.47643761318839734,1.6798032437186168,-1.33385943307057,3.827863134383918,2,right
17.053,-0.5574615214404721,0.46236791899173446,0.10093946425094796,-0.6182927640552773,-4.667381527959357,0.4421269419734154,1.8506389464545783,-1.4943462304463533,4.130291783870055,2,right
17.055,-0.5576029467342436,0.46902797983528366,0.11197272325749026,-0.4827733112881717,-4.83714813875419,0.5263248624303798,1.7211145980015345,-1.3726697410582316,3.900992507121499,2,right
17.055,-0.5596533449236374,0.4784573870242187,0.1122159569331156,-0.70738084213178,-4.555787680214687,0.3867568812315067,1.799245025116727,-1.446076368241478,4.039298601321523,2,right
17.061,-0.5588070407245075,0.48930022254775946,0.11438616407281545,-0.4111476553630373,-4.926885169572968,0.5708417643862853,1.7674318506011581,-1.4161564375152942,3.983015079302106,2,right
17.062,-0.5586380461585514,0.49217014887635674,0.11615693166138538,0.8331375757249805,-6.485299693439707,1.3437536997290631,1.7670332080511812,-1.4158491671327382,3.9822367184850127,2,right
17.063,-0.556939432765712,0.49725476307827987,0.11823016554363677,1.1294184454822482,-6.856451977760522,1.5278548890077839,1.7836317385416387,-1.4313476569289787,4.0117247073269375,2,right
17.065,-0.554299274372793,0.5087555769157812,0.11809798781483205,0.9046910732087265,-6.575004723634991,1.3882615280321324,1.763733180252661,-1.412748028184378,3.976395117622766,2,right
17.065,-0.5518105261460228,0.5170873716049743,0.10756445486429403,1.0404326535493191,-6.744846231422358,1.4724801454701946,1.779254404224891,-1.4272892364137792,4.003916509145466,2,right
17.069000000000003,-0.5469906840635861,0.5240747265349932,0.09808595995661365,0.984849640321028,-6.675590469989318,1.4381714930520437,1.7708112351104264,-1.4192757136807235,3.9890597359578566,2,right
17.07,-0.5411992359655002,0.5325450727289254,0.09241423946267835,0.9846837868854674,-6.6748729312925885,1.437759574824078,1.7729127908458289,-1.4215115958081013,3.9924909958190806,2,right
17.074,-0.5338545091785578,0.5434376962436935,0.08716471348627788,1.012997500237151,-6.710838881370421,1.455652182394295,1.7748165921075363,-1.4228498194321477,3.9963592325298163,2,right
17.075,-0.5265894478638012,0.5562082800315973,0.0849052150083912,0.9786187966869179,-6.667563914039922,1.43416523039209,1.771360539907262,-1.4201554959509841,3.9896299021712767,2,right
17.079,-0.5209306426041103,0.5689824216323182,0.08000823025266388,1.0061003514068276,-6.701554445502145,1.4509802263272222,1.774657878252663,-1.4228128239780706,3.9959543539203035,2,right
17.08,-0.517042325955095,0.5827202428579109,0.07351845866644574,0.9899246618812038,-6.682676638787658,1.4417586099489292,1.772236094112254,-1.4205335905304937,3.9916715526950672,2,right
17.084,-0.5159978611069321,0.5980573936738647,0.06489218066959188,0.9960530062631759,-6.687972831202883,1.4441421611806446,1.773871968065046,-1.4228879919179325,3.9936629946497924,2,right
17.085,-0.5147885371319469,0.6119078314639781,0.04893079727430437,0.9964694199005877,-6.691413468866756,1.446146731897234,1.772547721282401,-1.4197757317716713,3.9933857414629816,2,right
17.09,-0.5146191402860069,0.6219728511132512,0.03366853187681482,0.9925371031203093,-6.6841614677260655,1.4423124940058505,1.7739449103434102,-1.4238752267062469,3.9927754910555087,2,right
17.090999999999998,-0.5127723522137622,0.6300897297939162,0.017704038402588163,0.9988209382305139,-6.6920113759585975,1.4462037339415663,1.7725633313210318,-1.4196065241490143,3.993616968803825,2,right
17.094,-0.5056686983648155,0.6355356219725056,-0.00433674503824023,0.9895420392358086,-6.684706380199339,1.4430207760748783,1.773191331203731,-1.4219127938311134,3.9928293623263604,2,right
17.094,-0.4959669255774049,0.6397146164034572,-0.023729409243793735,1.0029934996185994,-6.691688971058394,1.4454784098496158,1.7745756355013362,-1.424693477993777,3.9936425285975705,2,right
17.098,-0.4796812249367713,0.6464810923026758,-0.03900446937195752,0.9856572897280326,-6.6846929394025585,1.4435083237441306,1.7698974170752426,-1.4138219533774457,3.9925266779241393,2,right
17.099,-0.45707411357203753,0.653079834612255,-0.05427261229281072,1.0031384950577502,-6.69089857689387,1.4449877914801479,1.7783237534033922,-1.4337483312114427,3.9941545221884565,2,right
17.104,-0.4304993483665339,0.6560843682702113,-0.06533631604580198,0.9937081696785092,-6.6881531618066585,1.4445490335725788,1.767560391149172,-1.4082155445761373,3.9921641458747064,2,right
17.105,-0.40177873296534844,0.6583529148705974,-0.06847263798940939,0.9834953041803283,-6.683174676317896,1.4428773221462272,1.7765226333176571,-1.4295085506085115,3.9937842734667353,2,right
17.109,-0.3714687030416593,0.6634658593605955,-0.06718455408646642,1.0243470165705166,-6.70014323505911,1.4478072249364407,1.7763690026772516,-1.4290179496588837,3.9938975295264436,2,right
17.11,-0.3387545797214752,0.6674218402629326,-0.06571579981017614,0.949495898829324,-6.669814895114694,1.4392283377785602,1.7589898625646208,-1.3881387834308287,3.990295844111602,2,right
17.114,-0.30615684705683754,0.6710214891953412,-0.060797165235675785,1.0452803655412388,-6.708345310721495,1.4500411333214862,1.801599194568428,-1.4885105574570372,3.9989605529812757,2,right
17.114,-0.26799585170663415,0.678630479263729,-0.048226305510057396,0.9654540169025033,-6.6763553946049115,1.4410993988893623,1.7309801634520718,-1.3221198173440014,3.984645269428241,2,right
17.118,-0.24162862654933723,0.6848540090242393,-0.038238581099674936,0.9673993204691613,-6.676945159752912,1.441210397358038,1.8241221133134293,-1.5415822686665606,4.003520003906757,2,right
17.119,-0.23546949203250114,0.6878446367898627,-0.03537188737001556,1.1201841465911562,-6.738675367230931,1.458609327342224,2.215274263023403,-2.463014169094489,4.0830736018525595,2,right
17.119,-0.21538581630043213,0.6963858958763609,-0.027337614882634618,0.7449704855180973,-6.587354736867484,1.4160336156725315,2.308429746271731,-2.6824915849447306,4.101972000816993,2,right
17.122,-0.1849707491582569,0.7190057830335955,-0.015580058006952238,1.366972082040969,-6.838091385029228,1.486555890022267,2.2377876318459062,-2.516068950034738,4.087617183383815,2,right
17.123,-0.17132588032297566,0.7372509900696163,-0.01024208429265629,0.5466007958534984,-6.507438166987079,1.3935615265518786,2.280421293442178,-2.6164901907938973,4.09632149650902,2,right
17.129,-0.16790664002616817,0.7432409476906798,-0.009539878389006384,-2.897102847792852,-5.119153812893632,1.003139232807884,2.2630290843408565,-2.5755500550251,4.092703016616277,2,right
17.13,-0.1618235255738625,0.7673519205167951,-0.008528760296671972,-3.717462012680809,-4.788533284051132,0.9101458645641067,2.262862395011405,-2.5751140277467353,4.092784450861286,2,right
17.13,-0.15989454308295856,0.8047887262707765,-0.011993983519064461,-3.095498192953137,-5.039203678384698,0.9806517434080678,2.271876328435587,-2.5963901209575746,4.09450461175576,2,right
17.133,-0.1692951172883898,0.839098504896719,-0.02463117665056578,-3.470629487194905,-4.887978996550853,0.9381298815757212,2.2610203127592126,-2.5707975632690863,4.092346663500528,2,right
17.134,-0.18302067000243832,0.8789293122540148,-0.04159767819971391,-3.317981249347711,-4.949600982976886,0.9554205223555574,2.269563096382938,-2.59089199785644,4.094173010251265,2,right
17.137999999999998,-0.20108180054327818,0.9170050175754105,-0.06127999272194262,-3.3158623698461245,-4.950272926192931,0.9556897888835891,2.264788237829631,-2.5797439835015314,4.092910264998034,2,right
17.139,-0.2233975590983756,0.9490472861383925,-0.08419282609329093,-3.3958412689420854,-4.918285813907176,0.9465809596449529,2.266180711022537,-2.5828513494179246,4.093696348969951,2,right
17.142,-0.24425854098209207,0.9786764245553349,-0.10762427205323777,-3.3000252090389672,-4.95666275898599,0.9574854142723973,2.266966732512953,-2.58491491028653,4.093239421174153,2,right
17.144000000000002,-0.2619919476784883,1.0012876305234333,-0.1278247819993143,-3.374666538176941,-4.926680442560086,0.9490057530720472,2.2652084426268253,-2.5806040218551574,4.093373430200396,2,right
17.147000000000002,-0.2736552553266197,1.0195697165923714,-0.14371535629049448,-3.3343567686028472,-4.943136054383811,0.9535371765135243,2.2671790607417863,-2.5852452323387034,4.093777904905142,2,right
17.149,-0.27965525240924527,1.036143118557746,-0.15497405037992734,-3.3437095617994936,-4.938700724926015,0.9525989496755507,2.2652311438818122,-2.580967986254104,4.09247200706492,2,right
17.152,-0.2781434022757544,1.046207838253054,-0.1588271591247084,-3.3541190096578477,-4.935649140363536,0.9512086871668394,2.2672455751006604,-2.5850011577142253,4.094961285005411,2,right
17.153,-0.26708670506826987,1.0517168974597424,-0.15882307504380389,-3.3359702027774527,-4.941561728253256,0.9535241843041287,2.26509867502935,-2.5810063130175376,4.091422147680365,2,right
17.158,-0.24958845438413083,1.054145527864142,-0.15594907023528012,-3.353040745492823,-4.935798605193921,0.951383189428664,2.2670733876194484,-2.584525313485358,4.095131186817216,2,right
17.158,-0.22503170432827763,1.050667906985514,-0.14849889185244855,-3.3414240338195773,-4.940491445070359,0.9526981946147496,2.266142623948026,-2.582987457287202,4.093030611007752,2,right
17.162,-0.1951285923204677,1.044242054568878,-0.13935076867889912,-3.346980813270672,-4.936177371489022,0.9524505808709083,2.2646867955454066,-2.5801216287476603,4.091087897622574,2,right
17.163,-0.16325965589163777,1.0364546145511229,-0.12672803907575114,-3.345872464843392,-4.941363393066402,0.951702470939208,2.269852849805136,-2.5898229951664544,4.099346816894666,2,right
17.167,-0.12768142979391237,1.0281003146718066,-0.11231115230969993,-3.3447499904196,-4.934746436969075,0.95313331183972,2.260556682953059,-2.5725020343850393,4.084087739134544,2,right
17.167,-0.0902700209396749,1.0217314509749156,-0.09888393742797402,-3.3464633977137224,-4.941591177178745,0.9515492920222252,2.27239162135874,-2.5945027177220394,4.103661049027719,2,right
17.172,-0.05774890083232509,1.016921922139302,-0.08466045186198357,-3.3446573027523856,-4.937966351895334,0.9525572217030996,2.2625531177158162,-2.576234836683641,4.087327899666812,2,right
17.172,-0.030014406613632617,1.0141611109571933,-0.0728490203611267,-3.3471433842725884,-4.933208637332201,0.9529672760656198,2.2627560434231655,-2.5765783865905316,4.08775917512301,2,right
17.178,-0.006592989620351309,1.0142957821820087,-0.06261217259904883,-3.3428803846341095,-4.951356189793536,0.9504214826925514,2.2816856906550127,-2.6118149501693537,4.118932736553458,2,right
17.179000000000002,0.011856432622285158,1.0142375383367117,-0.04703685620580499,-3.349592384968833,-4.918185516659585,0.955278461361441,2.235248293478387,-2.525421647815775,4.0423258010167915,2,right
17.182000000000002,0.02988868395858292,1.0133104855555355,-0.03151833200278772,-3.3412409443774314,-4.960667811366876,0.9490111438146055,2.312213148060139,-2.668591198280186,4.169340888395133,2,right
17.182000000000002,0.040633678769499366,1.013671745478182,-0.02648156248883965,-3.3481059924706766,-4.925248546983,0.9542561772702853,2.210703273972061,-2.479769380994518,4.001805969383925,2,right
17.187,0.04020573371448147,1.0150294464420684,-0.024142578148236893,-3.3483334264896283,-4.926032054239586,0.9540659941131157,1.784601538768086,-1.6871397290826111,3.2985979280178794,2,right
17.188,0.04241294507988307,1.0183491253952304,-0.02043269664353757,-3.3338844138309716,-4.994137087583871,0.9442219768902895,1.683076010651971,-1.4982890561574118,3.131049315123395,2,right
17.188,0.046431538017300315,1.0243442084585572,-0.018503935328112432,-3.3689145024979554,-4.82695681594784,0.9684751847775888,1.760058664343458,-1.6414879980743202,3.258084453209392,2,right
17.191,0.04095111786158903,1.0315317941390236,-0.009337147223841992,-3.310953535867656,-5.1040845713350596,0.9282459840256599,1.7136246538441928,-1.555113046198373,3.1814646107850426,2,right
17.191,0.03391467536709758,1.0360830570108448,-0.0009749902919620919,-3.387401101881904,-4.73857588931765,0.9813117142694638,1.7325044183505103,-1.590232697937436,3.212627252163607,2,right
17.195999999999998,0.033094311933072405,1.0380627895534165,0.0004700827921596089,-3.7088765660792564,-3.204115275066616,1.20398783492287,1.7328188808897598,-1.590818879376144,3.213107560995092,2,right
17.198,0.028937838288248263,1.0437495872385751,0.0058404216817284655,-3.7853992411466506,-2.838644066554269,1.2570563781479067,1.722817086056149,-1.572210252430542,3.1966836612182385,2,right
17.198,0.01704247100860628,1.054292126851906,0.01216566844548583,-3.727341986888607,-3.115690737717151,1.2168180468728207,1.7348188402232951,-1.5945413354892972,3.2163728810095664,2,right
17.201,-0.0002916309426201917,1.066481066926193,0.01540087325577521,-3.7623943858651354,-2.9486386405649974,1.241091657712294,1.7254428697437842,-1.577094354057683,3.20101635729437,2,right
17.202,-0.0212081317195497,1.0795750951459555,0.009721328879560192,-3.7481052184748633,-3.0165821290190005,1.231213287144316,1.7304837183728383,-1.5864739053191226,3.2092850470324574,2,right
17.206,-0.04076172063798604,1.0956796989389952,-0.0038953446429407872,-3.7479154296682484,-3.017515448375165,1.2310673243974248,1.7294622250012903,-1.5845791444625676,3.2074988850055925,2,right
17.207,-0.06054897766124386,1.1124227607617376,-0.019775546817665912,-3.755437374648057,-2.9820397299088404,1.2362727301506928,1.7277655109100445,-1.5814053983279028,3.2050218454849055,2,right
17.211,-0.08021456343434213,1.1274616179617518,-0.04550931236481323,-3.7463584943492605,-3.0243804367322475,1.230015173536517,1.730698833993442,-1.5868923037101488,3.2093061905172204,2,right
17.212,-0.09482115098874913,1.141988768157141,-0.07734478655839869,-3.7535205116535693,-2.991638200935566,1.2349230967363547,1.7277600267348692,-1.581388179188672,3.2051392227112196,2,right
17.218,-0.10572474994470402,1.1526471463513643,-0.11022009263873445,-3.749568452518109,-3.0090608299123556,1.2322418200085397,1.7298308224252588,-1.5852701237322546,3.2080121993381505,2,right
17.219,-0.11020484768882599,1.1594774045373843,-0.14223090989657972,-3.75051325021114,-3.0051821395591487,1.232869664502179,1.7292074594946074,-1.5841107740405316,3.2069785785670533,2,right
17.22,-0.10571981597341434,1.1623989894428073,-0.17061913192418288,-3.7516691448409474,-3.0008691877425617,1.233626425650296,1.7280350605498143,-1.5818744748244296,3.2060542204034403,2,right
17.221,-0.09325870357529933,1.1581786509127916,-0.19993080712946842,-3.7494223072651818,-3.0076811046101364,1.23221892331548,1.7310603942447553,-1.587628926759347,3.2087377540213042,2,right
17.226,-0.07313196972975498,1.1491075171269038,-0.22119646191792833,-3.7519426172244197,-3.002400304062515,1.233705728526771,1.726627371138995,-1.5791934633671376,3.2048668301984513,2,right
17.226,-0.04889851630714702,1.1371455301823454,-0.2283913585645842,-3.7497495723190024,-3.004583798922858,1.2325055045829636,1.731246600750511,-1.58798790331837,3.2088176174452148,2,right
17.23,-0.019790674866183855,1.1221494335388795,-0.2272872936953764,-3.751108319949999,-3.0047032615482783,1.2331920257978903,1.7285762123349813,-1.582903718798364,3.206532505637745,2,right
17.232,0.014951472151983487,1.1059258528444587,-0.21623578500540822,-3.7511133948260085,-3.004735848363346,1.2331938119407604,1.7265115311307924,-1.5789628475350501,3.2049543883981717,2,right
17.235,0.0490700511457189,1.0904022029779037,-0.19613214617358582,-3.7492181434055323,-3.0015322992932303,1.2323523601017152,1.735855345982117,-1.5967835290337806,3.212369240205425,2,right
17.236,0.07896901301820672,1.0776057398760366,-0.17183446206566397,-3.753286363818666,-3.0101103140400056,1.2340924111975011,1.7185112166565109,-1.5637048313529105,3.1985919051769685,2,right
17.241,0.10567982545606916,1.072196262696358,-0.14563196088850228,-3.7474343121547626,-2.996277949245619,1.2316471640234978,1.7407630467641315,-1.6061448149490485,3.2162516403823194,2,right
17.243,0.126743447049604,1.0740506362743378,-0.1184055355478588,-3.7535456097575786,-3.0116286398679923,1.2341657357909654,1.7221939073415649,-1.570727642518404,3.2015211080754136,2,right
17.246,0.14511277782117044,1.0814122806378577,-0.09401773577535635,-3.750055595408961,-3.002566239714322,1.2327389053768907,1.722724123560554,-1.5717392083702535,3.201965784740117,2,right
17.247,0.16355107738745084,1.092314317935423,-0.07611681514215228,-3.747062271017532,-2.9946712783846747,1.2315197053197375,1.7580189009645033,-1.6390588744321666,3.229866759696634,2,right
17.25,0.17825049859966544,1.1044347296402997,-0.06360245489410576,-3.760110009823739,-3.029451150961825,1.2368197350851418,1.6712445505326947,-1.473547477119744,3.1612490126660626,2,right
17.250999999999998,0.2013095772572141,1.1223971412782694,-0.05798305988748695,-3.735961089817087,-2.9647310662375013,1.2270238994880591,1.815122059742068,-1.7479780948626695,3.27502367075455,2,right
17.255,0.22306055749495984,1.1343894562117578,-0.05758182890655881,-3.766935542447742,-3.0479868870685545,1.239579068840342,1.625351850923331,-1.3860104574897885,3.1249608163342106,2,right
17.256,0.22846036468954253,1.1384308815987545,-0.058958343348251195,-3.7410931240890735,-2.9784161480689715,1.2291083344788256,0.8289452512505059,0.13301596832446683,2.4953343785723665,2,right
17.257,0.2521066322576089,1.150689788490444,-0.06371219142485457,-3.7417887219241477,-2.9802839215818295,1.2293903574037306,0.6391880167505122,0.4949577653119099,2.3452932700142046,2,right
17.26,0.2909784467149925,1.1607667011254108,-0.07272289690052167,-3.791049172533432,-3.113097652522162,1.249341861800131,0.7830351413961337,0.220591397565624,2.4590162583447226,2,right
17.261,0.3191261783465,1.1662692141954438,-0.08328804267271953,-3.6699926226850783,-2.786632487636738,1.2003144607148593,0.6963133542988158,0.38598487948138577,2.390489243248619,2,right
17.265,0.35521738585240514,1.16924644670789,-0.08573465861180089,-3.870692373097677,-3.327958456865878,1.2815939859870435,0.7315353240856828,0.3188374905430877,2.4182627611847476,2,right
17.266,0.38223788068262854,1.1655191516533194,-0.08152400057795978,-3.6059860147545604,-2.6139299287670514,1.1743954881782888,0.7321424478577234,0.31763229531347015,2.4188443906722923,2,right
17.267,0.38905489422049244,1.1634686395565472,-0.08047574885517432,-2.494807710928731,0.3834263917524692,0.7244011910148915,0.7135268856805077,0.353185346494715,2.4040274102537245,2,right
17.27,0.4097821331830296,1.1538861596316532,-0.07529540630544351,-2.230122481980295,1.0974709347758025,0.6172140365263835,0.735745191083018,0.310787112665456,2.421635934479829,2,right
17.272000000000002,0.4367811805096772,1.1342557793723125,-0.06029228359037586,-2.430795029812456,0.5561068880604547,0.698478276638002,0.7185636258462638,0.3435190045870893,2.4081356517572248,2,right
17.275,0.45572796189979886,1.114342971826355,-0.03803002429071892,-2.3097451646432816,0.8826389611281632,0.6494568779289658,0.7275949695961528,0.3264200937783825,2.4150069933530354,2,right
17.275,0.4712927292073529,1.0883519982121017,-0.00829176947652207,-2.359049740310935,0.7497311828320231,0.669427094811226,0.7259497612506463,0.3293393162982998,2.4141689947124796,2,right
17.279,0.4817412392027381,1.0566628013496588,0.02663704077568626,-2.3596292157588383,0.7479645353255127,0.6696541596457328,0.7228898858598057,0.33544392269577344,2.411182382767649,2,right
17.28,0.49348399356648026,1.0249348625521018,0.06129264452916505,-2.3339702524941153,0.8174713288602318,0.6592739902245355,0.7276331805170255,0.32618295066021463,2.415384777865519,2,right
17.285,0.5040971230720548,0.9922305064072521,0.08882628855310022,-2.364740836923417,0.734177939106746,0.6717242775862342,0.7236300027149803,0.3338164181925193,2.412223537632424,2,right
17.285999999999998,0.5088203088207424,0.9583670388418438,0.10616471876287045,-2.3407192255855156,0.7991022578785338,0.6620009928429631,0.7254418923282073,0.33075744727981626,2.4128177919037044,2,right
17.289,0.5096415483537589,0.9272411991800624,0.11138033136627166,-2.353851365940156,0.7639213655935687,0.6673281847989769,0.726264493890854,0.3282815551687479,2.4153842159731624,2,right
17.289,0.5041797768615317,0.9026765514909114,0.10500595773096738,-2.3504302043003094,0.7723627960505645,0.6659132857901696,0.7232894043226483,0.3353088349426445,2.410173311347452,2,right
17.295,0.49521418486219637,0.8867552770763958,0.09047664437321445,-2.3477658873557075,0.7809066314215312,0.6648850649369771,0.7271005232616106,0.32659789224237523,2.4162343918130134,2,right
17.296,0.48389670692706743,0.8791738026745091,0.06421079208114093,-2.3527698845418255,0.7657432939554376,0.6668492517039394,0.7244695019650884,0.3324488265764249,2.412392298902546,2,right
17.299,0.4650717264779133,0.8783483298931642,0.02757260284155359,-2.347940926846851,0.7800968025546812,0.6649433275254377,0.7235352269535096,0.3349498935907962,2.4101375596746455,2,right
17.3,0.44028990833993964,0.8869401333373688,-0.01328071434738552,-2.3516954171678766,0.7699805084418283,0.6664641930249079,0.730084651791262,0.31931358224263706,2.421956531129112,2,right
17.304000000000002,0.4171013870663459,0.9041129217775652,-0.05649686701502862,-2.34864196798586,0.7757553826092465,0.6651355870165472,0.7173572563166168,0.34941910575607754,2.3995760780092965,2,right
17.305999999999997,0.39587835917516545,0.9263486878965754,-0.0966678900731343,-2.351879950315627,0.7726472049665399,0.6666572763322998,0.7339095244544982,0.3103633504081938,2.4284817761967075,2,right
17.308,0.3767642309604118,0.951492136673969,-0.1322738149973463,-2.347945251649867,0.7748676046018406,0.66474993777578,0.72000205945121,0.34313681641567007,2.404276264420988,2,right
17.309,0.3678372234098321,0.9769858082022435,-0.16602876100108863,-2.3519728618059466,0.7729506588460116,0.6667156395280858,0.7205155949092249,0.3419919027641225,2.4050475634223085,2,right
17.313,0.3647805015812352,1.004654092076398,-0.1970881422876688,-2.3499091927978752,0.7733476107108426,0.6656865480360503,0.7466698225714478,0.2801860829909383,2.4508960980853143,2,right
17.314,0.35733191266601316,1.0298792430477612,-0.22179320943697597,-2.3468252494424595,0.7772099269018349,0.6642709811694447,0.6821871926528333,0.43246866021080393,2.338032775435741,2,right
17.317999999999998,0.35123977113078303,1.0508334967515618,-0.23793609911863123,-2.3581858084374403,0.7660685341251132,0.6696011393260846,0.7891779890665784,0.17983907966704565,2.5252381923460447,2,right
17.319000000000003,0.3509042953356733,1.065926033988562,-0.24607675391827985,-2.3375033100094638,0.7856904850857677,0.659872444783478,0.6480292523086806,0.5131034490761525,2.2782779463144016,2,right
17.324,0.3487522353383739,1.067033155018592,-0.2455590483450963,-2.363973624042991,0.7607280516259394,0.6723295256673525,0.05567220307056325,1.9117987429245895,1.2418338815458028,2,right
17.325,0.34286105295086455,1.0684836909167073,-0.24353196520810227,-2.3419112235792583,0.7814740200048707,0.6619439213005924,-0.08548518859796597,2.2450617308881644,0.9948283446007806,2,right
17.326,0.33387132995911795,1.0654647985996348,-0.23686662677194975,-2.3423699248640397,0.7812732207799172,0.6621706149352558,0.021532721180220427,1.9924083998441353,1.1821152978393934,2,right
17.327,0.3198741669527321,1.0454844413271291,-0.21820707898648029,-2.384891078474226,0.7405305673153066,0.6821523735885882,-0.043009215836792236,2.1447809644838243,1.0691553741002515,2,right
17.328,0.30433025068726605,1.0184824720766175,-0.19485156984649332,-2.2805422744363346,0.8402462752191655,0.6331037503465451,-0.016756440041185892,2.082785840873493,1.1150789390667326,2,right
17.333,0.28762663769703223,0.9702720325503968,-0.1622879812868233,-2.453519721660463,0.6750236340601807,0.7144121142561254,-0.01636835624254894,2.081925084507526,1.115847515940338,2,right
17.334,0.27673587257401083,0.9316707466888493,-0.1381778720000167,-2.225350452206543,0.8929378625160199,0.6071680428925663,-0.030165271803777257,2.114389724190696,1.091518835549627,2,right
17.335,0.27445462009937005,0.9224592001539667,-0.13236846686591558,-1.2668864823177244,1.80795863721888,0.15693415558211007,-0.01363649682261145,2.0755183393988244,1.1207059134952793,2,right
17.339000000000002,0.2647267375302237,0.8853226335298668,-0.11007080347291967,-1.0385655711400428,2.025872689965724,0.04968298851920249,-0.02651455246544279,2.1057730035667808,1.0979092853702268,2,right
17.340999999999998,0.24980858674220505,0.834454087283621,-0.0803019137639846,-1.211854230903021,1.8607011736702046,0.1309991777061046,-0.019574437583547124,2.0894514131751194,1.110165860638203,2,right
17.343,0.2377684084986624,0.801337449383356,-0.06597032318156863,-1.1070466301885022,1.9602365413289238,0.0819529493875027,-0.02112980955862903,2.0932533710626644,1.1076699530340428,2,right
17.344,0.22465855432781554,0.7672111363001619,-0.05592985128232067,-1.1500980603365836,1.9198651963888496,0.10191032460873502,-0.02305252707395796,2.0973775226286095,1.1035801124306468,2,right
17.349,0.2141302132031155,0.7401944660731177,-0.048684887940295726,-1.1501336244389893,1.9191139541369284,0.10219020518472385,-0.019726356469423063,2.090239084140747,1.1106495471754996,2,right
17.349,0.20699302440001555,0.7260857470553408,-0.04805792054894924,-1.1281032398923703,1.9404502210279104,0.09172776278517919,-0.022889016963454217,2.0968295943276054,1.1035827058248096,2,right
17.352,0.2012254807088594,0.7183594937034801,-0.049634145808478476,-1.1552594620033485,1.9151484370345104,0.10426208119223226,-0.020746114521746586,2.0924688146917503,1.1085541927331393,2,right
17.352999999999998,0.19625515722648693,0.7206599199318855,-0.05058444473762178,-1.1329481680888347,1.9344554477251577,0.09449871780020519,-0.02161919710422766,2.0945364594138676,1.107037550628109,2,right
17.357,0.18974460710725177,0.7366734912486562,-0.05749764106328968,-1.1467907764765128,1.9246685056790849,0.09976564401023223,-0.02188335469628134,2.093863699435888,1.1043076206377251,2,right
17.358,0.1818690005762687,0.7649120189994072,-0.071529888879254,-1.1409951873928619,1.925996729145578,0.09855908576175286,-0.02079888351712113,2.094265922980905,1.1113873315264073,2,right
17.362000000000002,0.16873039251889071,0.8027366381879341,-0.08723865997690308,-1.1406036160794861,1.9297215113860868,0.09716684237701809,-0.02230491877692113,2.093401872076659,1.1010214537917065,2,right
17.363,0.15073483343886968,0.848886793535426,-0.10315122689820169,-1.1457665114113404,1.9248237960628831,0.09958143231571412,-0.0208476939556104,2.0946730847494344,1.1118121080676375,2,right
17.368,0.1351226896135974,0.8940538363576516,-0.11839312832947813,-1.1361624307032874,1.9277714462647682,0.09731142074561666,-0.021691341395490796,2.0939422580959848,1.105574728999551,2,right
17.369,0.11795152420211866,0.9334870876836898,-0.13438696883748233,-1.1503229239717032,1.928468084128543,0.09884092795382042,-0.02208953467804912,2.0925361662642437,1.1007725362600551,2,right
17.373,0.10017946862482999,0.9702278519116548,-0.14778954043588743,-1.1326062237117194,1.9241758452915962,0.09815998678252505,-0.019920670072184978,2.0976853346700572,1.1225324455344492,2,right
17.374000000000002,0.08640226469653972,1.000394975479379,-0.15347722957739854,-1.1499907865269396,1.930184640836876,0.09818070303395533,-0.023964257142008838,2.0881859873599864,1.0821420498050442,2,right
17.378,0.06816601167979094,1.0215328069425813,-0.15081505670508177,-1.1407134342501437,1.9259809152200613,0.09852875490697513,-0.01879911370917131,2.100448133755588,1.1339570122754463,2,right
17.378,0.04748406000645544,1.0356991716949855,-0.1446396579856216,-1.131099076108259,1.9238983760912827,0.09807065249027884,-0.023099195258668485,2.0901815652935696,1.0907218018897793,2,right
17.383,0.026396349655570656,1.0429078653801702,-0.13602153559839128,-1.1697624077470792,1.9362661325231199,0.09847512740244216,-0.02294731620152885,2.090378223268368,1.0919508226890067,2,right
17.384,0.0027858245146103588,1.0455431725973565,-0.12190257070252346,-1.0990571561308393,1.9123809835157315,0.09819168004996465,-0.014897626014462746,2.110301771049424,1.1741376429254107,2,right
17.387,-0.021309921234112156,1.0441395805345999,-0.10410063564406208,-1.1894022932853687,1.9434725108381425,0.0983484554335072,-0.03471081862996811,2.0613931249568784,0.9720901282888095,2,right
17.387999999999998,-0.04793353818645228,1.0354809569228287,-0.07663896934578929,-1.114170592252969,1.9173341944535276,0.09830632749811616,-0.001860728639511481,2.1424924156465126,1.3070871550751662,2,right
17.392,-0.06435018000717423,1.0275310857062323,-0.05187485075219601,-1.1160335476443302,1.9182012533722121,0.09823027869435283,-0.045182947541716256,2.035502613633156,0.865244899038157,2,right
17.394000000000002,-0.07100203092639475,1.0243782846356422,-0.04409616387027797,-1.2598115401669219,1.9677441300117204,0.09845391560353803,-0.22691963820050481,1.586205654350411,-0.9892519307343447,2,right
17.395,-0.08770122251062494,1.0136872092943623,-0.024941219257956386,-0.906736485819822,1.8456865262419808,0.09804279405611893,-0.27023211357191884,1.4791858988056774,-1.4310690842366314,2,right
17.398,-0.11372758621950751,0.9969360954485813,0.008645295039437555,-1.4919941139687907,2.048203656207283,0.09865783908526074,-0.23739897450963066,1.5603327308199928,-1.0961104276937363,2,right
17.399,-0.130261490637152,0.9872798937379336,0.020991178751257604,-0.7201297855273698,1.7810118886116943,0.09787974074059264,-0.25719347548891996,1.5113828070309052,-1.2981285624784276,2,right
17.401,-0.1376687400679938,0.9849668670001731,0.029552295362551023,2.519851532165799,0.6595016176449855,0.09461557127602488,-0.24915561719147497,1.5313093634543222,-1.2159335167904692,2,right
17.402,-0.16479984245008664,0.9903137442073777,0.06402657502594797,3.291631421909699,0.39225536356516155,0.09385723368905591,-0.24900954617470045,1.5315733751743215,-1.2147768852784828,2,right
17.403,-0.19612018600402167,0.9980517624685409,0.08114444380174206,2.7065301740351475,0.5948809443075843,0.09442993249228908,-0.253276267554227,1.5211511262428146,-1.2578645162784232,2,right
17.407,-0.1888232271675917,0.9713197852594659,0.05039170410710979,3.0594096606173045,0.472670431002366,0.09408494310206228,-0.2481756136740477,1.5336421344203592,-1.2062512101601834,2,right
17.408,-0.1371889591728851,0.8842922652396241,0.004233048638282342,2.9158034425642625,0.5223792236686999,0.0942263969086775,-0.2521333045935594,1.523906918080334,-1.2464530168754553,2,right
17.412,-0.0509413543831891,0.7621239641470907,-0.01668988653710061,2.9138880957619944,0.5231307687236912,0.09422489552919461,-0.2500428757299833,1.5291755309138666,-1.2247540139796682,2,right
17.413,0.045693283846924206,0.6478648297291545,-0.0069554750762243584,2.9889409615394205,0.49696475179184973,0.09415776576944587,-0.2504185983434026,1.527928223020643,-1.2297626702316817,2,right
17.419,0.1301270464740509,0.5811990699434872,-0.01471915989810873,2.8990911142244187,0.5283253347624277,0.09423716177336926,-0.2511703032589347,1.526615280107579,-1.2354157489141426,2,right
17.42,0.21057481233290185,0.5886128466018903,-0.06243069148603531,2.968993624839614,0.503875704748356,0.09417701554383606,-0.24996463589718862,1.5289284532843697,-1.225584832454485,2,right
17.421,0.31290726319861334,0.6646970065771021,-0.12642992985478102,2.931262235774267,0.5170455844923582,0.09421034919355056,-0.2510629458263872,1.5267445126858608,-1.2348231703012993,2,right
17.422,0.45221314186268163,0.7847722228513562,-0.1905255076148419,2.940209586294521,0.5141566980303627,0.09419493019075999,-0.2504516445881215,1.5282608365030665,-1.2285674496130643,2,right
17.426,0.6219125602453208,0.9236628755869513,-0.2301924023630644,2.9493105056108138,0.5103330997025615,0.09420770513633991,-0.25037881403357487,1.5274551119512347,-1.231476806319404,2,right
17.427,0.8002249196551987,1.0591292716101015,-0.22957216578781703,2.9335505916697677,0.516947481718517,0.09418574093219446,-0.251156823593385,1.5277836452696376,-1.2310699604278432,2,right
17.43,0.9521090449556233,1.17450459552487,-0.21633958386277252,2.9478678750146132,0.5105701580337465,0.0942176460099958,-0.24984975130671905,1.5276560522036955,-1.230181964419273,2,right
17.430999999999997,1.0441204102754258,1.2601962759119194,-0.23356494226162916,2.9385222051719886,0.5149381376339146,0.09419008481864727,-0.25127036224868654,1.5277243602185266,-1.2314070520194362,2,right
17.435,1.05896860012935,1.3280095895605855,-0.2553380876986928,2.9433170252228353,0.5132872937385646,0.09418535867149,-0.2504064428408379,1.5277917249357544,-1.2302593083021214,2,right
17.436,1.001929463444752,1.3963836362726187,-0.2216836208142883,2.9403622231375466,0.5122117885737504,0.0942556470321395,-0.24987521704018248,1.5273212519297306,-1.2314485866777751,2,right
17.441,0.8852623785533988,1.4686131291865983,-0.14239004864803084,2.944486401224835,0.5155809161651503,0.09409708261946381,-0.25254957028468344,1.528514667264995,-1.2298101888320288,2,right
17.442,0.7144285501288301,1.543612197487712,-0.04157243424985358,2.9377215791072255,0.5107657898785587,0.09433463149210788,-0.2475268671101414,1.526458139229755,-1.232204581949603,2,right
17.447,0.5152914661329241,1.6125143912416775,0.05640964269076652,2.9457453041598183,0.5156188431285325,0.09408011081563947,-0.25399045568493,1.529063088494949,-1.2292750403119892,2,right
17.447,0.3662071712000661,1.6729805855658761,0.09792668782250842,2.9411149512015977,0.5128104971605025,0.09422801954200971,-0.2485885165122786,1.5269035911185318,-1.2316613940830266,2,right
17.451,0.34993857814447016,1.6928887621911342,0.03801324935119029,2.935334960674868,0.5110160662812095,0.0943545835824382,-0.24875691938857686,1.5269052281302677,-1.2318231975038074,2,right
17.452,0.4655525665541081,1.652117335482599,-0.11595548359214006,2.958323072939308,0.519683461346419,0.09379729300901099,-0.258984705007814,1.5312071372969456,-1.2265320363889503,2,right
17.455,0.6428775134010669,1.5839502150890952,-0.29986579963250204,2.9157990444777306,0.5035661824666757,0.09483303292348977,-0.23381973838770062,1.520702606945664,-1.2392685401073944,2,right
17.455,0.7937332125865544,1.4814972720857005,-0.45590302412184114,2.9705591963993045,0.5242133408349162,0.09350060763542073,-0.27555139629245995,1.5380993014720903,-1.2182221533551485,2,right
17.462,0.8723843800372896,1.4074263254140136,-0.5340813242452017,2.9247627905507496,0.506994547291068,0.09461648588967089,-0.22050669789843838,1.5151582656525613,-1.2459736321321806,2,right
17.463,0.881053477295625,1.3857490219364044,-0.5468871275172453,2.925841084468054,0.5075377857268566,0.09457849239654048,0.010507356364058182,1.4187418599796513,-1.3628193620919742,2,right
17.464000000000002,0.864519663379408,1.305433460258476,-0.5877476760630789,3.0139054633205298,0.5400631824183411,0.09246906845125713,0.06554993921465604,1.3958004210200916,-1.3905933465090456,2,right
17.465,0.8041580978402247,1.2056087031504994,-0.6811868535001302,2.7975409239773184,0.46004643340246154,0.09766977533906712,0.023820571352554196,1.413197549727696,-1.3695226101664009,2,right
17.465,0.5944414580352625,1.1491523706689222,-0.7660739867363855,3.156339548488581,0.5927311330902132,0.08903450656730043,0.04898640438545023,1.402693192314394,-1.382249852818898,2,right
17.471,0.4201163281365161,1.1173202295177087,-0.8025473983546745,2.682997556454403,0.417718277735044,0.1004367536519028,0.038751034834666846,1.4069936401302026,-1.3770394619618114,2,right
17.473,0.36831778085502753,1.115344880835528,-0.7967528033764456,0.6961433168287028,-0.3165150938155693,0.14815680288723168,0.03859895541029883,1.4069984117133676,-1.3770274782572283,2,right
17.473,0.158214602216824,1.1298251340220204,-0.7415175671924948,0.2226621660681236,-0.49153545859265985,0.1595797557743503,0.043977485528834834,1.4048344277715823,-1.3796630072770975,2,right
17.474,-0.1459138311530896,1.1941272485638859,-0.659696792287261,0.5816463881622485,-0.3588547599822435,0.1509220554303336,0.037537213153276024,1.4074438350080312,-1.376485339374991,2,right
17.475,-0.38958243069251686,1.3251841890061182,-0.5888889326574296,0.36521501018176483,-0.43882546916507714,0.15611434561337556,0.04254984529598828,1.405385401476723,-1.3789867938568547,2,right
17.479,-0.5835968286312172,1.479058575513006,-0.46629525022062407,0.45303581199358267,-0.4064155676312493,0.15407901866240764,0.03985549440840478,1.4065749471367175,-1.3775614661523061,2,right
17.48,-0.6280225568758286,1.6459382824909516,-0.2489078416262112,0.4548091158013976,-0.40568298102792466,0.1538814535257399,0.040451179817496505,1.4061168679226332,-1.3780643892440314,2,right
17.484,-0.5260379758557956,1.8288666723556908,0.05556958552625692,0.40787935926372754,-0.42312590029394476,0.15522623931412494,0.04120400899283831,1.4061629181998847,-1.3780992627299837,2,right
17.486,-0.29423519219398064,2.023003382032078,0.45144761805978806,0.46393903662715075,-0.40231472118573375,0.15366572726729566,0.0399197586917983,1.4062573413034487,-1.3778729843983615,2,right
17.49,0.07533188376943466,2.220332901117371,0.8497888153999479,0.4205368311925991,-0.4183929046911006,0.15480014726487384,0.04111808027585654,1.4061089923304033,-1.3781420843535064,2,right
17.491,0.5053239693949633,2.392683014028917,1.1059071686570774,0.44314055412305875,-0.4101195285402529,0.15443810710551953,0.04033918765174112,1.4064371927415356,-1.3777455571979778,2,right
17.494,0.9885957537839891,2.46834487383538,1.0949156831918725,0.4398571954567135,-0.4110802350429054,0.15393466606322423,0.040613633385836935,1.4056703248810245,-1.3785076329928878,2,right
17.496,1.501621737789948,2.4154641118233764,0.7750837766899139,0.4302107529115866,-0.4150779159737963,0.15516869539471723,0.04076402060579806,1.4070981168968655,-1.3771591505277891,2,right
17.5,1.9129188639311323,2.3081811610871865,0.2809662253692715,0.4451488302903216,-0.40902770793430926,0.15358060035937127,0.040353445039231245,1.4050460354515537,-1.3790766959592742,2,right
17.500999999999998,2.1401226066487435,2.1998809107744757,-0.2103226408501936,0.43173899814363126,-0.41440529895362765,0.15488228273385307,0.0408258169211386,1.4072189092089924,-1.3770499075259908,2,right
17.507,2.2115222179956713,2.0973295010518758,-0.5826646440794618,0.438410521265173,-0.4119432872065635,0.15473103007373706,0.04049806946842423,1.405986574435133,-1.3781938335065052,2,right
17.508,2.1551228100025366,2.0123634297403585,-0.7714218999203071,0.4418085685652221,-0.4099059003180203,0.1528315476640013,0.040486998031825476,1.4048101933495771,-1.3793152008600686,2,right
17.509,1.9753717499194412,1.957045207753291,-0.790801242230653,0.4273551696606998,-0.4170337887562162,0.15733234402701315,0.04097983647554229,1.4097714185795018,-1.3746282310510372,2,right
17.509,1.6882776785170392,1.9312135972754638,-0.6748110087351752,0.450518621576988,-0.40580797948270164,0.1505801117945163,0.03998559569141612,1.400605014081616,-1.3832813024013564,2,right
17.514,1.3037516038746393,1.8929424527223535,-0.45247834827109323,0.42552800788906553,-0.41788576569482605,0.1577845597519714,0.041280347768084834,1.4123668443772561,-1.3721778543479681,2,right
17.514,0.8860840766581404,1.8290455277841402,-0.1742611700155977,0.4404379242920285,-0.4107318826731233,0.15361170048897554,0.04019196856277501,1.4025516391447193,-1.38144624720272,2,right
17.519000000000002,0.48137603260103623,1.6960775174180156,0.08460423512410066,0.450959437058955,-0.4054315013013713,0.15006700754552382,0.04024977140233152,1.402803077055054,-1.3812039700965952,2,right
17.52,0.132635243614062,1.4807047480760571,0.27361578849473334,0.4010976576340243,-0.43004853654954356,0.16566427555848368,0.0422324573375714,1.421563083501606,-1.3634979869277644,2,right
17.523,-0.11045162808453597,1.2436152435572219,0.38256771250662114,0.4942540429731954,-0.38413768026649264,0.13672571993559643,0.03732552203038457,1.375472222212525,-1.4070116774064667,2,right
17.524,-0.33927334657773234,0.9445782229668496,0.39449716566395693,0.37448421129217474,-0.443150309576294,0.17388460937199385,0.04547054508808065,1.4518854879535552,-1.3348597903450838,2,right
17.529,-0.47764989201422736,0.7421872145861623,0.3757287095071751,0.4745334168121451,-0.39385477850407635,0.14286605323397605,0.03472601142421186,1.3511010210854768,-1.4300359817734685,2,right
17.53,-0.5111698430936198,0.6935105298756273,0.36407743822096794,0.4715927887676645,-0.3952915313231541,0.14369942349005793,-0.01032676498783778,0.9279974039080566,-1.829458975445555,2,right
17.531,-0.6427919396506768,0.5256140536843243,0.3010985894536674,0.28158878845162927,-0.488963275542045,0.20285588245805816,-0.021068877686655798,0.8272179969141698,-1.9246513655217254,2,right
17.533,-0.8061724043191372,0.3281276523768406,0.21338620091294067,0.7488635910365397,-0.2585985441742097,0.057472908864391284,-0.012926474782407351,0.903625787055301,-1.852481957016055,2,right
17.534000000000002,-1.0049213791691733,0.23022486812643642,0.12015175992961104,-0.025962149511700006,-0.6405984134576675,0.29851068552598586,-0.01783440336948992,0.8575328477236404,-1.8959889661547966,2,right
17.538,-1.176066669130168,0.16650007663574257,0.0553284008908038,0.9960268581743401,-0.13672716021598375,-0.019405235508614782,-0.015843034932800162,0.8763110050588397,-1.878341150305432,2,right
17.54,-1.2199790369756194,0.15891952246463548,0.04119995736135935,5.285682202488672,1.9777317626597188,-1.354194100417666,-0.015803917619437894,0.8765233834646624,-1.877973740556068,2,right
17.54,-1.402428488961402,0.15855672513966,-0.0018981674014859323,6.307647783733266,2.481576517688536,-1.6721219798235154,-0.016865502346634052,0.8667641861002235,-1.8874215308658555,2,right
17.544,-1.6814979833586976,0.17995661831619836,-0.04842055705132736,5.532822053914566,2.099657559331537,-1.4310274442906326,-0.015597436006876162,0.8784702386714254,-1.8761394620776528,2,right
17.545,-1.9113350621898035,0.2538271836937721,-0.061580396189097615,6.000196234090445,2.329848153436961,-1.5765607111549786,-0.016580154908508504,0.8693279115838676,-1.8848695646850377,2,right
17.548,-2.1659844448379997,0.3394876019225818,-0.06013545966739006,5.8099231560589875,2.2364627905946506,-1.5171271804537212,-0.016064418348606776,0.8743370099389273,-1.8803360714203599,2,right
17.549,-2.392350109522708,0.4404051475009361,-0.04005503430651369,5.807437889403953,2.234664703690214,-1.5166761932672297,-0.016149280553331296,0.8730063753387498,-1.880963208413136,2,right
17.553,-2.58272306491616,0.5346845235448112,-0.06002535710602697,5.90693314914717,2.2842742777013347,-1.5473176375364317,-0.016349866644088874,0.8720398490174517,-1.8829586229941906,2,right
17.554000000000002,-2.74544121618543,0.6131860614305313,-0.15127898337313683,5.787591334212337,2.2252037877608126,-1.5103204935311352,-0.016033571440593586,0.8738864845558675,-1.8798869412469392,2,right
17.557000000000002,-2.849799210238225,0.683639066273785,-0.27666817200824545,5.880792554035475,2.2706663440764663,-1.5395862384347088,-0.01631968857373956,0.8720945326765726,-1.8826373815249924,2,right
17.558,-2.8930755156070056,0.740614029269258,-0.4036144015468851,5.830034373236916,2.2471895101353523,-1.5229353436567339,-0.01616825336451773,0.8735245584029468,-1.8812966543071599,2,right
17.562,-2.850765925370583,0.7943915638220544,-0.4968709671565506,5.842533603770197,2.2506930907433387,-1.5283003680578102,-0.01612462938107115,0.8722751525387266,-1.880512333873493,2,right
17.564,-2.7326052453340983,0.8471937049762566,-0.5353310998984653,5.854552366396488,2.2598778303190996,-1.5302301407659917,-0.016375906599715453,0.8737062659908207,-1.883649232616748,2,right
17.567,-2.5600183676794197,0.9006335750377861,-0.5283384392866823,5.832561325674321,2.2464388897140526,-1.5248296484302446,-0.01596479049125061,0.8719124270923078,-1.8786475191011611,2,right
17.567999999999998,-2.3433231026806105,0.9637314670655255,-0.49633752386524826,5.85415305528464,2.2570596824895626,-1.5315614306376535,-0.01640975181784278,0.8737611321878254,-1.8840394607692001,2,right
17.573,-2.1056948009966203,1.0381099204034838,-0.44935462792543573,5.837798407860808,2.2538179168064296,-1.523796214225973,-0.016142044698775865,0.8727933134967483,-1.880829179013415,2,right
17.574,-1.8492995035792492,1.1240525338168226,-0.3874597504265391,5.8484432948276766,2.2480492621711257,-1.5332231991474656,-0.015963984500104354,0.8714620091737805,-1.878531346925536,2,right
17.579,-1.5773117554387006,1.220942617391187,-0.3164553623404796,5.841975052484212,2.261295141067763,-1.52208985083535,-0.01682942554336922,0.8764747957724596,-1.8893564201654707,2,right
17.579,-1.3051662338340875,1.324787289663608,-0.2514401502739816,5.845428679616306,2.245477502392518,-1.5328855934243737,-0.015209016518077304,0.867325458929854,-1.8691423074875928,2,right
17.583,-1.02269940868553,1.4399318386483229,-0.2062340166638148,5.845737514953008,2.255754212221413,-1.5273677053128092,-0.01729302153645366,0.879040597453322,-1.8951296329078704,2,right
17.584,-0.7464966116295038,1.5591310450472227,-0.18532782208075138,5.838839427683592,2.261076947415737,-1.5203730136893352,-0.015552032132098865,0.8692737123573588,-1.8734210395425814,2,right
17.587,-0.45820218490380693,1.6738615564118855,-0.17727794656805845,5.855816128652824,2.2312598415527924,-1.546855058756293,-0.015604013114276094,0.8694865584851442,-1.8740580577214634,2,right
17.588,-0.15651977496137354,1.7815069499091927,-0.1737706825534837,5.827447577003161,2.288095213102763,-1.498720926970532,-0.01890724454395222,0.8882787060991415,-1.915290801554737,2,right
17.592,0.12482399465508141,1.8650377538520337,-0.177530623619352,5.862761337216886,2.214563497042894,-1.5601735378980077,-0.010783117182602879,0.8421509084811551,-1.8138864814598814,2,right
17.593,0.44608114522679376,1.9315633758039028,-0.17899875927110365,5.833734131195509,2.276180961867645,-1.5090222764965815,-0.02425394831977168,0.9186167920295378,-1.982036073045512,2,right
17.597,0.6635582075361506,1.963069655192225,-0.17221041679294866,5.833835831519188,2.274163414579389,-1.5101688684574062,-0.006486982210221504,0.8177605460916104,-1.7602442278001362,2,right
17.598,0.7197519836616921,1.9632848344209717,-0.16448061133438793,5.891019169474183,2.1576054036915897,-1.60833404325569,0.06808798619857548,0.3943410054353981,-0.8293556395532288,2,right
17.598,0.8957085443534776,1.9692675752059636,-0.14527547380887668,5.751426448407511,2.4445887180258725,-1.3674060207405099,0.08585142122694389,0.29347996385568564,-0.6075635246609132,2,right
17.602,1.1393762028108159,1.9221791241466202,-0.09704321063437349,5.982562150296081,1.9685804587558566,-1.766735246188252,0.07238577450107782,0.3699501950315149,-0.7757165111628397,2,right
17.602999999999998,1.2371831662644472,1.8649367347936592,-0.057777843860638604,5.6777441977292025,2.5964812771890653,-1.24008493712177,0.08050652352030097,0.32382734942659097,-0.6743013105153732,2,right
17.607,1.270011569697982,1.846942725105166,-0.04534220678091356,4.398223283294426,5.231934181241163,0.9707979412975309,0.07720057975553386,0.3425961453452633,-0.7155557466031937,2,right
17.609,1.3379002888417537,1.7545304477320172,-0.00461555391991254,4.093180724128157,5.859788398576292,1.4973957013415307,0.07716108886783526,0.3428551331309025,-0.7161612296411075,2,right
17.609,1.381428866417632,1.6156225867111336,0.05914580408704788,4.324594347814934,5.38381691870131,1.0981713828427535,0.07887884243629395,0.3330253748473899,-0.6944857308262997,2,right
17.611,1.3480837515106088,1.493075937655946,0.1164044105638854,4.184970391941963,5.670867722316885,1.3389508264098877,0.07682463046299498,0.34479901896404297,-0.7204552413726213,2,right
17.612000000000002,1.2734097018693054,1.361737042253434,0.173769560042685,4.24160257631306,5.554042862676003,1.2409479481146288,0.07841982555370197,0.3356320575534476,-0.7002206987531643,2,right
17.618,1.1655198879513837,1.2499483180877355,0.21962971601041612,4.243060471821899,5.552532935392744,1.239686570881943,0.07755727980990686,0.34057704671099487,-0.7111258605420069,2,right
17.619,1.0322816978431923,1.163215166832309,0.25223557856674106,4.2119523821004385,5.613475843965557,1.2908147321883128,0.0777750042163114,0.33943393246936815,-0.7086814971912647,2,right
17.621,0.8919682407914463,1.0908359700728847,0.2742847418138425,4.249508645984263,5.540549316546267,1.2296195581137104,0.0779465604315072,0.338158998778473,-0.705660430889818,2,right
17.622,0.7454451646511646,1.0337814724808947,0.2833429833693054,4.219856047617528,5.597247086401822,1.2772072649043045,0.07764912365623428,0.34036640892565817,-0.7108873246048332,2,right
17.625999999999998,0.605698633223736,0.9843886161905033,0.28241560030523816,4.235636376359948,5.566625693622477,1.2515073167752293,0.07789853478576894,0.3383137767871623,-0.7059168854964134,2,right
17.628,0.4712453853290974,0.9423150278959297,0.26906002682569313,4.233846456216271,5.574049551369756,1.257708416547704,0.07774729218169837,0.3396800208184242,-0.7092849249995785,2,right
17.63,0.3396584127776411,0.9021389058477232,0.2447556886304409,4.224642070016797,5.580984068562319,1.263614028864485,0.07785824855043422,0.3390543645971427,-0.7079130515297042,2,right
17.631,0.2080120750022279,0.8670464447143755,0.2122505322013988,4.240525686538158,5.568972527777936,1.2533827591954738,0.07767167008233206,0.33917244150644027,-0.7074961582824306,2,right
17.636,0.0724238617346577,0.8431603591438074,0.17388544487174068,4.223021572123159,5.579626112595867,1.2625120438057253,0.07803751424186531,0.3392466421402486,-0.7092044125782981,2,right
17.636,-0.05909463432019446,0.828518173922598,0.1293779512981203,4.236157264446282,5.572815600416457,1.2566445884303294,0.07747768176381212,0.33921558231256316,-0.7068316658983962,2,right
17.64,-0.1868176235890647,0.8257221575499516,0.07673256344370158,4.234348614977758,5.576723547439951,1.2599220151555954,0.07809312686586285,0.3391429656549957,-0.7091280754590679,2,right
17.641,-0.31229697390506544,0.8343182769494324,0.020683173562527014,4.21798992917243,5.572848702909706,1.256957852552008,0.077737733248665,0.3391834647748343,-0.707798765420063,2,right
17.647000000000002,-0.4299482509557616,0.8471762432917722,-0.033504300120988664,4.25641007323504,5.579565272814121,1.2619363002111719,0.07738996239798845,0.33945432359983585,-0.7071693295082319,2,right
17.648,-0.5356591743527017,0.8592586044642174,-0.07969785714732461,4.19933771421033,5.569047586439325,1.254093034050845,0.07885833364334331,0.33857517756847555,-0.7105925086968986,2,right
17.652,-0.6270636064710156,0.8640228670256557,-0.11575954273025676,4.259855107386086,5.580919885640709,1.2630067181588742,0.07613791869667304,0.34018955609396706,-0.7042110460210258,2,right
17.653,-0.7033101476539338,0.8564413785314591,-0.14360416969652318,4.224889344667881,5.574065903961827,1.2578630479516661,0.079634468015472,0.33809801290162944,-0.7123622021959183,2,right
17.656,-0.7645780012201461,0.8400659248306912,-0.162083358661624,4.195443754226094,5.566698894354769,1.2522001766391617,0.07671385190316413,0.33985167689423884,-0.7055768638283226,2,right
17.656,-0.8087301851092906,0.8179526377111143,-0.18326349061717823,4.325200484380085,5.597055157546592,1.2753908856956708,0.0767884545802632,0.33983211517655826,-0.7058145731680916,2,right
17.66,-0.8386010369248653,0.793208176286442,-0.20955463283365194,4.084532479157618,5.540849940077578,1.232464412461225,0.08237628295664381,0.33637499227295,-0.7185217149200542,2,right
17.660999999999998,-0.8571736998736834,0.7742319210877664,-0.23586445779488652,4.393490094727346,5.613144979056403,1.2876839345038553,0.06864556409306227,0.3448473118573697,-0.6872485630585767,2,right
17.666,-0.8608417796957336,0.7643547040861032,-0.27381496828336704,4.13560311834245,5.552728895692784,1.2415404156911412,0.09141192098461354,0.33080211151399785,-0.7390964301428131,2,right
17.667,-0.854617978049846,0.7613145151721338,-0.298502844858341,4.142611999813813,5.554223008567019,1.242653596645745,0.061382236513801085,0.3493306329305428,-0.6707230766741077,2,right
17.667,-0.8506971866658197,0.7626565014888738,-0.30281200975049016,4.634144086208191,5.670049517808973,1.3312069130687152,-0.06468176076737545,0.4272664610577615,-0.383871079172074,2,right
17.669,-0.8376351346585039,0.7725703613615658,-0.32279370430185295,3.426050801961927,5.385453995464415,1.1136643561320567,-0.09471326790897645,0.44580825528695633,-0.3155191363826363,2,right
17.67,-0.7964571208820785,0.7950035931027475,-0.33688637747180694,5.429059097684322,5.857354294751998,1.474360715769531,-0.07194362612316921,0.4317311334001106,-0.3673320787289251,2,right
17.675,-0.7648490499239875,0.8099953741447722,-0.33273624664841517,2.787165400799269,5.23486985343412,0.9985788669361894,-0.08567824523294226,0.4402601936131467,-0.33609176990931444,2,right
17.677,-0.7559676802504318,0.8157546734499477,-0.3329522674831581,-8.303270085898129,2.621945764547,-0.9990644563148072,-0.08008737124919435,0.43672246922983027,-0.34878987969250197,2,right
17.678,-0.7156327970943057,0.8323153291512096,-0.3230195504181138,-10.945181917230101,1.9994139394522237,-1.474904736008799,-0.08001291686457179,0.43679066211470474,-0.3489896538866025,2,right
17.68,-0.6542478057742986,0.8482809094648429,-0.3030495701962854,-8.942005992913153,2.471353069749185,-1.1140910233803791,-0.08293844814582046,0.438487092439238,-0.3423046380392771,2,right
17.68,-0.6009448112597127,0.8556722729675287,-0.28934925720140364,-10.150616064387041,2.1868210912963413,-1.331801282500427,-0.07943059904508191,0.43636686732926294,-0.35029851887123364,2,right
17.685,-0.5408716433209525,0.8593202453727077,-0.2781374856938658,-9.658068268837747,2.3023867406174015,-1.2430623646593415,-0.08216778444466391,0.4381527184308811,-0.3440914660415544,2,right
17.686,-0.4789435755940406,0.8597917493383741,-0.2714749209252806,-9.652522781380753,2.3043814652242087,-1.2420844409849816,-0.08068170720398304,0.4369316006491788,-0.34740417650646505,2,right
17.69,-0.41828574073951946,0.8595674331375494,-0.27115221949706236,-9.908889612464865,2.2432961684644486,-1.2882454627725195,-0.08103936187156176,0.4376733639316873,-0.34670822628046294,2,right
17.691,-0.3544257875007304,0.857115130528601,-0.2700543558669743,-9.600723692552718,2.3161969534862275,-1.2327444039131552,-0.08140449140853129,0.4372605090574487,-0.3457332696764563,2,right
17.697,-0.29042096187190186,0.8587654524462693,-0.2650100359716146,-9.842390909283171,2.2598429789021504,-1.27628280458219,-0.0807486766270209,0.4373640499845639,-0.34734024917366024,2,right
17.698,-0.22411149811914496,0.8635298414570092,-0.2547645661342901,-9.708864804861129,2.2894196273030927,-1.2522037191583297,-0.08138314690801308,0.43776058361829695,-0.3458973297693312,2,right
17.699,-0.15580566661745332,0.8675774475535734,-0.23950647083527313,-9.745137372116405,2.2841175327483327,-1.2587840999372228,-0.08092024738346794,0.4365308833830478,-0.34673883883653983,2,right
17.699,-0.08912140605734215,0.8781664626229521,-0.22339191506876593,-9.771357594264991,2.2739591820646186,-1.2634505337739363,-0.08119248352108613,0.43885564167824237,-0.34660354302411933,2,right
17.704,-0.02779696502614847,0.8927617143850144,-0.2083209363294708,-9.718368139738502,2.2896172462147497,-1.2539505486550078,-0.08106303574152274,0.4355584611422413,-0.34617575654991595,2,right
17.705,0.02693958627733773,0.9105664972090712,-0.1918880874968148,-9.774227838843235,2.276484503520509,-1.2640119972936223,-0.08109978976724741,0.4390108734906045,-0.3468622780557111,2,right
17.708,0.07751828423340065,0.9326263869678492,-0.1764376999153679,-9.724770308496328,2.2822487366639423,-1.2550230755395333,-0.08114642818001222,0.4370577426190616,-0.3463108317574367,2,right
17.71,0.1280987696903315,0.9534084355329769,-0.16393495411553555,-9.768679846498106,2.285359995463028,-1.2631165831923004,-0.08097561217166299,0.43524461261193115,-0.34631677642617853,2,right
17.714000000000002,0.1809279545428934,0.9710436596534666,-0.15269320465637698,-9.727515860268266,2.2749835051660665,-1.2554266802534446,-0.0813338852211504,0.442941048506423,-0.3471789137420026,2,right
17.715,0.2351973861037232,0.9839335175145619,-0.145837426114499,-9.762489912578477,2.288143719543127,-1.2620202538979726,-0.08076142639353356,0.42872398555559194,-0.34536988303557775,2,right
17.719,0.2884091069706746,0.9944271072299903,-0.14364435924483068,-9.748255631986764,2.279132508227055,-1.259285489559164,-0.08146337359192929,0.44695971047307614,-0.3477690545518935,2,right
17.72,0.3360926986099404,1.0041001668780314,-0.1456812907633177,-9.717412808501859,2.275739695180506,-1.2535860981219689,-0.08089130220867977,0.4317430531268799,-0.3457329792108172,2,right
17.723,0.38013940067768826,1.0079889152110035,-0.14914838281828482,-9.818130225487284,2.2986598633378814,-1.272364308776622,-0.08088533861702354,0.4321444427222927,-0.3458401364850052,2,right
