time,gFx,gFy,gFz,ax,ay,az,wx,wy,wz,subject_number,foot
0.718,0.2509031529551286,0.9272993485382743,0.09710479442665229,-0.22279248747407165,-0.044705397617198224,-0.13179696632318522,0.03740065284823066,-0.13749959320031518,0.12270009307189712,1,left
0.7190000000000001,0.24416963060937052,0.9215870085780866,0.09565256751305759,-0.21022343724863846,-0.040334019096921456,-0.11524231530574473,0.037397942029031114,-0.13750128252850813,0.12269970608862336,1,left
0.72,0.24321653157553744,0.9213703671030666,0.0949530009721802,0.03198583904055571,0.04358796786288851,0.20350020301128746,0.03740351957541971,-0.1374978064969123,0.1227005029549885,1,left
0.723,0.23656073829645002,0.9201160213480076,0.09024571763626307,0.07434182273968713,0.058261976453940684,0.2592383469961691,0.03739570590685544,-0.13750267631461177,0.12269938604012556,1,left
0.7240000000000001,0.22786989571543767,0.9155362668729814,0.08453795237089298,0.034728867029059966,0.04456348101387947,0.20713146581325242,0.03740339072486416,-0.137497886550009,0.12270048528580739,1,left
0.728,0.21989333716549858,0.9117022445845145,0.0780397406667162,0.06365304455133,0.05452771230245631,0.2451457857029864,0.037400098334049114,-0.13749993908881186,0.12270001294250434,1,left
0.7290000000000001,0.2133254357017969,0.911934343720284,0.06987715088053875,0.04781469957375891,0.049121740377780373,0.22437289284489623,0.037393562382811454,-0.13750401171563303,0.12269908123013981,1,left
0.732,0.21127611729133547,0.9135876298614094,0.06342986408440357,0.05248919215481074,0.050660450929063114,0.2304551098437422,0.03741456958313703,-0.1374909200319851,0.12270208135543165,1,left
0.733,0.2111508053319373,0.9138165941351428,0.05645424407682345,0.05497950407342927,0.05155818737943853,0.23376218571380078,0.037378414292997736,-0.13751345305960738,0.1226969147283244,1,left
0.738,0.21288376715705495,0.9163329900493054,0.04993605349121069,0.049417364800949146,0.04969974688474321,0.22650141574687765,0.03742275814547945,-0.13748581555640427,0.12270325485318768,1,left
0.738,0.21348541299746943,0.9194135975376068,0.04552564192243387,0.055038199189586245,0.05142572155894558,0.23370854900890342,0.037387418928373065,-0.1375078425630738,0.12269819718002056,1,left
0.743,0.21574385222366688,0.9211892609337464,0.03956584807926665,0.050954639820964556,0.050392413514759336,0.22866150182056572,0.03738709804226985,-0.13750803869961703,0.12269816276057646,1,left
0.7440000000000001,0.22191846962316408,0.9240906431611593,0.038153966565543,0.05307672394379082,0.05065954289160457,0.2310531492831519,0.03745267464104235,-0.1374671735518247,0.12270752155733745,1,left
0.748,0.2273856259837457,0.9258474086293448,0.04644920538895764,0.05266657548981604,0.05089057249247456,0.23083300556391573,0.037302828783707206,-0.13756055951337132,0.12268611536240749,1,left
0.748,0.2366238383297754,0.9262707564977158,0.05251668502658579,0.051814255400248296,0.05059859975412877,0.2297142293817328,0.037526359673768356,-0.13742124641138137,0.12271806455170162,1,left
0.752,0.250114936885179,0.9269896879097691,0.04804824346662943,0.053561834856471105,0.05051175787435104,0.23142100159738438,0.03728808441805728,-0.13756975567673307,0.12268398744339437,1,left
0.753,0.26332893197017193,0.9282400740380361,0.044740817523138576,0.05116573881379008,0.05126368972726337,0.22962291760179843,0.03742573936701116,-0.13748394799505964,0.12270370932773646,1,left
0.757,0.2744968691860292,0.9311613384977919,0.053225948897780956,0.05392234347186388,0.04985862161611717,0.23122900857860468,0.03754446351724812,-0.13740997798046556,0.12272060879467382,1,left
0.758,0.2809828520899199,0.9371972503259731,0.0662727285802112,0.05138065361260555,0.05149386343638266,0.23003911593931378,0.03702500275472803,-0.13773370130121815,0.12264643593350841,1,left
0.763,0.2827268210028393,0.9479782401502977,0.07662583125817371,0.05267491091694708,0.050488809878982896,0.23049737168943274,0.0379882922952615,-0.13713335540795063,0.1227840786549653,1,left
0.763,0.2775018380608317,0.9607297753549544,0.08350335340228746,0.05403800633106784,0.049707558394553736,0.23121752077291857,0.03675143599888882,-0.13790422711893857,0.1226072506781052,1,left
0.768,0.2649984348742078,0.9728633344190207,0.08704127413927902,0.04869367220690749,0.05334066462497593,0.22888231899656758,0.03778394658083575,-0.13726066669406578,0.12275500490889839,1,left
0.768,0.25319516146440646,0.9858408453451631,0.09411137220588617,0.05838550912468629,0.04652758355686963,0.23292481924481018,0.03775618109278954,-0.13727808268085867,0.12275070525787393,1,left
0.772,0.24419528846798993,0.997277121791884,0.10517348097301021,0.04605195412085833,0.05531393889366418,0.22788002964503798,0.0357869581796762,-0.13850522947279248,0.12246968802326991,1,left
0.773,0.23678047114003525,1.0050587185493862,0.11590241610060359,0.05630002512893435,0.04796254721314459,0.232028299848759,0.040626700515295947,-0.1354890590009219,0.12316100207545559,1,left
0.777,0.24008332771052016,1.0099652842839992,0.13060465361757176,0.05604952122367686,0.048169175390392234,0.23195007817175373,0.03260246483642601,-0.14049000270484563,0.12201431044161946,1,left
0.778,0.24581856491601492,1.012055280862036,0.14020294400348654,0.0364882147663797,0.06218368936491674,0.2240165456002544,0.043186111896838936,-0.1338937875078044,0.12352725542544221,1,left
0.782,0.24598404467153767,1.0127561584978046,0.14160117880924844,0.08450543771384172,0.027719677256198148,0.2434372363330726,0.08761402948765773,-0.10620621279835273,0.12987250197194533,1,left
0.782,0.2591868935125764,1.0126387177594112,0.15106014795735415,0.004927557136065075,0.08487256214726834,0.21128315618075408,0.09819722232955069,-0.09960999666264982,0.13138622632652291,1,left
0.7829999999999999,0.27261938683138354,1.0122145585760407,0.15993694900347147,0.10986718551933317,0.009483299274475016,0.253666178710945,0.09017347821482163,-0.1046109411821079,0.1302386913578337,1,left
0.787,0.276349095559862,1.0105264780323606,0.16056053996620423,0.550339124473749,-0.3069833062548545,0.4315403995423899,0.09501340700001845,-0.10159477180502313,0.13092968508187977,1,left
0.7879999999999999,0.29071325255210245,1.0058114898541959,0.16463076879425276,0.6552546340019569,-0.38237302799057027,0.473897895806023,0.09304255489767513,-0.10282191376751101,0.13065146413379636,1,left
0.7879999999999999,0.30716824390624503,0.9982722014785529,0.1691943866420456,0.5757200125112933,-0.3252175000509233,0.4417910310801467,0.09301829544552445,-0.10283933916961147,0.1306411474018794,1,left
0.7909999999999999,0.3202208023549501,0.9870512178247363,0.171302329296678,0.6236863646353745,-0.3596889266433382,0.4611528101891932,0.09404577857935642,-0.10219576602639938,0.13079752931998054,1,left
0.792,0.33171429929356444,0.9746654119211777,0.17385453783772084,0.6041638345935478,-0.34566038441337077,0.4532707739408919,0.09281392920173409,-0.10296664942623818,0.13061210944968193,1,left
0.797,0.3336993430230102,0.9622386297025787,0.1756698179781098,0.6039136301305634,-0.34547346826437586,0.45317735498993883,0.09377505718032628,-0.10236630030185256,0.13075346037489263,1,left
0.7979999999999999,0.33276992733661015,0.9490893715250596,0.17567209667002714,0.614094235428797,-0.3528049799454942,0.4572708744230338,0.09325129961217388,-0.10269000940888204,0.13068666325937023,1,left
0.802,0.32861568071687225,0.9381700061381275,0.172491970749503,0.6019115963876016,-0.34402795091068367,0.45237621005068956,0.09338386958668538,-0.10261607799609802,0.13067979961783313,1,left
0.8029999999999999,0.31649073982476383,0.9296922080329691,0.1658460277611104,0.6113828255318365,-0.3508564480326243,0.4561764021115826,0.0934976649799057,-0.10253020788008858,0.1307404684776864,1,left
0.8059999999999999,0.30484289881007054,0.924898032448676,0.15692434574537312,0.6062671831498452,-0.3471705427373046,0.45412135669760334,0.09328867416225695,-0.10267878943793271,0.130656136889743,1,left
0.8059999999999999,0.2964657063435776,0.9250852148066391,0.1480683633613398,0.607509989329917,-0.34804480610531874,0.4546428148313467,0.09348885393451717,-0.10253942516821934,0.13072815476691202,1,left
0.812,0.2861127361112387,0.9283464229129985,0.13791678654385206,0.6086615665653676,-0.34893336640936606,0.45504385906059774,0.09333880953032805,-0.10263279578808279,0.13070709784925671,1,left
0.8140000000000001,0.27757780805021426,0.9355008790250037,0.12428167372731018,0.6066666543881003,-0.3473945715425504,0.4543485796214447,0.0934476977307109,-0.1025920597388765,0.13064211763687406,1,left
0.816,0.27519428092329257,0.944687002671804,0.10895984600171735,0.608431990559754,-0.348792318088869,0.45492615769741074,0.0933483781058291,-0.1025919878491717,0.1308119867262428,1,left
0.8170000000000001,0.2734765576330679,0.9530861064355826,0.09335171787855362,0.6073057411818483,-0.3478800158243078,0.454579193036863,0.09346074281657793,-0.10261439305340628,0.13055344927186513,1,left
0.8220000000000001,0.2733734142541959,0.9615585027848307,0.08098032336732147,0.6079589425391865,-0.34834849855660127,0.45484382829706616,0.09334761373421085,-0.10258637891933998,0.13083001879551331,1,left
0.8220000000000001,0.27679071789921494,0.967025977126781,0.07514545866654837,0.6072894641337421,-0.3480584536771212,0.4543737658008732,0.09340247430373755,-0.10260908420391021,0.13066869174319123,1,left
0.8270000000000001,0.27702471594332456,0.9710067358156712,0.07237857984307616,0.6084618923654358,-0.34846438165354215,0.4553036902832464,0.09350185271432745,-0.10259628355234551,0.13053714429428853,1,left
0.8270000000000001,0.2750612284228531,0.9765717566811468,0.0693394722670008,0.6066297969335104,-0.3477991078103722,0.4538828751179731,0.09315214432751942,-0.1025993822676671,0.13112519742485004,1,left
0.8320000000000001,0.2746677379437107,0.9782594112646668,0.06579568232546101,0.6086930226402187,-0.34858752424388395,0.4554419708792873,0.09378534479452813,-0.10260311626334587,0.13003238805166217,1,left
0.833,0.27299773486855017,0.9782365693937126,0.05983755093294347,0.6075021035283195,-0.34813275608056515,0.4545416228137715,0.09297566576657074,-0.10259629136161061,0.13143616019937915,1,left
0.836,0.2700066274597759,0.979912347371667,0.050727223871235086,0.6062310195277234,-0.3475653408470515,0.45366677593375593,0.09365033993645853,-0.10260267821497199,0.13026393523509516,1,left
0.836,0.2645663621523001,0.9796441625991681,0.040248961056313384,0.6114773070597073,-0.34982174151012624,0.45736765907580407,0.09363718526146594,-0.10259958331745408,0.13029663194543592,1,left
0.8420000000000001,0.25564552260064166,0.9782132432909527,0.032794720438018204,0.6017638363656006,-0.34564833433328856,0.4505107487061388,0.0923337299543711,-0.1025973679131853,0.13252882795228654,1,left
0.8420000000000001,0.24446635332473304,0.9789186429984313,0.027766913702845005,0.6142566013887403,-0.3510219604692103,0.45932348161898917,0.0955316724596334,-0.10260589513910576,0.1270410523114811,1,left
0.848,0.23073126065126506,0.9813371025743146,0.020379025644256706,0.603817881168751,-0.3465288555026158,0.4519625229173889,0.09023055934347193,-0.10259139518604433,0.13614057648305655,1,left
0.8490000000000001,0.22168886026010837,0.9815674112902043,0.016108486079713907,0.604074511642633,-0.3466326866274678,0.4521512125399645,0.09722298539363852,-0.10260994093317527,0.12413802039660121,1,left
0.85,0.21875681444599726,0.9819012532465059,0.015148326365435326,0.6240891683524492,-0.35527728637457145,0.46623173756059333,0.12657658863641247,-0.10269053238182609,0.07376211677452588,1,left
0.85,0.21027341030126617,0.9838163681578621,0.010497296524183089,0.5749155093536802,-0.33404248865185066,0.43163175041776214,0.13357038313285874,-0.10270755760699768,0.06175912000360133,1,left
0.851,0.19375227956789165,0.9833559344611411,0.005162505673225012,0.6564491417293661,-0.3692532133878813,0.4890005547339431,0.12826778925779014,-0.10269470287047167,0.07085912110151102,1,left
0.855,0.18164264940354224,0.9832610911238071,0.002398905173574232,0.5489010092722242,-0.3228047717032523,0.4133292550235057,0.1314651693276929,-0.10270385538727693,0.06537152632286458,1,left
0.855,0.1782411198789606,0.9842822043359568,0.0017750714289287593,0.09740108294627062,-0.12779785595957188,0.09567149353422154,0.13016662382138716,-0.10269618382953644,0.06760214175013363,1,left
0.856,0.17065357929486863,0.9850613502960012,-0.0003368059284226837,-0.010154583769061004,-0.08133995208570272,0.01999749808587606,0.13014290417071472,-0.10270482907186138,0.06763823993176005,1,left
0.86,0.15807235275001158,0.9854425649626567,-0.006248296607973653,0.07139082679644372,-0.11656546792223592,0.07737051707452279,0.13083272710808208,-0.10269438251712862,0.06646113742361728,1,left
0.861,0.14817427978144884,0.9838048940663664,-0.012014965570851192,0.022207422552781284,-0.09531843477881616,0.04276704145474435,0.13000796214967036,-0.10270432071364005,0.06786976724195931,1,left
0.8640000000000001,0.14005662941080227,0.9840609821890479,-0.01684853457605743,0.04222152197770603,-0.10396232737806432,0.05684737048966472,0.13064767362385227,-0.102700820746004,0.06677486065773022,1,left
0.865,0.13343681765164567,0.9851141844336159,-0.01970052665715693,0.04249704351404199,-0.1040898943442105,0.05704281422714524,0.13031091576771386,-0.10268952708924164,0.06735874525194727,1,left
0.87,0.12778432387891636,0.9838293999312822,-0.020404660901828103,0.032017072463890114,-0.09954497136945467,0.04966710151445237,0.1303685701984243,-0.10272309216698777,0.06724063062259066,1,left
0.871,0.12751444402610312,0.9841082218514119,-0.021142754734428795,0.04456860892891651,-0.10499241455046679,0.058500859568825926,0.1304953267434126,-0.10266590514980134,0.06705615553354825,1,left
0.875,0.1324272904884516,0.9827119588736527,-0.019286768778391333,0.03479692007741353,-0.10074589798849357,0.051623116011947606,0.13029395923246567,-0.10273594124014077,0.06736113639431628,1,left
0.8759999999999999,0.1349748324574836,0.9788613440710192,-0.016249612487884642,0.04006845927717684,-0.10303398545140227,0.05533304657217554,0.13047667790051448,-0.10268017259131985,0.06707994373542742,1,left
0.88,0.14073768421345856,0.979796273952604,-0.013008408487834213,0.03884628866977627,-0.10252804958451281,0.05447567748609677,0.13037797139363874,-0.10267941204665332,0.06724962085663888,1,left
0.8809999999999999,0.15070122703270217,0.9830216731190492,-0.00820320356396842,0.03749715467683057,-0.10187451596884561,0.05351875116206762,0.1303563329956191,-0.10278372766983984,0.0672266599552328,1,left
0.885,0.15836783735339582,0.9846715890793069,-0.006011183139460431,0.03983304584102011,-0.10300542833774048,0.055175378440390735,0.13050461041811395,-0.10254559245674376,0.0671095569182359,1,left
0.8859999999999999,0.16544206661391203,0.9883202794921773,-0.005987904279927941,0.03766633900209542,-0.10191990530344788,0.05363484702203926,0.1302597222999349,-0.10290079269804331,0.06732487447192201,1,left
0.888,0.16832960826267568,0.9943239828450232,-0.006646349865681257,0.03910558748815901,-0.10266085583743798,0.054660273806170265,0.13052520926375888,-0.10252214236938004,0.06708776423864374,1,left
0.889,0.16694150692155635,1.0015706445096555,-0.008931433923445229,0.038438228605897636,-0.10237366908295373,0.05419087756211945,0.1303648122273465,-0.10274092768639823,0.06723673798700783,1,left
0.895,0.1658939476169357,1.0093107469998968,-0.008449454148477507,0.03859700555437889,-0.10222089548596486,0.05427875657836866,0.1302611410141553,-0.10292955540774393,0.06730590407224318,1,left
0.895,0.16326765657565714,1.0162375569373838,-0.004035126355332342,0.03860105966591602,-0.10272848956437922,0.05433604219587758,0.13077153922595947,-0.10210405072555073,0.06690617269751184,1,left
0.899,0.163719000899697,1.0230516543415429,-0.0031812026509021726,0.038679901382085505,-0.10200793492162019,0.0543103149204667,0.12981471056319882,-0.1036349842251581,0.06766503291866,1,left
0.899,0.16762166941821083,1.02687834918755,-0.006634779450789157,0.038483156822179704,-0.10272735541920436,0.05425845481134217,0.13104571405324109,-0.10166914290500786,0.0666866230195795,1,left
0.904,0.16985532577943427,1.0282096334001944,-0.007911544345336752,0.038595191341580376,-0.10231101502591158,0.05428724710440055,0.13001693620537874,-0.10331040200665578,0.06750514487459425,1,left
0.905,0.1736606730559846,1.0295256038331106,-0.0063458622767002745,0.0389436602193899,-0.10206075962054695,0.05448934135624271,0.13004867253430988,-0.10326580590354459,0.06747664984206045,1,left
0.909,0.1795584444071635,1.0280170474898829,-0.0014558339098080728,0.037745780557880554,-0.10329697801056792,0.05383518703347602,0.1319978924965841,-0.1001366558454582,0.06593646779645322,1,left
0.909,0.1867406947163399,1.024016752812958,0.004788559180310657,0.039949939156000425,-0.10099706209980333,0.055036087539694495,0.1272020554951802,-0.10782809264829302,0.06972974159626383,1,left
0.9129999999999999,0.1927848267793598,1.0170508764807598,0.010191732106287616,0.03710011383098883,-0.10394166304585062,0.05348035100417904,0.13515542650885704,-0.09507503297027595,0.06343805127897034,1,left
0.914,0.19374845862682444,1.0111932385538167,0.01583137496349755,0.03948693469419506,-0.10148688625287139,0.054784452974851336,0.12466423184469201,-0.11189660599040183,0.07173738112930399,1,left
0.919,0.1942386585802412,1.0100111490830512,0.016173062747857098,0.03945303124818436,-0.10156606589977274,0.05477095408227148,0.0806361066491825,-0.1825031321595002,0.10656250592599381,1,left
0.92,0.194295591400639,1.0071326644618193,0.013337254458760928,0.03477877962830697,-0.10619495258888659,0.05219722117298624,0.07014363816305635,-0.19932564795168134,0.11486233672717601,1,left
0.9209999999999999,0.1911198521448217,1.0031222507516973,0.012679541776142927,0.04623917798163857,-0.09480648748794011,0.058502816840676375,0.07809921886186089,-0.18657111513935218,0.10856948837599573,1,left
0.9229999999999999,0.18880673127122022,0.9991055982228361,0.008181111175132235,0.027240983795548658,-0.11368998439497116,0.04805069212160433,0.07330096086493179,-0.1942637689456446,0.11236473805599603,1,left
0.924,0.1867694688269181,0.9953075972919702,0.0025400255858034526,0.052301750285657186,-0.08878423817621309,0.06183837529808796,0.07525168095886918,-0.19113469363597768,0.11082185543510131,1,left
0.924,0.1870931691757517,0.9945812005391694,0.002094160059888499,0.1576950780716801,0.01568556975213268,0.11985937815825,0.07528424590295076,-0.19108772622890344,0.1107961657639466,1,left
0.929,0.191341927827697,0.9920296121764905,0.0029123240414408273,0.18277101706331791,0.04058530600399901,0.1336579529275067,0.07425103233151734,-0.19273415508785516,0.11161307143074232,1,left
0.929,0.1942421698400581,0.9863277636897774,0.0047147164522917916,0.16373417911540938,0.021716037947946118,0.12317765472862449,0.07549050972560437,-0.19076095501642476,0.11063326527171202,1,left
0.9329999999999999,0.20258207897667688,0.9820848832484981,0.009959592316703932,0.1752670665953654,0.03307960879990102,0.12953682055668347,0.07452249088755983,-0.19229916919646117,0.11139830964098676,1,left
0.9329999999999999,0.2172719925749073,0.9798983281971734,0.018135911901612786,0.17048495262551605,0.028485573393582923,0.12688249653037956,0.07504297304759648,-0.19147052302716477,0.11098691510435539,1,left
0.938,0.22915223806226787,0.9765544648884171,0.027114774116505567,0.17057469240269305,0.02836909912087962,0.126962446128624,0.07493668314563966,-0.1916529959010452,0.11107152538381573,1,left
0.9390000000000001,0.24242031870210856,0.9721334174015674,0.03339067303329335,0.1728710497995184,0.030847171705500637,0.12819657396036002,0.07476384672399339,-0.191891623872863,0.11120644720526701,1,left
0.943,0.25718043414298086,0.9691371293165171,0.03742761126801579,0.17000286498227551,0.027917067584433096,0.12663055925101652,0.07506259717353138,-0.19147881416634085,0.11097324836723965,1,left
0.9440000000000001,0.2691735369348207,0.9650669714203803,0.03965680565552365,0.17241632073428625,0.030140729986149785,0.12798437481510724,0.07476431197368791,-0.19187589478538705,0.11120536088264496,1,left
0.9490000000000001,0.27986046904618433,0.9622012966750126,0.03943834851686696,0.17077018538708227,0.02905335792002725,0.12699690963745558,0.07497397260223722,-0.19160442315700932,0.11104257720862473,1,left
0.9490000000000001,0.2871124285065063,0.9621007132625764,0.037985609460129494,0.171764330022531,0.029101621014451684,0.1276840940837941,0.07490954224783901,-0.19170833786227903,0.11109356782866983,1,left
0.953,0.2909847402871045,0.95892353281,0.036196027520168414,0.17121702069144135,0.02970847753017967,0.12721120171758185,0.07479638072591865,-0.19176966273890142,0.11117740437738077,1,left
0.953,0.29368293841625337,0.9554881718477355,0.0372699311142665,0.17134818309156835,0.028922532168357953,0.12742017494847135,0.07509070098961308,-0.1915722076925182,0.11095756499400808,1,left
0.96,0.2956494388203118,0.9548164525548477,0.03827112641932327,0.17188461739825184,0.029446206533861968,0.12771665661295345,0.07465995281065652,-0.19185345237028656,0.11127894321549119,1,left
0.96,0.29634723314612554,0.9541254815243665,0.03634993863805465,0.1702374270534962,0.029512206326445727,0.1265562763681015,0.07510810301002928,-0.19157131310391107,0.11094507130284062,1,left
0.9620000000000001,0.2951101844704356,0.9540962929504689,0.035342874677021616,0.17334476525836967,0.02871036542958524,0.12884645436027503,0.0748490699272511,-0.19173451378107226,0.11113806722481981,1,left
0.963,0.2933783027762936,0.9555316416340806,0.032637180896638474,0.16894071191208726,0.030135784489800664,0.1255573666790724,0.07465013405040366,-0.19183603990453546,0.11128512916872474,1,left
0.9690000000000001,0.2907014677666458,0.9590603580430023,0.031682689711233614,0.17355061041317935,0.028532437769075422,0.12901687844478626,0.07555223784697791,-0.19134104477358335,0.11061654504359836,1,left
0.9690000000000001,0.2875328831188154,0.9638671114018602,0.03291748563982737,0.1709441648615167,0.029515000118425512,0.12704938751541017,0.07387777353526603,-0.1922615174606866,0.11185766486064122,1,left
0.972,0.2872280897096859,0.9692487182272184,0.031104788070085848,0.1685197243819887,0.030187393536875842,0.12525574776292786,0.07602577362238995,-0.19108285849610246,0.11026562795397288,1,left
0.972,0.28841464742775336,0.9749145171855994,0.03131222863241061,0.17880215833114443,0.026922675419898796,0.13292530243793305,0.07423353517714976,-0.1920653485681902,0.11159398501944978,1,left
0.977,0.28734283418943596,0.9785451560852279,0.02915674090030482,0.1598112981813211,0.03305306415737968,0.1187448483414892,0.07428439565793031,-0.19203470907350823,0.11155605202084998,1,left
0.978,0.2859879008023436,0.9813458871719434,0.025525326823529388,0.1841676502364582,0.02515417879301986,0.13693750852089448,0.07769139473566913,-0.19017870061742442,0.10903168617795808,1,left
0.982,0.2853996625862837,0.9847527819841939,0.026175136182294518,0.1638471376032734,0.03175970916332943,0.12175651679355667,0.06931590496723805,-0.19474351391549055,0.11523769922958685,1,left
0.983,0.28240964661427054,0.9876152607289795,0.025386053998247102,0.1643751491115909,0.03156411681994019,0.12215583866044584,0.08320232790232271,-0.18717525555639997,0.10494807515989257,1,left
0.986,0.28094786913041203,0.9888922875935722,0.02486230003950798,0.20317991304955252,0.019013638850512573,0.15113335334722672,0.06488716045225086,-0.19715664710936998,0.11851946733581509,1,left
0.987,0.2815590174800129,0.9898874199251212,0.025468124337824083,0.10783630352432604,0.04988494105506717,0.07992772201383838,-0.0119875773718231,-0.2390438064699697,0.17548076648480854,1,left
0.988,0.277477465690922,0.9907670162267743,0.027109514040968622,0.26590535489657274,-0.001309425818399424,0.1979823340736811,-0.03030129870763024,-0.24902356974268147,0.18905132304731476,1,left
0.993,0.2730883265835624,0.9904533330239581,0.029108675841972277,0.05742057450918496,0.06621813898399963,0.04227251361491956,-0.016416916640294175,-0.2414578365661296,0.1787629798364213,1,left
0.9940000000000001,0.2716159169973879,0.9907026240748497,0.029715771640895908,-0.8178203261555186,0.34968173949383585,-0.6113724184681947,-0.024791314529230977,-0.2460206155949187,0.18496800217622592,1,left
0.995,0.27065739305604164,0.9875487838507223,0.034313461004499224,-1.0263086415579765,0.4172110328338986,-0.767083591208091,-0.021382603316361472,-0.244164338590425,0.18244338873760074,1,left
0.997,0.27130238194895,0.9817015280625648,0.040368024140360906,-0.868223557405941,0.36600882750697084,-0.6490228480158042,-0.021337750116877663,-0.24413800150189283,0.1824078265456056,1,left
0.997,0.271739508267992,0.9776037352490541,0.0474486581319335,-0.9636089537958518,0.3969005582661025,-0.7202444572603833,-0.023119515132579364,-0.2451113407485405,0.1837313127245533,1,left
1.003,0.2740486952449872,0.9707387891385456,0.059110751860387764,-0.9247277300415274,0.38431270198051604,-0.6912377085435286,-0.020984268094784504,-0.24394551915626855,0.18214596450917264,1,left
1.004,0.27850814997344475,0.9637136996640621,0.07132408105126463,-0.924304676240607,0.3841684185311851,-0.6908785150894223,-0.022648914435487236,-0.2448535350671105,0.18338078442357547,1,left
1.006,0.2807378391820493,0.959015563959681,0.0823293876015585,-0.9445223813578149,0.39072369234550786,-0.7060202025482808,-0.021745803317866713,-0.2443634570887466,0.18271432335083393,1,left
1.0070000000000001,0.28272884078844857,0.9535134112963999,0.08857956970880049,-0.9202088467920408,0.3828457357235286,-0.6878439081210277,-0.021965089952421475,-0.24447656572510917,0.18286807903258148,1,left
1.011,0.28540477711492296,0.9495257953976256,0.09029020291251556,-0.9392918275453379,0.38902116187798313,-0.7020595894112822,-0.022179348294273454,-0.24460424414037837,0.18304186003527323,1,left
1.012,0.2881361938550441,0.9478696117056536,0.09169687143874633,-0.9287177875232426,0.38561388711041733,-0.6942785381265995,-0.021796456443714987,-0.24438222491751704,0.18273972483789475,1,left
1.016,0.29287461741688653,0.9475805767282118,0.0912664603973464,-0.9316431528457041,0.3865311613533114,-0.6962636998862874,-0.02215978235972692,-0.24459085940254824,0.18302362172066858,1,left
1.0170000000000001,0.299735987182161,0.9475504586169956,0.09347553292422384,-0.9336353843919677,0.3872134658599179,-0.697996363106448,-0.021900293055835206,-0.2444495571176246,0.182831478850686,1,left
1.021,0.3061626086694945,0.9463112200788709,0.09902724736378414,-0.9295149311236075,0.3858493761002276,-0.6947239638560454,-0.022057304455724513,-0.24451534858804735,0.182920578727918,1,left
1.021,0.31129791438555826,0.9437541833311698,0.10120767932123703,-0.9339237500548612,0.38727714269374214,-0.6980149040347384,-0.021957229034234305,-0.24450598716222538,0.1829086769399939,1,left
1.026,0.31470578389126413,0.9401421245953132,0.10309074964285796,-0.9299070613800573,0.38603074012892813,-0.6953770155260064,-0.02204455600222429,-0.24448617847527168,0.18288051753929696,1,left
1.026,0.3158215623611117,0.9372025984828165,0.10543224797741421,-0.9336319431704319,0.38711244552125673,-0.6973317921065258,-0.021963003919485035,-0.2445135995310477,0.1829190862763315,1,left
1.031,0.3191026156985516,0.9359133516034891,0.10267285431716619,-0.929996072894463,0.38612094774867134,-0.6958502989832325,-0.02199189623869285,-0.24448779022589348,0.18288329467794356,1,left
1.032,0.3253485638013271,0.9347083871419284,0.09252593951208124,-0.9331689703702836,0.3869501737367006,-0.6969045169385462,-0.02210709330425096,-0.24451484702528695,0.1829193449866675,1,left
1.037,0.3294087968909145,0.9329354236242342,0.08086649164368839,-0.9318071675842009,0.38662382616751007,-0.6966476201557694,-0.021750733547400376,-0.2444771897785174,0.18287108539716612,1,left
1.038,0.33202702920088445,0.9316455718004746,0.07760837047187102,-0.9291673791886609,0.38586750043031315,-0.6953310704721756,-0.02238492634221516,-0.2445323936591139,0.18294081430846876,1,left
1.04,0.337443443192448,0.9315661679433529,0.07763897745340445,-0.9380157996482306,0.3883011104960225,-0.6990723873494045,-0.021576584461618326,-0.24446487199108913,0.18285571971132564,1,left
1.041,0.34388388181437335,0.9328044642703262,0.07559209526715524,-0.9222455193236905,0.3839951705076015,-0.692611738915678,-0.022248992540611516,-0.24451976540464276,0.1829249546804158,1,left
1.046,0.3465932858286509,0.9337733149419534,0.07346106652543977,-0.9422646684402837,0.38944931882328415,-0.7007349753854875,-0.02224011916585359,-0.24452371969428616,0.18292999500179644,1,left
1.046,0.3473139943076721,0.9348708754567896,0.06869921616272538,-0.9256496018745008,0.3849279050335212,-0.6940268493551514,-0.020927399617165374,-0.24440151281943293,0.18277531488064747,1,left
1.05,0.3491993525558065,0.936878148772588,0.06347031022513439,-0.9259479315668997,0.38500063005716584,-0.6940943528834888,-0.024142893800603155,-0.24469519092902087,0.1831473348967313,1,left
1.051,0.3488789863451278,0.9375900545903635,0.058426695621259926,-0.9580317843170929,0.3937538416036647,-0.7071882369267269,-0.018814315614709122,-0.24421028107863157,0.18253263062727032,1,left
1.055,0.34603048527019536,0.9379884818440631,0.05500332312309821,-0.8793934000760685,0.3723119679814016,-0.6751712579047746,-0.02584243849167079,-0.24484939058342234,0.18334323843797112,1,left
1.056,0.34568317872532256,0.9380356152988629,0.05402234432671407,-1.0096953305076992,0.4078353800781801,-0.7281925192228174,-0.055357188544366304,-0.24755037885766504,0.1867564847985803,1,left
1.057,0.34738091901352497,0.9370926320204935,0.051267592429699485,-0.8378597328744781,0.3609915007801852,-0.6582831910740198,-0.06238654092154975,-0.24819054599662327,0.1875680098822687,1,left
1.061,0.3467768231807691,0.9366524774828724,0.05029158328871751,-0.11643873963467545,0.16430750065669042,-0.36471483454646886,-0.05705649256111551,-0.24770307810965297,0.1869521874693977,1,left
1.062,0.34353857700223045,0.9353285325489752,0.04987957610465794,0.055388061875842554,0.11746808876554396,-0.29481475354091435,-0.06027197646925109,-0.24800132853392065,0.18732427531606455,1,left
1.062,0.3394767268004702,0.9332448895463699,0.04773423254643651,-0.07488700578675578,0.1529810495789429,-0.3478130554444415,-0.05896264760217869,-0.24787259388043142,0.18717196918154588,1,left
1.065,0.33568000933064823,0.9312553860176341,0.047822330893948134,0.003693558224889551,0.13155723619051735,-0.31583815685564137,-0.05894579610000129,-0.24788369679724362,0.18717128829999707,1,left
1.065,0.33348096844607444,0.9290438035500488,0.04913748880774346,-0.028295198662782257,0.1402854579323709,-0.3288706301948714,-0.05963018972977265,-0.2479338621092689,0.18724921730426855,1,left
1.071,0.3321551567165151,0.925776115285285,0.05266613838103635,-0.02871351993502448,0.14038454601174588,-0.32900706978417515,-0.05880923006994715,-0.24786415168755216,0.18715485196981912,1,left
1.071,0.3312005486124052,0.9206814348173717,0.058399979553340864,-0.011994156774503452,0.13584727420652093,-0.3222506994572909,-0.05945013489693472,-0.24793310734156604,0.18722971989214798,1,left
1.075,0.33255083308917627,0.9173693272047212,0.06173761728533246,-0.03203254137370193,0.14128980716507197,-0.3303587781266115,-0.059101689109422935,-0.24786781841578379,0.18718679699291457,1,left
1.0759999999999998,0.33420222498220137,0.9156912934527757,0.06323699487826537,-0.01641110119981728,0.13703977198647957,-0.32402202806886726,-0.05918636776938212,-0.24793311400300755,0.1872011417392777,1,left
1.083,0.33313094285374156,0.9135353863272605,0.06666106588352952,-0.024880916598530232,0.13936608684859092,-0.3275059405216818,-0.059270697556522665,-0.2478702412269637,0.18720531276971075,1,left
1.083,0.33094738863616,0.9160184231896085,0.06818191980480581,-0.02283779148590983,0.13875364048956096,-0.32655333513859863,-0.05911807974989146,-0.24791253586265663,0.18719211522657597,1,left
1.084,0.3288735178781408,0.9211004212750502,0.06384380514527913,-0.020801563491763778,0.13829391973032806,-0.32593346677015034,-0.059266591051751694,-0.2479266087285203,0.1872092936143279,1,left
1.085,0.32589401877235213,0.9246695085292924,0.061511726005002064,-0.024426548650449256,0.13916518194126082,-0.3271526287092131,-0.059156637191439904,-0.24781223835557664,0.18718843149784392,1,left
1.091,0.3206614378542657,0.9299653881402432,0.059619529704470535,-0.0209914528995264,0.1383219271613863,-0.32595876014953173,-0.059224023006963486,-0.24805678266585246,0.18721488224210514,1,left
1.091,0.3142530242745293,0.9336491788505819,0.05082795244598824,-0.023426011914985608,0.13898647679328602,-0.32695110185259263,-0.059188256724939964,-0.24769790522681925,0.1871828916080901,1,left
1.094,0.3091574320201007,0.9366107976442379,0.043916613181845365,-0.02200139445052002,0.13842513861216182,-0.3259935750234345,-0.05920269634072815,-0.24807828949189034,0.18721427687618528,1,left
1.094,0.3025257601804132,0.9425117583720453,0.04151783960130309,-0.02282913975074884,0.13904602719981873,-0.3271939253262294,-0.05921021549134626,-0.24785998319419286,0.18719793590249617,1,left
1.099,0.2940815235843586,0.9454728405869095,0.03780108434719112,-0.02217583358620881,0.1382783356353781,-0.3256398514980865,-0.059167390103346,-0.24766720463303396,0.18717828195653857,1,left
1.099,0.2893122533854444,0.9466050470372471,0.03376616518759676,-0.02276397250316447,0.13906716693562757,-0.3272524682637158,-0.059263868420253996,-0.2485023948371879,0.18725405700274186,1,left
1.104,0.2850266084622799,0.9486938091151765,0.02996695252207624,-0.022595092683347213,0.13865800673662737,-0.326390200828081,-0.059106401376376724,-0.2469555679491318,0.18711590048504345,1,left
1.105,0.27766883564137845,0.9492123216449604,0.026697675624095835,-0.0216026896037668,0.13807437550519736,-0.3253025528938731,-0.059300917949165054,-0.24894098762217923,0.18729252198529356,1,left
1.109,0.2702062655685471,0.951265134047581,0.025848402748638595,-0.024559878365728465,0.14025062166211277,-0.3294990655155624,-0.05914168171817567,-0.24728386338478825,0.18714527304369388,1,left
1.11,0.26267977689051325,0.9545001105810734,0.02497941938500239,-0.019325784987692315,0.13628297673579132,-0.3218181753876258,-0.059141226530588155,-0.24732801786321584,0.187149083228935,1,left
1.115,0.25761395649089447,0.9559773494592266,0.01945104530157362,-0.025990688387951003,0.14136232544324195,-0.331658208391159,-0.05945760726654048,-0.25048961292466915,0.18743042976442198,1,left
1.1159999999999999,0.2549775616560731,0.9588880740338108,0.0125107308865111,-0.020448897237936886,0.13712801117473794,-0.32345215070362665,-0.05868670771571618,-0.24271994631992025,0.1867389326490919,1,left
1.119,0.25310315105131764,0.9615411339944125,0.008983206096090587,-0.020512442792050972,0.13721889491728573,-0.32363959470601933,-0.059962578422149845,-0.25560179250961246,0.18788577435384232,1,left
1.119,0.2544411451711851,0.9611977832794093,0.007738072652367391,-0.03136387025235087,0.14537075955250647,-0.33940139914298884,-0.058280267175058104,-0.23861115898727903,0.1863725808201413,1,left
1.123,0.2549410903594732,0.9613127784381162,0.006632935977701076,-0.004793497562434195,0.125362373717443,-0.30070085092973164,-0.05121995211230715,-0.1672886563557247,0.1800277468238452,1,left
1.124,0.2555723694877482,0.9625294661865501,0.004316823514353272,-0.04882335466166207,0.15853007608448733,-0.364858911371279,-0.049537067709000904,-0.15029862790948995,0.17851351604651677,1,left
1.124,0.25898244377695734,0.9631642230182388,0.0028810412977468306,0.00925152727248291,0.11478247857183253,-0.2802336239050448,-0.05081297296016664,-0.1631797664775325,0.1796614117697839,1,left
1.128,0.25947648375171384,0.963219625304697,0.003613507735188681,0.25314351776027527,-0.068881427432282,0.07503046410956193,-0.05004438337372449,-0.1554100385051211,0.1789705830794637,1,left
1.129,0.2601225915934361,0.9623028974225195,0.006165197101261216,0.31123518530553596,-0.11263246281905849,0.15966692542184363,-0.05035443113476119,-0.15857341831894628,0.17924770898129794,1,left
1.129,0.2653662713440828,0.9585885575036972,0.010100138844421049,0.2671832956301895,-0.07946076816674176,0.09549221211851619,-0.05036474552298853,-0.15861347427997907,0.1792602676317937,1,left
1.133,0.2721200648262026,0.9541873047742843,0.01189620624195312,0.2937604745755545,-0.09946870535454246,0.13420432633080753,-0.05019235494442821,-0.1569624333603915,0.1791007415780546,1,left
1.1340000000000001,0.27683822977438355,0.9527715650914909,0.011822672265235762,0.2829410171894634,-0.09132718730075781,0.11844930003751118,-0.05039711378193966,-0.1589415369122601,0.17928925574699406,1,left
1.139,0.2797606710233278,0.9511573401170558,0.012768580394688278,0.2827897966011967,-0.09121271110563284,0.1182250094808279,-0.05024053220386349,-0.15739791516301377,0.17914658570883224,1,left
1.139,0.28615159101041,0.9489923202177433,0.014512171413389289,0.2884724181261732,-0.0954819174087406,0.12650172211893296,-0.05031599182899735,-0.15823742340892805,0.17921072448786568,1,left
1.1440000000000001,0.29227664323915803,0.9494002194687978,0.014843760776015761,0.28164838659921687,-0.0903664928228949,0.11656906537681194,-0.050319844292428036,-0.15802883305111604,0.17922610451509036,1,left
1.1440000000000001,0.2935187980769285,0.9501700895788198,0.012367771793951588,0.28698622251812494,-0.09435217506990465,0.12433127166557609,-0.050258874295981096,-0.15783885105393847,0.17915078927687336,1,left
1.148,0.29725183209331496,0.9503711198326124,0.009632969760154788,0.2840848369243768,-0.09220121296764261,0.12011900780268318,-0.05034468750206771,-0.1581833273574707,0.1792530736933326,1,left
1.148,0.30235880244697777,0.9511102468815639,0.006582272470575159,0.2847584189873587,-0.09269360131252767,0.12109348068180843,-0.050270964093186515,-0.1578547911757064,0.17916676577424864,1,left
1.1540000000000001,0.30450418037290805,0.9538525083330652,0.0009665567343462161,0.2855555688565318,-0.09326553667246945,0.12224378606018904,-0.05029439176903504,-0.15809566023704408,0.1791876511967929,1,left
1.1540000000000001,0.307670188519356,0.9571620109910872,-0.005477353082272984,0.28411260008998396,-0.09227103747850418,0.12017891707666348,-0.05035495888902267,-0.15793403751272456,0.17927924618599833,1,left
1.158,0.3094423125808926,0.9579531240606758,-0.011437078951545353,0.2855725218329904,-0.09321150992347332,0.12224100846725261,-0.050192858353421674,-0.15806325131945925,0.17904863534475562,1,left
1.159,0.3076229582029417,0.9602592580595357,-0.016643580794145015,0.2844640861386699,-0.09257188254084422,0.12070586223877955,-0.05044031762768389,-0.15792804826079737,0.1793977245727439,1,left
1.163,0.3046538609292796,0.9636632130863215,-0.021759365139513584,0.28505203824891656,-0.09285909035743195,0.12149882203322175,-0.05017552960073382,-0.158061390672321,0.17902470275503962,1,left
1.163,0.29913431326850826,0.964428852951713,-0.0266679536661416,0.28505210051758845,-0.09285782989877105,0.12149851635273554,-0.050330080528170056,-0.15800138963564359,0.1792416276072517,1,left
1.168,0.2918841566380714,0.9659830918860415,-0.028976690024727747,0.2844356258628583,-0.09268201375136015,0.12071795035695247,-0.050455385577379226,-0.15786548516849158,0.1794215170728392,1,left
1.168,0.28332448928991527,0.9697116020966812,-0.030689326534716812,0.2856448419764622,-0.09293339278584699,0.12221076696435296,-0.0498941965084192,-0.15832227622240452,0.17862277021194595,1,left
1.173,0.27131701325023244,0.9750610321134633,-0.03495389813539863,0.2840054028722751,-0.09268229252117607,0.12022347273663994,-0.050937054228284734,-0.15750026720496998,0.18010594975123334,1,left
1.1740000000000002,0.2592987398650616,0.9807278859407527,-0.040581212790849315,0.28565699224786356,-0.09287759334220427,0.12220194770916407,-0.049597743901515515,-0.15854984862064087,0.17820128419191897,1,left
1.177,0.24992343229773178,0.9848012206178065,-0.04691246056324232,0.2847331842546732,-0.09278772016034281,0.1211032334073857,-0.05071562136965325,-0.15767639060233563,0.17979115040441185,1,left
1.178,0.2380306596052634,0.9900583726305359,-0.05495670107671187,0.28395054650222534,-0.09272051248330537,0.12017594470167905,-0.05068559537269821,-0.1576901639869569,0.1797483774493634,1,left
1.182,0.2246281953305158,0.9967908770660796,-0.061919731818431294,0.2873406126368542,-0.09298807913717567,0.12418274654672422,-0.04855422881698136,-0.15938694799382486,0.17671688056533552,1,left
1.183,0.21417497141036554,1.0017658713670405,-0.06826572144528033,0.28108830378919836,-0.09251797050548874,0.11680260111748579,-0.05379167725712541,-0.15522913836368724,0.18416675475970123,1,left
1.187,0.2010403766521232,1.0062381558450737,-0.07974166206752989,0.28909286153942215,-0.09310372096519784,0.12624443706281196,-0.04510915510186879,-0.16211845027854432,0.17181586706106383,1,left
1.188,0.19091115653189694,1.0097379165856486,-0.08793782109045287,0.28241980321466953,-0.0926219495628674,0.1183759527559229,-0.056559702458363774,-0.15303360799703963,0.18810505768302727,1,left
1.192,0.18875831494945375,1.0114770877333814,-0.08772846530359951,0.28260462937132946,-0.09263802657149461,0.11859476056544514,-0.10464119916507263,-0.11486572970650372,0.2564957919243188,1,left
1.192,0.18204522699429004,1.014717387305724,-0.0887607334143378,0.29529953459130814,-0.09353495182056477,0.13355646007986355,-0.11608885024850057,-0.1057830149717909,0.2727822534174692,1,left
1.193,0.16970096032019938,1.0183074877594356,-0.09016993613390933,0.2640976715317804,-0.09133116992724594,0.09678396718449943,-0.1074094610469091,-0.11267002520841565,0.260434317630069,1,left
1.197,0.15762557391508425,1.0210039963468507,-0.09266103351897567,0.3158288101381501,-0.09498273536443722,0.15774972523181613,-0.11264810349599302,-0.10851133943991628,0.267885317774618,1,left
1.198,0.15224327470006438,1.0229906913131313,-0.09725883385509171,0.24759803156257304,-0.09016821319435693,0.07733987987601924,-0.11050633801445658,-0.1102157603242471,0.26484402034050336,1,left
1.198,0.15099448362016699,1.0227794649315345,-0.09990827417764071,-0.038699499738954556,-0.0700306922287953,-0.2600419978223858,-0.11049868356236361,-0.11021310292928248,0.2648223304583542,1,left
1.203,0.14083784284921907,1.0224990555124374,-0.10512768808859038,-0.10692254019529676,-0.0652218337428008,-0.34044088671194833,-0.1115844872221084,-0.10936320257313967,0.2663819710632599,1,left
1.203,0.12829270983627633,1.0254685292888688,-0.11230503838207706,-0.055213250715677106,-0.06885769376874329,-0.27950550418300335,-0.11027711265753783,-0.11038932640028751,0.26450739985268923,1,left
1.207,0.12002470681838703,1.0295168519454645,-0.11929067212345483,-0.08637056214440494,-0.06668550566294286,-0.31621690256708523,-0.11130619636516144,-0.10957743717695775,0.26597760175620355,1,left
1.208,0.11251246374917681,1.0305617924383976,-0.12378588682996199,-0.07374629766536289,-0.0675328189139744,-0.3013511284733352,-0.11071757059908392,-0.11005437550308328,0.2651529951999745,1,left
1.2109999999999999,0.1069522961711726,1.0317591212431103,-0.12129598680126803,-0.07347522444702541,-0.0676089191739096,-0.3010162785298116,-0.11093123426759519,-0.109853577968366,0.2654161560331796,1,left
1.212,0.10336847386309994,1.0344582017691195,-0.11448577278265051,-0.08021930648105038,-0.06707849417444564,-0.3089788048433704,-0.1109335524351889,-0.10990538648435556,0.2654896178108927,1,left
1.216,0.10239976760601022,1.0345714819397072,-0.10629071017901076,-0.07220977372227652,-0.06766596704152149,-0.29953368238606126,-0.1108555785279309,-0.10990151471097603,0.26529264311813816,1,left
1.217,0.10249505396675127,1.0346375956910472,-0.09921932264374853,-0.0783421320740613,-0.06728188613071623,-0.3067474480289592,-0.11095412097169334,-0.1098756991802644,0.26550140604100925,1,left
1.2209999999999999,0.10428820064051447,1.0373419176167298,-0.09215922327186471,-0.07523768323748023,-0.06734802959854153,-0.30313012095303493,-0.11079064636264886,-0.11000590219156696,0.2652694825921087,1,left
1.2209999999999999,0.10989030519360524,1.0387650535751871,-0.08490129950739089,-0.07558427679302288,-0.06758569129236486,-0.3034679747885678,-0.11112767155670064,-0.10964125211701094,0.2656216285178984,1,left
1.227,0.11526628899487304,1.036666130583979,-0.08074386556769463,-0.0769846428999307,-0.06716578159348033,-0.3052047037251181,-0.11051938582591136,-0.11034608009368058,0.2650471810188932,1,left
1.227,0.1198110245631924,1.0357344645290447,-0.07689862173358072,-0.07503997999715081,-0.06755876084764734,-0.3028442165057487,-0.1113880078823602,-0.10932541350559549,0.26584892281618766,1,left
1.2309999999999999,0.12172360184789666,1.0367554344873011,-0.07355125124659516,-0.07647717727273595,-0.06745983252324958,-0.3045370338518619,-0.11046934202520958,-0.11040769168534814,0.2650046356969635,1,left
1.232,0.11649206486357357,1.0349737307540594,-0.07353064969717213,-0.07626962719980776,-0.06699945296122303,-0.30442061601566717,-0.11098861005187349,-0.10979145676617827,0.2654760537630997,1,left
1.237,0.10636164911302612,1.0346316425095252,-0.07063654924059981,-0.07495929405325336,-0.06817723233791119,-0.3025839787233399,-0.11149312127553396,-0.10921526590903927,0.2659633540802602,1,left
1.237,0.09871063567829078,1.0372858346959664,-0.059377308038692456,-0.0775427548808065,-0.06637587162973431,-0.3060644466678284,-0.10937846580666696,-0.11166323421029832,0.26396345250292186,1,left
1.2409999999999999,0.09767574477816506,1.0366389698823948,-0.04507098201222203,-0.07455839049876975,-0.06831249960689541,-0.3020831423281409,-0.11328305664855168,-0.10713684560541856,0.2676480230873046,1,left
1.242,0.09952381344782335,1.0331961046125593,-0.029388731492607328,-0.07643767559075196,-0.06718236009187942,-0.30456544422781534,-0.10827348685635368,-0.11294583110182228,0.2629227117502608,1,left
1.246,0.10432668992451898,1.0299273240454982,-0.013694272194772034,-0.07757594280569943,-0.06624287593288523,-0.30613963418208057,-0.11245366753501276,-0.10809761269828147,0.2668647028302945,1,left
1.246,0.11062625337548244,1.029165435902447,-0.003976062608511152,-0.07170505022382441,-0.07041880069084294,-0.2982065940020223,-0.11234759021991658,-0.10822374606034388,0.26676807686895576,1,left
1.251,0.11120552858100403,1.0321473434793715,0.004834471999765751,-0.0828036466273569,-0.06265895638905145,-0.3131653152214997,-0.10435475565433316,-0.11748459933955441,0.25922004967651796,1,left
1.252,0.10884043402256198,1.0375254846015531,0.011214504726439086,-0.06847521515491468,-0.07262911155007765,-0.29386825676464035,-0.12399078066592235,-0.09472895812555056,0.2777587892572667,1,left
1.256,0.10650035990442373,1.0432066791868186,0.008657255605791895,-0.08047199597645974,-0.06430207291919235,-0.3100167660446736,-0.09143704156171065,-0.13245671715786753,0.24702598673964826,1,left
1.256,0.10471143313672625,1.0447851913462285,0.0058666303293532975,-0.08009167617741629,-0.06453369731567246,-0.30951989190270096,-0.13437318862974396,-0.08269483729046312,0.28755942186161376,1,left
1.26,0.10485716964005176,1.045362278624185,0.006136831267495502,-0.057362216294074266,-0.08039590121204115,-0.27888639491459266,-0.31462757572991223,0.12619502129784113,0.45774168957444256,1,left
1.261,0.10300119938790323,1.0493642800165262,0.0022043109584198918,-0.11331304741803802,-0.04139774749081333,-0.35426752631045577,-0.35756126733546456,0.1759563098917496,0.49827155436005927,1,left
1.261,0.10177432088494073,1.049968353008047,-0.00646487664157689,-0.020506152194697688,-0.10606506236576221,-0.2292472347269358,-0.32501018488715444,0.13822919129432182,0.46754261432217875,1,left
1.265,0.10405717995156236,1.0481739159893055,-0.011387172641404118,-0.1429402552713389,-0.02076317934149595,-0.39416368275581637,-0.34464722028390826,0.1609850732786962,0.4860828244567691,1,left
1.266,0.10458917577802349,1.047765233715997,-0.011421482761788442,-0.6567505295610631,0.33725929402050703,-1.0863332932369154,-0.33664557341103873,0.1517221032176176,0.47852198091502984,1,left
1.266,0.10567674367883093,1.043802119065686,-0.016503406904803543,-0.7792190434916557,0.4225752544294623,-1.251262077106194,-0.3365584569080102,0.1516005278678889,0.4784529290278245,1,left
1.27,0.11155400377358077,1.0390901289847245,-0.026073634988958445,-0.6863534754003237,0.3578855903817734,-1.1262167473159659,-0.34071145161325156,0.15644220821329938,0.4823553860174875,1,left
1.271,0.11733011295802175,1.036310987899649,-0.03441655730147167,-0.7423660967440817,0.3969031647372513,-1.201634214638252,-0.33572895339728753,0.15063973674758743,0.4776694404640737,1,left
1.275,0.12074619424808732,1.0336535207930917,-0.04412740397440096,-0.7196035551614118,0.3810395031716727,-1.1709596146427363,-0.33962186331785754,0.15516330818919055,0.48133702900725656,1,left
1.276,0.12163320287695667,1.0323283561070027,-0.054017265782608515,-0.7191898101400901,0.38077628909953165,-1.1704941429401403,-0.33748396125513425,0.15270976114457158,0.479303315353535,1,left
1.28,0.11613976135921153,1.0307617362372254,-0.06062376004548736,-0.7313182656474755,0.3891764238397318,-1.1866432916721494,-0.33806335628196627,0.15330394834993621,0.479899519508555,1,left
1.281,0.1060047458086431,1.0289380553866563,-0.06596414246437936,-0.7167540983207938,0.37909874997335097,-1.1672885563559237,-0.3384535963508094,0.15388916024060142,0.4801832998047033,1,left
1.284,0.09616973179135727,1.0254110070447298,-0.0704118856324838,-0.7281486851456391,0.38696948278616367,-1.1823780878557981,-0.3376932801708312,0.15284497055963905,0.4795692826587439,1,left
1.285,0.0879045937806863,1.0182756085859475,-0.06925571349356344,-0.7220325509455006,0.38273726441308487,-1.1742504970721594,-0.33843565820609206,0.153835248064843,0.48018745501368937,1,left
1.29,0.07849743645458251,1.0124778914543429,-0.0602300957452699,-0.7231906892598627,0.38360241971105663,-1.1760314944744201,-0.3378262474548832,0.1531302024210563,0.4796113419088676,1,left
1.291,0.06781696719745153,1.005683548137568,-0.04631848501240975,-0.7254728883791434,0.38500575209124555,-1.178395822155017,-0.3383975481610345,0.15355112469290622,0.48030421236376214,1,left
1.295,0.06182697492354161,0.9960888122720178,-0.029826211787739376,-0.721529882852951,0.3825797711994447,-1.1743061818051077,-0.33769867606316245,0.1532922245696157,0.4792936739477659,1,left
1.295,0.06092501317094187,0.9893167726269113,-0.01310020166358986,-0.7255709070846299,0.3850013783069405,-1.1782511413887566,-0.33859594461419507,0.15351011260019076,0.4806639607082055,1,left
1.3,0.06446615643609335,0.9813349718958222,0.003064411588716117,-0.7226777983850678,0.38329951709248006,-1.1755482035655844,-0.3376665095877752,0.15330913575775057,0.47922882684746404,1,left
1.301,0.07374282817789149,0.9706005456980198,0.01905204141977129,-0.7234258459002838,0.3838236428466226,-1.1765666818599432,-0.33816079609866584,0.15337584928907055,0.4800175978318736,1,left
1.304,0.08883935002246458,0.9611146336512908,0.03255567669620864,-0.7255741959452903,0.3847378682647177,-1.177244611708744,-0.33879857401649877,0.15367831300482018,0.480897694463563,1,left
1.305,0.10994958578066384,0.9514200232969302,0.04498796607478359,-0.7202477283223855,0.38235786717406234,-1.1751333347001505,-0.33635387388545823,0.1527553772664032,0.4773737567506329,1,left
1.31,0.12897483394978382,0.9421572522768681,0.06134977422720174,-0.728096745863309,0.38584094758295406,-1.1781525179047154,-0.3408250455141813,0.15439481327330734,0.4838496164055739,1,left
1.31,0.14538438393660622,0.9325156072984435,0.08219213693202135,-0.7198582735356396,0.38221738587900334,-1.175107053404133,-0.33509788110333505,0.15230564112521616,0.47554781154162573,1,left
1.3159999999999998,0.16404487883979557,0.9217953695362304,0.10283797532500279,-0.7246196558744742,0.38431226447430167,-1.1768688962549954,-0.3398735188822841,0.15404367049911605,0.482472824788497,1,left
1.317,0.18013037207958488,0.9093580338793028,0.12250066217729697,-0.7284394168439905,0.3859186783428592,-1.1780024787077823,-0.3397660533686746,0.15402079651522863,0.4823068432463327,1,left
1.319,0.1914297700375029,0.895216302932412,0.1417398486230795,-0.711354271691645,0.3786295122442098,-1.1725419464171836,-0.3305883735061507,0.15062647087327613,0.46903263036997034,1,left
1.319,0.19969097302260957,0.8820282893523094,0.16432799364383815,-0.7430567293341526,0.39216076294391045,-1.1826941820303534,-0.35312031135029853,0.1589417571726232,0.5016330016605023,1,left
1.325,0.21204594477026423,0.8651295276018919,0.19264121979222443,-0.7023733224507891,0.3748018233654883,-1.1696891810800656,-0.31576794022612864,0.1451606209722484,0.44758768803820786,1,left
1.3259999999999998,0.22183085183040063,0.853150091455259,0.20858886634435997,-0.736326478997574,0.3892873713608974,-1.1805332239036757,-0.3650350197584269,0.1633389610964302,0.518871346149534,1,left
1.329,0.2243737405309069,0.8499571260086993,0.21261728890623982,-0.7353788375203734,0.38887217988773193,-1.18019619348567,-0.5718641108559281,0.23965917073352544,0.8181285302714143,1,left
1.33,0.2347045582825097,0.837436115241152,0.22513499913976354,-0.6707617461096156,0.36134563214170423,-1.1596986153481654,-0.6211339832334004,0.2578435121425262,0.8894125852387798,1,left
1.331,0.2497193666867605,0.821269763910248,0.23616631914002556,-0.8296026387025621,0.4290228400307948,-1.210116068602129,-0.5837785904594874,0.24405588340486242,0.8353668428441091,1,left
1.3330000000000002,0.26837948412768986,0.8133657973708639,0.23381574690646637,-0.5662414146123755,0.316809034507232,-1.1265197493834815,-0.6063093789737654,0.2523686985840959,0.8679670487061129,1,left
1.334,0.28317044773693256,0.8101446142297737,0.22937304443854734,-0.9136042803808369,0.4648169028374722,-1.2367780032178288,-0.5971417224782596,0.24899591417442307,0.8546942644776853,1,left
1.335,0.287474774030686,0.8101617840260235,0.22671601662281404,-2.3715995548895137,1.085983265679451,-1.6994233417110887,-0.5970126905628714,0.248926693778446,0.854525211947196,1,left
1.338,0.30584030732817,0.8118004075922542,0.21469827054383459,-2.7189488537925817,1.2339897244326754,-1.8096755963058784,-0.6018192500755228,0.25073117268648915,0.8614546260238287,1,left
1.339,0.33020391059136817,0.8175445940251767,0.19528218150944945,-2.455607866681448,1.1217813163391201,-1.7260932551603183,-0.5960612942090373,0.24857583293944574,0.8531484417804067,1,left
1.344,0.34863232096942864,0.8270436902303746,0.17741574488670064,-2.61443465356991,1.1894453882846743,-1.7764866569390032,-0.6005457515243663,0.250243814825059,0.8596261856178804,1,left
1.345,0.3745180231476428,0.8332041157602019,0.16230300732831413,-2.54980946171571,1.1619420584530693,-1.7560222218819028,-0.5981274929682072,0.2493777076933124,0.856106021062127,1,left
1.349,0.3996155178596346,0.8345257537599798,0.1569922710005682,-2.5489063658992768,1.1614958015592785,-1.7556504057875375,-0.5986800963373604,0.2494971275887645,0.8569739848784115,1,left
1.35,0.42180277656742793,0.8316582284199769,0.15751217157902142,-2.582773942485522,1.176010766332304,-1.7665150802385976,-0.5993211415226064,0.2498792236697082,0.8577836489665318,1,left
1.3530000000000002,0.4461100687372767,0.8240588022508963,0.1578856759304793,-2.5422028753292762,1.15864142701604,-1.7535260649413065,-0.5982115974961332,0.24929120359512982,0.8563228870299024,1,left
1.354,0.4642941531330097,0.8164016874222653,0.16123865459820708,-2.573806496894817,1.1721420790010375,-1.7636035635338665,-0.5992524565842852,0.2498176458521694,0.8577135863131893,1,left
1.36,0.47330105023452484,0.8134750358607539,0.15628090266141426,-2.5567409394285523,1.164942693623005,-1.7582856299511809,-0.5985548665512632,0.24956153074127035,0.8567032744898717,1,left
1.36,0.47510533426640694,0.8142153488876642,0.14324022958218252,-2.56069724642587,1.166398981609066,-1.7592287815659762,-0.5988596955505878,0.2494097769365693,0.857358162215173,1,left
1.3630000000000002,0.47228094729228104,0.8184063642379147,0.13128800592247405,-2.565110033943175,1.1686735881234487,-1.7611661025486554,-0.5988592568457465,0.2500134225087784,0.8568687711761949,1,left
1.364,0.46754248352334693,0.8249846345935926,0.11832366360489842,-2.55741968601253,1.164913270669754,-1.7580673411660812,-0.5986931510445519,0.2490513967443281,0.8573576333888031,1,left
1.368,0.4634336362568297,0.8305955811481558,0.11245125241585234,-2.5646520345376977,1.168380205795826,-1.7608869898382948,-0.598901296005482,0.2500883457677549,0.8568813840433476,1,left
1.369,0.46466463222207577,0.833854286166334,0.11490453617373825,-2.55973359843252,1.1662881467173754,-1.7593309538929511,-0.5987319732978407,0.24947119845694604,0.8570856998776456,1,left
1.3730000000000002,0.4675956020856902,0.8343791304938686,0.11940769498384622,-2.5620778376485154,1.1665715660801257,-1.7591015615862455,-0.5988289594548014,0.24902851933680928,0.8576129691650825,1,left
1.374,0.4685780980429749,0.8326772506737862,0.12635495703536812,-2.5616278323245076,1.168014535825983,-1.7611828112155778,-0.5988022009985599,0.25111195100801775,0.8558800346998313,1,left
1.3769999999999998,0.4739663084198691,0.829715556207511,0.13213609054054198,-2.561123916845288,1.1653612223795884,-1.7577051426328856,-0.5987800179964222,0.24722199612763468,0.8589902026902724,1,left
1.3780000000000001,0.47896818745901404,0.8296966499200344,0.13852959398608045,-2.5618799193973887,1.16828290513835,-1.7614817761185972,-0.5988246472488601,0.2522225662985371,0.8550196411379115,1,left
1.383,0.4796178000929044,0.8341232377274526,0.14336600408277164,-2.561097471134488,1.1664475198860644,-1.7591899974720508,-0.598780808501785,0.24804581312247448,0.85832539736588,1,left
1.3840000000000001,0.4779264774617321,0.8413182910916438,0.14417847508113651,-2.562135179790025,1.1655948259142148,-1.7577577013096097,-0.5988071388362665,0.24816723190032328,0.8582712638388612,1,left
1.3869999999999998,0.4708325041644728,0.8520398829334317,0.14467172955080154,-2.5603961928078602,1.1705205558966334,-1.764915273369573,-0.5988083656133538,0.25610321744435127,0.8518511360165928,1,left
1.3869999999999998,0.46147932417354165,0.8650894703033013,0.14123352129180616,-2.563115488190647,1.1611703234365474,-1.7514810883221972,-0.5987756045976607,0.2365884521591655,0.8675901478757999,1,left
1.392,0.4475374966622875,0.8819657343802726,0.13968529334652402,-2.559736942956862,1.1732247032132292,-1.7687671077256035,-0.5988377425125522,0.26894617828357115,0.8415037060593173,1,left
1.393,0.4376960704193654,0.8937345119744982,0.14201276098019433,-2.562512348540497,1.1631417747301458,-1.754321555106382,-0.5987549264306453,0.22626790768496513,0.8759123388188428,1,left
1.3969999999999998,0.43487125384867586,0.8972207806080531,0.14357313784898246,-2.562611142237988,1.163489096952849,-1.7547677674702786,-0.5984443006739597,0.04713059380808908,1.0203850990317558,1,left
1.3969999999999998,0.4224737213385279,0.907438879516264,0.15077631067666147,-2.5567473756439423,1.1824707211250283,-1.7821309824202611,-0.5983638808378375,0.00445757640277071,1.0548023981447499,1,left
1.3980000000000001,0.40676255240512293,0.9181410059474038,0.16359620769828467,-2.570955019973505,1.135728656155502,-1.7148106052943208,-0.5984238125747153,0.036807659483253125,1.0287046371025323,1,left
1.402,0.3848609562208455,0.9254278067486896,0.1778018442421827,-2.547452927831782,1.21325212357683,-1.8264480497748532,-0.598388696871774,0.017297672891582568,1.044446964243253,1,left
1.403,0.36600145665178624,0.9324336957415725,0.18615946789640353,-2.5784396761987685,1.110995319609561,-1.679195455823072,-0.5984013450693029,0.025238203348132288,1.0380437522107568,1,left
1.4040000000000001,0.36095902266085594,0.9340947807259836,0.18810509368852898,-2.708470150498198,0.6818059986833263,-1.0611067823810858,-0.5984049858081106,0.02534028432907663,1.0379437445439392,1,left
1.406,0.3357109284002397,0.9414471119394139,0.19045587282253928,-2.7394077323358363,0.5795404587993156,-0.9138423335307548,-0.5983921701089683,0.021198910802014498,1.041322863171215,1,left
1.4069999999999998,0.29731215218153006,0.9556605414014194,0.18699291789760025,-2.71603732762501,0.6570934526939708,-1.0255134096722278,-0.5984077921500237,0.02615469017756096,1.0372697691026387,1,left
1.411,0.2668997557662953,0.9679516266213095,0.17985242965806644,-2.729987180838777,0.6102838769715957,-0.9581242172366203,-0.5983946241486303,0.022301815351176077,1.0404331512593377,1,left
1.412,0.23662666877570085,0.977809737047891,0.17651042180479026,-2.724520134431815,0.6293807404098501,-0.9855968132362496,-0.5984008422146854,0.024382798818423708,1.0387305252090973,1,left
1.416,0.2148849765811518,0.9815123312096241,0.17785405582656522,-2.724148242782727,0.6295780412321429,-0.9859091732132647,-0.5984054803553862,0.02387762978627301,1.0390903840762273,1,left
1.4169999999999998,0.20541031737344195,0.9759799010045189,0.19086560676748365,-2.727291964411124,0.6196318111961704,-0.9715742824085825,-0.5983873995003687,0.023408101708842805,1.039622762320152,1,left
1.422,0.2059729406633819,0.9592521494957703,0.21535672647621956,-2.723929545221594,0.6316479941158055,-0.9888515961765176,-0.5984182964218521,0.024221474112549046,1.0387018475311987,1,left
1.423,0.2148064501137522,0.9348301559248893,0.24364583002037138,-2.725930903239804,0.6221324068823662,-0.9752327132539544,-0.5983810106914191,0.02350103246302539,1.0396080185824148,1,left
1.426,0.23101934447391181,0.9058317983938258,0.2722503270576011,-2.7258162640950507,0.6275099124890164,-0.9828319857025293,-0.5984104670552544,0.02396105905045394,1.0389778126848492,1,left
1.4269999999999998,0.254136055019364,0.8715344505185666,0.2969376182361446,-2.7244400076234134,0.6259227700545188,-0.9807239323673225,-0.5984103043918666,0.023695338175474822,1.0391897948207551,1,left
1.432,0.2773160708967055,0.8373550342003968,0.30970646215416253,-2.7262165279890302,0.6249435623989553,-0.9791723064712409,-0.5983575575877629,0.02396419200850381,1.039453939161308,1,left
1.433,0.3043591352468677,0.8034467711111852,0.3097134052462315,-2.7255322804891398,0.6272493460006001,-0.9824912591436584,-0.5984782571998606,0.023495292085990528,1.0387329851596112,1,left
1.436,0.33704631120977435,0.7683124585599339,0.3073756298921867,-2.7236351805893415,0.624437077290275,-0.9787048391376194,-0.5982983153261805,0.024228515111173368,1.0397812708157388,1,left
1.4369999999999998,0.3742642087979374,0.7322851378625232,0.3078796002955716,-2.7290261345688576,0.6273756573322187,-0.9823348503836027,-0.5984900088961692,0.023402156703441236,1.0386999549910656,1,left
1.442,0.4200711578449742,0.6886883605916623,0.31497074029927274,-2.720521720398504,0.6245182405413967,-0.979117552986136,-0.5983793097405299,0.023878985510654732,1.0393250557302154,1,left
1.442,0.4717406274054739,0.6400068039573414,0.3310871842375296,-2.7297912468130026,0.6268918074058969,-0.9815789296409259,-0.5982838777910034,0.024389932243761982,1.0397839686236825,1,left
1.446,0.5264610939712607,0.5888788445119864,0.3477910254758004,-2.724331281922332,0.625863970263069,-0.9806513458830872,-0.5987013723936041,0.022283533816122345,1.037672250113663,1,left
1.446,0.5809924458540956,0.5349659864692826,0.36129962315479136,-2.719843749001803,0.6242538889014491,-0.9788097926307626,-0.5979272734079322,0.026183028005848666,1.0415934076244104,1,left
1.4509999999999998,0.6314175474972599,0.4889568014852455,0.36565254245590795,-2.739945906280807,0.6297720084198535,-0.9846698799562675,-0.59892108535086,0.02116807881398068,1.0365653094012113,1,left
1.452,0.672785453336723,0.4516340337649406,0.35186512708820683,-2.7025312216870443,0.6199844928728995,-0.9744438028556082,-0.5980916293564955,0.025357926980996093,1.0407596775083034,1,left
1.456,0.700345690762088,0.43195810331961104,0.3222873012761222,-2.7506337012639723,0.6323536732321333,-0.9872893603305227,-0.5981135900064849,0.025256451841253615,1.0406384349821471,1,left
1.4569999999999999,0.7153045473126791,0.4333978131388785,0.2886015010733885,-2.710449116161959,0.6221132537606088,-0.9766882275729992,-0.5996963330049813,0.0172191236202707,1.0326748713924812,1,left
1.46,0.7235910811251125,0.44493961560734696,0.25838857964043815,-2.7115605159817875,0.6223136473216186,-0.9768665736803226,-0.5958071597113633,0.036962987522719454,1.052253273098731,1,left
1.4609999999999999,0.7315883865229018,0.4721628856620984,0.22581304343116085,-2.7881395649493768,0.6419843615947278,-0.9972838473391362,-0.6022548048269193,0.004228271814859831,1.0197930970571591,1,left
1.466,0.7346884444808759,0.49164942463778355,0.20405932658119716,-2.5998746714038896,0.5937746675901796,-0.9472961629264185,-0.5937511823747057,0.04740542848743661,1.0626047752792718,1,left
1.4669999999999999,0.73713091617825,0.5044345440009141,0.19749442295096561,-2.9120479510472266,0.673640196211698,-1.0300826299128132,-0.5580484107852124,0.22869473119172745,1.2422965994966186,1,left
1.4680000000000002,0.7448491520313394,0.5289832777017849,0.18647256820412236,-2.500281111670218,0.5683343795655721,-0.9209370930125728,-0.5495460960893215,0.2718718091748783,1.2851035110004565,1,left
1.4709999999999999,0.7469822872902907,0.5413527446108568,0.18071377358552046,-0.7719215729763227,0.12625876264484942,-0.46275459885357567,-0.5559923227026737,0.23913524172118547,1.2526500547384685,1,left
1.472,0.7462601120802961,0.5688658204404404,0.1805752574094392,-0.36014478526298105,0.020979345978534753,-0.3536420445503159,-0.5521026240108375,0.25888599848044713,1.272224883504502,1,left
1.473,0.7421836373684263,0.6243831968910512,0.17444764758135067,-0.6723347338096519,0.1007968221493184,-0.43636475826621257,-0.5536900341311388,0.2508342443654205,1.2642556224409718,1,left
1.475,0.7252525253190462,0.6794985654965355,0.16753231968366727,-0.4840530166313857,0.05264529680389902,-0.3864629204011366,-0.5537019353445611,0.25075435950000413,1.2641542612167855,1,left
1.475,0.6985000402877732,0.7439438400839887,0.15438361361388636,-0.5606394854414527,0.07226844057926705,-0.40679360266057424,-0.5528869165801387,0.2549208167080963,1.2683140207351074,1,left
1.4809999999999999,0.6649544807107758,0.8129521165296064,0.1369300144997485,-0.5617637289688275,0.07247611337572152,-0.40702133632864723,-0.5538663345177723,0.24991970998012786,1.2633280088714334,1,left
1.482,0.6274390030069212,0.8797393925774792,0.1232165985673079,-0.5215376649471003,0.06230137249568983,-0.3964590119790638,-0.5530984788469678,0.25383078078399174,1.2672168496782783,1,left
1.4869999999999999,0.5852945289365165,0.9457589898726354,0.11311664762654929,-0.5697102560790516,0.07451008002765704,-0.40912900542857344,-0.5535282587018392,0.25167205580203306,1.2651016142643279,1,left
1.4869999999999999,0.5420716804339004,0.9962398007520374,0.11238842886919312,-0.5322118285128921,0.06496833905580007,-0.399232921171653,-0.553393123484586,0.2522819942229264,1.2656279758930906,1,left
1.49,0.5075953238978396,1.029107956799213,0.12317580423923133,-0.5523770312059006,0.07021750060803866,-0.40465796244921703,-0.5533509079691674,0.25262774319146086,1.2661050052843004,1,left
1.4909999999999999,0.4766227600645144,1.0494875202719065,0.13737648415686038,-0.5478984643453179,0.06877398232243707,-0.4032099382011965,-0.5534584771860855,0.251920329654996,1.2652392295922261,1,left
1.495,0.44693994538144055,1.0546749820294927,0.14877821753109505,-0.542302643614731,0.06785652171041481,-0.40217657473959256,-0.5533457194107689,0.25262133356932215,1.266065168862286,1,left
1.496,0.4260176043712036,1.0432161853690727,0.1598181034774298,-0.5518668186216158,0.06967246446542527,-0.40415977629922395,-0.5534667505608397,0.25200805140895455,1.2654584756916427,1,left
1.5,0.40785043697049594,1.0209069857714053,0.17188478393415224,-0.5429362903489592,0.06789063739476914,-0.4022324933995376,-0.5532899405956789,0.2526671986184399,1.2658686173463134,1,left
1.5,0.3897964473024068,0.9889943743645929,0.18707835896092662,-0.5487638309014731,0.06938543288374255,-0.4037808846824249,-0.5535737884195988,0.25177100135685987,1.2655360150353134,1,left
1.505,0.3804710836246066,0.9433603741322063,0.20918712398132824,-0.5466467638671724,0.06791277175006288,-0.40240443331284814,-0.553179158160606,0.2529618626681184,1.265887433192217,1,left
1.505,0.3817610987278824,0.8863170705212993,0.23357580395472477,-0.5456673524164599,0.06979024075242117,-0.40400799701885554,-0.5535944363605547,0.2517195266038335,1.2655396926103353,1,left
1.51,0.39386317369438073,0.822208542780115,0.2581373248461434,-0.5485217421362105,0.06734599298601374,-0.40198528821685386,-0.5533630276668461,0.25239451280184655,1.265698170493413,1,left
1.51,0.41601079517221995,0.7565156090598889,0.27827553010444794,-0.5452194606168042,0.06988489276382417,-0.4040724410844986,-0.5531213900977565,0.2531887916414992,1.2660453286023534,1,left
1.514,0.44356599646832784,0.689351349343891,0.2886169881147709,-0.5475372767650754,0.0685233075734397,-0.40297562905202067,-0.5541097931987424,0.25006014627939177,1.264870403802918,1,left
1.515,0.4726480582968162,0.6258941654215633,0.29148842158479804,-0.5475054980114777,0.0668286594739787,-0.401490524385692,-0.552289383267605,0.25579976919474345,1.2669873992276932,1,left
1.5190000000000001,0.49951434331339806,0.5782515639056425,0.28467784995845435,-0.5443221550396605,0.07339167040630512,-0.40710595037351216,-0.5546238896928364,0.24844349220153336,1.264282623182564,1,left
1.52,0.5217732235998567,0.540316906786229,0.27085960089939526,-0.5508252963578231,0.06137548640321633,-0.3968524963611355,-0.5526763687318964,0.25457983485031777,1.2665357073307735,1,left
1.525,0.5415687711335831,0.5191358484590558,0.25284420684443454,-0.5423404730884636,0.07676884905188183,-0.40998132249876684,-0.552724013980386,0.2544340555590411,1.2664948632302242,1,left
1.526,0.5585624989510458,0.5141024554262796,0.23628874221638146,-0.5494784063952771,0.06393391911111705,-0.39903723971513316,-0.5564535424165136,0.2426653162246051,1.2621312884005618,1,left
1.5290000000000001,0.5735720110522213,0.5181454796204309,0.2256892542598009,-0.5490764287025163,0.06422268115309657,-0.39927335033743705,-0.5472933556081934,0.2715687240625302,1.272833897356985,1,left
1.53,0.592422805386001,0.5463484517214547,0.21309110082931698,-0.5361509875170215,0.08888391352838952,-0.42033438096480175,-0.5624790783456732,0.22365011580424196,1.2550930082076626,1,left
1.534,0.6048183756401985,0.5673728862596483,0.20598729028915952,-0.5681659116128472,0.028343394155219533,-0.3686440274440323,-0.5424500267322716,0.28685558075839335,1.2784942070377276,1,left
1.535,0.6096387407904327,0.582631338715857,0.2021061915095781,-0.5150206409731904,0.12869736690947364,-0.45432422324780675,-0.4583502018156876,0.5521436688424508,1.3767050472524298,1,left
1.535,0.6180858152601223,0.6115063106311791,0.19395101411953833,-0.5851235869798619,-0.0036578696191522306,-0.34132277942116845,-0.43831979543289656,0.6153501966292703,1.4001073290896158,1,left
1.5390000000000001,0.6224593961582536,0.6273743350363092,0.18948345306258868,-0.8790846644669774,-0.5593470928197808,0.13312703793389782,-0.45350975174974645,0.5674364496788977,1.3823711222534918,1,left
1.5390000000000001,0.6259689195835436,0.6708115570475712,0.17439629530548667,-0.9491611308069962,-0.6916836325650169,0.24611229008372737,-0.4443403187728656,0.5963181282561789,1.393052550338263,1,left
1.54,0.6295144306227408,0.749782918631936,0.1442246118910986,-0.8960443862103167,-0.5913621770851012,0.1604608138942636,-0.4480851962791699,0.5845970986397375,1.3887356099584596,1,left
1.545,0.6219577568931641,0.8248869364681478,0.11362231775700773,-0.9280706429792616,-0.6518668636775855,0.21211815503234313,-0.4481133183369912,0.5843779905987616,1.388622983969586,1,left
1.545,0.6092597656218254,0.9061504907329844,0.08626060158651375,-0.9150492697297296,-0.6272282643976022,0.19108080835670457,-0.4461829796121832,0.5905959941125878,1.3909561249366527,1,left
1.5490000000000002,0.5957541347248582,0.9834131484772473,0.06546115581485765,-0.9148531007471208,-0.6269507527243805,0.19084838280238903,-0.4485138788639399,0.5831877257069122,1.3882001880328172,1,left
1.55,0.5817534142442553,1.0496469167004463,0.05443505214224496,-0.9216964274981974,-0.6397215550170332,0.20174343182789903,-0.4466699513084471,0.5888953251981339,1.3902862254734059,1,left
1.554,0.5704612748578686,1.1084797550890624,0.0562813024141684,-0.9135043695612926,-0.6244520060081513,0.18871808404639517,-0.447719228450697,0.5859368066550661,1.3892774334953248,1,left
1.555,0.5572702598590693,1.1517575960629496,0.0636836229951451,-0.9198823047432084,-0.6363034245934536,0.1988253985326583,-0.44738089641383555,0.5863989355496071,1.3892996632203802,1,left
1.5590000000000002,0.5371839881693852,1.1872917070501143,0.06819746983885525,-0.9164449875180771,-0.6298906643460043,0.19335498388447087,-0.4472596660207039,0.5875236724780024,1.3898986531228688,1,left
1.56,0.5133321741948587,1.215397326884088,0.07558858981003638,-0.9172269029114648,-0.6315426787274064,0.19477528006405562,-0.4475996606799675,0.5858595439983287,1.3891370551218314,1,left
1.564,0.4855247045234376,1.2354328375248165,0.08069532141339932,-0.9181452031571407,-0.6327271986324414,0.19575540138760172,-0.4471755020142987,0.5871921945974727,1.3896290212670197,1,left
1.565,0.450528228851345,1.2524196373679106,0.07781441564715716,-0.9165578102280153,-0.6306715823448924,0.1940539032898744,-0.447665262778069,0.5867450421052961,1.3897337452870637,1,left
1.569,0.4155895057047405,1.2537068905985314,0.08207973578449454,-0.9180489931529046,-0.6323333076064053,0.19540707051867676,-0.4470701938951883,0.5861136649513556,1.3888825277276307,1,left
1.569,0.38755993127602417,1.2335960367813932,0.10304539333202739,-0.9170482613339108,-0.631363076062548,0.19463086155883735,-0.44777327706265957,0.5876378077980675,1.3903678337951044,1,left
1.5730000000000002,0.36528949560655516,1.1948322216515739,0.13630568383424674,-0.9174819832738398,-0.6321910149665068,0.19533845997489702,-0.4470914140337914,0.5857999826769185,1.3887057205962612,1,left
1.574,0.3490901942076661,1.1315175333651832,0.1808438027181074,-0.9174967661836335,-0.630510705887156,0.1938064833070366,-0.44743994483826854,0.5870047395792947,1.3897187542696292,1,left
1.578,0.34177119463407774,1.0505820887244655,0.23123662124798394,-0.9172245779173127,-0.6338999399812661,0.1969221926848444,-0.4478816877468018,0.5875991083731844,1.3904282893458033,1,left
1.578,0.34025469126812313,0.960359794383727,0.2770442789091411,-0.9175751271169499,-0.6287387129007815,0.1921847282120649,-0.4462092323874717,0.584178443148746,1.3870211538049877,1,left
1.5830000000000002,0.3441284502338765,0.8629973098962078,0.3201927720673915,-0.9172748714544925,-0.6343801849670393,0.197353653753155,-0.4492490002713488,0.5907157009895734,1.3934107783574596,1,left
1.584,0.3579278405111829,0.7665482463177656,0.3627754145394986,-0.9174495286862319,-0.6311211460248819,0.19436825396939014,-0.44536834908110745,0.5822517680978072,1.3851809641229664,1,left
1.588,0.3741911741474347,0.6759613984199744,0.3977559490043472,-0.9174356440477759,-0.6280062801456698,0.1915317816130276,-0.4485981224753458,0.5893473651048121,1.3920616511728094,1,left
1.588,0.39397268717556466,0.5941666169541692,0.4317877228349018,-0.9172825082512039,-0.6412452104900668,0.2036052694233798,-0.4485265899989919,0.5891098660121329,1.3918606448981437,1,left
1.5919999999999999,0.4199811480426118,0.525016075344872,0.46888619855052865,-0.9175781549284264,-0.6167108243704661,0.18123158983180593,-0.442326198672353,0.5757008736652827,1.3787803874054552,1,left
1.5930000000000002,0.4453511819525309,0.4773102530494024,0.4908119860362232,-0.9172108503154701,-0.648242346251794,0.20998258563749106,-0.4575421679413378,0.6087242676994098,1.4109502362684272,1,left
1.598,0.4746968242879378,0.4529385564485272,0.4987683015612303,-0.9175132151468396,-0.621902618956527,0.18596943392651794,-0.43232353660984824,0.5539451561451492,1.3576051243029155,1,left
1.599,0.4943033233931559,0.4532989759905792,0.5011960524563669,-0.9174833396053802,-0.6225926669699804,0.18659278328100215,-0.46558163791641244,0.6262075519667913,1.4279672271766495,1,left
1.6019999999999999,0.5011287383999354,0.4613918824095479,0.4992814852796648,-0.9169911073638516,-0.672932174682708,0.23249647800359596,-0.6052195820445234,0.9294922866673883,1.723334347929072,1,left
1.6030000000000002,0.5256066341359633,0.48174411936684247,0.49905084982608894,-0.918222693149821,-0.5492099039429452,0.11968967659564878,-0.6384733903626443,1.0017563803122513,1.7936918280772658,1,left
1.604,0.5619131629767135,0.572111913821874,0.4817198139771635,-0.9161760711187521,-0.7543618751914309,0.30673195759454197,-0.6132610715453711,0.9469701713956814,1.7403497676015907,1,left
1.607,0.5803614005448099,0.6506386302838967,0.460327609920566,-0.9188757633490326,-0.48375013755022267,0.06001628150192809,-0.6284729000248883,0.9800114993638522,1.7725284256262417,1,left
1.608,0.5868089480131521,0.675334576848988,0.4522542605936591,-0.9300264296448397,0.6519473773687827,-0.9756133855852572,-0.6222692802186244,0.9665701874290145,1.759417338414433,1,left
1.608,0.6039949146984365,0.7878206974965823,0.42138057599110323,-0.9327144015735702,0.9225615980624288,-1.2223387989526606,-0.6222128301951209,0.9663765659126723,1.7592731534278139,1,left
1.6130000000000002,0.6251696904901222,0.9578618426452462,0.3776518557237052,-0.9307013129953574,0.7174354129508173,-1.0352840458047274,-0.6254144646697125,0.9734297967187351,1.7660799862826038,1,left
1.6130000000000002,0.6370541342864255,1.1151051698503902,0.3378478163660231,-0.9318638602730933,0.8410558110573412,-1.1480937014521753,-0.6215699702298995,0.9649823887171348,1.7579142023306642,1,left
1.617,0.6437168367924496,1.2912773496334082,0.2888272757033694,-0.9314818375433123,0.7909331287338541,-1.1022108079917496,-0.6245790284434247,0.9715601715299098,1.7642938644120407,1,left
1.618,0.6450008655946138,1.458607504369584,0.2412266070838697,-0.9313165595406132,0.7899154521060266,-1.101533252261568,-0.6229103388653343,0.9680155074894453,1.760791040048947,1,left
1.6219999999999999,0.6393645025763759,1.6134935022951613,0.19605685232863537,-0.9317316197396232,0.8166137295238485,-1.1256316912398296,-0.6233998444446451,0.9688203979002217,1.7617387865888214,1,left
1.6219999999999999,0.6275391543844402,1.7570888360043762,0.16096374694669563,-0.9313538262773717,0.784864067370854,-1.0967863146764458,-0.6236320754197893,0.9697696673781405,1.7623811288622715,1,left
1.6269999999999998,0.6094252183366549,1.8735585130926584,0.14666137306175997,-0.9314650844283162,0.809234646979682,-1.119218273318909,-0.62312905466075,0.9681314824230168,1.761131722391423,1,left
1.6280000000000001,0.5847075604972974,1.9697367522008458,0.1394998515516896,-0.9317562617027151,0.7967773615760004,-1.1071853741671966,-0.6236355979845671,0.9696666553856472,1.762351088109571,1,left
1.631,0.5582092806918186,2.037208878596218,0.138241204791231,-0.9310600055352541,0.7983968163572703,-1.1098215119042611,-0.6231630111468507,0.9686435233979184,1.7613522433001065,1,left
1.632,0.5392442833867517,2.0736939029346004,0.1454502081140992,-0.931985271584715,0.8036520003950063,-1.1131915827869556,-0.6237324533494826,0.9690749798479479,1.7622837642370612,1,left
1.636,0.5289520343715134,2.0800354436882005,0.1571216432976994,-0.9312153401763812,0.7961773464165267,-1.1075086718942342,-0.6229009536003801,0.969110168758717,1.7611495845472163,1,left
1.6369999999999998,0.5296599766477269,2.055508042120284,0.1803962152904552,-0.9312657674294023,0.8018787139801592,-1.112718433397332,-0.6240289347141842,0.9688129476763021,1.7626031196824568,1,left
1.642,0.5446528771912434,2.0055444434527354,0.21367109299376344,-0.9325439448210187,0.8006158181987739,-1.1094631312649885,-0.6228473232828993,0.9691756066487746,1.7610983882030824,1,left
1.643,0.5702058010667863,1.933486466887347,0.2508255202970464,-0.9295525233988953,0.7964257383280976,-1.1104482943022544,-0.6234971820310322,0.9688936417868035,1.7618970705876293,1,left
1.649,0.6087418631718875,1.8434628457710736,0.2962017300483307,-0.934040309408426,0.8051678343727389,-1.1112516530689378,-0.6242206184769961,0.9690084200998408,1.7629347068065475,1,left
1.649,0.6606229798124414,1.74080696139689,0.34341910163277267,-0.9292464913624886,0.7949381913918527,-1.1095634480695127,-0.6213213948361207,0.9690925606110766,1.7589660848766524,1,left
1.651,0.7229213140870958,1.6325359312989307,0.38221668384491264,-0.9320237639673927,0.8014575530072497,-1.1110967031426775,-0.6266502162187296,0.9688298922109876,1.7662214857966299,1,left
1.652,0.7962353649807812,1.5173390255816515,0.413582945130227,-0.9343947024672092,0.8051850544253613,-1.1106841659928162,-0.6198180018304222,0.9691921466888035,1.7569301112634796,1,left
1.656,0.8618579852693222,1.4129256778164814,0.4457974129008352,-0.9239745721948874,0.7853830004729844,-1.1092900624348139,-0.6255183691732346,0.9688781911659712,1.7646749470525163,1,left
1.6569999999999998,0.9179631004285129,1.3209004505098267,0.47319491379499523,-0.9433107924109702,0.8229268624357193,-1.1126314994349595,-0.6253789119955542,0.9689278557356548,1.764507313758671,1,left
1.661,0.9766988650340926,1.230033213080401,0.4838778860439052,-0.9184753821095186,0.7744280267261727,-1.1080682873951335,-0.6144589247868627,0.969395554352899,1.7496074540250541,1,left
1.661,1.0277798391957633,1.1537126973236966,0.478610494477964,-0.9392161025740056,0.8150317154950104,-1.1119933347953181,-0.6412832957101493,0.968193453169815,1.7861743426989714,1,left
1.665,1.0863718827984767,1.0455179420839678,0.4476454188970021,-0.938639687899623,0.8137654631277209,-1.1117089002107234,-0.5968089246050088,0.9702052963588421,1.7255661948306713,1,left
1.666,1.1280311310178341,0.9641311695344327,0.42070730066256834,-0.899127874558723,0.7367944719911597,-1.1046983996142568,-0.6554739131517828,0.9675422510807484,1.8054952372863629,1,left
1.671,1.1343488894482197,0.9518262998218199,0.4157106801689299,-0.9962723928812997,0.9262058733311422,-1.1221875469394522,-0.9017225952973789,0.9564624851315305,2.1411119214077594,1,left
1.671,1.1697848620106495,0.855558087157696,0.380890632772195,-0.8351811592691742,0.6120888271675805,-1.0930916607190448,-0.9603998954079439,0.9537818175812018,2.2210146329566034,1,left
1.672,1.2053808844916802,0.7614768628412693,0.3457735880705345,-1.0476803492156943,1.0264040374724162,-1.131505411443658,-0.915907319497108,0.9558234644059984,2.1604498433951633,1,left
1.676,1.2081985431115707,0.7496537354899067,0.34322348907540157,-1.9394089943344759,2.7658172311713507,-1.292593432501091,-0.9427439252841163,0.9545905822715319,2.1969748972741594,1,left
1.676,1.2347108757806928,0.6687869559907638,0.32708798631393426,-2.151942466005936,3.1800691606606275,-1.3310154993306709,-0.931832455213411,0.9550734439322531,2.1820891226600336,1,left
1.6769999999999998,1.2772509393270282,0.5602387494586529,0.31027648779333045,-1.9908139255077109,2.8659980858757073,-1.301890088764558,-0.9316508439228062,0.9551428648326252,2.181963724866108,1,left
1.681,1.3170321038305075,0.47184264689218275,0.31156813660341465,-2.0879451032717475,3.055515202351126,-1.319448520761803,-0.9374307296411919,0.9547586441022132,2.1895899241176133,1,left
1.681,1.3558523739078423,0.36661012596661435,0.31531481311720366,-2.0485547433237485,2.9781528454144595,-1.3123179737325792,-0.9304955001269686,0.9552432561988573,2.180489237373307,1,left
1.685,1.3793696139313831,0.2705022376033126,0.320830530812487,-2.047715951280314,2.977618931009423,-1.3121916974302303,-0.9359130271827452,0.9548305044459275,2.187527628762518,1,left
1.686,1.3900086775480807,0.17383514109934103,0.31944805032161894,-2.068833712342932,3.017260450682054,-1.3159701484793829,-0.9330002813722913,0.9550337610711712,2.1837057286411614,1,left
1.6909999999999998,1.3913010302510562,0.076463093117101,0.30652964105741876,-2.0436217932009746,2.9696099957670823,-1.3114527755034469,-0.9335918415643616,0.9551504887141945,2.1848048142307084,1,left
1.692,1.3836556566148297,-0.011349086619499344,0.2892783369593676,-2.063122429262095,3.0069915776452847,-1.3149603902726847,-0.9345685078077093,0.9546462619042793,2.1851944652239013,1,left
1.696,1.3675952835800578,-0.0942224580472834,0.2733844744788469,-2.0530210969828864,2.9859914509086507,-1.3130984366814213,-0.9328800993936938,0.9555140994026452,2.1845135709057493,1,left
1.696,1.3470727178269215,-0.1642794945760711,0.2603190526124395,-2.0543573329113025,2.9927704550909464,-1.3134558119013169,-0.9345700134535327,0.954467038832559,2.184829634601109,1,left
1.7,1.3310821678077422,-0.2229217582235364,0.2480924569562637,-2.0589218500494813,2.9944905689667993,-1.3140809793937205,-0.9333801393267505,0.9552943623414648,2.184791572581485,1,left
1.7009999999999998,1.3173397471400228,-0.27156874899603134,0.2404789899379559,-2.0519299525682593,2.989663720644545,-1.3130627460227413,-0.9337402525606082,0.9552851191466936,2.185296583305062,1,left
1.704,1.3029421644003096,-0.31071272903315306,0.23716893170057307,-2.05817714951906,2.9948262231295084,-1.3139960856108666,-0.9344054419041083,0.9538196066320407,2.183265057303075,1,left
1.705,1.2910846878944946,-0.34058286649063435,0.22968823520929454,-2.055185299732825,2.9889286075567867,-1.3134533454366886,-0.9326856979236644,0.9571774335192637,2.187635190652852,1,left
1.709,1.2815812966206066,-0.3575060231331964,0.22230056605955328,-2.0532354335059932,2.9981531164740556,-1.313465152034858,-0.9352045452252422,0.9521704659940483,2.181052463749904,1,left
1.71,1.2740515867234223,-0.36143814848502653,0.2180948327372596,-2.0606922164932033,2.9829252935504087,-1.3139807577429021,-0.9325813337886903,0.9575050305351629,2.188153819212712,1,left
1.714,1.2686212300688804,-0.35148411088579046,0.20635894988184858,-2.0488498324153066,3.0042417648306383,-1.3130816476542906,-0.934097158351479,0.9544229302852508,2.184051350347037,1,left
1.715,1.2623047538625225,-0.3274215890145175,0.194448736455422,-2.061607159208296,2.9817771625545806,-1.314064348808368,-0.9352688203403186,0.951771557901794,2.180329423290374,1,left
1.72,1.2531606958006078,-0.29354829175111774,0.18865983761861121,-2.054025761555433,2.994348243341698,-1.313458165342797,-0.9299676338561222,0.9633817046775027,2.1963787422684735,1,left
1.7209999999999999,1.2401886369888713,-0.2512997506169823,0.17952201087646563,-2.0485340120744286,3.0072166712054003,-1.313125536343339,-0.9398060672400598,0.9418508136026731,2.1666264993263398,1,left
1.725,1.2251556661248537,-0.20166028578545808,0.17239513601237122,-2.0742749321709684,2.954219237605192,-1.3148923557811454,-0.9271858661486589,0.9694963921938424,2.20484593610729,1,left
1.726,1.215373375797737,-0.1514140605256182,0.16656208713329473,-2.0262320004437466,3.0519093202397736,-1.3115593792311335,-0.9377144200768028,0.9464176286705449,2.172930358707692,1,left
1.73,1.2107733477472733,-0.10045603015162644,0.1604420218127026,-2.08798777447782,2.926596868414967,-1.3158520815792816,-0.9374204324875142,0.9470408128033658,2.173777171919399,1,left
1.73,1.2070663958968142,-0.051465910709214455,0.15947906463042757,-2.0364071830058057,3.031171872273786,-1.3122625895129423,-0.9173928188846305,0.9910497812048187,2.234711027185063,1,left
1.734,1.2027108648659521,-0.009319715183539554,0.16591328065603517,-2.037901563937766,3.0285231716823926,-1.3123807074367069,-0.9666187490704982,0.8828847607735916,2.0849529656049675,1,left
1.735,1.196237299292907,0.0288108853821632,0.18679123845762896,-2.135923775342847,2.8284959675971355,-1.3191577652037292,-0.8850079563165398,1.0622244623023764,2.333263412067401,1,left
1.739,1.1933006223056823,0.048492704351177945,0.20282801570499065,-1.8948907408859177,3.3199522238746875,-1.3024744532213246,-0.9926433430493447,0.8256786053542966,2.00573591596586,1,left
1.739,1.1916841351965337,0.053785146520614335,0.21048367790061506,-2.294549291955225,2.505105068745904,-1.3301448402269784,-1.4445578085369006,-0.16727852400528986,0.6309659920539618,1,left
1.74,1.1872297956721087,0.06408228334147768,0.22358971190848498,-1.7674216094153632,3.5799478615551905,-1.2936437474656381,-1.552193157487077,-0.4038262756539435,0.3034336123012455,1,left
1.744,1.1855624950686727,0.06874627035772266,0.2313676082755327,0.44504532012034753,8.091882631165518,-1.1404586672164818,-1.4705660744512694,-0.2244772392007975,0.5517437863852872,1,left
1.745,1.1813131520629225,0.06865130032717609,0.2504047238382049,0.9720854611332742,9.166984518264666,-1.1039479488874189,-1.5198498656031032,-0.3326672835756188,0.4020074145192298,1,left
1.746,1.1715249094506586,0.06594723797840069,0.28313878460033814,0.5725723454551976,8.351697341650441,-1.1316370839701304,-1.4997028623888498,-0.2886119183910142,0.46288317038369653,1,left
1.749,1.157537434894441,0.05338330879739941,0.3119103594919833,0.8134617473761179,8.84361263681501,-1.114928214234126,-1.499586087987573,-0.28805302426512003,0.46382788714667045,1,left
1.75,1.1389290269801626,0.03903432631442991,0.34608797299931987,0.7154957351983384,8.643349144435197,-1.1217315822009843,-1.5099243373339502,-0.3110680614605582,0.4317936356911515,1,left
1.754,1.1199788107275044,0.02411504019101785,0.38237269901831494,0.7141278727552061,8.640429775174606,-1.1218337462419576,-1.49741396962622,-0.2834504012626706,0.4701041430706614,1,left
1.755,1.0970054817658244,0.0085987627697925,0.4142170923247541,0.7653289512035544,8.746016626871608,-1.118234577750033,-1.5073529549686162,-0.30503524183555814,0.4403629339494234,1,left
1.7590000000000001,1.0720112293310045,-0.004290391321651001,0.4438577523640924,0.7041985715004141,8.618917385987839,-1.1225775782626017,-1.5016165604103464,-0.2932490515487415,0.45621808312766676,1,left
1.76,1.048067775876452,-0.014214389932997746,0.47259699031679064,0.7515120618450644,8.718825495969345,-1.119147384249794,-1.5036036745914498,-0.29620589056821406,0.4529221139407705,1,left
1.7630000000000001,1.0176131700381315,-0.021337889930780892,0.5009929023460831,0.7262931964025603,8.664027802312724,-1.1210450276792296,-1.504047405699243,-0.29891018612162923,0.44819898631530763,1,left
1.764,0.9815318590625365,-0.028860778448297084,0.5238460091631072,0.73192509848233,8.676959218193488,-1.1205903188060873,-1.5023862697545782,-0.29388153578059295,0.45594170183068267,1,left
1.768,0.9435465862977533,-0.03421759328264041,0.5419688130921043,0.7382309898851909,8.692677428845085,-1.1200245876583308,-1.5046665499121932,-0.2988803114976112,0.4490275172112994,1,left
1.768,0.9055908534194014,-0.03498283485219571,0.5577013501496217,0.7281366762834516,8.662894506405507,-1.1211379949020945,-1.5017279037274376,-0.2949797359706591,0.45298046579030293,1,left
1.7730000000000001,0.8700115054341329,-0.031875028974869254,0.5726088576415154,0.7362170184411143,8.69520584947005,-1.1198653869988089,-1.5056277685043857,-0.2977055865617946,0.45251467062829354,1,left
1.7730000000000001,0.8350037949387686,-0.02379265557511523,0.5897111305458823,0.7324981463273558,8.668201431682558,-1.1209973379136935,-1.5008013512749097,-0.2958184254856813,0.45019207496722935,1,left
1.778,0.7975933418248825,-0.011405542016683161,0.6059607214690649,0.732780225064897,8.684254669236235,-1.1202811427008146,-1.5055838777492192,-0.29703268581576114,0.45377231337894613,1,left
1.7790000000000001,0.7605834040256433,0.004038155845782377,0.6227336150209483,0.7327375471590662,8.684306073480549,-1.1202772860225312,-1.503063213574362,-0.29686587645237555,0.45096296505372196,1,left
1.7830000000000001,0.7273449563172689,0.018943859431223304,0.6420382935076534,0.736513279745042,8.66328943816731,-1.121309716549657,-1.5001358806020542,-0.2950593948707594,0.450844092182465,1,left
1.784,0.692690947462044,0.03320713659895495,0.660427426808761,0.7260719221314749,8.707618428664876,-1.1190770084414359,-1.5115559149225408,-0.29989789058478067,0.45561309917119086,1,left
1.788,0.6577056748846225,0.04954260729831632,0.6796219381824687,0.7431415369573198,8.644535195839536,-1.1223035061941307,-1.4907052962020986,-0.2916496764617845,0.44576470880106717,1,left
1.7890000000000001,0.6279681662999237,0.0647041472894326,0.6965872358398023,0.7240729110061763,8.710001575117229,-1.1189254632188996,-1.5173614673683349,-0.30197945951279176,0.4587730064008054,1,left
1.794,0.6047105056837512,0.07973438155743268,0.7060768318924542,0.7353677897406314,8.67274475256901,-1.120856313904131,-1.4951551513038233,-0.29346620557774106,0.44775897431983164,1,left
1.795,0.5832922284761886,0.09885763097457408,0.7078223965410575,0.7452268461075844,8.64086463552745,-1.1225178630468822,-1.4956848408091776,-0.29352609206088365,0.4482954536920575,1,left
1.798,0.5624626474088992,0.11711651144900678,0.7031240259784968,0.7017568281718229,8.77970035491549,-1.11528027511085,-1.5382193961399513,-0.31021262889789314,0.4686638085614818,1,left
1.7990000000000002,0.5459740829669478,0.1331534331635586,0.6963214078897421,0.7826875467784902,8.5228837018959,-1.1286756354307004,-1.4337740287887994,-0.26944610743448427,0.41825429157347627,1,left
1.804,0.5230741110851194,0.15198411926315109,0.6851523245717319,0.6785522267724098,8.85219479968125,-1.1114954012500333,-1.6069171697215212,-0.3369452326363056,0.5019690195407137,1,left
1.805,0.5079458759291724,0.16406075735759276,0.6755289711562136,0.7655781064832119,8.577468966754896,-1.1258244909438737,-1.3785460270740018,-0.2479488329976732,0.3914974576605113,1,left
1.807,0.5031383921164592,0.16622645691488597,0.673014129196595,0.7632560216367483,8.584928516908194,-1.1254526555951627,-0.4199621646149333,0.125749913916872,-0.07199271847267431,1,left
1.808,0.4830435176276763,0.17117579116796486,0.663033241109571,0.5970614655171609,9.108366279771282,-1.0981027260287606,-0.19156346078098632,0.21473816461633982,-0.1824872397209508,1,left
1.808,0.4556187522604279,0.17688725272300732,0.6471378045184778,1.0055624688181246,7.821937436449083,-1.1652890290902553,-0.36474197774049877,0.14726871385427048,-0.09871317243689363,1,left
1.8119999999999998,0.41052634027341894,0.17929184358229563,0.6382738119448548,0.32821618187083784,9.954769608645446,-1.0539171602977264,-0.260288270018767,0.18796470960910847,-0.14923543734509334,1,left
1.8130000000000002,0.3721885256224522,0.18027331404149544,0.6361637490417528,1.2216579769333973,7.141671425809736,-1.2007963065128815,-0.3027644868382357,0.1714012358162186,-0.12869756302001079,1,left
1.8130000000000002,0.3618626499085521,0.17986244272606305,0.636681872242636,4.972629099496828,-4.665994590682872,-1.8178032111077185,-0.3034468067559213,0.1711783150105215,-0.1283575294240164,1,left
1.817,0.3171385288482208,0.18111368962860272,0.6338870086855066,5.8661352534046225,-7.479006817621323,-1.964697484725348,-0.28099994496449093,0.17984386374163813,-0.13922463919794653,1,left
1.817,0.2502884822969374,0.18282367305495748,0.6278144125522074,5.188617454322574,-5.346319113754778,-1.8532486909370345,-0.30792276459691204,0.16946418232245358,-0.12619433967016003,1,left
1.8219999999999998,0.19728718366342624,0.18448012917407916,0.6255261051693104,5.597452836012449,-6.6326010210032305,-1.9206432677077176,-0.2869067326586014,0.17754497028764515,-0.13636476446947893,1,left
1.8230000000000002,0.1446557503210607,0.18701703305531758,0.6259835813517217,5.430745305676538,-6.109230613036267,-1.8929054188966024,-0.2982138472976963,0.1731847240543935,-0.1308944754092995,1,left
1.8259999999999998,0.10772390912886148,0.18736178341237048,0.6228797026375748,5.429029942997682,-6.101877230703361,-1.893072818458603,-0.2958498767996123,0.17419968465395447,-0.13203341575197486,1,left
1.827,0.08871414932355284,0.18558637467910466,0.6177379291862435,5.515583820514491,-6.376249803429083,-1.9068652724692985,-0.292245245412992,0.17530506801267814,-0.1337885002702538,1,left
1.831,0.07781486716079788,0.18274571586982014,0.6117151378053158,5.411421473383628,-6.047541616351476,-1.8899239839858415,-0.2984782601284826,0.17339057737250058,-0.13075515247315833,1,left
1.8319999999999999,0.07749988892496304,0.17923508326928939,0.6045298030099108,5.493286864188451,-6.303631727524982,-1.9037648462974341,-0.292316084453215,0.17516120732512114,-0.13375768674936195,1,left
1.8359999999999999,0.08266235794658812,0.17546992271217365,0.6002204352800923,5.447713178665593,-6.16535305721958,-1.895057966252427,-0.29661657343282277,0.17398792083680326,-0.13166039425235065,1,left
1.837,0.09035356565639645,0.17115488356044123,0.595075874175215,5.4606898096877465,-6.197287548168939,-1.8992777575204174,-0.295211068783637,0.17454018916937347,-0.1323399568998001,1,left
1.841,0.1040071569636356,0.16855913712620593,0.5840295467859846,5.468690064460903,-6.233401422399917,-1.8980353189601662,-0.29323801709345215,0.17437650617066747,-0.13332614784505606,1,left
1.8419999999999999,0.12358816638917593,0.16602505850600902,0.5689022750269493,5.4514590833274745,-6.170451451265908,-1.8972403719830848,-0.2985254242486657,0.1744470867960901,-0.13069617010510406,1,left
1.8459999999999999,0.14475336755301915,0.1631736279219436,0.5525085453790523,5.470358604173262,-6.229865720883923,-1.900366848906214,-0.2908181514320441,0.17427143671689418,-0.13453215964923695,1,left
1.847,0.16774809477663588,0.16502045756627115,0.5376388768620494,5.45234845162863,-6.189329843312274,-1.893621947496426,-0.29879466206999866,0.17455213445682272,-0.13055879939146553,1,left
1.851,0.19083828691686466,0.16896523227304044,0.5242720926550728,5.470129377635572,-6.208382048442429,-1.905191009099593,-0.2941828137546135,0.17439090682857866,-0.1328562194231852,1,left
1.8519999999999999,0.20906876976054167,0.17537135851051847,0.5132336882178619,5.451837197653614,-6.20587380795881,-1.889286355141907,-0.29074068210475246,0.17404479858950928,-0.13457808939850952,1,left
1.8559999999999999,0.22552923103629335,0.18525513863539256,0.5073646365879425,5.468323120720264,-6.1990651468380165,-1.9057452633218668,-0.30649672638150915,0.1752915259855532,-0.12670667856211287,1,left
1.857,0.2451770107345955,0.19231379420706698,0.5020157435208574,5.460819791671683,-6.209357678277432,-1.896567962800758,-0.27724151011895765,0.17299264742117865,-0.141321925316038,1,left
1.86,0.2663050640067167,0.1960129076754376,0.49035646111212783,5.448064672696448,-6.198460871194602,-1.8876227833715573,-0.3147637230223362,0.1759618906345312,-0.12257549926588682,1,left
1.861,0.28583674118793384,0.19731020790499648,0.4782668689611106,5.492286252204742,-6.209678768504,-1.9248628687063263,-0.28345665037387424,0.17347490856471243,-0.13821781638741185,1,left
1.8659999999999999,0.30577536587630033,0.1956502859008564,0.46495289577424304,5.413020466847718,-6.197491881718681,-1.8562521414517859,-0.2843640084271057,0.17352106952209606,-0.13776371352754826,1,left
1.8659999999999999,0.3243781152722019,0.19078358568238496,0.44531830876429657,5.513808996831475,-6.210035138768729,-1.9441883006101053,-0.34381209844692534,0.17835469776655494,-0.1080610609784016,1,left
1.8730000000000002,0.3379111916512748,0.18310678043576167,0.4308751308730945,5.430091268110978,-6.200875093110528,-1.8708448990800863,-0.197645136794801,0.16648941066990977,-0.18109468053776626,1,left
1.874,0.3490030546573547,0.17355492788806232,0.4129912728902918,5.431694753476642,-6.199101912183705,-1.8727209572820274,-0.4399995479170909,0.18616522647444367,-0.05999731665328019,1,left
1.876,0.3526692192712886,0.16767348720445552,0.3944885389043469,5.593084379356179,-6.221944680693833,-2.0128612856888046,-0.12034070201711869,0.16020654200204126,-0.21972477348047403,1,left
1.8769999999999998,0.3536912596428031,0.16611787082171525,0.39210389624167646,5.197378120372633,-6.168722268564343,-1.6685732876150008,1.2212399579010107,0.05119632006520336,-0.89007252475985,1,left
1.8769999999999998,0.3659198581384884,0.15814191969911107,0.3767601917024155,5.853095725676294,-6.255865488170022,-2.2393555521567095,1.5409014834373926,0.02522732957383514,-1.049809710245666,1,left
1.881,0.374292613480052,0.15170557763938775,0.3566394728572962,4.988365749026742,-6.141322879979633,-1.486522837780046,1.2985428832389745,0.04491925450809871,-0.9286971401244896,1,left
1.882,0.3745448648890508,0.15148035908954285,0.3539063714783216,1.3578167494691225,-5.658972702427637,1.6736255746505073,1.4447133110356773,0.03304064448830818,-1.0017433347017557,1,left
1.883,0.38532470949419234,0.1443406818733139,0.33923524304922903,0.49315966190743554,-5.5444967508819865,2.4264467568051815,1.3852654189148546,0.03787349501459958,-0.972041419462063,1,left
1.885,0.399340111527975,0.13639010179725686,0.31926867088439703,1.1487240718304672,-5.631333852095928,1.855689190837679,1.3843513425135379,0.037945519692375446,-0.9715628971215164,1,left
1.886,0.4103810601759362,0.13202071764581813,0.3075376324176674,0.7532511130045969,-5.578912846304038,2.199938645596016,1.4156730859585074,0.03540208657685337,-0.9872585078408062,1,left
1.891,0.4252515075139047,0.1255445509397316,0.29424534314125217,0.9143595236397474,-5.6002861132702835,2.0598461734255658,1.3781299706664327,0.038451736660179946,-0.9684361765438882,1,left
1.891,0.43719506719251033,0.11985373755843431,0.28356312939643624,0.9162054528879909,-5.600533220328078,2.0579267667744747,1.4074058930751263,0.03607323522704599,-0.9831265829000094,1,left
1.895,0.44819849907351333,0.11618497947715695,0.2690677477457244,0.8324304311241257,-5.589390412411685,2.131284588569745,1.3916408666664195,0.03735444783697825,-0.9752226302754456,1,left
1.896,0.46283808134196214,0.11541455132816211,0.24837407531523686,0.9329133740064646,-5.602766516499331,2.0433936922256546,1.395065603856088,0.03707535292562651,-0.9768812195747121,1,left
1.9,0.4726824847828932,0.1178788419719344,0.22688933107091447,0.8544528497164571,-5.592340121352901,2.1118741730646793,1.3997337201685773,0.03669756670800822,-0.9793830945195166,1,left
1.901,0.478392133038418,0.1225142010858765,0.20101711585166762,0.8973851547763202,-5.597958210485849,2.074850336548849,1.3916602357393115,0.03735136436069247,-0.9750575107137689,1,left
1.905,0.482314189380108,0.13180630480597716,0.17777834763688316,0.8861136548721957,-5.5966965015627315,2.0835378163542986,1.3994865158858734,0.03671797259140719,-0.9793256045418011,1,left
1.906,0.48362889282914895,0.14347482286499025,0.1604658420527365,0.877569518256777,-5.595158176328365,2.092909971987419,1.3941042083471593,0.03715337634735222,-0.9763512744096488,1,left
1.911,0.48582138577429407,0.15433187656331904,0.14204436429250158,0.8937231766104099,-5.5978020041565495,2.0764765655472184,1.3960765142726146,0.036993009199818995,-0.9773342487783212,1,left
1.911,0.4894221856928308,0.16786406350271643,0.12744643208529996,0.8781008560787809,-5.595328498746252,2.0919654824314406,1.3976578531957253,0.03686829323460902,-0.9786530088588067,1,left
1.9169999999999998,0.49373068903279066,0.18265985390018247,0.11822757065004443,0.890368375389426,-5.596950148154885,2.0813031008575247,1.3929553746215757,0.03724190120178273,-0.9750953202183931,1,left
1.9180000000000001,0.49754353220965625,0.19588572735982973,0.1100911197761457,0.8801083641666065,-5.596343647281481,2.0867306894810387,1.399717360198602,0.03670506183090213,-0.9802761733705373,1,left
1.919,0.5001267112486847,0.21017718503402055,0.10528972055076083,0.8913354873131822,-5.5961091408714765,2.084964131571726,1.3928448024515654,0.037250085184321054,-0.9749211177196537,1,left
1.92,0.5034845017513437,0.22140436224492227,0.097983136381399,0.8775143753153035,-5.596848167728348,2.08505153596129,1.3968191905621756,0.03693487180209641,-0.978016963656653,1,left
1.925,0.5084996296042712,0.22961470959974467,0.08392508869620238,0.8917016099517456,-5.595987183341521,2.085433375283271,1.3995011748323392,0.036723648971064296,-0.9803139121234735,1,left
1.926,0.5127431327785331,0.240582457990969,0.06772650668776506,0.8843667594411269,-5.596599234265592,2.0844625525727922,1.3868007660544892,0.03772639993660624,-0.9697803856605579,1,left
1.929,0.5131699220927839,0.25094605798298664,0.04925725702165819,0.8737753016458878,-5.596561206177667,2.087339906908337,1.4104012908596757,0.03586284936224136,-0.989338588716363,1,left
1.93,0.510571625458094,0.2618118144423892,0.03120549044978433,0.9131385426644268,-5.5958008594704385,2.080828331886951,1.3801592672958007,0.03825083791610148,-0.964256065941363,1,left
1.9340000000000002,0.5066218781906019,0.2739434138767904,0.019304571072606934,0.84140355681659,-5.59737891369719,2.091805027177056,1.4053779894632459,0.036259191003085875,-0.9851816238504459,1,left
1.935,0.5003659822776161,0.28511419558060325,0.012902443705419916,0.9332271061636812,-5.595314121263073,2.077959134017738,1.4046188134009978,0.03632049791396032,-0.9845774971550468,1,left
1.939,0.49314609251300223,0.296537684382595,0.00968062803581393,0.8566902282978057,-5.597054463152831,2.0894146469363646,1.3568614565125254,0.04008799463728448,-0.9448399076676595,1,left
1.939,0.48554971377508294,0.3067418853334694,0.010736176276981233,0.858304989370704,-5.596946105133976,2.089496514832465,1.4742995402078811,0.030822008718534806,-1.0425375441860036,1,left
1.944,0.4775666116589937,0.3176457157992904,0.01485316148267344,1.0057291611785197,-5.593825847160189,2.0663754902375002,1.2795888041851935,0.04618400153577132,-0.8805535942882572,1,left
1.945,0.4743467349599463,0.32463968434802276,0.017161416130438645,0.6439303108098602,-5.601569627944811,2.122735031261797,1.53639293812211,0.025927641761821073,-1.094202246268709,1,left
1.945,0.4726943130564333,0.32736895711902003,0.018194137673781415,1.2436529472700117,-5.5887083690491295,2.0294169044550063,2.6142110980274333,-0.05893694379840786,-1.9909960760754442,1,left
1.949,0.46833706563916516,0.33199807087493793,0.019506032404404402,0.4526496334744872,-5.605676728943859,2.1524846268076803,2.8710035432949557,-0.07915415040622405,-2.204654615030515,1,left
1.95,0.46578771136244024,0.33448645353893325,0.020129295780830714,-2.8687307986838446,-5.676725816496813,2.6698993887330507,2.6762997570543003,-0.06387586789454888,-2.042639908322076,1,left
1.95,0.4627511265040557,0.33966175026658035,0.023286667879387126,-3.6598095832185003,-5.6936833524557855,2.7930269356663198,2.793762828257914,-0.07301150511556255,-2.140404528786206,1,left
1.955,0.4574014509675907,0.3456122910736582,0.033074382383602184,-3.059938546837279,-5.6808456095587765,2.6996062814019055,2.745921923060272,-0.06940543482457091,-2.100555940266847,1,left
1.955,0.4523977338224144,0.3462678402764249,0.04934893012669829,-3.4219427558768816,-5.68855202996313,2.7560750977604904,2.745314723568984,-0.06919851132753368,-2.100092785643663,1,left
1.959,0.446422243383791,0.3494375895921459,0.06809400547512877,-3.2743020480370744,-5.685479130578539,2.7328927432877443,2.770337785385749,-0.07123745402529393,-2.120894558897833,1,left
1.96,0.43775544487078144,0.35141688627136924,0.09034260892811315,-3.2728275852386,-5.685326464229641,2.7329221638054397,2.7402628236458053,-0.06900407390707114,-2.0958374535639557,1,left
1.964,0.4253598374085859,0.35148364888413247,0.11607294200829801,-3.349423987636385,-5.68708422840254,2.744600513249023,2.7638428247026647,-0.0704263730676408,-2.1155663697703995,1,left
1.964,0.4107395079311904,0.3568286637209691,0.1354730943701517,-3.2572155464522763,-5.685059678699707,2.7303483085583107,2.750880183078176,-0.07015385436870188,-2.104592413917798,1,left
1.969,0.3981330280972204,0.36292348042713785,0.14286374091744147,-3.329721265047704,-5.686513423506067,2.7418427669152683,2.754202464623944,-0.06949757233384715,-2.1075878646775106,1,left
1.97,0.3898438755405562,0.36845018010379516,0.13449122257453167,-3.2892952583991866,-5.6859649473374905,2.734891017507314,2.7571897763399864,-0.0704644624339506,-2.109889179888998,1,left
1.974,0.3887070899607041,0.37516206667461516,0.11069602263496808,-3.3009132116078206,-5.685668374726252,2.737828779500413,2.751404969756551,-0.07001532269814087,-2.10507457157971,1,left
1.974,0.39642681827456017,0.3780451416439781,0.08080723830142222,-3.307840179671336,-5.686485223219108,2.7375245641141186,2.7574849626694187,-0.0691369842554227,-2.1104744316119,1,left
1.9780000000000002,0.4125636883134033,0.37701204702375046,0.04699940272608036,-3.2927082437081645,-5.685628525212362,2.73626978137014,2.75234902389201,-0.07183405965602531,-2.105421505267848,1,left
1.979,0.43798323637121306,0.3754715686753478,0.008875065395173177,-3.3094419603085075,-5.685982196409707,2.7388849745173376,2.7561784043752415,-0.06750865243122212,-2.1097708140974354,1,left
1.983,0.46769377565821113,0.37222363482533044,-0.027532414028705626,-3.2932688779634205,-5.68662363287337,2.7343251127800094,2.753784422134234,-0.07225263895807665,-2.1065389657568714,1,left
1.984,0.49874406527001547,0.36996355930138436,-0.05981791376021391,-3.309531556720352,-5.684714585143621,2.7415225086910513,2.7543056571000157,-0.06944353733734042,-2.1076892410374355,1,left
1.9880000000000002,0.5298311673657035,0.37060361470228503,-0.08802488394148986,-3.2925603064019477,-5.687718626654339,2.7319207866108437,2.7565705326226446,-0.06716548500070076,-2.110190933749011,1,left
1.989,0.555412543147735,0.36976029012476336,-0.11086027925058378,-3.3079841211878227,-5.684459053410751,2.7417407769358975,2.750490729980751,-0.07743811548653332,-2.102430039259379,1,left
1.993,0.5809310267926595,0.3685372226067044,-0.12507409854786228,-3.3008613447689568,-5.686380987552316,2.736345346440543,2.760648354917982,-0.05829901747758672,-2.1158933332846024,1,left
1.994,0.6046561937157386,0.36951466753639506,-0.12586662521289166,-3.2891594374340567,-5.687917781751686,2.730828746317714,2.7481016440608794,-0.08291405440896418,-2.099018259316388,1,left
1.9980000000000002,0.6198448040286777,0.36868387048801216,-0.12288837732008391,-3.33011071480571,-5.680970557969015,2.753374812844057,2.7583635234198596,-0.06234676581605458,-2.1129299977705616,1,left
1.999,0.6298637702262373,0.3683674061514155,-0.11626994896509965,-3.256591433732347,-5.693906879665116,2.7119403622146807,2.758271223794048,-0.06291970076413025,-2.112706326762237,1,left
2.002,0.6343154949926821,0.37259982198507796,-0.0966523452490658,-3.350118815938865,-5.677276593084249,2.765008188559646,2.738359099212474,-0.102106180120783,-2.0858960890674476,1,left
2.003,0.6348359348259407,0.37640174183903496,-0.07560065018026382,-3.2724084438735748,-5.691169316081911,2.7207618972358976,2.7869678019153543,-0.005761231227371835,-2.151518178484488,1,left
2.008,0.6229151584455479,0.3856968677237267,-0.051336322352029354,-3.2739390273969233,-5.690778786722813,2.7218712716350932,2.7065324476882457,-0.16552026853186189,-2.0428451173218094,1,left
2.009,0.6099282235952408,0.3953179279793795,-0.03304821266357638,-3.4236391317503028,-5.664325963659412,2.8064747339700444,2.8125467837395117,0.04520891562905671,-2.186119583206473,1,left
2.012,0.6085675503449476,0.3960531135075188,-0.02901705553401649,-3.056525823188519,-5.7293663951822795,2.598657136222629,3.257563637806625,0.9296903955603075,-2.787489198705761,1,left
2.013,0.5848377741487096,0.40941519971129275,-0.01272835615172366,-3.6648984917410456,-5.621515333796205,2.9431805406323788,3.3635344278609294,1.1404211235742752,-2.930725864692308,1,left
2.013,0.5595130159672426,0.42377418765454045,0.0012621617968708548,-2.862580061759485,-5.763778363610247,2.488772484881842,3.2831910890403466,0.9806633993201447,-2.8221364662202726,1,left
2.017,0.554972105866161,0.4266258610327657,0.0017768264690434573,0.5055894640757624,-6.3609165254868785,0.5813284334026279,3.331658668107777,1.0769971456741319,-2.8876226326718077,1,left
2.0180000000000002,0.5279022589013915,0.4455370962581938,0.011138311603820642,1.3078582107514116,-6.503199266998701,0.12691906504422146,3.3119181450257944,1.0378379923484604,-2.8609890220360032,1,left
2.0180000000000002,0.49016580797340253,0.471202432535785,0.02304183724310731,0.6996261739050593,-6.395312190826853,0.47143658697660995,3.3116756648897185,1.0372208161812981,-2.860593938600921,1,left
2.023,0.46014023887807837,0.4952896829667447,0.03380241059516234,1.06645220419805,-6.46039653633863,0.26364539550630717,3.3219775111542136,1.0578398850304316,-2.8745844266655496,1,left
2.023,0.4211371407351733,0.5264095068984547,0.047564095832068165,0.9172081918657297,-6.433907201569742,0.34819082137083135,3.3096100325409004,1.0331878419304883,-2.8578395494213997,1,left
2.0269999999999997,0.38059645796201225,0.556905397319563,0.060620146840939304,0.9151200878541184,-6.433523577816114,0.3493894441354569,3.3192836126878005,1.0523158754770237,-2.870859295016106,1,left
2.028,0.33878009498647094,0.5926205299005224,0.07056443317358532,0.9932905132707266,-6.4474637689702625,0.30504370948974846,3.3139870129002786,1.0421373139134213,-2.8638791575745324,1,left
2.033,0.29116871371192615,0.6312482865966381,0.08009749795647235,0.8997288610826962,-6.430714549267989,0.3581749367894261,3.315341281536204,1.0442194998838785,-2.865401453997631,1,left
2.0340000000000003,0.2453097858404187,0.6663414435963537,0.0937194696879827,0.9724758464826493,-6.443835276786443,0.3167792796449705,3.316516023591176,1.0473052656165827,-2.8673673170693017,1,left
2.037,0.2023571802701456,0.7024017953742339,0.1052320461239013,0.9333676505728621,-6.436683496370343,0.33911848248665455,3.3142926778976127,1.0422863144241592,-2.864060880397452,1,left
2.0380000000000003,0.16204611902353827,0.7359119275580509,0.11725191135347263,0.9422525757694278,-6.438351659742656,0.3340060143002181,3.316532104737361,1.0467345076074688,-2.867085042531704,1,left
2.041,0.12636059288956342,0.7678568096974934,0.13351721733233202,0.952457898352792,-6.4403466763557375,0.32806313966182776,3.314730738771115,1.0442604479227127,-2.8652092793957564,1,left
2.042,0.09325017842963282,0.796188817484832,0.14803191617430395,0.9351319679643345,-6.436679533974887,0.33839681551411527,3.3160753929030173,1.0444019367958863,-2.8657493766076803,1,left
2.045,0.0626970549630493,0.8188649597198878,0.16515341816991108,0.9508097347108944,-6.440483181831848,0.3286219431770082,3.31504574203509,1.0461322902631975,-2.8662631410188695,1,left
2.05,0.038002858477013485,0.8402145751237571,0.1816212018860802,0.9410042805750499,-6.437488924160725,0.3352734192017921,3.315785955532107,1.043577147398842,-2.8652325537667966,1,left
2.051,0.01676854036940119,0.855010061310761,0.19285998166447232,0.9447373708999244,-6.439151702173989,0.33228415261690547,3.315598143373381,1.0455301836469904,-2.8661519444737884,1,left
2.055,-0.0005368750346066574,0.8659761090923543,0.20402534069861072,0.9447015834383362,-6.4391538683726015,0.3322965235488462,3.3146904283080674,1.0457316987342617,-2.8659373894453006,1,left
2.056,-0.01049149564675003,0.8782096443297847,0.21368200372592971,0.9443202891129308,-6.43723038163626,0.33413598798218525,3.3172867777987896,1.0421153017633364,-2.8650182794100862,1,left
2.059,-0.017156472794891395,0.8875950031062114,0.22659203328687644,0.9424320481843115,-6.441137435678746,0.33149542903925044,3.31279740080456,1.0494683962969193,-2.8671619823592644,1,left
2.06,-0.020667835842097915,0.896291660019825,0.24080033226753011,0.9475222580040266,-6.435711310439968,0.3341471283407897,3.318444048601086,1.0397931187107652,-2.8642507887995956,1,left
2.063,-0.018191502693462834,0.9041872462951626,0.24943354309524504,0.9407674585779839,-6.4412609233199545,0.3320726796022074,3.313780696039139,1.0479700852704459,-2.8667486433154883,1,left
2.064,-0.010485443563015477,0.910702359682086,0.2556264567350647,0.9450939508682388,-6.438127975814703,0.3330317164050809,3.313827801475908,1.0475944469588652,-2.8665766557858365,1,left
2.069,-0.001016379652850283,0.9175860911702305,0.2564971859324203,0.9490043243054046,-6.435464089552466,0.33375495112930936,3.322929320908747,1.0324121356474816,-2.8620909124399816,1,left
2.07,0.009162843584001792,0.9233387164804614,0.2555434263753687,0.9313879965870258,-6.447043317681981,0.3308722229342459,3.300675417376026,1.0699536016222568,-2.873268294718624,1,left
2.073,0.029817394067673197,0.9311914344968248,0.25072673745936536,0.9645426924478513,-6.425651344466937,0.3359445032570948,3.3375262694694374,1.0076200786144605,-2.854676790131517,1,left
2.074,0.048330125438136626,0.9377755671729543,0.2410678004894741,0.9216356923865452,-6.453064635439803,0.32962003076100777,3.2889422958636114,1.0898745296850838,-2.8792227203644165,1,left
2.0780000000000003,0.0528175895248355,0.9385276706745078,0.2374785205580073,0.9575995792732572,-6.430197405589343,0.3348206226578795,3.084951285911788,1.4350189131366746,-2.9821739223166364,1,left
2.079,0.07135472230606071,0.9426834073592408,0.22415798192427328,0.9566575037145526,-6.430837695351703,0.33465826843029367,3.036393560741786,1.5173019907485026,-3.006735133237049,1,left
2.079,0.09935211369312652,0.949737903370254,0.19895239911617574,0.8877430464865773,-6.47434217633311,0.3249429667821798,3.0731909023150017,1.4549037686017878,-2.988107045656916,1,left
2.083,0.11650099521436419,0.9553819082597683,0.17638067638959806,1.0571871596467557,-6.3673937482629235,0.34879495850737186,3.0510151429167083,1.4925529170474117,-2.9993491586084575,1,left
2.084,0.13729539701553195,0.9667228803832039,0.14600642499694147,0.7761654240267435,-6.5447261761890765,0.30928516243923054,3.0600274961992695,1.4772270607352338,-2.994771844378639,1,left
2.088,0.15288605152065637,0.9760345262923341,0.1237039751161294,1.146889828078272,-6.3108204835273,0.3613691587192936,3.060143950885961,1.476995744603077,-2.9946990706859915,1,left
2.088,0.15580271172321822,0.978366414937264,0.11945563217960962,2.7035919451181147,-5.329575074936589,0.579541464730566,3.055479245799522,1.4850975123310945,-2.9971329839083776,1,left
2.089,0.16400189009977434,0.9883856532364647,0.103793963418285,3.074393828285558,-5.095700292006848,0.6315772982978494,3.0610047229768194,1.4753325681753289,-2.994187641536544,1,left
2.094,0.17235253101608228,1.0060665827848272,0.08311751061739545,2.7932038512668793,-5.272925054833392,0.5921822106347463,3.0567951508840725,1.4830299248432124,-2.9965277347132973,1,left
2.094,0.1742205613666158,1.023598821617994,0.07477604972767,2.962915078692217,-5.166226806622815,0.6158322921599205,3.05897126348924,1.4787863911542245,-2.995219359707071,1,left
2.0980000000000003,0.17298663722731178,1.0414798087616395,0.06832073619745523,2.893662276008798,-5.209300227289895,0.6064012550495705,3.0585153373719214,1.4797967710483912,-2.9955386341464267,1,left
2.099,0.1665586861314028,1.060360822739185,0.06312727124759104,2.893036390593589,-5.210505914008316,0.605932652567148,3.058061019185738,1.481043701797475,-2.995946987104819,1,left
2.103,0.15606353080783775,1.081292306899597,0.06577490878493969,2.928876627168902,-5.187117909143247,0.6113278448347188,3.0585847581115573,1.4786250222279846,-2.995109514757927,1,left
2.103,0.14216572319774018,1.1035673418682033,0.07266961876927881,2.8856809112790973,-5.214687681809103,0.6051150006197807,3.0585394759463416,1.4813371152621422,-2.996117686961081,1,left
2.108,0.12620919332429464,1.1239398642241607,0.07815837345979718,2.919724997283306,-5.193900603458048,0.6095719629688139,3.0580245226026213,1.478977173837225,-2.995169721354472,1,left
2.108,0.10946547128328746,1.1412208614904216,0.08560124675933603,2.9005942154094653,-5.203796047711986,0.6079002677531369,3.058681958730559,1.4804393637559852,-2.9958001642329477,1,left
2.112,0.09126177431389676,1.1581975316417066,0.0983929537278988,2.9063512819798696,-5.203890548213312,0.6069706771292159,3.0586922991527628,1.4804456156191024,-2.995804047331341,1,left
2.113,0.07174315221377968,1.1735680627882599,0.11073480787324996,2.9092168056931884,-5.197518032108714,0.6095013624143781,3.0570756143972124,1.4784031452801902,-2.9948337704228356,1,left
2.1180000000000003,0.04910276728104132,1.1874330491092988,0.12203148706051781,2.9024276965161966,-5.205436323254407,0.6068532801464461,3.060936663050303,1.4827872655370467,-2.9969660073487816,1,left
2.119,0.025007317449865677,1.2017047010162734,0.13657401072651948,2.9102745094533047,-5.200522810964419,0.6079380382270068,3.0550395042354586,1.4764803586893565,-2.993855131013567,1,left
2.123,0.004316191659059992,1.2108754498536691,0.15011188515613572,2.9021288898648305,-5.1989066050708885,0.6099431317278098,3.0614059072906397,1.4830671612325288,-2.99713022216247,1,left
2.124,-0.013955961346030495,1.2184189712891178,0.163940075716567,2.911041809172195,-5.2087143790980175,0.6040013845004374,3.057702602585493,1.4793051030052995,-2.9952516638258952,1,left
2.127,-0.029696849583626325,1.2253259708175395,0.1807054367104198,2.90116248782938,-5.1919302713521365,0.6133441214957769,3.054496695196196,1.4760795712014256,-2.9936352629871674,1,left
2.128,-0.03827697835304836,1.2271237186054345,0.19288602810714087,2.910443433623854,-5.210609372006118,0.6032093496917365,3.068552162221972,1.490142171388901,-3.0006885980316613,1,left
2.1319999999999997,-0.04257387837929626,1.2309192586509379,0.19958024903885097,2.9059195895340006,-5.199290008386459,0.6091829284416991,3.042459100324524,1.4641136317184973,-2.98762520968234,1,left
