time,gFx,gFy,gFz,ax,ay,az,wx,wy,wz,subject_number,foot
16.326,0.5204208556682679,0.5405808146844268,0.2781874388239726,-1.2071801951292778,1.0477804293003157,-0.8177363657020102,-0.5571134278531253,-0.2547269219622573,1.1487814489254822,3,left
16.327,0.5357649947225219,0.576546785298615,0.22071337074922887,-1.208230662589978,1.05112567624133,-0.8214202888090337,-0.5570813290456975,-0.2546751878766519,1.1481773322983675,3,left
16.33,0.5444165161820724,0.6410074425375989,0.1555257848094481,-1.2075793324713158,1.0496191693247576,-0.819486984270446,-0.5571250962406554,-0.25470207684669427,1.148763175480209,3,left
16.331,0.5414997522103985,0.7280518724221878,0.08906233799139712,-1.2078520406750433,1.04953129568954,-0.81985186781228,-0.5570433286781654,-0.2547670653389141,1.1482969372707357,3,left
16.336,0.528185413711572,0.8299949840391213,0.016206460486043343,-1.2078704256664623,1.0504685238289964,-0.8204600130457202,-0.5572220150574001,-0.25451233766257386,1.1487014280952055,3,left
16.337,0.5103256908311029,0.9405536720153125,-0.05548448146581778,-1.2076269193100604,1.0495828229053488,-0.8195379811927703,-0.5568945894129526,-0.2550307245863341,1.1482413315284692,3,left
16.34,0.48709928333958064,1.0555396722945292,-0.11613190421582431,-1.208081034256215,1.0496317957579713,-0.8202651318463746,-0.5573636566294933,-0.25427259396146207,1.148816556063379,3,left
16.34,0.46217678741595736,1.160972876341667,-0.1604696888234574,-1.2074100519236923,1.0508672490983082,-0.8200008458401091,-0.5568672495545436,-0.2550780410085952,1.1482239972642425,3,left
16.345,0.4358175362040643,1.2609976146953934,-0.1872014796189584,-1.2082507597790475,1.0484347947246881,-0.819783790167252,-0.5571483417195758,-0.25461694209366725,1.1485337858616416,3,left
16.346,0.40707159827686923,1.3508361906757251,-0.19233449685782888,-1.2074249821530778,1.0512871123446437,-0.8202843302571982,-0.5574189811335045,-0.25419786047305915,1.148962483788555,3,left
16.35,0.3763432354867092,1.4229881275057168,-0.18182077510300382,-1.207866340165431,1.0495073209707582,-0.8198578433239718,-0.5562809575846563,-0.2559969000224742,1.14735073047713,3,left
16.351,0.34403807854917046,1.4792981355860506,-0.1708914070255443,-1.2083219758012742,1.0482495473212516,-0.8197791728439918,-0.5583830039472789,-0.2526665695039797,1.1502921959732209,3,left
16.355999999999998,0.3156755875045796,1.4998735354758037,-0.15394311238493505,-1.2064864624725378,1.0543377375764664,-0.8207333600234128,-0.5556858318197726,-0.25694196557282534,1.1465256362993885,3,left
16.357,0.2833267507263998,1.498524587862566,-0.13402883336255367,-1.209844512685563,1.0428777248047756,-0.8187862279747142,-0.557936684874395,-0.25337242994196024,1.1496662535713154,3,left
16.36,0.2573075886323902,1.4453937823053122,-0.0971671559650711,-1.2055525176444144,1.0576667938086841,-0.8213648985221381,-0.5578789466433904,-0.2534686276650731,1.149596891251499,3,left
16.361,0.2406719611999346,1.3475466584727114,-0.04584171053488422,-1.209128025502725,1.0452910028132225,-0.8191791626564928,-0.5535768306214696,-0.26027809707536387,1.1435560939281941,3,left
16.366,0.2351508717169291,1.2274213972233388,0.01270336327143371,-1.2090362012090976,1.0456463060405201,-0.8192656275898451,-0.56414690255705,-0.24354005142631863,1.1583861435971836,3,left
16.367,0.26969731393866825,1.0275011152423972,0.11117001214285274,-1.2022106164764819,1.069210808672386,-0.8233837685618108,-0.5466225902231184,-0.271294966249702,1.1338005523046815,3,left
16.371,0.2995114928637335,0.8946581337268742,0.17836528172888427,-1.2189790027913636,1.0112579750246367,-0.8132135191426948,-0.5697364756854224,-0.23468284501240372,1.1662304109877824,3,left
16.371,0.3237595298600463,0.8300728537585778,0.20921759698098868,-1.1911781955966325,1.1073572880797458,-0.8300979947838798,-0.666763776924544,-0.0810198336104754,1.3023675073620136,3,left
16.372,0.36756200734641986,0.7175190892547195,0.26448151825002375,-1.2278493554193233,0.9806059977133945,-0.8078189846414066,-0.6898767077926329,-0.04439810233775118,1.3348046038132118,3,left
16.374000000000002,0.3916831774011258,0.6525923248824116,0.2950062186278194,-1.3817472518473486,0.44848472688451824,-0.7142798142503065,-0.6723540665019616,-0.07216789748446754,1.3102087260640172,3,left
16.375,0.4514663614536565,0.5245230783076877,0.34583224694542325,-1.4184303405075074,0.32176577656832567,-0.6920040297060521,-0.6829222706066969,-0.055417927804572394,1.3250444954527403,3,left
16.375,0.5492941828888646,0.32721020213038865,0.42075769979208244,-1.3906120337552723,0.4178187562386273,-0.7088878382352213,-0.6786213891761755,-0.06222564292966505,1.3190117418504825,3,left
16.38,0.62864376175795,0.19003479292493902,0.45307701773227216,-1.4073917810917291,0.3598927939128276,-0.6987062630848364,-0.6785641081165845,-0.06234748445908338,1.3189130927996864,3,left
16.381,0.7110864212097727,0.052785617021271186,0.47436050132384844,-1.4005754662215797,0.3834905286666941,-0.7028565933477294,-0.6808118128536538,-0.05872367147204993,1.3221052926620243,3,left
16.384,0.7847924975032781,-0.060554187160296764,0.4793676445354754,-1.4004412884309774,0.3837189898743318,-0.7028875687545852,-0.6781208897364935,-0.06307498845662655,1.3182753863338919,3,left
16.385,0.8413538938813632,-0.13837460376901756,0.4670883061853407,-1.4040954639866432,0.37156937290571224,-0.7007703709368929,-0.6802144569643325,-0.059671281695453396,1.3212664345594192,3,left
16.389,0.8885445515789913,-0.19506049525995284,0.4590850475647282,-1.3997027196151208,0.3860778676973765,-0.7032945570085194,-0.6790843929017462,-0.06149872451553269,1.3196578064507958,3,left
16.391,0.9208715940310324,-0.20654558336172782,0.4448990827133136,-1.4031458652376247,0.3748417174431251,-0.7013453789022779,-0.6793523159039183,-0.06114915876078562,1.3199882379997219,3,left
16.395,0.9421357308901139,-0.18202289499762112,0.4300296683549757,-1.401300946690963,0.3809339391388039,-0.7024052256830307,-0.6796250769853296,-0.060476889282237586,1.320517406735173,3,left
16.396,0.9465220619555952,-0.10956204133723482,0.41476246833143504,-1.4016218840092534,0.37925569039716267,-0.702087513322495,-0.6791527085039235,-0.06163852536816567,1.3196024620458338,3,left
16.399,0.9362586782011565,0.004326033332054408,0.3900453746043679,-1.40238897146287,0.37843163650066414,-0.7020153399601441,-0.6795819801971725,-0.06045151532580264,1.3205140867388898,3,left
16.401,0.9158797409290707,0.15372259687416828,0.35373649943757346,-1.4010640561685115,0.37986562574563265,-0.702142276939469,-0.6793016814933761,-0.061299585363901433,1.3198742990402086,3,left
16.404,0.8828858239317643,0.3325689080459854,0.3048005008838214,-1.4024510704202395,0.37893020844159153,-0.7021314154591579,-0.6794453118697767,-0.06107580162240506,1.3200735440933031,3,left
16.404,0.8395233200027371,0.5165200147949396,0.24884123239153716,-1.4014435973890953,0.3793364338122487,-0.7020803514946838,-0.6793574993031769,-0.06046489772269309,1.3204078664292855,3,left
16.409000000000002,0.7913140360734641,0.7029674419288168,0.19511998755235438,-1.4016666490955925,0.37853904465806204,-0.7019391774296992,-0.6794793950183083,-0.06198553142163201,1.3195334960356422,3,left
16.41,0.740273009551208,0.8818023579243601,0.14736205447934728,-1.4025710598776429,0.38111807956740784,-0.7026196365907493,-0.6792792606651256,-0.059746165035083065,1.3208120787450965,3,left
16.414,0.6851688054895069,1.0392175682907698,0.10924860737812722,-1.4003788898669414,0.3756557046597151,-0.7011402379001522,-0.6795168769629136,-0.06209473744177607,1.3194833328306588,3,left
16.415,0.6254711565659967,1.1754905668896622,0.08371250609876082,-1.4036205108516833,0.3839053662994039,-0.7033651351581118,-0.6793798515158387,-0.060737622241822956,1.3202511277766678,3,left
16.419,0.5599381947329326,1.2780927234824704,0.07160631593798795,-1.4002029662449393,0.37497732803552936,-0.7009696092278846,-0.6792078653786526,-0.05965210242594089,1.3208384392291233,3,left
16.42,0.48812813473774674,1.339726620505664,0.06840808150807925,-1.4021787804030956,0.3801356030831478,-0.7023540741601115,-0.6798908025862201,-0.06451127720044225,1.3181723957876987,3,left
16.423,0.4143538380105881,1.3618759260743394,0.06739283286647979,-1.4037942086633546,0.3848739730687941,-0.7035975940215495,-0.6786277779962853,-0.05549522334734341,1.3231205823804981,3,left
16.424,0.34623150428299226,1.3361983238022843,0.07126412589468534,-1.3966088095725075,0.3645116284487353,-0.6982187111100864,-0.6802540087556957,-0.06706438977761092,1.316774011412043,3,left
16.428,0.28796585006870346,1.2748445041264274,0.08141641721271023,-1.4099417572232513,0.40225778774333953,-0.7081921638038506,-0.6788943432027804,-0.05741027852272168,1.3220683076391857,3,left
16.429000000000002,0.2610655055316258,1.1820242483207206,0.11023843837539024,-1.3928266325542575,0.3537623665084927,-0.695379853699928,-0.6789254203926269,-0.05767782058385438,1.3219200337332966,3,left
16.433,0.26420294974999603,1.0710826851480342,0.1550481485479278,-1.4071149970063583,0.39426440326779133,-0.7060805388197189,-0.6815423313529472,-0.07605454534542991,1.3118516544200367,3,left
16.434,0.2975348389868022,0.9597673855082146,0.21032428431794775,-1.4067122217148684,0.3931887482944841,-0.7057908602335297,-0.6751146989490514,-0.030885538663181902,1.3365985054836664,3,left
16.438,0.37839584388815484,0.8373038401830603,0.28794887824057425,-1.3795224295383917,0.3158521442573856,-0.6853767261299537,-0.6857723201589676,-0.10577297466936418,1.2955722300594679,3,left
16.439,0.4317868429488047,0.7656412747202445,0.33662164816866835,-1.4463726942954587,0.5059336906731007,-0.7355591803622028,-0.6717137066560392,-0.0070031925975547055,1.3496791846189327,3,left
16.44,0.4579674362448636,0.7428368819098138,0.3520064047814411,-1.3355217155719568,0.1907515123109857,-0.6523455282934056,-0.6126867969043157,0.4076062165533457,1.5768239525313126,3,left
16.444000000000003,0.5071430849250446,0.7025117543029381,0.38034233240264126,-1.4817423552026527,0.6064988574249599,-0.7621137466388744,-0.5986263304742792,0.5063659117694121,1.6309204991815864,3,left
16.445,0.5329007723211946,0.6802025320694369,0.39484025179533927,-2.0953527698117713,2.3514895479479287,-1.2227812441235488,-0.6092870057475609,0.4314910507873151,1.589906956242598,3,left
16.445999999999998,0.5742745110132854,0.6659921601546028,0.4094324190503818,-2.241588696441389,2.7672754270432116,-1.332565780858474,-0.6028564191079842,0.4766583223495957,1.6146528769190893,3,left
16.447,0.634894771813606,0.6617099662623285,0.4314907400297421,-2.130722844515326,2.4520458176942626,-1.2493334631334467,-0.605474342458084,0.4582575312018549,1.6045578923290975,3,left
16.448,0.6600757641445089,0.7100352175433242,0.4294867568597794,-2.197560916596956,2.6421318378990097,-1.299512780696098,-0.6055083603299518,0.45804987741028735,1.604474043041165,3,left
16.453,0.6725828018126907,0.7898932788980049,0.4136387502843789,-2.1704381554363255,2.5648916148903584,-1.2791498344138215,-0.6041403799974314,0.46761163074695916,1.609670218854061,3,left
16.455,0.6657203521417666,0.8968210377406358,0.3786189055073045,-2.1698992835098405,2.563580583459867,-1.278745090558688,-0.6057800101537372,0.45614254095163187,1.6034285362519365,3,left
16.457,0.6406208387703693,1.0221461891677572,0.33157469599033174,-2.184376274488737,2.604442520561723,-1.2896147016362258,-0.6045016965076991,0.4651003575583823,1.6083181300209457,3,left
16.458,0.6094939915889401,1.152185055338122,0.28257080485147457,-2.1670814472486732,2.5555607096643937,-1.2766292477035757,-0.6051950359950451,0.46018994012771464,1.6055927471834637,3,left
16.463,0.5641842210517902,1.2866782573345303,0.21896518114699964,-2.1804768351137933,2.5935255943119855,-1.2866865619190322,-0.6050272292572683,0.4615002093455974,1.6064240693436123,3,left
16.464000000000002,0.5119692883987097,1.4118670123189885,0.1558395707016505,-2.173480540035351,2.5733752086124015,-1.2814352675747567,-0.6048616102992925,0.46243619531641755,1.6067414184571776,3,left
16.467,0.4515532539832734,1.5206660338053024,0.10459985089193496,-2.174546661987679,2.5772246492679227,-1.282231506125456,-0.6051570299300106,0.46064042049153475,1.6059973386827382,3,left
16.469,0.38424286993705714,1.6048265043145593,0.06860636246237042,-2.1774349820571244,2.5840316006386512,-1.2844072502093387,-0.6048768930415943,0.46238535627176874,1.606762222074603,3,left
16.473,0.31700053993959776,1.6592941891468134,0.054213537230486775,-2.1729336315605017,2.5729559907006094,-1.2810187611853299,-0.6050761398934474,0.4609839378788786,1.605992767706471,3,left
16.474,0.25513779802678804,1.683953764590516,0.05403819177234479,-2.176985449878146,2.583103333945519,-1.2840679508312243,-0.6049577394562689,0.46222883039010876,1.6070292399277188,3,left
16.477,0.2054212048339739,1.6779549218023457,0.06458059494798106,-2.174924469991637,2.577230866114345,-1.2825207444587017,-0.605029618925659,0.46077941687379986,1.6054251523072436,3,left
16.477999999999998,0.17666017750448487,1.6471348476916723,0.08421559808756877,-2.1740410253435414,2.5772677028685127,-1.2818439102813406,-0.6049699847305908,0.46260741899036556,1.607635014673814,3,left
16.482,0.18014615429751604,1.6023431933013557,0.1110924602483623,-2.1781249664179887,2.5830549190277927,-1.284940975462686,-0.6050246880906027,0.4607210228658636,1.605313411064967,3,left
16.483,0.21826932383701694,1.5535165793066792,0.14544409425788857,-2.171538114721693,2.5730164724046123,-1.2799495977378097,-0.6050070766452473,0.4617126038942947,1.6066008950466681,3,left
16.488,0.2893618851556734,1.507419381097654,0.18337493000034694,-2.1786516077480886,2.583977467328925,-1.285339366890324,-0.6049225754188048,0.46305452704356675,1.6079777461232454,3,left
16.489,0.3891941174099771,1.4735747842870162,0.2232989535241,-2.1743964631114436,2.577234143662158,-1.2821164130258214,-0.6051789244802448,0.4579791631538094,1.6023891820691676,3,left
16.492,0.5042362681922572,1.456601087612155,0.25682105133216365,-2.1714475323059226,2.573459142793191,-1.2798777231454679,-0.6047240017061276,0.4672474027350939,1.6126741825849407,3,left
16.493,0.6173706155366734,1.4569512788833525,0.2738757920512349,-2.185529749503149,2.5933107154666746,-1.2905577827491674,-0.6053035523670217,0.45537903006285196,1.5994856614321424,3,left
16.497,0.7181649283216519,1.4729484659701924,0.2739766213929129,-2.1592026276187317,2.5559003417504007,-1.270592968544687,-0.6048215687263241,0.46527393850361953,1.610488583589051,3,left
16.497,0.8022606288049667,1.5002606253987183,0.26258688034250033,-2.193054358690376,2.6040631381513926,-1.2962633639754637,-0.60482749432257,0.46505703090554107,1.6102190644775494,3,left
16.502,0.86467221464869,1.5338021349197763,0.2468283553902503,-2.1647758065700007,2.563813482385765,-1.2748197111128494,-0.6057699130754115,0.44602305157378896,1.5891465844461092,3,left
16.503,0.9064034234540468,1.5673553140787315,0.22983049288166874,-2.165611114329997,2.5650819157037104,-1.2754517610429654,-0.6034619377355217,0.4927456727910867,1.6409062017766107,3,left
16.506,0.9327399832624096,1.6014976063255686,0.21764376438531124,-2.219299323742109,2.6412132798065664,-1.316167323886999,-0.6072865250120169,0.4152936535587075,1.5550958059653168,3,left
16.507,0.9432851220174617,1.6225564057617388,0.21325901505472958,-2.08726179883875,2.453909707372514,-1.2160362783888126,-0.60224206111843,0.5174505366930466,1.6682778152153073,3,left
16.507,0.9410315286978959,1.627300764219362,0.21556215925270383,-2.3062013329570576,2.7644776690762023,-1.38206819066727,-0.581058222490819,0.9463474084454346,2.1434210326307,3,left
16.512,0.9380851240654563,1.6349791660924262,0.22045467348539427,-2.017427538863636,2.354895932462286,-1.1630792952806972,-0.5760128574294687,1.048511544951472,2.2566074073026483,3,left
16.512999999999998,0.9357912604791712,1.6391164267594762,0.2226923358847382,-0.8053639476868605,0.6356525222936908,-0.2439131706068366,-0.5798383755087573,0.9710487689609479,2.1707893260262203,3,left
16.512999999999998,0.9216445978134441,1.6363022192739156,0.22941815259011966,-0.5166196632330031,0.22625313585483692,-0.02495054370416991,-0.5775309275573854,1.0177787095169029,2.222557639785954,3,left
16.517,0.8943705275209095,1.6256749749319077,0.2376399075446679,-0.7355176330582207,0.5365490374924256,-0.19094482252679718,-0.578469789358792,0.9987495188345086,2.2014791948481065,3,left
16.517,0.862099842419205,1.5958250402095482,0.2395222039282726,-0.6035020988430222,0.3494352627959466,-0.09083559919389281,-0.5784831525506626,0.9985081164081606,2.201208058613765,3,left
16.522000000000002,0.8281252840397557,1.5513051920764713,0.24054501270878656,-0.6572258450033666,0.4256750808829866,-0.13157816367513456,-0.5779906775465575,1.0084495072798263,2.2122248693157482,3,left
16.523,0.7952603437050871,1.4883229335136443,0.24077433125582437,-0.6579376790961309,0.42634541004677134,-0.13210717330932792,-0.5785804597726182,0.9965206558596675,2.199008066183183,3,left
16.527,0.7667410007789279,1.4061713998998853,0.24346704212045314,-0.6298738026406585,0.3872453483046553,-0.11084724228132656,-0.5781215227099056,1.005841344771619,2.209332106422361,3,left
16.527,0.7454758162804074,1.3154923567616545,0.25458116609405723,-0.6634647437580468,0.43389859128151864,-0.13628974057737125,-0.5783681630902148,1.0007571891658866,2.2037059906432948,3,left
16.53,0.7333744661973924,1.2158770139222732,0.2719602746159817,-0.6373374631278712,0.3978170158539095,-0.11650673221933529,-0.5783133487745994,1.0020229619335457,2.2050974217158195,3,left
16.531,0.7284366054357758,1.1137717974748105,0.2944962775046409,-0.6514424191363987,0.41740377066957923,-0.1271901402528122,-0.5782454867612818,1.003205063708063,2.2064201805794568,3,left
16.535999999999998,0.7344595390871285,1.0135214708390463,0.3190838965925303,-0.6480741191297608,0.41179636438316813,-0.1246097757909032,-0.5783609030247489,1.0010218591663023,2.2039911403932657,3,left
16.537,0.7556429962181709,0.910219376452557,0.34285910767536054,-0.6447380281306312,0.4097346532213034,-0.12216335815323279,-0.5782542956435389,1.0031806095580105,2.20638249845293,3,left
16.54,0.7827940523579664,0.8089760657347409,0.3645020962800884,-0.6505150291694644,0.4133318000565933,-0.1264007196037349,-0.5783224639742771,1.0015174452083278,2.2045593612487258,3,left
16.541,0.8123669017562746,0.7131556246929067,0.3837337733874986,-0.645305199325804,0.41158105750986074,-0.12262589359189438,-0.578298787676617,1.0026457543355054,2.2057653288444135,3,left
16.546,0.8482203590084924,0.6240213004435018,0.40439158509752793,-0.6486844841834898,0.41187968434286887,-0.12504842413136155,-0.5782875282184626,1.0019036545188036,2.2050086042000503,3,left
16.547,0.885633612957679,0.5450307140013269,0.42460050604601535,-0.6468900293993416,0.4092950176758636,-0.12368600191194418,-0.5783166532756859,1.0023504996498103,2.205434240483288,3,left
16.55,0.9214573530538894,0.4750920105257824,0.44399779939214007,-0.6482119414123316,0.4195071206281492,-0.12494926934491485,-0.5782882348512116,1.0023229077690727,2.2054432392468413,3,left
16.551,0.9579262118657992,0.41256371854593177,0.4575798834159959,-0.6461735309183066,0.3975626450298092,-0.12280810999371153,-0.5782997692038646,1.001582248512646,2.2046584512035103,3,left
16.557000000000002,0.9961972367038064,0.34978278501529536,0.45216815629413964,-0.649444139951165,0.4306259621390657,-0.12617596880603743,-0.5783159188424125,1.0035014499577324,2.206631662531683,3,left
16.558,1.037291801977677,0.27847596999827473,0.43067866455505543,-0.6456530459575374,0.3949472683880042,-0.12235544825353883,-0.5782700014127309,1.000254240390683,2.2033164547826116,3,left
16.56,1.0772772897818346,0.19624355328587065,0.3982014501160182,-0.6478424641515357,0.41556201040269797,-0.12456103412652782,-0.5783350537040566,1.0043120581215093,2.2074510478975338,3,left
16.56,1.1102527710658532,0.1047951696022579,0.3610779459249184,-0.6503955666442474,0.43427299132765323,-0.12697061895178607,-0.5782775999373223,1.000970449738583,2.204048011363721,3,left
16.565,1.1448306929202454,0.009041192804524222,0.32914155935031025,-0.6400783435570281,0.3535918218418705,-0.11708177694553126,-0.5782846673821405,1.0009912774108225,2.2040684711191085,3,left
16.566,1.1824469034899499,-0.08054189277404689,0.2998623702359261,-0.6591743923797326,0.5031660078243729,-0.13538940671900523,-0.5783799590143835,1.007549036764688,2.210750018610912,3,left
16.57,1.2174209616410883,-0.1550730418437316,0.2748196137369831,-0.6345924076260762,0.31101471505070544,-0.11183769234165358,-0.5781368528237676,0.9915296875396967,2.194426476732021,3,left
16.570999999999998,1.2575338550479793,-0.2177259275183816,0.2563356794761453,-0.6551488230157276,0.47148545606862,-0.13152135553125255,-0.5785443608340833,1.0180553834906279,2.2214598652875317,3,left
16.575,1.2850199522826156,-0.25189364778734946,0.2467549085150327,-0.654642893842126,0.4672022569835099,-0.13103700594684609,-0.5780042926309834,0.9830789120392158,2.1858095356185467,3,left
16.576,1.2929014003380108,-0.2579830531488463,0.24447640699745438,-0.6151928032316428,0.16088518894452475,-0.09328792039687696,-0.5757955721882235,0.8363206255999862,2.0363895363136155,3,left
16.576,1.3141802701932357,-0.27665667567557106,0.23699082859364926,-0.7121437496949412,0.9137802702955754,-0.1860404894448457,-0.5752574160907513,0.8013507259154211,2.0007523857022163,3,left
16.58,1.3459942353611094,-0.3016421933225726,0.22963753962836095,-0.551358422913563,-0.3346230060242668,-0.03224060903075168,-0.5756562640074651,0.8278466255840498,2.02772603276309,3,left
16.581,1.3622833006756527,-0.30883916218457463,0.22777205412327223,-0.7634817899712276,1.3121008283499318,-0.23512283794805575,-0.5754357176288379,0.8119049267454083,2.011558168417058,3,left
16.581,1.3688565788932516,-0.3126970915528504,0.22738672015654554,-1.6536949579908828,8.223756463356093,-1.0867676868705263,-0.5754897402268125,0.8183206125011421,2.0179548893396833,3,left
16.584,1.3832053529701795,-0.3229267743618206,0.23300438665236603,-1.8658959613488673,9.87062166973719,-1.2896825835639407,-0.5755534485841701,0.8185364594052654,2.018366310282146,3,left
16.586,1.401041012855368,-0.33508358607534316,0.24220806372180584,-1.7050135224058658,8.622046821383375,-1.135837415870884,-0.5754405265659734,0.8150038365992276,2.014580353459597,3,left
16.59,1.4102025965465999,-0.34278322301738184,0.25538420475808143,-1.8019789747872146,9.37494967004172,-1.2286117602266866,-0.575528657900854,0.8191411908761347,2.0188743683055037,3,left
16.590999999999998,1.410125989932895,-0.3429696685421223,0.27440239761893664,-1.7627117447734897,9.06900402548038,-1.1909073104689483,-0.5755324942261204,0.8160651797920571,2.0159024080880705,3,left
16.595,1.4017469968062437,-0.342139720611819,0.29389438545313357,-1.761748389386302,9.063830842680101,-1.1902784162694409,-0.5753912352682815,0.8174425226650955,2.016789296360432,3,left
16.596,1.382177966614504,-0.34091518124804254,0.31250313017165005,-1.7830118847990741,9.225650353050021,-1.2102081621042506,-0.5756731183196271,0.8176326364463554,2.0178704806377077,3,left
16.6,1.349428890326514,-0.3323592688899043,0.3264808749625052,-1.7576618092931757,9.032065136840517,-1.186362889582509,-0.5753132622698939,0.8164638093263721,2.0155916351113796,3,left
16.601,1.3084723628632022,-0.31811527436634046,0.3412519707074013,-1.7772081025057573,9.182426712846091,-1.204887272805267,-0.5756064188456381,0.8178200022976287,2.017840169459763,3,left
16.605,1.2646948051324771,-0.30059046510676896,0.3605717134204952,-1.7672766282559529,9.10258817617609,-1.1950429173337684,-0.575597912674142,0.8170868987512202,2.0171016619495017,3,left
16.605999999999998,1.221895801388872,-0.27961226754688784,0.3732541361548598,-1.7681160908338975,9.11791615643325,-1.1969520839817025,-0.5750832681879927,0.8165253855109016,2.0149197558243337,3,left
16.611,1.1833112640843884,-0.2589557045928428,0.38178305964475595,-1.7735255483730028,9.144739482545372,-1.200222614346551,-0.5762728737964977,0.8187228832458546,2.020836411451884,3,left
16.612000000000002,1.1489582122269453,-0.2365533466563767,0.3875363387077798,-1.7654987989847353,9.101038353870685,-1.1948799321000665,-0.574493606368767,0.815122624315659,2.011682466962201,3,left
16.614,1.122191432486947,-0.2138135928209371,0.3870979963017843,-1.772570204521764,9.141099318478897,-1.1997827317826444,-0.5763917857297306,0.8190783827705594,2.0215601106501584,3,left
16.615,1.1055621374312534,-0.1975533827528042,0.3844301168938137,-1.7695900002555516,9.117832223526214,-1.1969155520970345,-0.5752943856755302,0.8167137790198237,2.0157734013487074,3,left
16.619,1.09314871764173,-0.18559001084803928,0.37134285214041973,-1.766096469155999,9.118235196890929,-1.1970269832734846,-0.5743503655110671,0.8149209388771728,2.0110320075803685,3,left
16.62,1.0810317635365425,-0.17897198773110545,0.3469795411532538,-1.7770773353810887,9.140580821888765,-1.1996391410833382,-0.5784850037718398,0.8232201522521584,2.0322372028723175,3,left
16.624000000000002,1.0709959109577345,-0.1825568671663813,0.32138787113398604,-1.7599778184710662,9.101671645895829,-1.1950555972705224,-0.5708172012140876,0.807722226194977,1.992805798172248,3,left
16.625,1.0588167213613464,-0.19573152007211003,0.2927155077572235,-1.7783403169800471,9.144189353310258,-1.2000696847672052,-0.580662086098775,0.8276608006327937,2.0434741135562313,3,left
16.628,1.0456579083829767,-0.2151482040677608,0.26001848822987317,-1.7675186414254362,9.117980132957866,-1.1969705301355686,-0.5724450784445223,0.8109989261842822,2.0011611856214344,3,left
16.629,1.0228212586002332,-0.24413522119223624,0.23121296985927542,-1.7592380934866947,9.103516553688543,-1.1952994714917298,-0.5726626816925801,0.8114747103684337,2.002322556042686,3,left
16.633,0.9923336007303267,-0.2785325255043344,0.20857011176619805,-1.7971941727129304,9.18012813944808,-1.204250592076879,-0.5883422670917609,0.8431794804663875,2.0829594339701094,3,left
16.634,0.9639355318081287,-0.31204942707134753,0.19109550020754384,-1.7264932851435804,9.035642593911366,-1.1873549298955628,-0.5498137077585747,0.7652173485694713,1.8847460478808276,3,left
16.639,0.9064390684125736,-0.3570602479865808,0.1861685799610613,-1.8173481329374257,9.221717952970963,-1.2091163162610052,-0.6136880650912481,0.8944953439157086,2.213392295967247,3,left
16.639,0.8625699152648041,-0.38810658441886103,0.18759327368238804,-1.7414665600197403,9.06613846362278,-1.190921617777506,-0.5294460428562593,0.7239738293658042,1.7799191163335184,3,left
16.643,0.8504433123573705,-0.3961511369880735,0.18999644002448907,-1.7436361801508466,9.071225194125327,-1.191517955698119,-0.17574981966668307,0.00822604986921821,-0.039726501570933104,3,left
16.644000000000002,0.7965913142843795,-0.4248965681485709,0.20188293108148328,-1.8879539374979546,9.365043950867065,-1.2258715270825955,-0.09152107822805497,-0.1622957283887503,-0.47317662121250925,3,left
16.645,0.7270749877340774,-0.4570124308789519,0.21987285116642052,-1.533096100687887,8.641811740288293,-1.141311637147261,-0.1553811139247373,-0.03301454127271259,-0.14455235810828745,3,left
16.648,0.652835659906561,-0.4708450743831515,0.24273086335569993,-2.1215096531310786,9.841268713499273,-1.281548133095581,-0.11684692203247767,-0.11098685939565912,-0.34278573329137746,3,left
16.649,0.5933894785054431,-0.48072561849515405,0.2583567925723295,-1.3453849065592198,8.259133059328988,-1.0965737199039782,-0.1325745160906157,-0.07926181210736605,-0.2620444490099265,3,left
16.65,0.5792038875730321,-0.4808461583513654,0.26256079092491674,1.911989839421233,1.6205305099793246,-0.32032209501688125,-0.13268905352669347,-0.07881547821486846,-0.2610932605303079,3,left
16.653,0.5283573571223296,-0.47482109921969584,0.277979470614761,2.688091560095536,0.0385466034633703,-0.13536203956932977,-0.12461963648897437,-0.09544647848834814,-0.3031164082436296,3,left
16.654,0.45692452035151765,-0.4639728223238885,0.3010077705466059,2.099734940767611,1.2376845584527008,-0.275578927444554,-0.13431778280982248,-0.07552446914405936,-0.25272219146360153,3,left
16.657,0.40675110470189113,-0.44056207445766243,0.3204199338422945,2.4544888347721887,0.5149383421062346,-0.19102755937013607,-0.1267128664714346,-0.09104157775625166,-0.2920621830771119,3,left
16.659000000000002,0.3532240403760352,-0.40845435660942114,0.340496245600331,2.3103222621460313,0.8081710455286688,-0.22540291012443014,-0.13097449881120937,-0.08266746903038502,-0.270559734970155,3,left
16.662,0.31226003463540264,-0.37102869505857516,0.36370692243214275,2.3079835559493076,0.8137633975185108,-0.22593251304840611,-0.1296230955322624,-0.08459719100556136,-0.2761522025827806,3,left
16.663,0.2805450475672936,-0.33021900225730094,0.3890803871550801,2.3839825030826063,0.658063687519903,-0.2078494102833892,-0.12922666842747085,-0.08678519875035376,-0.28053291585473517,3,left
16.668,0.25927559222711605,-0.2884827228220491,0.41476876581517363,2.293166987524603,0.8435033883969112,-0.2294797959713742,-0.1302656033785073,-0.08298323271236928,-0.27231659046879386,3,left
16.669,0.25144715980094384,-0.2467794148193132,0.4389701579920804,2.3635608237861767,0.7006948142357612,-0.2126775645342112,-0.12916983529451648,-0.08655491491715078,-0.2802419628702234,3,left
16.673,0.2487741396000572,-0.20658873667893699,0.45723432224979876,2.3262393825071954,0.774620103942569,-0.22165613596288247,-0.13036905876403854,-0.08414065784887464,-0.27409353224026084,3,left
16.674,0.2582225705421367,-0.16900690268466298,0.47073569777868307,2.3336255112920106,0.7632493095050399,-0.21975034789517717,-0.12857792829120052,-0.08525195621293619,-0.27906201366615757,3,left
16.677,0.26877475565676107,-0.1323539340802093,0.4806307128884442,2.3453354698209745,0.7348679233317204,-0.2171387011433761,-0.131480222545867,-0.0851211524069192,-0.2738326403913417,3,left
16.678,0.28079778238287756,-0.0966997013538441,0.4861528571958936,2.3265761847015938,0.776698651556253,-0.22146627963832138,-0.12743605699918048,-0.08473955866897975,-0.2801667313182802,3,left
16.682000000000002,0.2988268661413822,-0.06315830910224154,0.48760942808333096,2.342956063293364,0.7433466773611637,-0.21756185887700133,-0.1316936316477646,-0.08525347527305331,-0.27368799783261727,3,left
16.683,0.31363379078992754,-0.02955630148006092,0.48662151380930235,2.3343540211670923,0.7542079007994871,-0.21987660017030455,-0.1293182618533135,-0.08478737096334624,-0.27699941777340087,3,left
16.688,0.32916050945456643,0.0027324969891911258,0.4880651514563337,2.333710259936052,0.7707619168220805,-0.21942404497377987,-0.12685278889006268,-0.08522450718146084,-0.2819926947193215,3,left
16.69,0.34770579581170175,0.028249159323646703,0.49147258738263705,2.3418209849793117,0.7314959669928254,-0.2183959666519057,-0.13695772633478864,-0.08468380544918194,-0.26364142916583583,3,left
16.692,0.36943417809856083,0.04888448546846848,0.49388112043464777,2.330557353789371,0.7786855219629569,-0.2201147055396543,-0.11834292499997455,-0.08543967813606597,-0.29704114086289,3,left
16.692999999999998,0.39763873448190995,0.06687814291954236,0.4914878996879682,2.3388221439669974,0.7478442012047837,-0.21870460152229224,-0.14221553837836323,-0.08452335281948845,-0.2542974562093032,3,left
16.695999999999998,0.4290841970807657,0.07628753649729639,0.4845921331272189,2.3404847331971137,0.732374950561372,-0.21878566662304605,-0.12229979812442245,-0.08526793724261857,-0.2899224584331631,3,left
16.697,0.4642698927807154,0.07876546106165866,0.4727935987798295,2.323130069435204,0.8205840733991365,-0.22082208376273765,-0.12278878302928992,-0.0853293454936174,-0.2891832981070441,3,left
16.701,0.5010154179540907,0.08001385488785501,0.45698893315067424,2.3576985109612174,0.6521542909631097,-0.21648181947151585,-0.16092187958203147,-0.08363757494705205,-0.22051962247094462,3,left
16.702,0.5350915672864388,0.07794625271528796,0.44004038947357405,2.3124474441540865,0.8701724754432136,-0.22225629116381362,-0.06726055468524307,-0.08770387527216526,-0.38901708266228086,3,left
16.707,0.5708036408609225,0.07336554188836658,0.41404540835274967,2.350597207509427,0.6874220828220694,-0.2173533325301439,-0.2225311242046305,-0.08098035533090499,-0.10971510995722539,3,left
16.708,0.5939597171386602,0.07093916561152286,0.3927514859245437,2.348983665092127,0.6935062968831888,-0.217609440609484,-0.01774230646692712,-0.08985431892648463,-0.47810002476457936,3,left
16.713,0.5998856875532093,0.06975643905550197,0.38654687709035745,2.2777790637517565,1.038947919913076,-0.22662761836823048,0.842046435088199,-0.12713829229095025,-2.024795331483616,3,left
16.714000000000002,0.6186781404291113,0.06873813889566921,0.3645901083162534,2.453644763956313,0.18824890013189033,-0.20428910540235767,1.0468219897994118,-0.13603599150676268,-2.3931951642318916,3,left
16.715,0.6491245979981701,0.06856267020436033,0.3229388066335067,2.1617115110666516,1.599368288962643,-0.241385261732473,0.8915657703186979,-0.1292867930309174,-2.1138770505890188,3,left
16.717,0.6629401244378894,0.06738882662178705,0.299830680490325,2.5469161752363045,-0.26211740570523406,-0.19244405728917408,0.9852325517609195,-0.13334331973629854,-2.282368374629731,3,left
16.717,0.6668482817786348,0.0683309166064138,0.2924582612245623,4.162963614431538,-8.074778275426553,0.013051383050327145,0.9470518581174306,-0.131736746940194,-2.2137582325203886,3,left
16.718,0.6801711155570043,0.07246178461527175,0.2665389092109839,4.548247678711792,-9.936307340157898,0.061972502487138356,0.9466652858314297,-0.13161485061028788,-2.212903884687769,3,left
16.722,0.6942016550751772,0.07877187027193572,0.23438999834462151,4.256163957684267,-8.525009473206458,0.024882695862198625,0.966434185994709,-0.1326222492929991,-2.2486940451169657,3,left
16.723,0.7010118084723693,0.0891830654126475,0.210583943163334,4.432225667029494,-9.37615661617778,0.04728395343729372,0.9427077961704794,-0.13144422496026692,-2.2057858939938746,3,left
16.727,0.7049720980614844,0.10031289155223017,0.1832898317113718,4.360834573231999,-9.029910001222456,0.038081377756132455,0.9612595020230505,-0.13231299895311865,-2.239256576173971,3,left
16.727999999999998,0.7033242198338767,0.11305913744447728,0.15572050065206933,4.35930733647092,-9.024916062656548,0.03814699162948426,0.9510290069789121,-0.13199706035164083,-2.2210465255131213,3,left
16.730999999999998,0.6961718550770495,0.12819435357925277,0.12934043695772468,4.397585512375704,-9.206617026132257,0.04264873882403467,0.9538989462136791,-0.13171024016151095,-2.2255848857952327,3,left
16.735,0.6873947573585564,0.1434517532757867,0.10243326073930827,4.351891605946492,-8.989002065165124,0.03719875388866843,0.9555773978489418,-0.13249150434297507,-2.2296801599204907,3,left
16.736,0.6792077783472157,0.1603392385691318,0.0761515394279515,4.387236006433199,-9.158449639992924,0.04153834714812904,0.9521751226657826,-0.13147462823576878,-2.222239426297948,3,left
16.738,0.6700911405071652,0.17703734677866373,0.047937810001895224,4.368913908773002,-9.067148132287851,0.038902219583400524,0.9555373931104723,-0.13231339469649595,-2.229340491750035,3,left
16.739,0.6585529540084617,0.19388406601136093,0.021334728456726224,4.371374303642369,-9.08785441453784,0.04020062441035441,0.9526290428799609,-0.13219360824981985,-2.2241179038797574,3,left
16.745,0.6476838227537496,0.2123414029585417,0.0027162675190440227,4.379580743870936,-9.112354257694093,0.03954743344997533,0.9556855427937928,-0.13103991492816874,-2.2276631969405445,3,left
16.746,0.6371080386612179,0.23024583207320748,-0.006393016220796645,4.366990719526338,-9.070098661882756,0.04002782124488305,0.9515944915633602,-0.13380165927947263,-2.2247673149392297,3,left
16.748,0.6257395251775473,0.24698693883471623,-0.006577869991175994,4.378247721088309,-9.109687263948594,0.039800278474180176,0.9570044272235122,-0.12965179538549987,-2.2278403411160825,3,left
16.749000000000002,0.615217682447061,0.2634323353854722,0.004941002715295818,4.372822704778532,-9.08333652256815,0.039095899962190137,0.9513664494925625,-0.13408092684507356,-2.2247968207169317,3,left
16.753,0.6071667808946547,0.27851855341876597,0.024474154129056513,4.369416573513679,-9.094361002869583,0.04174008508532781,0.9544202351182229,-0.131513501425557,-2.2261885729958673,3,left
16.754,0.5933587535383578,0.292352568041769,0.04777887464424503,4.382641585684201,-9.095464088286471,0.03638900768075092,0.9580622846674978,-0.12934229707852782,-2.229204799229726,3,left
16.758,0.5684937978174737,0.30753701470538286,0.07670512506758546,4.361609153464736,-9.087521371898315,0.04420631886773013,0.9437755527161799,-0.1389124012098968,-2.218977888680149,3,left
16.759,0.5404068367693912,0.32365778124546396,0.10812739909921804,4.384273146845983,-9.097160017749674,0.03590356200342628,0.969972178975272,-0.12115317598021899,-2.237406993583061,3,left
16.764,0.5058891483301091,0.34089821773777274,0.1405215406326641,4.370793594514447,-9.08974009606585,0.04065250755917031,0.9364013019176909,-0.14395826501767972,-2.213863676126688,3,left
16.764,0.4646317881695723,0.3592663421845217,0.17347991195041254,4.361076080791236,-9.092515167810898,0.04498650705049738,0.9644009671845697,-0.12492045216847251,-2.23346989884023,3,left
16.768,0.4192927133729908,0.3796860670120733,0.21443363919678599,4.406719555353753,-9.095379377873133,0.026411699663346586,0.9637467440878466,-0.125435271458827,-2.2331265436315464,3,left
16.77,0.37235606404721455,0.40227943017584744,0.26121963854843,4.321509410423349,-9.087361438222478,0.06078849772439393,0.9100167500830759,-0.16173352703661587,-2.1951271937583368,3,left
16.774,0.32857167445706925,0.4276521357454064,0.30020501855969506,4.431052303385865,-9.098260477267381,0.0166620469328339,1.0419567052585825,-0.07252189944676234,-2.2883039764227444,3,left
16.774,0.27673186250443993,0.45893305937949314,0.34129059903321657,4.339544802985827,-9.088921792767167,0.053495978417289966,0.823225215288912,-0.22043184068167815,-2.1338698824380398,3,left
16.777,0.23561735539763998,0.4798154898609636,0.37068600007785335,4.342228123824173,-9.090104060060328,0.052520460988770466,1.1117291498940571,-0.02534870297310038,-2.337562658813592,3,left
16.779,0.2217634196418813,0.4861572797255489,0.3769345086064453,4.516046577501234,-9.104847912562334,-0.017787794440227624,2.322866217125792,0.7935555418383473,-3.1928304529036855,3,left
16.779,0.1851799788672644,0.507706482809354,0.397688634447514,4.088569474655193,-9.06752729932034,0.154998900055526,2.61138522654531,0.9886141228852354,-3.3965451400924875,3,left
16.782,0.10704826947227222,0.5430018097490354,0.43106247828467537,4.797422266809554,-9.129669621493722,-0.131487018202383,2.392636571908932,0.8407422894908617,-3.2420883096446405,3,left
16.783,0.05697153515251701,0.5595402631240913,0.444481550258331,3.862427294008599,-9.047705659164798,0.24639116205747036,2.5245733512736726,0.9299231501288989,-3.3352526417970894,3,left
16.787,0.04111382356182754,0.5666019181930199,0.4486532324141139,-0.06172561316198377,-8.70474527350683,1.832504969473605,2.47089121770857,0.8936210247204555,-3.297339007360276,3,left
16.788,-0.014760179791947717,0.5881743885218457,0.4658608708591063,-0.996725986027249,-8.62293893896226,2.2103955783954925,2.4701298473189564,0.8931708241173109,-3.296815954751489,3,left
16.788,-0.08941741703986669,0.6081637008073015,0.4885904184670236,-0.2878673493854399,-8.684910710000317,1.9238962067614644,2.4982864783330188,0.9120709171686802,-3.316676039910259,3,left
16.792,-0.14691385928328238,0.6215669978525811,0.5082755265683433,-0.7153422371217754,-8.64752526293751,2.096677809530443,2.464555126110778,0.889459267661463,-3.2928846592183074,3,left
16.794,-0.20502231876867727,0.635523592097418,0.5275034190855028,-0.5415431492164192,-8.662834762354466,2.0264141124716195,2.490828738472241,0.9070304756171208,-3.311412013434018,3,left
16.797,-0.2524837514871211,0.6409772824025425,0.5409874585639181,-0.5388181508798263,-8.662799929582436,2.02534269102375,2.476661963472637,0.8975351861053171,-3.301418362261204,3,left
16.798,-0.29162452799400973,0.6419064441518717,0.547875568486613,-0.6303854160391664,-8.655206351083347,2.062314154279383,2.47988690106998,0.8998798394471061,-3.303718021687887,3,left
16.802,-0.3263132955825628,0.6420186455532843,0.5477108126400714,-0.5207830002484335,-8.664367589442318,2.0180507194836723,2.483676812207947,0.9019131589654807,-3.3063246805441127,3,left
16.803,-0.3495414797283761,0.6411376517499889,0.5414635289897392,-0.6060188460103,-8.657099551573204,2.052486681287697,2.477116924881212,0.8983892677878322,-3.3018111527863727,3,left
16.807000000000002,-0.3640960225905213,0.6415094080950163,0.5337387300939171,-0.5604264432954085,-8.661455863361384,2.0340293707571213,2.4832894785184862,0.9014444309127135,-3.3060247958311386,3,left
16.808,-0.366299551676349,0.6394046142013425,0.5162146491941229,-0.5699793699076314,-8.659424176949226,2.0379846519908185,2.4791416398510417,0.8995313858152207,-3.3032112165465293,3,left
16.812,-0.36314169382616135,0.638608281602822,0.49180543360050855,-0.5837425526866086,-8.660286661586273,2.0433862744871902,2.480928760713552,0.9007475625035504,-3.3044743669818617,3,left
16.813,-0.353867790613577,0.6410829826125353,0.470045817078792,-0.5607304312945316,-8.659760548016825,2.034282381876322,2.481036741675693,0.8991668096507314,-3.304336333077724,3,left
16.817,-0.3325990497366249,0.6437070670350845,0.44485694000103676,-0.5820404710187308,-8.659921921899102,2.042738602456679,2.479806589579755,0.9021144693207404,-3.303957068183001,3,left
16.817999999999998,-0.30806421011333346,0.6516034348840164,0.41659889538441397,-0.5688177879796442,-8.66109664509031,2.03739274623869,2.481413433165498,0.8975626897801906,-3.304361787916681,3,left
16.823,-0.27850169122344814,0.6650212960556028,0.3833918960151339,-0.5717090846374012,-8.65708341262243,2.0388523683296986,2.480003532301234,0.9026198665042747,-3.3041442550264817,3,left
16.824,-0.24402321233495708,0.6802968830389535,0.34310443772236476,-0.5783109330456437,-8.665099900975184,2.040855967329636,2.4808213597629134,0.8996999981129148,-3.3042722297622618,3,left
16.826,-0.20870488439698323,0.701230637243379,0.30429312284931864,-0.5652980755012804,-8.65341733743719,2.0365878753435855,2.4808545047953263,0.8967287086807525,-3.303908077269451,3,left
16.827,-0.17064928916247152,0.7273328835069137,0.26332609804614393,-0.5797601502582631,-8.665819050234614,2.041376425499173,2.4798398774823074,0.9091444522668165,-3.3048876164231196,3,left
16.832,-0.13218076382643335,0.7564753132989676,0.21967397269128236,-0.5704715893760206,-8.658736550818325,2.038232573777437,2.4817646101819983,0.8861484873294054,-3.3031015146577563,3,left
16.832,-0.08522665115206836,0.7869569770009145,0.17556700305132816,-0.5670797948174509,-8.652221840362564,2.037388342463589,2.479349032795599,0.9157142669193568,-3.305434428948675,3,left
16.836,-0.03757672154400743,0.8133012388171854,0.13094552700018314,-0.589481088774261,-8.680060464927156,2.044138629048022,2.4813402121279404,0.891013821083405,-3.3034687113159484,3,left
16.837,0.012027439687454473,0.8402791335377096,0.08789885771777979,-0.5465706142464044,-8.628557914310312,2.0310671700525393,2.481215539604426,0.8916353653157445,-3.303472293134404,3,left
16.840999999999998,0.07260045293092139,0.8667739516798181,0.044612240577236825,-0.6019807622185693,-8.694657583330745,2.047977693835598,2.477720994648742,0.938935982132254,-3.3074328942797786,3,left
16.842,0.1252132705033014,0.8859242465964556,0.010783433554549046,-0.5555897108147315,-8.639493144984602,2.0338060287992716,2.4863630203230116,0.8227117431609009,-3.2977351589243367,3,left
16.846,0.20068971379737272,0.9055506843820766,-0.021172282957916497,-0.5573390207036852,-8.640926011523607,2.0343905173376653,2.4720413860015666,1.0154207931510495,-3.3138192436820937,3,left
16.847,0.2589956429891108,0.9185428673866386,-0.04571598751721696,-0.6441946512521635,-8.74629465029786,2.0607619283015497,2.4909092788230636,0.7612274626723338,-3.2925901862249387,3,left
16.848,0.2676545036971192,0.9201674939049139,-0.049152406560404586,-0.43011639916906064,-8.487398221857916,1.9956998311432685,2.569805969511056,-0.30582464646764096,-3.203317683880855,3,left
16.85,0.338183113129566,0.9258523554717859,-0.06858742211793589,-0.785241229016165,-8.916618986372747,2.1036479337347345,2.588613909316974,-0.5600266120256666,-3.182058625456828,3,left
16.851,0.4062081839692667,0.931168399828249,-0.09141056594368119,-0.31679260075611826,-8.350508857252589,1.9612463183670468,2.5744060613054254,-0.3673100562031657,-3.198196215155393,3,left
16.855999999999998,0.4147199556277902,0.930552145423116,-0.09385070824962605,1.6484954623216903,-5.9738779049872335,1.3639536176125788,2.5828994774201215,-0.4835242359282734,-3.188436280014757,3,left
16.857,0.477490777524898,0.9303870856950471,-0.1077677370827304,2.116934894243591,-5.4078102969980115,1.2215522087629238,2.57954700214551,-0.43626802250257074,-3.192442893140056,3,left
16.858,0.5574522231501938,0.9292555153075928,-0.12068365335969515,1.761820030844551,-5.836985076084711,1.3295000840962763,2.579355300663563,-0.43555989813022167,-3.1924501428361696,3,left
16.86,0.6154033702047788,0.9241406251187632,-0.1213036244657629,1.9759020083218293,-5.578071080860866,1.2644379154845178,2.581251521117582,-0.4603773117823122,-3.190396968899407,3,left
16.861,0.6832605395398131,0.9152352304459144,-0.1220301980761775,1.8890134945521377,-5.6835924662471164,1.2908100397283682,2.579169155481174,-0.43070400835904554,-3.1929196431165607,3,left
16.866,0.7408209659890228,0.9061759938960351,-0.1175853253879271,1.8873350180685222,-5.6846967752098045,1.291392974924443,2.580506954751961,-0.45372975440716046,-3.1908610067507954,3,left
16.866,0.7909842590041192,0.8961861673157251,-0.11593573355869095,1.9336244438871062,-5.630003344863756,1.2772235519823414,2.5802273187866547,-0.4414446058034369,-3.1921169138750827,3,left
16.87,0.8342960308379477,0.8824209295560571,-0.11821772101474251,1.8783155748045997,-5.695634084268326,1.294131824473669,2.5796496248678453,-0.44406109011154077,-3.191618298618718,3,left
16.871,0.8583775887014293,0.8675404636442812,-0.12562451763016325,1.9211821989138034,-5.644333689715543,1.28106137147432,2.58052252576842,-0.44755483192364764,-3.1915488731351322,3,left
16.875999999999998,0.8625691627199032,0.85521381070056,-0.14881067580765356,1.8986942822875676,-5.672575400692278,1.2878135115240534,2.5801045077481115,-0.4418333038055513,-3.1920293242370277,3,left
16.877,0.8474089791107469,0.8480106963188713,-0.17478558517119697,1.9023657086198436,-5.664762945467175,1.286963172515139,2.5793373098674777,-0.44685479533410233,-3.191196648445907,3,left
16.88,0.8165045094793575,0.8434102317366572,-0.19233933079205995,1.9111721139487658,-5.659916112285295,1.2838299224565215,2.581731840350371,-0.4440498634111563,-3.192374157193075,3,left
16.881,0.7723235731592868,0.8390941763733291,-0.20374074427052705,1.897302124039704,-5.669574529432969,1.2886053790808758,2.5778792859387982,-0.44444003621471495,-3.1909351488596913,3,left
16.886,0.7209228492132741,0.8348927285188388,-0.2031897858405166,1.9098424068219604,-5.660078414972892,1.2843478492596963,2.5821094463564433,-0.4456956036139998,-3.1923290471127737,3,left
16.886,0.6674810461398134,0.829135993227879,-0.18802970259712903,1.903237580718159,-5.66811585837528,1.286351258522271,2.5796026385284714,-0.4441166088175489,-3.191595479173105,3,left
16.89,0.6141115243748234,0.8264916362186498,-0.15933345966431067,1.9012204285830312,-5.660041781466516,1.287791930971267,2.5775732409118888,-0.4445531168130667,-3.19081150322528,3,left
16.891,0.5625743089982373,0.8253469119472325,-0.11451586910968023,1.912443161413529,-5.670494217388733,1.2824898963515827,2.5867323696742517,-0.4464374671448783,-3.193922414136641,3,left
16.895,0.508862109311303,0.8184735322959253,-0.056297495124967976,1.894118519831263,-5.656816889292786,1.2908803283174306,2.569666216889967,-0.4418362770043959,-3.1882469464030456,3,left
16.896,0.4472169578926562,0.8141560356113305,0.011332496959154087,1.9139459293120777,-5.671040542374598,1.2818470765357726,2.591614952826002,-0.4482360745437356,-3.1954922162103037,3,left
16.901,0.3859122854199857,0.8132875197158442,0.08294977729891853,1.902026629115146,-5.663385191531717,1.2872070112706542,2.5732774590665906,-0.44268197072429116,-3.189462895971682,3,left
16.902,0.31781169240787654,0.8123046162368197,0.14802816303980268,1.8940513833561616,-5.653996412828695,1.2911290998729175,2.5737828198437414,-0.44301729044480226,-3.1896066443653694,3,left
16.905,0.2439798133944969,0.8146727631892426,0.20284384618680146,1.9327143258704307,-5.6905203793452515,1.2728228152136176,2.6087343579699436,-0.4532632679626276,-3.201141663082301,3,left
16.906,0.1826814986694875,0.8167850361971934,0.24831576820265533,1.8603394848167376,-5.6236097760620325,1.30697632359429,2.5228126078820026,-0.42774743484187494,-3.172825859304865,3,left
16.909000000000002,0.11095247954538752,0.824219190263354,0.2778285037492153,1.9534176576772677,-5.709342387166604,1.2630778924131525,2.6652795196029846,-0.4702147756424338,-3.2197551803780695,3,left
16.91,0.06398601625986797,0.8309600765306662,0.2891903236218207,1.8756602522269301,-5.637841717706891,1.2997413057862468,2.4773675687131202,-0.4141190593813883,-3.1578686119803483,3,left
16.914,0.052172532058866364,0.8338857918710465,0.2903313237352114,1.8779780063711056,-5.639493660000883,1.298685787302139,1.6885296675553096,-0.17869341883121787,-2.898027166488691,3,left
16.915,0.0017396900559935053,0.8462824141783307,0.288139523960835,2.025523911343468,-5.776764244835981,1.228991627482364,1.5006257914620011,-0.12254675129246276,-2.83615506785733,3,left
16.916,-0.060815581312391856,0.8617879432534137,0.28072454927712215,1.6626452334023716,-5.439700101805462,1.4003575580913967,1.6430875506052742,-0.165117680279614,-2.88306468229557,3,left
16.918,-0.11898587906324104,0.8851976387272122,0.2612052851584308,2.2643454065216817,-5.998487481303255,1.1162183851559968,1.5571497837715143,-0.13945115847796968,-2.8547572741179446,3,left
16.919,-0.16537058767264867,0.9053120108407614,0.24649868738095443,1.470746831001307,-5.261448764667132,1.4909810420950969,1.5921564713803673,-0.14986816226429,-2.8663146394149495,3,left
16.924,-0.17696518347766493,0.9099430550649326,0.24259174871918252,-1.8602889309419828,-2.1673682773356693,3.064033863717582,1.5925606540201598,-0.15007190966641865,-2.8663905430180874,3,left
16.925,-0.21535642902657973,0.9295429860690421,0.22644635864098828,-2.6537395827161485,-1.4302726382947153,3.438743962436047,1.5743542325718696,-0.14451718531555055,-2.8604743206788354,3,left
16.926,-0.2654222416522558,0.9572359527661349,0.20960190437170884,-2.0522560078156555,-1.9891313090631402,3.154682501198786,1.596189930036049,-0.1511540030244765,-2.867587206121481,3,left
16.929000000000002,-0.2935851173570271,0.9765511823336146,0.20210436558584613,-2.4149952386067053,-1.652056214099529,3.3259962181863596,1.5791400891524308,-0.1460115756378104,-2.8620055560364674,3,left
16.929000000000002,-0.3232601657334904,0.998489345540397,0.19196269841837338,-2.267331424611071,-1.7891933788612833,3.2562656632090983,1.5884710826026467,-0.14870383618868258,-2.865145593688161,3,left
16.934,-0.34040937864967713,1.0172663139498326,0.18394550313784153,-2.265543260143903,-1.7911797355526717,3.2553901536632828,1.58601674983031,-0.14827802361832898,-2.8641223191520244,3,left
16.935,-0.3479766967317509,1.0313748815150698,0.17472582953553073,-2.3423204506575885,-1.7191616780937276,3.291714045746096,1.5841690515561875,-0.14719674038527847,-2.8638836746792857,3,left
16.939,-0.35385096988688536,1.048023092866058,0.1626259515839632,-2.250494295608651,-1.8054568498998589,3.248255419893555,1.5876679499041637,-0.14889124333620252,-2.8645824220705345,3,left
16.939,-0.3512117620013684,1.063800739505663,0.15287292820187515,-2.321816496682856,-1.7382155795203178,3.2820302725506383,1.5842823554928025,-0.14736237155705872,-2.863828793248231,3,left
16.945,-0.34229524484911356,1.0758054158284684,0.13676276207546012,-2.2832592195640333,-1.7744590957332094,3.2637815851249834,1.5869483035278082,-0.14815428143704018,-2.8647102964843576,3,left
16.945999999999998,-0.32662400013679294,1.0902811762996065,0.1148391033408419,-2.2929253328918953,-1.7663222928484605,3.2682668968266384,1.5847011737349925,-0.14844267870341393,-2.8632991157501513,3,left
16.948,-0.30557720638096436,1.106225464442207,0.09324406298873142,-2.3007782357407427,-1.7563118838185585,3.2722313685682574,1.5871810922360141,-0.14699030313536451,-2.8656489944988652,3,left
16.949,-0.278102493235092,1.1201215788613337,0.07070735273862876,-2.2871654035658313,-1.773635840595714,3.2653619245034924,1.5841176449790706,-0.14934700256833291,-2.862353324606441,3,left
16.953,-0.24530717564448512,1.1384654382302024,0.05294016644563059,-2.2987073806384624,-1.7571730934837047,3.2713533869519935,1.58726465296795,-0.14679928094045974,-2.865826996481572,3,left
16.953,-0.2101263939617372,1.1580856230637924,0.03939888799256775,-2.2916315656774344,-1.768322700838374,3.267580896301869,1.5856337610522058,-0.14832734495048905,-2.8638824591864998,3,left
16.958,-0.16927771915860926,1.1775352320809125,0.02221310706332555,-2.2965853484735392,-1.763761626510505,3.2699161537060073,1.5833001706195295,-0.1493674045080623,-2.8618981414057125,3,left
16.959,-0.1253933682569942,1.2039324957507436,0.0014401474523395201,-2.2888443564307313,-1.762460567267426,3.2670608491619504,1.591993896596579,-0.1443617678127303,-2.8700767709971524,3,left
16.964000000000002,-0.0829272316250858,1.2348982690830639,-0.024134701360292443,-2.3038296027067924,-1.7679468578728084,3.2723091292530473,1.576146138613262,-0.15372685903819766,-2.8550021707783806,3,left
16.964000000000002,-0.03883409527105605,1.2671511207286088,-0.05036919089521698,-2.2808471016584315,-1.7603450050037244,3.264182961793672,1.596432894995767,-0.1416829557515326,-2.874335886880845,3,left
16.968,0.004185185163383262,1.2992547857781136,-0.06590299385575486,-2.306179125800181,-1.7676753213271132,3.2732392333568443,1.5795230047149453,-0.1517457224187558,-2.8582070975081697,3,left
16.969,0.04926739886803461,1.3296490911143302,-0.07545949693907705,-2.291553286859648,-1.7634304562955427,3.2680106778870712,1.5798815296145572,-0.15144371296036452,-2.8586035082792747,3,left
16.973,0.09612160525381053,1.356459101625415,-0.08580382254585366,-2.2770906393654062,-1.7614916485975405,3.2626308588845188,1.6124472809521286,-0.1323522982185273,-2.8894818313140607,3,left
16.973,0.13703006598946488,1.375522289986328,-0.08751388268896662,-2.337979561707354,-1.7722066804357297,3.2850459157067755,1.532524678444251,-0.17931255032715396,-2.813641363815706,3,left
16.98,0.17963308963497016,1.3833769710798824,-0.08633301369586847,-2.225185248987903,-1.7522220054070217,3.243533004493611,1.6650052603172492,-0.10143990506057783,-2.9393653926123804,3,left
16.980999999999998,0.20455369623949757,1.3829087166820497,-0.09078615489791125,-2.370166125551341,-1.7777439148567455,3.2969102102645693,1.4902721238276162,-0.20415597819643908,-2.773550251272739,3,left
16.983,0.21016904441746623,1.382103365846603,-0.09358559005585032,-2.2490678056426763,-1.7564972302564625,3.252314937843324,0.7566286151870564,-0.6352441654866702,-2.077344013654189,3,left
16.983,0.22583335466002757,1.3664405659227163,-0.09729526765806418,-2.2521302483857415,-1.7572639234206031,3.2534309999923434,0.5818931051398426,-0.7379597766311567,-1.9115472966750091,3,left
16.984,0.23748884450665547,1.3359604746221074,-0.10609923672517402,-2.4839207515387107,-1.7969796185316476,3.338854828431321,0.7143762528871465,-0.6600876330720629,-2.0372513880823773,3,left
16.989,0.23369336854844336,1.3019990228341585,-0.10924968493084956,-1.9143955241607356,-1.699205382102631,3.1289613782974914,0.6344546347325786,-0.7070480686881835,-1.9614033512516789,3,left
16.99,0.20949949945307803,1.2404565202437974,-0.0911054808150571,-2.8586816951616116,-1.8613202808859426,3.4769822079581783,0.66701185189405,-0.6879550095207856,-1.992347771949638,3,left
16.992,0.18417358742261997,1.1929025981841839,-0.07374672789220389,-1.6131457100078779,-1.6475254184275903,3.017921089008423,0.6673887286057358,-0.6876565473380727,-1.99260194855999,3,left
16.993,0.17524538802824646,1.1797811727819036,-0.06598783647276515,3.616123201048069,-0.750954256100863,1.0907887365390088,0.6504525339933812,-0.6977142206576401,-1.9766771074782292,3,left
16.994,0.1356234619497421,1.1273710153703238,-0.027143844274578933,4.861758487381336,-0.5372433881066624,0.6316921468018687,0.6707654734531028,-0.685675398367078,-1.9958077169505486,3,left
16.997,0.06757322154549096,1.057611243451988,0.032533913822044264,3.9172444903330432,-0.6991840064792549,0.9797687781186699,0.6549064375451329,-0.6950382803691235,-1.980820784485103,3,left
16.997,0.003349900598144353,1.0099514163014043,0.08745446457739559,4.487155275521438,-0.6016706254520601,0.7698282057576572,0.6635776346665538,-0.6900283194254074,-1.9891737526795523,3,left
17.002,-0.06464820837736476,0.9634130907475678,0.13815169048669795,4.254842047613668,-0.6410787331476677,0.8552519715799239,0.6613165382096271,-0.6910823754439174,-1.9866277195447435,3,left
17.003,-0.1292750956795695,0.9288707692906673,0.17293210455109048,4.252317016007685,-0.6421003662859499,0.8564531721144286,0.6595607802585126,-0.6925862849943194,-1.9856511106677377,3,left
17.008,-0.18078734398267002,0.9090190900451423,0.1932599166612906,4.373114998399348,-0.6208139008522606,0.8116677714332043,0.6628609833418804,-0.6900682473055413,-1.987936818143457,3,left
17.009,-0.2197975785929296,0.8974984615462651,0.20000246010887335,4.227845861482507,-0.6459685213588195,0.8653193194632798,0.6596754715034734,-0.6924012209002606,-1.9855883604972242,3,left
17.012999999999998,-0.24482206016776664,0.8992163321143465,0.18941980555268706,4.341855227264277,-0.6268979434729279,0.8235301577696013,0.6621541412723881,-0.6909487730203434,-1.987946428156635,3,left
17.014,-0.2560103365979941,0.9138084108022878,0.16351665578630192,4.278700631226287,-0.6361872132564057,0.8460734363980487,0.6601339001387558,-0.6912808797061512,-1.9847780503070094,3,left
17.017,-0.25354028674634027,0.9403362536602475,0.12309035106154184,4.296138068213647,-0.635845818811138,0.840906410902919,0.6622816243608876,-0.6919726472986587,-1.9896757912332068,3,left
17.018,-0.23599917226324668,0.9757601164784335,0.07289769953940964,4.308092669428769,-0.6305489471149494,0.8349559713712802,0.6596689009253268,-0.6905933720467846,-1.9829302206711552,3,left
17.023,-0.20469719583605123,1.0156751023025712,0.01624121059385201,4.283432408493693,-0.6373646526230077,0.8452753251374776,0.6623441889912617,-0.6921281584332202,-1.9900169720452037,3,left
17.024,-0.16343316615004932,1.059705430628067,-0.038677061461033425,4.309773301071498,-0.6328705150677709,0.8355789108580538,0.6609718718789879,-0.6911395686833386,-1.986086610951033,3,left
17.026,-0.11837137019798535,1.1078172643938407,-0.08469925737289882,4.285853586467482,-0.6321748814920164,0.8421095395249607,0.658928913477709,-0.6907923856032389,-1.981883224190529,3,left
17.027,-0.0728848058615865,1.1571858805059847,-0.11999504721424845,4.307928349255389,-0.6393522961160112,0.839194823946792,0.6664628595029987,-0.6931378250020355,-1.9989456636701362,3,left
17.032,-0.025467642474506662,1.2060018163397386,-0.14038025554162126,4.286474199537611,-0.6266772950152062,0.8393135719149911,0.6527442939465748,-0.6886397442711996,-1.967542823292458,3,left
17.033,0.015665551372336904,1.2478523269914374,-0.14841639793106406,4.305144585299472,-0.6409090669350224,0.8407344759960411,0.6703038015644651,-0.6944479538396049,-2.0078133108998646,3,left
17.035999999999998,0.05012201181498353,1.2838954669791676,-0.15117347658793434,4.297173357064475,-0.6322029075356408,0.8388761825057363,0.6556654577315678,-0.6895869613210319,-1.9742126641953093,3,left
17.037,0.07643988012592635,1.3108803206641397,-0.14619586564184425,4.281545692472286,-0.6262002140312466,0.8404991516110147,0.6559773656569414,-0.6897670717466309,-1.9750443302425147,3,left
17.041,0.08862073867474499,1.3234965999698747,-0.1362551978477896,4.333784837423971,-0.655242247813606,0.839345407623497,0.6841703277405099,-0.6988734633847322,-2.039375031224276,3,left
17.041,0.09256794252269626,1.329739882387452,-0.119309573015422,4.240724274915135,-0.6007285278837834,0.8400800700609845,0.6149708196259942,-0.6764371242913918,-1.8813439089342832,3,left
17.046,0.07907669479771051,1.3202032963077515,-0.07891702391977717,4.358842072967015,-0.6709632876170666,0.8396421521679148,0.7296872785114186,-0.7136473669183332,-2.1433519818677693,3,left
17.047,0.06428948047391032,1.3094048105526475,-0.04663977191278251,4.26081402934234,-0.6122270958844522,0.8397957511080499,0.5783705445004772,-0.6645728263373376,-1.79775440994731,3,left
17.051,0.05989880751431068,1.3061141094507809,-0.04049205493203962,4.262568569977921,-0.6139730765414391,0.8401165818627128,-0.056861018706088395,-0.45862030479940413,-0.34705779667703424,3,left
17.052,0.037640884128249535,1.2843198560836515,-0.023263352227108167,4.451877962155119,-0.7255562904479409,0.8389579397657283,-0.20821068253087263,-0.4095696925081649,-0.001417571360188774,3,left
17.053,0.008539180489590932,1.2543054668751097,-0.00734801997800586,3.98788030639112,-0.4510710371233322,0.8413386457142493,-0.09344820931927532,-0.44674573954639485,-0.26348713660073764,3,left
17.057000000000002,-0.018636938074304055,1.2138142542083017,-0.005330707665389553,4.75671590431568,-0.9062679310291157,0.8375637042233977,-0.1626709559405595,-0.42432897677056913,-0.105419216721227,3,left
17.059,-0.04023393848509327,1.1789854128590276,-0.0020171646557269186,3.7428079262271394,-0.3058310437352459,0.8424852607500567,-0.13452033125996404,-0.433460586652767,-0.16970888563976969,3,left
17.061,-0.045103289090138415,1.1700238001299164,-0.0019224013353574697,-0.513812446338726,2.2143282830912634,0.8633115433500657,-0.13406666023888092,-0.4335459134440777,-0.17070369171012914,3,left
17.061,-0.05973218932887598,1.13990864847116,0.0023916334527255218,-1.5276826680785403,2.814778021577507,0.8682348017030563,-0.14894883096717632,-0.4288532659907526,-0.13680920408269825,3,left
17.062,-0.08407204077627914,1.098246000168027,0.0070769984712433075,-0.7589915535672501,2.3595494599547187,0.8644962187896392,-0.1310958474322049,-0.43445331050105057,-0.17744715971956201,3,left
17.066,-0.10571980419327026,1.0747573884242536,0.0036364238813229935,-1.2226376731788244,2.6340923441228314,0.8667409195971799,-0.14503514970671338,-0.4301203133090129,-0.14574673657453768,3,left
17.067,-0.13068638881462596,1.0527736700353996,0.0011819081446641435,-1.0339495340016307,2.5224255378833025,0.865867329224674,-0.1375363590134408,-0.4324710717038309,-0.16281399369417163,3,left
17.07,-0.14873028033311425,1.0363764690531216,0.0014436969578552616,-1.031363847379045,2.520772760199901,0.865761186628075,-0.1390930271120671,-0.4318084042880682,-0.15914619742948138,3,left
17.070999999999998,-0.1576187037188682,1.0288182770721537,0.006536887058851964,-1.130178830533334,2.579444695854039,0.8663777838459765,-0.14151498816889088,-0.43153275488250614,-0.15398017445091305,3,left
17.076,-0.1618142065641019,1.0274438418594023,0.01687348229366495,-1.0117829810523404,2.5091872622264315,0.8656651742931591,-0.1373267158275034,-0.43201279000575354,-0.16291550754862938,3,left
17.078,-0.15942809392165525,1.0332552613245818,0.036115982859401555,-1.1040246833460357,2.563871688752992,0.8661723018725298,-0.14148140075070517,-0.4317429261382115,-0.15420016460517705,3,left
17.081,-0.15428146502079731,1.045981762021192,0.06867202338905111,-1.054187599514211,2.5344783203167633,0.8660518407401976,-0.13857472164844578,-0.4318266008983425,-0.1602218765400047,3,left
17.082,-0.15624324901923034,1.0718119299605997,0.10314454937109721,-1.0657992540346777,2.5409748339336327,0.8657181559017033,-0.13950578173533373,-0.4315173597140689,-0.1580906211366413,3,left
17.085,-0.18080014723587357,1.1108291213052355,0.11118356466503074,-1.0785773456038072,2.549192285707851,0.8664524363806292,-0.14091838043797042,-0.43265198484363304,-0.15600711870305237,3,left
17.085,-0.23327766828906793,1.154212324993812,0.059087381961652335,-1.0562517672980118,2.535175636420017,0.8655187652032162,-0.1371740767827355,-0.430225984342592,-0.16194627414530988,3,left
17.090999999999998,-0.2925614679583499,1.1892579938536765,-0.026655008330771966,-1.0772671121723914,2.5482538436205733,0.8662787968803831,-0.14264039052538974,-0.43388414365500866,-0.1533597077051066,3,left
17.092,-0.33644658633426894,1.2090654405016907,-0.0812712362679991,-1.0629081794670556,2.5397568008524942,0.8662153341893621,-0.13697182731864177,-0.4299327622203901,-0.16215016407915508,3,left
17.095,-0.3619960568201114,1.2196978175303008,-0.1015796277497793,-1.0699298245694444,2.5427402246360282,0.8650270329123433,-0.14024932497638845,-0.4322156168180376,-0.15706716393903492,3,left
17.096,-0.37354828126556866,1.2250738738990115,-0.12146381200756262,-1.068210320454161,2.544405074088912,0.8678118208609382,-0.1427205262939208,-0.434296829151476,-0.1534905169718461,3,left
17.102,-0.3789592467997816,1.2327322647394494,-0.1324160816396492,-1.0673430741743997,2.5398898271006267,0.8636409593602064,-0.13144574863583502,-0.4253344258830727,-0.17018571410710295,3,left
17.104,-0.391460500679924,1.2490876921395102,-0.11897775935359957,-1.0689080061707539,2.545081500824873,0.8680899697448764,-0.15237898001516914,-0.4419487456980218,-0.13917252995984297,3,left
17.104,-0.43460446313769374,1.264082019611784,-0.10645357946345191,-1.0669926579704452,2.541484142265116,0.865515111384201,-0.12552758950362114,-0.4206048552692955,-0.1789281442865232,3,left
17.105,-0.5071865344672484,1.2868467750637693,-0.08794231177822051,-1.070345997068552,2.5413433341719873,0.8633175267385822,-0.14793312493604271,-0.4384293255419984,-0.14576865158219393,3,left
17.109,-0.5942836501570006,1.3136304784010115,-0.09264976925294663,-1.0638647788916507,2.5468050818048256,0.8729702491770066,-0.14728500172503856,-0.4379560764244198,-0.14675074561841284,3,left
17.11,-0.70222771058166,1.331534401832278,-0.13342631297250374,-1.0744021063895204,2.535801551019573,0.8550639147171017,-0.1047313668311378,-0.4039239005653516,-0.20961823221139386,3,left
17.114,-0.8039536370004106,1.3349271187659422,-0.15446320500553345,-1.0612084056498468,2.5501270619811596,0.8780562503986475,-0.20936040150375643,-0.4875674271765463,-0.05503368894104979,3,left
17.116,-0.879716437871763,1.2836617769002303,-0.24490967956124998,-1.0720811350149155,2.538087572684959,0.8588632180468954,-0.035876281286555595,-0.3488774442484468,-0.31133568401138895,3,left
17.119,-0.9021987495397749,1.2226044850801494,-0.3458174105918389,-1.0723196518864628,2.538719154832922,0.8593787787913542,-0.2646991929001079,-0.531816086207093,0.026704909829057072,3,left
17.12,-0.8889633436273922,1.1999215925234064,-0.376744423476865,-1.0498556528712077,2.560673873822278,0.8959832522624467,-1.2250005853298944,-1.2996804050612405,1.4454032029013073,3,left
17.121,-0.8479295931027644,1.1180447434441079,-0.5145020096115347,-1.104426325671634,2.5063509021325103,0.8060239880076958,-1.4538226694399654,-1.4826308181889978,1.7834142175033416,3,left
17.125,-0.643107364487137,0.9698474504056407,-0.6358388684222545,-1.0141296987760167,2.5965147803456436,0.9551714607945987,-1.2803463127269676,-1.343925871494172,1.5271599138497143,3,left
17.125999999999998,-0.45441057487477277,0.8869261472556174,-0.6283873961727838,-1.1331902716011686,2.477580416846382,0.7584565443667224,-1.384951360613182,-1.4275724464325643,1.6817010593973412,3,left
17.129,-0.3991887470635077,0.8640428640027771,-0.6188745565014039,-1.6340042924969536,1.9788085491432317,-0.06736172688727166,-1.342444908817974,-1.393566245603414,1.6188419778377445,3,left
17.13,-0.14893321904930965,0.8087790747510561,-0.5491828864083282,-1.753082327133251,1.8599096296182642,-0.2640599958279606,-1.3417287709260066,-1.3930262382923284,1.6179183342910934,3,left
17.131,0.2189401045927044,0.7785783326180744,-0.4345996162469232,-1.6627668108610532,1.950035169335589,-0.11493052980638288,-1.3642049996680767,-1.4109551289114743,1.6509327440519805,3,left
17.134,0.47536647306849267,0.8369167858621571,-0.331579906384172,-1.717330287043912,1.8956975787986199,-0.20489666113639082,-1.3373167233095828,-1.3894963866024193,1.6113981466853669,3,left
17.135,0.5945844567508545,0.9575520791492056,-0.24611711066530198,-1.694928979396849,1.9177795716910155,-0.1682324073707421,-1.358203640034691,-1.4061804510710059,1.6421738175687957,3,left
17.139,0.4562672571485058,1.1482578953633678,-0.25848298092837263,-1.6950326233607707,1.918137354771219,-0.1678454483541708,-1.3471039367053868,-1.3972701518509534,1.6256163901620346,3,left
17.14,0.12997183529841977,1.4001381856775001,-0.3498303974376742,-1.7060987207122458,1.9064904003071121,-0.18685411043558978,-1.349257858822341,-1.3991034958904476,1.629312725930946,3,left
17.145,-0.2051627013565883,1.6762062160049287,-0.46753242336306344,-1.6927124812917285,1.9204250753104333,-0.16404534594220305,-1.352942020738864,-1.4018588621211054,1.63386965656876,3,left
17.146,-0.4552870705582891,1.9487291576692192,-0.5887520832961914,-1.7033328569303374,1.9095900960584495,-0.18187251577448332,-1.3469230376169912,-1.3972793640554406,1.6260643911546953,3,left
17.149,-0.5497534745010253,2.1881133883568724,-0.6446018762591618,-1.6970170401703626,1.915387659476829,-0.17206205965849775,-1.3524467093106853,-1.401510311474842,1.6333583852913733,3,left
17.15,-0.4882130727358772,2.37941825793179,-0.58945886876632,-1.699837689868795,1.9141654412800855,-0.17476757751540561,-1.3492138793573412,-1.398923654784805,1.628574866975564,3,left
17.154,-0.2958276638538706,2.5082902419286235,-0.47382943837260216,-1.6988401226640923,1.912431201227354,-0.17646734270424955,-1.349348069237292,-1.399375532855838,1.6303799984898455,3,left
17.156,0.0009177548757378154,2.5558145585178105,-0.3870434576883798,-1.6992787766656725,1.9153365699671432,-0.17309218793605738,-1.3522735308536433,-1.4009273835605978,1.631029513677451,3,left
17.158,0.3777328040798367,2.5086298335896053,-0.3616021147498732,-1.6993093494610871,1.9126437640821095,-0.1764070741179728,-1.347135244451497,-1.3979933434688296,1.6289171357601169,3,left
17.159000000000002,0.8216006817182557,2.3556987237453852,-0.3820232659275933,-1.6975980867439993,1.9143255715211511,-0.1736143028246817,-1.3527568718428675,-1.4012362983189863,1.6313818072557433,3,left
17.164,1.286532874435536,2.0964057468833754,-0.41068286381556895,-1.7029530641890247,1.913925381839434,-0.17639188328541705,-1.3492810064365899,-1.3991805732941907,1.62962146050831,3,left
17.165,1.6542549810516838,1.7843519069529088,-0.3969044573063285,-1.6924025876999316,1.9131597188251142,-0.17282395836722889,-1.3474126512900704,-1.3983099624183102,1.6297699355617403,3,left
17.168,1.8160349813836267,1.4825985878842696,-0.24929983319199334,-1.7077366774490286,1.914705009985289,-0.1774808520589436,-1.3574357032038167,-1.4035955787527032,1.6318468804169726,3,left
17.169,1.7449718770495142,1.223946439041657,0.04845949878676844,-1.6914670418942686,1.912981436862503,-0.17264058038397792,-1.3385146095600242,-1.3935272386172326,1.6275031530135295,3,left
17.173,1.4498750558518025,1.0565964961889984,0.31821001125457327,-1.700746735548519,1.9140982452803852,-0.17524137355719427,-1.3628850510964106,-1.4065149521750873,1.6331909608850874,3,left
17.174,1.0066404258166854,0.9885216853372791,0.4423720971019268,-1.7093403916768541,1.9144664957831496,-0.1784535014416524,-1.3425089692138878,-1.3956483910860435,1.6283980186945408,3,left
17.178,0.5127160862750341,1.0708612421212989,0.4619495505536797,-1.6727066240027484,1.9118779663595977,-0.16598394880754763,-1.343176999042189,-1.3960343719048884,1.6286987699136666,3,left
17.179000000000002,0.05747166640249783,1.2963196441328937,0.4290431327710462,-1.7404648124544295,1.916858851158427,-0.18882201052501468,-1.3816481349459147,-1.4164524568264352,1.6372763688107042,3,left
17.182000000000002,-0.30056380831234925,1.5667865822791263,0.37158071703682005,-1.6535045597194034,1.9104170943999574,-0.15956141777340754,-1.2869531932886527,-1.3661599250223158,1.6159926543833016,3,left
17.183,-0.5971903927118771,1.9265227901646498,0.28881287319531623,-1.7260796548513437,1.9158211716019262,-0.18396317326310985,-1.4439975596938266,-1.4495738803687113,1.651333249055738,3,left
17.188,-0.7592788778688931,2.1817043459815357,0.23556793868145173,-1.724193600919854,1.9155906805773495,-0.18340347177444255,-1.236853475604566,-1.339550635586572,1.6047159555408637,3,left
17.189,-0.7880614576138205,2.2429673619028376,0.23126233126963752,-1.585566996668264,1.9055406607769279,-0.13654448634664698,-0.3675424125358846,-0.8778449987820841,1.4092769666792373,3,left
17.19,-0.8693432016494518,2.4488745457206726,0.22840036528573132,-1.9261858899810353,1.9303631807098278,-0.25159859257182043,-0.16041153773123948,-0.7678357777944782,1.3626824102836999,3,left
17.192,-0.955753056902454,2.700175078401288,0.2722084355696319,-1.3614725465294155,1.8891476938374274,-0.060865464060938804,-0.3174416117782556,-0.851234562735337,1.3979984041600777,3,left
17.192999999999998,-0.9687443922484289,2.774584680384427,0.32512589098617783,-2.10629142691597,1.9435577082537963,-0.3124374218738095,-0.22274123733588497,-0.8009362516494057,1.3767053361071468,3,left
17.197,-0.9776612496594815,2.795997248308866,0.3377453311732461,-5.232930036401336,2.171611884192709,-1.36855982841519,-0.2612597740642624,-0.8214046839314355,1.3853645304614939,3,left
17.198,-0.9801407344943331,2.7861383661723345,0.3902064320395734,-5.977670692298364,2.226132330174157,-1.6201401434654163,-0.26182581129785354,-0.8216823479212083,1.3854897153265715,3,left
17.2,-0.9529506963551252,2.681123699980282,0.458130770992915,-5.413083349112971,2.1847405017135895,-1.4294000961920652,-0.24159596909183562,-0.8109710816798322,1.3809485024063508,3,left
17.203,-0.8778029388244708,2.470185871959175,0.49874968937380215,-5.753587910384358,2.2097189856032395,-1.5444432429752775,-0.2658207826934918,-0.8238041658540498,1.3863856370326406,3,left
17.204,-0.7530524690215791,2.1857451398439047,0.5246533431582119,-5.614982634076708,2.199650074904547,-1.497629754812206,-0.24696253174500987,-0.8138025233797868,1.382150076855486,3,left
17.208,-0.5981957956067397,1.859183062709772,0.5172361969066908,-5.613252491686975,2.1991828364676262,-1.496982518137516,-0.2571106200864689,-0.8192209726015026,1.3844422631037336,3,left
17.209,-0.41506235451480544,1.5158703312146962,0.4931234040683377,-5.685442471542226,2.2051484532086807,-1.521501488376869,-0.2548394608104122,-0.8179225579885829,1.3838973613759689,3,left
17.212,-0.21713072406841122,1.1963914549113335,0.47069580884669265,-5.599067539988459,2.197870091726309,-1.492134533425066,-0.2520576590975175,-0.8166039067778852,1.3833317456540977,3,left
17.213,-0.011853767924759277,0.9089380265625979,0.45263994935763463,-5.66619836731847,2.2037271594920353,-1.5149992506759666,-0.25682748011572953,-0.8189423403255081,1.3843301680815596,3,left
17.217,0.2029687165887023,0.6612843835447502,0.4508922720382321,-5.629925660327054,2.2006698245603653,-1.5026653630487312,-0.25236831895569234,-0.8167293489125448,1.3833867762240881,3,left
17.217,0.4182423443161742,0.4580548772735035,0.45964825416609334,-5.638841987472903,2.200505937415505,-1.5055167361468285,-0.25529977736050574,-0.818287808083618,1.384046659642737,3,left
17.221,0.6247591324362101,0.29075906847274025,0.4649567020925362,-5.646722375143517,2.2036988725348396,-1.508695838742884,-0.2541738170201843,-0.8174011910992824,1.383682574848861,3,left
17.222,0.820183991103373,0.1595826662087373,0.45349206947306664,-5.63306539461574,2.1981966268480075,-1.5031917929881038,-0.253820949873381,-0.8178731091320376,1.3838565269524605,3,left
17.226,1.0002662012489407,0.058491894585058976,0.41730765368876876,-5.644979388324362,2.2045925026753785,-1.5083092458464233,-0.2550481041042526,-0.8175414258708407,1.3837547080483787,3,left
17.227,1.160278615579509,-0.011306852093484566,0.35792081384926633,-5.637475897528015,2.199639824774385,-1.5049033848957447,-0.25360941056083963,-0.8178254748969846,1.3838336456458615,3,left
17.230999999999998,1.3045552258311157,-0.05221891144883183,0.273967259838513,-5.642119053325098,2.1999409100975917,-1.50646398549291,-0.25464694227676,-0.8177712752056072,1.3838349832512506,3,left
17.232,1.4325807902720724,-0.06985767870049671,0.16768380560535137,-5.636450203011222,2.2076962287322117,-1.5061657860305226,-0.25451980497343707,-0.8171808052121519,1.383604541538804,3,left
17.237000000000002,1.5433799941083386,-0.061553652579858016,0.055653082480809385,-5.64686416029537,2.189785527762402,-1.5059890890578604,-0.2534039540869538,-0.8188742885865588,1.384233110364263,3,left
17.238,1.6465510506989962,-0.026891847563910568,-0.043698328732437584,-5.63074099476355,2.216464000880828,-1.506054108375353,-0.2557753650844533,-0.8158951808388268,1.3831369587992417,3,left
17.242,1.7440773117838932,0.0449696588389387,-0.12853078781399388,-5.648708382540908,2.1880786348202053,-1.5062484206339084,-0.2526622452009352,-0.8196832847289909,1.3845275383387845,3,left
17.242,1.844286489262759,0.13675804037066008,-0.20415065264001064,-5.638339334038065,2.2044851554893987,-1.5061399637451824,-0.25528930367489533,-0.8165372229363717,1.383375323693515,3,left
17.246,1.9544353437346986,0.2592250074758904,-0.26131960904554985,-5.627653191725101,2.218485854058554,-1.5054573705380279,-0.2551114992228398,-0.8165621644053829,1.3833769296019036,3,left
17.248,2.0622047987495637,0.409828804968115,-0.2988863222826287,-5.672147788272806,2.157015825874179,-1.5076796205624035,-0.25045090993468155,-0.8227547531349562,1.3856657892008486,3,left
17.250999999999998,2.1619179154021797,0.5545783603240619,-0.329055740870557,-5.58975506848846,2.271034179976601,-1.5035988297409082,-0.26203309426126353,-0.8076087612699614,1.3800799175106602,3,left
17.252,2.238751964043572,0.7481636207770936,-0.3480950245770098,-5.695684171673124,2.1246261032341476,-1.5088847564278793,-0.2427950016020802,-0.8326978514656056,1.3893252615226335,3,left
17.256,2.2832327386673548,0.8827368010201584,-0.35359323309885166,-5.607199857245977,2.2468699917838206,-1.5044534750672558,-0.2681748580858959,-0.7996135462128089,1.377140433595357,3,left
17.257,2.2881746107387873,0.9167824240904816,-0.3549292825317964,-5.609375035334404,2.243501567748111,-1.5045029352810413,-0.3745279530215543,-0.6605851147996598,1.325855707916518,3,left
17.257,2.2742227628678378,1.0421350023912759,-0.3575208096572484,-5.778964586313149,2.0105751831781022,-1.5132366158743635,-0.39989877845065525,-0.627505110402896,1.3136832744285587,3,left
17.261,2.234802905412284,1.1915884165864776,-0.35233129319672746,-5.3623479890975165,2.583183677602712,-1.4918348869808273,-0.38067045918763376,-0.6525895498683849,1.3229152117248306,3,left
17.262,2.0798266658913658,1.2904592739672416,-0.32901787791471143,-6.0530731669569615,1.6337023887227513,-1.5273107922502545,-0.3922563512842218,-0.6374417793218599,1.317324228267596,3,left
17.267,1.9455043981366433,1.361224387426968,-0.3121406160435715,-5.142023967881334,2.886131984354094,-1.4805171190100568,-0.3875633680756256,-0.6436498216563522,1.3196575937626942,3,left
17.268,1.9042878166881712,1.3738406037495858,-0.3066744768422164,-1.3167640019321785,8.14233142476002,-1.28378173852557,-0.38745527483677544,-0.6436415250277303,1.3195634555526734,3,left
17.269000000000002,1.7252784226587807,1.4065517416894622,-0.27950514276603783,-0.405745865895336,9.394878012675196,-1.2369891751686581,-0.3899823722860337,-0.6405431100874515,1.3185485057863884,3,left
17.272000000000002,1.4627584977405137,1.440106778134818,-0.237977131308513,-1.0964712574433035,8.445272615866433,-1.2724752983961327,-0.3869688043265205,-0.6442837799420043,1.3198024140915914,3,left
17.272000000000002,1.2440453314073792,1.429387679835867,-0.19669123833519203,-0.6797220802761322,9.017824219692724,-1.25103266725123,-0.3892972389621417,-0.6413251162871374,1.3187652040331286,3,left
17.275,1.025474285263562,1.4089626795956958,-0.14811850904060062,-0.8496700863922906,8.785335742917571,-1.2598537131876808,-0.38809595132933156,-0.6430593843975676,1.3195112022607598,3,left
17.275,0.8495864788975032,1.3655547620657085,-0.09218251245224104,-0.8512389991647649,8.78103715537334,-1.2597709010315663,-0.3882441146441633,-0.642337626024591,1.3189026055730646,3,left
17.28,0.7143679116990563,1.3070561816895496,-0.027595216355928105,-0.7634918440062204,8.90460506164689,-1.2554846717211798,-0.38880724358098334,-0.6425095902726544,1.319555453156586,3,left
17.281,0.6025886464715063,1.238670998861882,0.04219848174753807,-0.8688519073629493,8.75689059148802,-1.2606818690561985,-0.3879508124244675,-0.642516134072123,1.3188348957085259,3,left
17.285999999999998,0.522188100266217,1.1600877346838168,0.11009806324463561,-0.7863982700877188,8.871450248919498,-1.2565359019539835,-0.3887136825312703,-0.6424056097359483,1.3193703666505832,3,left
17.285999999999998,0.4551876072987037,1.0847257603762852,0.16828088492852158,-0.8320876695607433,8.811153610234769,-1.2590727557946386,-0.3883568537325544,-0.6428796865970844,1.3195502425246812,3,left
17.29,0.40228067011728325,1.009617377204819,0.21161650167727913,-0.8187675108842746,8.821463219591466,-1.257786862634314,-0.38809207869616036,-0.6415822259357092,1.318002955371918,3,left
17.291,0.3522277377538867,0.9383602488337498,0.24841166130334258,-0.8122474595496367,8.844179279988609,-1.2584851235708268,-0.3890551231419004,-0.6440792586096735,1.3213664060049717,3,left
17.295,0.3030109858809763,0.8759313364376868,0.280462069719999,-0.8262232234720026,8.808103995543032,-1.2579365452249545,-0.3875327718602034,-0.640466341243167,1.3163900869509662,3,left
17.295,0.25844437737251175,0.823677099569565,0.30494819676017537,-0.8121890825861711,8.840833389292133,-1.2582247220162381,-0.389171569504249,-0.644296794611853,1.3216872694744888,3,left
17.302,0.21447827049493895,0.7798659693107879,0.32873023936574297,-0.8251378552355189,8.82316039477573,-1.258899518766994,-0.3881993883606113,-0.6421166363373254,1.3186386070012408,3,left
17.303,0.18320166234727292,0.7434910301633857,0.34735788427551517,-0.8098210552090912,8.819265269837324,-1.2562387336228553,-0.38748657190568925,-0.6400737413177633,1.3159507804647137,3,left
17.305,0.16665748249777015,0.7151699556072262,0.3560552777611233,-0.8319471153708178,8.84585800269296,-1.2616571242079282,-0.39081125098815706,-0.6487465230593858,1.3276162283276554,3,left
17.305999999999997,0.15843813457913766,0.6915830631586877,0.3622901149523601,-0.8020243439006025,8.801949956419612,-1.2537325388658096,-0.38460847728574066,-0.6327112988032108,1.3060000124689277,3,left
17.31,0.16815131143387366,0.6751661600734552,0.3626255901555145,-0.8333467338653171,8.849545156920527,-1.2621507977913566,-0.3925816542401696,-0.6532901915142448,1.333752635980803,3,left
17.311,0.1924686726353544,0.6618938317385255,0.3612403120909876,-0.8161577856371304,8.820799322525449,-1.2573331588558565,-0.38592151438159433,-0.6361147055592586,1.3105844287146966,3,left
17.314,0.23145840342684273,0.6521490259425142,0.36053241683412923,-0.7968417381155719,8.802190487629229,-1.2529500167936682,-0.38611558603606067,-0.6365618214801303,1.3112066684988462,3,left
17.315,0.2828487171207409,0.6489035246595858,0.355352008752408,-0.8740107474255632,8.893730757826162,-1.2717561727335254,-0.39877060342589243,-0.6693694768508351,1.3554007674669808,3,left
17.32,0.33229753225400005,0.6489979728999138,0.34914141170097646,-0.7322331658476351,8.722147094781873,-1.2369475733383715,-0.3676491585434801,-0.58875394119134,1.2467817814058364,3,left
17.320999999999998,0.4010073650506996,0.6673299962781227,0.3271241849647808,-0.9139788146611405,8.942875761230344,-1.281628904897627,-0.4192550393219512,-0.722411815797422,1.4268768654116801,3,left
17.324,0.44870890087835613,0.6834240646015881,0.3077318847718342,-0.7623777885602402,8.758438026460244,-1.2443317597447292,-0.3511859469131552,-0.5461191244056676,1.1893312314904907,3,left
17.325,0.4617534367146129,0.6889241061298981,0.3012936170148759,-0.7659980479918121,8.764058340224103,-1.2453202854260226,-0.06551346502195024,0.1939183887301434,0.19226890371158523,3,left
17.326,0.5129516301695616,0.7180346371935473,0.27071302073289305,-1.05663823230054,9.11367650918566,-1.3165095505501951,0.002552914140574559,0.37021418094354963,-0.0452759409796301,3,left
17.33,0.5772789989949382,0.7555639641439148,0.22957838553582305,-0.34286488189031716,8.25362352251743,-1.1415576728092416,-0.049046355426347304,0.23654966210623743,0.13481283195028712,3,left
17.331,0.6396512544994,0.8018602268016761,0.18551514312126674,-1.5261666450921958,9.67981342789315,-1.4316322532323686,-0.01793681333342755,0.3171755727448594,0.02621285060446249,3,left
17.334,0.6872767485156593,0.8406361890183208,0.15133296692457973,0.034571284735789964,7.798669290825895,-1.0490232332968992,-0.03057472773543409,0.28435502628252196,0.07036993242628717,3,left
17.335,0.6998842377476062,0.849962717183818,0.14360365318735058,6.587008773069092,-0.0966941705262554,0.5569225130763117,-0.03078766757414071,0.2839196006760606,0.07104519735174328,3,left
17.336,0.7431915340222857,0.8850694277820677,0.11455472446331066,8.147827606438668,-1.9777631269446467,0.9395313655910104,-0.024114830354324636,0.3010911720827798,0.04782227657805635,3,left
17.339000000000002,0.7944425495017178,0.9345304191769348,0.07777508979824915,6.964363201241948,-0.551633403688935,0.6494680321771222,-0.03208271954381522,0.2805001303826121,0.07560276046290342,3,left
17.339000000000002,0.8168420554951699,0.9664771643598972,0.06539348074498755,7.6783693007543246,-1.4117922704027488,0.8243807832034559,-0.02591552582760424,0.2965703954431823,0.054023960940973205,3,left
17.345,0.8290976750582828,0.9971002786204491,0.057718132668944905,7.387471001209006,-1.061749783660261,0.7532717227745342,-0.029168018191680765,0.2878393828706269,0.06555156897250754,3,left
17.347,0.8177920041199938,1.0147086085144559,0.057181243556862174,7.384039699966996,-1.0569392251189678,0.7521646095291055,-0.02855573477548562,0.289951728441896,0.0631117839790507,3,left
17.348,0.7900351194072723,1.0233059441822205,0.056988689175668794,7.53566314944844,-1.2402985726469917,0.7895885658683353,-0.02748527058483191,0.29207928392267557,0.05974699711874158,3,left
17.349,0.7480862402472048,1.0288527855203045,0.048124214509240947,7.353528749380672,-1.0205405331405752,0.7448349417030371,-0.029165095220298278,0.28824216143222364,0.06531397611936962,3,left
17.354,0.689085222752774,1.0263253072560787,0.038105367842312714,7.496154501108672,-1.191897067127591,0.7795744863086613,-0.027728955212952378,0.29196681726772133,0.06029912092490604,3,left
17.354,0.6198021754210683,1.0241735328993204,0.024756931931901136,7.417751443487503,-1.0990816358230595,0.7610614032025389,-0.028418965898148962,0.2892257547348223,0.06325571841429907,3,left
17.359,0.542673523856039,1.0208259652188967,0.011206173594153386,7.438345362150928,-1.1210382704881292,0.7648978750727078,-0.028622423976876407,0.2908780516219058,0.06271265068128509,3,left
17.36,0.4695580636154213,1.0168409582639961,0.006207764163023904,7.454863825803093,-1.1444470889383234,0.7704318374413637,-0.027691945414832636,0.29003730097056757,0.06133457612964768,3,left
17.364,0.4004330957632669,1.0138763373734307,0.013895237084767548,7.422737899746936,-1.1029435862860062,0.7613740856289141,-0.028913240120758143,0.2903392394529414,0.0636042910151474,3,left
17.364,0.33546906160726503,1.0059916528828463,0.031787956668321814,7.455731341235689,-1.1426795910724423,0.7694504864362177,-0.02805379364468504,0.29056327298176504,0.06175606241861375,3,left
17.368,0.27751550573661,0.9970605970415012,0.049950212788942364,7.428037677481251,-1.1144735561648982,0.7648577542138346,-0.027791069533146275,0.28951747440350506,0.06183175749740077,3,left
17.369,0.21997766294144516,0.9943631501689904,0.059475167917140775,7.450493368043588,-1.1297271847788775,0.7653455022338684,-0.02982292396877377,0.29180873230337334,0.06457929811604281,3,left
17.373,0.159831441862179,0.9963554593904161,0.05825215584280213,7.431373843920913,-1.1242998184891562,0.7681423056292986,-0.025846510600818322,0.2880995603641613,0.058756725144909594,3,left
17.374000000000002,0.0946248849688934,1.0028606566861908,0.048847473861999155,7.446493810823524,-1.123744996114484,0.7638713757418198,-0.031027392521415523,0.29266775956818464,0.06649502514474645,3,left
17.379,0.02895690363413704,1.0146935224323785,0.036253136548127035,7.44128496104504,-1.1283171685563858,0.7672034932791236,-0.026670621795474653,0.2889361083711571,0.0599245007824476,3,left
17.38,-0.03639098549623101,1.0262090133316306,0.031916594415462754,7.425828313174158,-1.1190394267871426,0.7673884695157982,-0.026836942042934707,0.28891067835446116,0.06027174454348114,3,left
17.384,-0.09803811363993989,1.03658059977257,0.04125091199430478,7.473242558338784,-1.1352561609403105,0.7616213863726344,-0.035015530390279756,0.2963625766296679,0.07234940568679031,3,left
17.385,-0.14458537049470377,1.0448859424520776,0.05979284569631877,7.3900912105208185,-1.1109433603322652,0.773487243454233,-0.014843904646798895,0.2782293813716623,0.04241985938905877,3,left
17.387999999999998,-0.18777370884214378,1.0474755323772418,0.08673375252339813,7.495141142252631,-1.1400864373225454,0.7578297523263292,-0.048315194288763644,0.30822638673490327,0.09213533178703823,3,left
17.387999999999998,-0.21562463927865633,1.049705584295476,0.10503202749305805,7.4081640160057844,-1.116632420811132,0.7710780861496458,-0.004158035585773422,0.26868501861978084,0.026529601934225697,3,left
17.393,-0.2228693513922011,1.0507263555304842,0.10858362233898236,7.409406183851944,-1.1159180408170164,0.7704485298294451,0.18115859072498386,0.10261506604980741,-0.24873092749669035,3,left
17.394000000000002,-0.24424327255416206,1.046186787766881,0.12171902201707466,7.578214781120395,-1.164229929914931,0.7459085956949854,0.22531497512716392,0.06307656533681995,-0.31433615837138107,3,left
17.394000000000002,-0.26881135090109054,1.0394530324554714,0.13938337884640528,7.164905729867388,-1.047434481517672,0.8066140528546373,0.1918400227661206,0.09305646636297793,-0.26460445895484125,3,left
17.398,-0.28575325119745687,1.0295025317345456,0.1445570634589049,7.849595612931643,-1.2403538024093743,0.7058183661732408,0.21202790789206238,0.07497168663029488,-0.2945935993316506,3,left
17.399,-0.29944683690403395,1.022076563950911,0.14416800245084724,6.946696076420858,-0.9861562857681143,0.8388141583532451,0.20381367721482674,0.08233162982264249,-0.2823917116614734,3,left
17.402,-0.3030545280524125,1.0201521227787271,0.1445782632758601,3.156015182929586,0.08185574830331199,1.3968905310736335,0.20370209126468714,0.08243574647640892,-0.2822299627529232,3,left
17.404,-0.30787161760025117,1.0087389229320909,0.1439405276290735,2.2531031893735873,0.33602135382124815,1.5298763208236337,0.2079979610978886,0.07857303827867283,-0.28860001001620117,3,left
17.404,-0.30762895208769847,0.9896692084313978,0.14156760790048195,2.937700788181445,0.1432865858005864,1.4290688787684906,0.20285576882079517,0.08320343448941113,-0.2809795476044176,3,left
17.409000000000002,-0.2974924110874312,0.9731909393792464,0.13796438899810026,2.5247714747547603,0.2595637653402839,1.4898584214902963,0.20685625713351394,0.07959427128834415,-0.2869031656617985,3,left
17.409000000000002,-0.28281464849796445,0.9539756826750385,0.1249382932749168,2.692763065942952,0.21223288415433036,1.465117724478045,0.20469723969074008,0.08153983845785086,-0.28370444965502084,3,left
17.413,-0.26126730921665636,0.9344802199257953,0.1009364344213107,2.695247185083902,0.21156838302990438,1.4648099955584262,0.20520797549595804,0.08110476782186551,-0.2844799958083304,3,left
17.414,-0.23554565427685883,0.9187060338398236,0.07356858871072891,2.6069024166775154,0.23641348446085134,1.477685071589689,0.20573184482500317,0.08056196649323273,-0.28520334886823645,3,left
17.417,-0.20346536765525047,0.9043266598733428,0.041439730011650966,2.7127982866167137,0.20661708143239038,1.4622891282583212,0.20482492584425294,0.0815018045353397,-0.28395104845323027,3,left
17.417,-0.1707002904958984,0.8945182340568405,0.004709562146742256,2.6302400137641446,0.22985266716611932,1.4742466511893535,0.20565040768810028,0.08060552147931462,-0.28506054340777975,3,left
17.422,-0.13978678989481302,0.8881962776218897,-0.0322750898995327,2.674720220704727,0.21732866137424176,1.4677837236220028,0.2051106598583738,0.08121424014952844,-0.28435195299037863,3,left
17.423,-0.1061725210928319,0.8826827424892916,-0.06718362027797374,2.664916902169276,0.22009885794005424,1.4693994506983759,0.20538500781807748,0.08096954744896895,-0.2847602875509808,3,left
17.427,-0.07385852036300625,0.8787812121485379,-0.09919919911207076,2.6521234462776544,0.2236806819175043,1.4707266459709363,0.2052251506838559,0.08088026030489953,-0.2843497986308646,3,left
17.428,-0.04144822448038876,0.8750938744697145,-0.1271975523782624,2.674261284404973,0.21747718583252984,1.4684272943067027,0.2054399625278137,0.08121931089164217,-0.28506444408978415,3,left
17.430999999999997,-0.010840110927422467,0.8725955618515935,-0.15042799222253478,2.6529692308969444,0.22343853055153803,1.4703829810601254,0.205084600362769,0.08074465673744395,-0.28394637179288307,3,left
17.432000000000002,0.016057380159799496,0.8725493969855286,-0.1705911407825944,2.6675249611140224,0.2193659148279059,1.4691805433546081,0.2055097108949891,0.08120923947878178,-0.2852070974911503,3,left
17.437,0.044926672687295194,0.8700766725821562,-0.18500694232485587,2.661945790584449,0.2209375624820049,1.470010046038749,0.20526474987783783,0.08094020289537722,-0.28447956456635315,3,left
17.438,0.07480279301264142,0.8649298827707703,-0.1943063789041478,2.6586854744012953,0.22180755270176894,1.468744591370394,0.2049501868110465,0.08080085349782358,-0.2836990138246082,3,left
17.441,0.10340811062220073,0.8621929357658151,-0.20051907842509287,2.6692147873484764,0.21895150258713447,1.4711842030955373,0.20619256629114857,0.081530924362221,-0.28691602204615485,3,left
17.442,0.12859960068398818,0.8593364362007461,-0.20271550447718623,2.6542206465626164,0.2230117019927429,1.4674388725186307,0.20389566255372407,0.08017067192362329,-0.28096040621704177,3,left
17.447,0.14911979663946234,0.8586775513141776,-0.20633034520052396,2.6692571825464597,0.21895026717986993,1.4715717492067761,0.20685305233845086,0.08191004631375898,-0.2886198564886201,3,left
17.448,0.1671678276330675,0.861750474413943,-0.21105009187834795,2.6605579923611224,0.22129954518481765,1.4691843426655096,0.20438089288078237,0.08046085852273802,-0.2822203730354015,3,left
17.451,0.18122751656834538,0.865857720223367,-0.21782529256389552,2.655164911238663,0.22273373766979526,1.4668194210958116,0.20443535560279605,0.08051104328542286,-0.28237569548739255,3,left
17.452,0.18968878650646218,0.8752286837804116,-0.22652553535982783,2.681495913969182,0.21569291335676327,1.4767744508334966,0.2091993252365801,0.08322998077988975,-0.2946511404808483,3,left
17.457,0.1952962888271374,0.8866477419747096,-0.23299757621512535,2.63252707090004,0.22878722035438773,1.4583301637482378,0.1975015698248822,0.07653724998134762,-0.2644954529187111,3,left
17.458,0.20149480820289878,0.9009004061178241,-0.24399773937385077,2.6952333151644288,0.21202385491991402,1.482041797442104,0.21689525396994475,0.08763535947374813,-0.3144933242925242,3,left
17.462,0.20616851068568492,0.9118352179386336,-0.25138098677793785,2.6429589996556846,0.22599435696813364,1.4622305331297905,0.19131500903636134,0.07299736847089419,-0.24854533624963168,3,left
17.463,0.2065895013649659,0.9156244760890646,-0.2543681591071308,2.644603484380733,0.2255588107198222,1.4627434831943842,0.0838847313876584,0.011602724440577422,0.028345222446797415,3,left
17.464000000000002,0.2081390386404809,0.9283806314029965,-0.26455900567629276,2.743315782673207,0.19917363627253784,1.5006357906269123,0.05830487085703126,-0.0030351625991003207,0.09429424400712993,3,left
17.465999999999998,0.20783474632380083,0.9442534493316694,-0.27378303273787546,2.5005095064308724,0.2640628650897178,1.4075077919982544,0.07770014377558263,0.008061039514855968,0.04429227540165576,3,left
17.467,0.19694557688517306,0.9604806458474462,-0.2847285916936879,2.903087637592564,0.1564845706567417,1.5619327691933313,0.06599512959548343,0.0013746234971209383,0.07445808947330806,3,left
17.471,0.1892063005324202,0.9744900155066494,-0.293740516561392,2.3721356957498108,0.2983595815650666,1.3582298639459855,0.07077511730485747,0.004080827420882316,0.06216460017489234,3,left
17.473,0.18611848987167112,0.9785868457656911,-0.29521776006481537,0.14433978210508025,0.8938467725540151,0.5033729413654272,0.07080489467821689,0.004149653871375309,0.06203356945782209,3,left
17.473,0.16886940761512653,0.9941522628689219,-0.3006634141661978,-0.38651462956708993,1.0357021356859253,0.2996671550429908,0.06836029911306317,0.0026807482257182745,0.06840985905417697,3,left
17.475,0.1453138168452534,1.017668660266264,-0.30179087760539586,0.015874334995825204,0.9281416892720009,0.4540679053397791,0.07130002180921481,0.004431000182620944,0.06075897032681386,3,left
17.476,0.12011305277914189,1.0343591827536351,-0.2966601551873388,-0.2266758005660967,0.993051079955148,0.36103794558268554,0.0689925774949145,0.003082317176135531,0.06673788392104223,3,left
17.48,0.09019534505126148,1.053772138763872,-0.2923419102495469,-0.12822427445175824,0.9665704939878761,0.3987202404988504,0.07029198314818372,0.003765571975430008,0.06345132506312892,3,left
17.480999999999998,0.06432581634502843,1.0716244185270405,-0.2875067476781779,-0.12642675682511637,0.966323605123374,0.39955166612430737,0.06986572441820228,0.0037125631310602016,0.06434892038241681,3,left
17.486,0.036557415221965955,1.0850202306939618,-0.2878049309557562,-0.17859379483030052,0.9800369254037946,0.3793905673850172,0.06977235068752147,0.0033313504950149165,0.06493551373940668,3,left
17.487000000000002,0.004866429624103583,1.1014102313633891,-0.28697966606538544,-0.11640246047398063,0.9635130313079577,0.40331716824550956,0.07005481587348848,0.0038947516437411334,0.0637832764126956,3,left
17.49,-0.025015861586142545,1.1175055893719334,-0.27566519924134864,-0.16439131262231482,0.9765348823447028,0.3850278325442491,0.06974837662173522,0.003399334490307552,0.06491115340952247,3,left
17.491,-0.060350869412364005,1.1343926825443431,-0.25761110080028204,-0.13936438057481554,0.9692172976927435,0.3942275012591353,0.07011276300385144,0.003604668028417431,0.06397496894855761,3,left
17.496,-0.10565399107944776,1.1575155207962111,-0.23627085305661996,-0.14356075533170612,0.971420619605101,0.39331385364688276,0.0695200466853676,0.0038601867389165224,0.064875595613921,3,left
17.497,-0.1590767949902827,1.1824889038682735,-0.21518929719691182,-0.15261660478383782,0.9725141855274746,0.38898334209358276,0.07051299644813518,0.003069804056189122,0.0637492943303043,3,left
17.502,-0.22104446524149823,1.2070454055063675,-0.19871887588074055,-0.13895320479524598,0.9699198896584671,0.3949087452606176,0.06911828544101326,0.0042982447411757455,0.06520639326821176,3,left
17.503,-0.28859285412726887,1.2298341160566797,-0.18638537964674215,-0.15014757720172517,0.9729210581164024,0.3906191732200962,0.07058898492241727,0.002979662151624735,0.06369454505061227,3,left
17.505,-0.35311306210586924,1.2451368432962098,-0.17032765713177497,-0.14581128591746212,0.969800483665567,0.39101647810018136,0.06976459132655449,0.0037558187727279304,0.06450268694987207,3,left
17.506,-0.408525041445594,1.2517563998281047,-0.14701697028958866,-0.14183821939803598,0.9732217016590491,0.39543613642850506,0.06892810135506369,0.00435362702660721,0.0655237053704463,3,left
17.51,-0.4539084755687169,1.2533865805777737,-0.1213770119572457,-0.15265370823447733,0.9694241153253002,0.3869665982478806,0.07238312360118093,0.0016211042575362633,0.06158585797292265,3,left
17.511,-0.4841617974582049,1.249012844818139,-0.09112370922698872,-0.1393361597313901,0.9729949441507045,0.3966817717345901,0.06601275703793019,0.006709150477183484,0.0687932470439433,3,left
17.514,-0.4966225124700867,1.23590829513383,-0.05444461183732886,-0.14822921865380012,0.9712511856456822,0.3906081276207487,0.07418452288510458,0.0001717971147836019,0.059559487900291606,3,left
17.515,-0.49932352853336076,1.2206341908431413,-0.019132285535196795,-0.15216961929616313,0.9687547564925768,0.3868033713952864,0.06736531622096925,0.005630405956996597,0.0672605466745995,3,left
17.519000000000002,-0.48755745708105597,1.1977015282511585,0.010547932941114741,-0.1280526763675397,0.9778488544089098,0.4060944234350089,0.06753781303376355,0.005477585407876944,0.06708332711471575,3,left
17.52,-0.4642007144087254,1.1658878175008438,0.0340083271533829,-0.17439948347786488,0.961415036722877,0.3696955293307139,0.08058111553311458,-0.004912076429537299,0.05229446623772959,3,left
17.525,-0.4357177226960655,1.1337655835848333,0.050059986814258384,-0.11430608350993246,0.9823635264179121,0.4166579065554976,0.04853567508661768,0.020628296520000228,0.08860893422460772,3,left
17.526,-0.3886610558739684,1.0905423756336845,0.060040891776268895,-0.1647166743065373,0.9649360268518058,0.37735697481642994,0.10166608256109427,-0.02171710049542222,0.02840423331963316,3,left
17.53,-0.35142831564939003,1.057764428622018,0.0638993457343992,-0.16298434947471047,0.9653169575071948,0.3785657669011047,0.03158589574989424,0.03413197698311345,0.10781745276847374,3,left
17.531,-0.34014448035564765,1.0484966289570785,0.06452029243935523,-0.06784375630910813,0.998792090800078,0.4531185202178002,-0.2625840987300131,0.2685714804878166,0.4411781196530839,3,left
17.532,-0.3052605244887439,1.0201866655688758,0.06896889837419584,-0.30221178713794716,0.9166391028006804,0.269667992282862,-0.3326705555400081,0.3244082224654785,0.5206067646149541,3,left
17.534000000000002,-0.2432747416753946,0.974497980669917,0.07349457512190577,0.08656831411808932,1.0528140720750858,0.5739151595015625,-0.27953114688882796,0.28208165120403694,0.460380012520149,3,left
17.535,-0.2078268774041949,0.9514689429809039,0.07452828700882935,-0.4262851131725967,0.873202828993789,0.1725877629850046,-0.3115818615168246,0.30760769146118994,0.4967071245883664,3,left
17.54,-0.19536137427479022,0.9454128534229613,0.07438610183434505,-2.5789246903312475,0.11940600845186347,-1.5118883050373328,-0.29854486903930066,0.2972137717469302,0.4819344711314543,3,left
17.541,-0.15697917748922388,0.9262089463180697,0.06779043411358349,-3.0917565197739534,-0.06023098001421945,-1.9132177590692212,-0.29834797787813816,0.2970968438546933,0.48169622243073384,3,left
17.542,-0.1053498754837101,0.9048403930161948,0.05137486229214368,-2.702955651882775,0.0759600498359301,-1.6089514226483237,-0.30521082201963207,0.30248258782157167,0.48950572675772186,3,left
17.546,-0.06298679954616591,0.8987397904230436,0.025001990238836945,-2.9374888942123922,-0.006140568572341333,-1.7924611168554456,-0.2969847834488974,0.29604452733523035,0.48013781834880864,3,left
17.547,-0.016297696428193707,0.8972721577600551,-0.007900538090736476,-2.8419485116762537,0.027156043395186742,-1.7177920252359073,-0.30339865912032005,0.3010400824364704,0.4874516714644963,3,left
17.549,0.031351961210703536,0.9023705085767951,-0.04262836859825308,-2.8408610834168213,0.02786354890164377,-1.7167508956565185,-0.2999439438617885,0.2983367021267344,0.48351707184591136,3,left
17.55,0.07855894241392881,0.9143618540978576,-0.0764142517181805,-2.890519395369038,0.010013871434489511,-1.7558776070609194,-0.3006998016426281,0.29903744164138746,0.48433505063948196,3,left
17.553,0.1281817225867014,0.9266903998967828,-0.10293741806255524,-2.8309597998114677,0.031325223865269404,-1.7090060599733172,-0.3017083344725898,0.29952453299493376,0.4856023479344375,3,left
17.554000000000002,0.1778085014823479,0.9414826397829965,-0.12539491763465643,-2.8774760989861523,0.014841683995948006,-1.7455192531603139,-0.2999636545829637,0.29867930780448315,0.48341094797243866,3,left
17.559,0.22685743467809838,0.9570476921817355,-0.14272583128816344,-2.851979495386308,0.023377988250006237,-1.7257965257365127,-0.30164847429463615,0.2993532402656758,0.48558313659532604,3,left
17.56,0.2698789752963116,0.9687589770184344,-0.15050562302334425,-2.858779216489809,0.02225480954764388,-1.7303833657153254,-0.3004931429597608,0.2989655671460413,0.48406431769022834,3,left
17.563,0.3076841191896037,0.9756870951794426,-0.15361914964091755,-2.863645358222186,0.018385346435671066,-1.7354548846144917,-0.30092586998928367,0.2993150989929684,0.48455284009411237,3,left
17.564,0.34276668087757584,0.9804871424557104,-0.14838566137361647,-2.854314184900998,0.02430955901814983,-1.7266026913827686,-0.3012264597168165,0.2985658612653973,0.4852822733410983,3,left
17.57,0.3725618232876692,0.9799786040843409,-0.1365294053839937,-2.8633794361068112,0.019017328421273884,-1.7349323881096317,-0.30030075014757285,0.30008785376814506,0.4833447268734917,3,left
17.570999999999998,0.39542369056309196,0.9721452078611452,-0.11889757278126988,-2.8561031810659143,0.021546658258405828,-1.7292493778313027,-0.3016262302281997,0.2977730409727606,0.4861722732704264,3,left
17.573,0.410596748005016,0.960695990812739,-0.09421937280242892,-2.8625580046987444,0.023215559599109613,-1.7320073902837094,-0.3002868917270834,0.30029942349911826,0.4832415419356244,3,left
17.574,0.42134750291123424,0.9467700428852541,-0.06964047808877563,-2.8550516748118957,0.016864075998838317,-1.7313742809473682,-0.3010614743419817,0.29884014219512745,0.48493567582509406,3,left
17.579,0.42986871632774337,0.9313593237758089,-0.04020434575289668,-2.8645154324289974,0.026947359398132406,-1.7309610336184482,-0.30156617346187997,0.29745265580518837,0.4862114875816053,3,left
17.58,0.4307455270539862,0.9156342451707797,-0.01010276147288406,-2.854748747692387,0.01608473717674603,-1.7316541987591005,-0.2991465405943664,0.3033576670957586,0.48038934290300894,3,left
17.584,0.422412016681603,0.9008135649945048,0.012227525644543536,-2.8598836618853696,0.022540725695880608,-1.7308546564413032,-0.303644072837981,0.2924146788678995,0.49119809707565315,3,left
17.585,0.4127470491195147,0.8872457330739296,0.03189933291233908,-2.866831760927063,0.027217968034945143,-1.7321427422849736,-0.297882772536315,0.30647726882079296,0.4773348515861196,3,left
17.588,0.402688538442299,0.8742319912651935,0.04712877798606152,-2.8405480612804923,0.0052934212009914765,-1.7297414898377792,-0.3026861188567552,0.2947314999546122,0.48890104205877993,3,left
17.59,0.38990359146429443,0.8578086919729251,0.05762873516435664,-2.888550354237168,0.046216588167870845,-1.7336111435959833,-0.30253964330381555,0.2950373799555736,0.48856978540514384,3,left
17.593,0.3820986064013697,0.8397983075657425,0.06761094704205224,-2.8270748107899237,-0.006391796367514016,-1.7287724811018634,-0.29345218503552367,0.31748861107838533,0.46659538031138836,3,left
17.594,0.37892340225127075,0.8251245090941798,0.07746201732982229,-2.878338407396509,0.037555580369982466,-1.7327603583139677,-0.31579962669982,0.26231327057577936,0.5206179721083923,3,left
17.599,0.38051762242951925,0.8076231234712907,0.08174123292703028,-2.8771911998651767,0.036266717251961594,-1.7328528389822013,-0.2787488651242318,0.353800014065778,0.4310493804700154,3,left
17.599,0.38592703205391465,0.7964071300776534,0.08341948383619657,-2.778635728686939,-0.047213334479142666,-1.724588317076845,-0.3276134264713383,0.2331236289840779,0.5491832932040068,3,left
17.601,0.3859096416131461,0.7944051527782012,0.08503169660492733,-3.020606822062408,0.15809440939883387,-1.7446681721864277,-0.5326887787650948,-0.2734209323375852,1.0450195502862518,3,left
17.604,0.3944835436546328,0.7822397721888223,0.07035708124537604,-2.6194559420249712,-0.1823554608237965,-1.7114316013126045,-0.5815455426601148,-0.3941065487611298,1.1631435201419467,3,left
17.605,0.4086255733731081,0.7713307145671422,0.0547716466901269,-3.148596754056671,0.2667110636792268,-1.7552707521848758,-0.5445063986059564,-0.3026072819118242,1.073589291268192,3,left
17.607,0.4112168425219176,0.7717455587179993,0.049877428263761424,-5.369676784155192,2.1513856820567008,-1.9395186601869032,-0.5668457810390658,-0.3577878051043312,1.1276032047318774,3,left
17.608,0.41717084404589194,0.7699389253203445,0.024381106895914374,-5.898902605047241,2.600462661059532,-1.9833918232531689,-0.5577535683225676,-0.335351188318137,1.1056194418853966,3,left
17.609,0.42245853526132343,0.7725118306100072,-0.01590671507751413,-5.497659742513374,2.2600014781239386,-1.9501184531794018,-0.5576328415939354,-0.3350014938813609,1.1053259072314041,3,left
17.613,0.41252465730320476,0.7874558978015148,-0.05309734300926337,-5.739595885297851,2.4653049258098254,-1.9701843133103432,-0.5623868442032707,-0.3468199875244956,1.1168239307021353,3,left
17.614,0.39199257427293055,0.8114082799213013,-0.0909960304839158,-5.641345438581579,2.381862382100623,-1.9620418552875736,-0.5566902009249026,-0.33267260746651595,1.1030461551499746,3,left
17.618,0.3594500785847057,0.8465221424341658,-0.1153957301108504,-5.639541891417631,2.3804928078362755,-1.9618716991065628,-0.5611310113437298,-0.34367515558768946,1.1137853651271006,3,left
17.619,0.3152366645928937,0.8931399485371991,-0.12118025828117888,-5.691746578696759,2.4245559143064153,-1.966236145064372,-0.5587222761214006,-0.33779001325421576,1.1079650990635523,3,left
17.623,0.26377901807779425,0.9456179057253549,-0.12011984148724872,-5.629333864349254,2.37183227920808,-1.961022497694682,-0.5593061285887972,-0.33902242425276774,1.1093643467259822,3,left
17.624000000000002,0.20746930640294914,1.0006938321864516,-0.11619303336822756,-5.677740605307532,2.4128051893302818,-1.9650539523225274,-0.5598794724883273,-0.340800600594641,1.1107722965851303,3,left
17.627,0.1512469113109527,1.057221577662557,-0.11366808148212187,-5.652261489929993,2.3909795757009134,-1.9629746995518682,-0.5588559594008031,-0.3378279712734629,1.1082708177679794,3,left
17.628,0.09924622420000723,1.1103580466568055,-0.1149128092810204,-5.65661750064743,2.395338068892763,-1.9632255288276714,-0.5598268172550367,-0.3405805174993719,1.1106396057098658,3,left
17.632,0.05167779434809591,1.1581355653685264,-0.11265982834100524,-5.66621886095214,2.402343308326615,-1.9642132263988128,-0.5591346118830349,-0.33887378670950785,1.1089661811980491,3,left
17.632,0.009660631506575812,1.1993192342669672,-0.09991321162018833,-5.650970547386789,2.3908065827335694,-1.9627129965932386,-0.5595504621414373,-0.33924337850072767,1.1099317693728579,3,left
17.636,-0.023557965125324223,1.2270806942335568,-0.07646386515789155,-5.664804791812095,2.4014273457869315,-1.9640484345960665,-0.5592903314017197,-0.3401037668165925,1.109393907539459,3,left
17.637,-0.045766864954817243,1.2372391561327953,-0.04311394400290314,-5.657336794234816,2.395080532544837,-1.9634308975079962,-0.5595131011248851,-0.3384118674944311,1.1097966721971946,3,left
17.643,-0.05312627608242654,1.2278564527304097,0.00014358215026200223,-5.655682561800981,2.3957522877412982,-1.962943838154212,-0.5593064154025125,-0.3402915065473672,1.1094416855751077,3,left
17.643,-0.046212778234816586,1.1960968856368845,0.053291801552005746,-5.666939313115279,2.400560644655511,-1.9646769164729416,-0.5593771845501825,-0.3390853694574146,1.10952932905521,3,left
17.647000000000002,-0.023549270588281924,1.1399330902773503,0.11577178463575225,-5.64835543569378,2.3918683026572762,-1.9619429979726881,-0.5596791493016967,-0.3386405003447519,1.110186928825512,3,left
17.648,0.015992512145935008,1.0657353003585994,0.18252213796293332,-5.66849998554039,2.4014173266233128,-1.9648849007257905,-0.5587520744920649,-0.34156111124381416,1.1082615585283895,3,left
17.652,0.0663876672317785,0.9797727788253561,0.24905880599376312,-5.656333398797914,2.3954531128035947,-1.9631418444141264,-0.5604000891139858,-0.33596911229756476,1.1116603820571163,3,left
17.652,0.13151599920182896,0.8806419494781055,0.3105477612864169,-5.6484554407635335,2.392525226730286,-1.9618540847979185,-0.5583000309142241,-0.3431888900133786,1.1073344852345843,3,left
17.657,0.20043158648452108,0.7800498578514469,0.3608173511130677,-5.687205854121954,2.4089619476610586,-1.9678408741407694,-0.5600466300455751,-0.337145570684589,1.110930691488678,3,left
17.658,0.27489936926076053,0.6784379633154939,0.38954662906815746,-5.6145709750437165,2.3778260931651367,-1.9566757020308425,-0.5600245618893428,-0.3373702183582321,1.1108924524223296,3,left
17.662,0.3617477923266964,0.5796947828071745,0.39763942954134435,-5.708011859052106,2.4179526692886846,-1.9710253659676353,-0.5566117902175751,-0.34869307882224293,1.1038406042547537,3,left
17.663,0.439201857292916,0.4976538148645651,0.3984088747485306,-5.629930849674857,2.384393679513737,-1.9590416783806934,-0.5649699639533909,-0.3207910647447299,1.121104215513821,3,left
17.667,0.5329562547371032,0.4154683103306654,0.3740644923522838,-5.632317271178916,2.3855297841265806,-1.9593838055929391,-0.5511197779942566,-0.36707220450102407,1.092497420404729,3,left
17.668,0.60095762159226,0.3656186578704176,0.34727543692673696,-5.780310166408805,2.4487725751304916,-1.9821720216148002,-0.5693871300230192,-0.3060263994689824,1.130229098748905,3,left
17.669,0.6116562671142712,0.356707439678529,0.3436856154614227,-5.416236311254272,2.293061313349863,-1.926144241839994,-0.6461118499505212,-0.04987116775911979,1.2886685746151967,3,left
17.672,0.6723179003860085,0.3250245504265921,0.3063920551270545,-6.01997570920642,2.5513066239863953,-2.0190407083991437,-0.6643828353162078,0.01116688640160134,1.3264070536590062,3,left
17.673,0.7319929125022354,0.2987758535974065,0.2669965386092474,-5.223633223234161,2.2106771783743526,-1.896517161157936,-0.6505271280304383,-0.03510615405745604,1.2977959044333582,3,left
17.676,0.7369774026725291,0.3006764238998278,0.2607991878787378,-1.88146025203814,0.7812139928478187,-1.3821783985794105,-0.6588894395342435,-0.007199935265609442,1.3150460777254205,3,left
17.677,0.7765264277491886,0.30378343709653177,0.22139010343712895,-1.0851387259356307,0.4406129101276325,-1.2596691142912144,-0.6554780947678778,-0.018552705751492603,1.3080405708398577,3,left
17.677,0.8159729242037843,0.3323750665287292,0.16220849965910966,-1.6888554486419745,0.6988275297128479,-1.3525501543236986,-0.655445198481641,-0.018714396583860576,1.307917276185301,3,left
17.680999999999997,0.8236239757683493,0.38947303624718027,0.11434084027160994,-1.3247729616872288,0.5431046118674385,-1.29651648752984,-0.6572135340593739,-0.012760225059833987,1.3116237031263709,3,left
17.682000000000002,0.8223086513086724,0.4663374668288416,0.06546764138498445,-1.472841093632745,0.6064491627014776,-1.3193559284469725,-0.6550840726584835,-0.01989262856292743,1.307202703549905,3,left
17.685,0.7981081769091203,0.5678110207622098,0.021012128764257842,-1.4750656434974472,0.6073662975313969,-1.3195878635474783,-0.6567591809473251,-0.014335733206741603,1.3106153501852371,3,left
17.686,0.7587879716445249,0.6843453661000425,-0.02017206188388733,-1.3972167174769452,0.5741212825353933,-1.3077621492995368,-0.655824158513784,-0.01733735692374093,1.3088343485235865,3,left
17.692,0.7065520661838035,0.8103382679341175,-0.05571561859767172,-1.4904265045503229,0.6139351846412396,-1.3219545294799155,-0.6560946141839454,-0.016641817292850157,1.3091347698825357,3,left
17.694000000000003,0.6455988914772534,0.9366638329550754,-0.08325210476592403,-1.4178913215925857,0.5829342815641707,-1.3108571764890118,-0.656252097742615,-0.01586175168161469,1.309776604737121,3,left
17.695999999999998,0.5840610800442632,1.0543856712537671,-0.10404059728297482,-1.4568402219092662,0.5996394109245126,-1.316979133029625,-0.6559045563277432,-0.017224701307832258,1.3088065295582254,3,left
17.697,0.5194120822960873,1.1590797539795705,-0.11350656560365029,-1.4483229540125215,0.5958467555828046,-1.3152561447845814,-0.6562910742326805,-0.01593545737984718,1.3096024887825966,3,left
17.701,0.45615446149954103,1.245491137950967,-0.1099764383536087,-1.437257884111336,0.5913726611208836,-1.3142629020039762,-0.6559139411645307,-0.016820787431096204,1.3092918874433472,3,left
17.703,0.3908482246328883,1.3090190041952532,-0.0923706028782269,-1.456050640054706,0.599092844144951,-1.3162847056269475,-0.6562977193893831,-0.01639416326205213,1.3090144175778242,3,left
17.705,0.32672528131012457,1.3404094992982905,-0.06396843371544286,-1.438544412905489,0.5918586779274908,-1.314284170066442,-0.6558935868384209,-0.016468335901942188,1.3097761111202209,3,left
17.706,0.2728709469100475,1.3344775195859744,-0.027797559400575524,-1.449810917838998,0.5966797178907979,-1.3160241627252662,-0.6562627641200693,-0.016595053254373954,1.3088368346061687,3,left
17.711,0.22926346941753958,1.2882686191752455,0.020353282170673958,-1.4461565069246487,0.5946461988458498,-1.3141752697016147,-0.6560907865931656,-0.016383743974913406,1.3094649288738323,3,left
17.712,0.20933127899128864,1.196520683282384,0.08211683771093292,-1.4432593105079374,0.5944824024961679,-1.3166692883152593,-0.6558140570076874,-0.016630989083469015,1.3097409557747623,3,left
17.715,0.22417320744526686,1.0661709785644762,0.1579907408430569,-1.4502748794536768,0.5958786549739732,-1.3133633416687223,-0.6567880939321188,-0.01634120054470882,1.3080432094088934,3,left
17.715999999999998,0.26775921970707683,0.9118303065791405,0.24157346121949264,-1.4422951714837824,0.5941760343917715,-1.316810263257937,-0.6550377719772509,-0.016691274287699565,1.3113074904606954,3,left
17.721,0.3359577891584007,0.7465303500554399,0.31511747331572604,-1.4476972330648343,0.5954982440667038,-1.3149406859492707,-0.657265038342804,-0.016309529126211093,1.30707413814277,3,left
17.722,0.41364231168188914,0.5899648303337836,0.3738375610911573,-1.4484317144024823,0.594960525540653,-1.3127246963559864,-0.6554142086203822,-0.016599165804860747,1.3106262394354862,3,left
17.725,0.49138045282100806,0.44585590871726505,0.40657653513842956,-1.4387987141114245,0.5945687619105826,-1.3214334851093463,-0.6554509878613854,-0.0166366289345121,1.3105022972235167,3,left
17.726,0.5653482664299669,0.31792936818026374,0.40950357406258053,-1.4578201101774173,0.595790012402666,-1.305461700596756,-0.6590155245010112,-0.015964138994829978,1.303802951478223,3,left
17.729,0.6242467184690261,0.21877210941577138,0.39037459341034136,-1.4331381627121784,0.5941118039060478,-1.325929928301071,-0.6502736783321865,-0.01755083114733506,1.3203096550692384,3,left
17.73,0.6766936328151945,0.12796409709184564,0.33598309553804007,-1.4538455154377545,0.5955562040352769,-1.3088586376937612,-0.6647606522232414,-0.01494581242361617,1.2929251128750114,3,left
17.736,0.7081707552342452,0.07473497475486376,0.2878475365430767,-1.4528892930627963,0.5953481110182868,-1.3092576276334968,-0.6456551887015562,-0.01837174068593704,1.3290512068341125,3,left
17.737000000000002,0.7151784301346806,0.06706501644907704,0.27475766625025605,-1.4147106350681669,0.593151941286153,-1.3420152512847676,-0.5654447932686009,-0.03282825347754678,1.4806487814144624,3,left
17.738,0.7418274737242787,0.03670831439463221,0.23865431856552297,-1.5090077404767246,0.5987454590176021,-1.2615761188508905,-0.5463395830897366,-0.036254259521982954,1.5167750347044962,3,left
17.74,0.7806507623190853,0.025936316845948895,0.17821696750734198,-1.3525503524696791,0.5894252136967068,-1.3949275280884654,-0.5608254112765553,-0.033648893352272724,1.4893897778663343,3,left
17.74,0.7982918131891628,0.04729097958208946,0.14657222455853652,-1.5589105574868143,0.6017153447477115,-1.2190408146009517,-0.5520865481027715,-0.035236486081029236,1.505898336586896,3,left
17.744,0.8029927796446285,0.05512542704692502,0.13646003455527597,-2.4246162611055477,0.6530965453805637,-0.48066048891215424,-0.5556456293054983,-0.03456235268120755,1.499195602965259,3,left
17.745,0.8079749353846355,0.1115353522664213,0.10437228687163472,-2.6308861453754826,0.665346534787876,-0.3047700437680231,-0.5556898946378744,-0.034602067503775355,1.499076304883019,3,left
17.746,0.7994231393579619,0.22734487851833932,0.05225090777327461,-2.4745450662263275,0.6560783962771212,-0.43812345749203463,-0.5538317355503178,-0.0348895040306936,1.5026238653016173,3,left
17.749000000000002,0.7636419204323133,0.3727005682845489,0.0027448206586809572,-2.568813499971202,0.6616577008415157,-0.3576930612602207,-0.5560620483141374,-0.03450866529719901,1.4983923893395321,3,left
