time,gFx,gFy,gFz,ax,ay,az,wx,wy,wz,subject_number,foot
4.365,0.29116859237436576,1.1888769305791003,0.02403159139203045,-0.5662032200973073,-5.172790365642872,0.25352505020044813,2.807060221990008,0.8175273621868164,-3.3119366497059963,2,left
4.3660000000000005,0.2921047977939752,1.1808723513106374,0.06296445897823161,-0.5779203887371619,-5.186290127642678,0.25607271244999685,2.806271276549661,0.8188066676619719,-3.3107626305126887,2,left
4.37,0.29739528233934576,1.181833325394329,0.09401642242359078,-0.5750199612170946,-5.1859497393435605,0.2545413146217993,2.8109164236422863,0.8204675980568749,-3.313422242711752,2,left
4.371,0.29808147507158744,1.1869665549323984,0.11547106149493408,-0.5722695279803334,-5.178003225117708,0.2553770264132932,2.8029857797490303,0.8163753320117073,-3.309462698333559,2,left
4.376,0.289809517249073,1.1983263483664106,0.1219262582131436,-0.5773243993776319,-5.188132454541797,0.25518411992299583,2.8118064028623513,0.8213285949476582,-3.3136809191179717,2,left
4.377,0.2727964426283563,1.2153896240832212,0.11650998118159811,-0.5723441164671608,-5.181559533823374,0.25435208980101853,2.8064638137141236,0.818070172438143,-3.311245053373045,2,left
4.38,0.2474173171294775,1.2317321912141495,0.10153495779493332,-0.5761485490035423,-5.1802461856343065,0.25688785773431133,2.802623522832512,0.8164940808222909,-3.309140962711489,2,left
4.381,0.21606787913215558,1.2510877035673937,0.08290263373138938,-0.5736196871067389,-5.191421842903374,0.252111771333529,2.8208423372624543,0.8256662032162342,-3.3183419628297397,2,left
4.386,0.18317504483341457,1.2698310407237772,0.0676154331806322,-0.5752212995362778,-5.171871651182789,0.2588780088725474,2.786721281110835,0.8081187473268272,-3.301279666107397,2,left
4.387,0.1440868982127018,1.2827127303846424,0.056084286274130195,-0.5743079762623693,-5.193764924399295,0.2517962830819336,2.830655590681137,0.830844815026617,-3.3231891867452026,2,left
4.39,0.10448333848833187,1.2916605835198154,0.04811569415022318,-0.5743037877885238,-5.180410329676183,0.25580030629662287,2.793924486858874,0.8117890243432766,-3.304895977945577,2,left
4.391,0.06753912189801384,1.298006901054563,0.04877349601709884,-0.5759539404427219,-5.171089393929117,0.25952472893574197,2.795001120491218,0.8124335527823354,-3.305396131210865,2,left
4.395,0.030738319181125982,1.3030810530253467,0.055633734006925714,-0.5717823295744375,-5.215922861701422,0.24372812318707718,2.864821865962647,0.8484274014946929,-3.34026589956948,2,left
4.395,-0.0007856894731883739,1.306631037369831,0.059938099873039774,-0.5787990396077537,-5.1318262585936605,0.2729044824073311,2.6930890256838316,0.7597709770605583,-3.2545494179455137,2,left
4.4,-0.041837758652068444,1.3145547379636118,0.06936434335822556,-0.5700470025918475,-5.240150625226123,0.235482879975065,2.977879887773179,0.9068408017065857,-3.3966804749070043,2,left
4.401,-0.07082950187935672,1.3235780778482886,0.07962665974125338,-0.5772473165882575,-5.149577225099717,0.2667072574955789,2.6022183441557325,0.7128261796475996,-3.2091996142146444,2,left
4.405,-0.0790599481437683,1.32569518428154,0.08239294648450687,-0.5772134618169364,-5.152237394969269,0.2658874495356547,1.0254880750753534,-0.10142191615684365,-2.422308264622635,2,left
4.406000000000001,-0.10901338159540243,1.3297243272491408,0.09223054998877764,-0.5630533515095508,-5.324383310407377,0.20628080465596438,0.649801461274617,-0.29545504405961337,-2.234799048969869,2,left
4.407,-0.14641617522608813,1.3377232528323155,0.10688337709304108,-0.5976291489961,-4.900977232176489,0.3527515463065785,0.9346392895785982,-0.14834374594982447,-2.376974363541772,2,left
4.41,-0.18375024083798003,1.3424860618728254,0.12272342409236948,-0.5403804481555006,-5.603101847599845,0.10990755503146399,0.7628464849972539,-0.23706853655718357,-2.291221451303555,2,left
4.4110000000000005,-0.21349161196503136,1.342517887694293,0.1361627802538229,-0.6158706505283628,-4.676983243263008,0.43021614955155213,0.8327221465011994,-0.20098446058335154,-2.3260886165651193,2,left
4.414,-0.2203821587566716,1.3425055302870883,0.1397555785486273,-0.9327229850142154,-0.7895048330823542,1.7746816407188066,0.8337774172554318,-0.2004294204247921,-2.3266606161376555,2,left
4.415,-0.24262628736842257,1.3438756614459342,0.15166870439736516,-1.008229237995519,0.1365812959898846,2.0949966072889326,0.7969994462190982,-0.2194406855140426,-2.3082113557149087,2,left
4.416,-0.27002173417355635,1.337553139609129,0.17012803702220117,-0.9509827728325498,-0.5655341802195276,1.8521489624765803,0.8410772298529262,-0.1966543022127436,-2.3303425250008285,2,left
4.42,-0.2827057680923519,1.3260622224615557,0.1805860513439269,-0.9854825369708113,-0.1420226569287485,1.9986056037647506,0.8067145003221559,-0.21442212464642452,-2.3130615531745873,2,left
4.42,-0.2914831987659774,1.3174067929232915,0.18848538292074501,-0.9715231641702533,-0.31447495744577303,1.9390454910269785,0.8252243482681838,-0.2048539804897463,-2.3223557429232438,2,left
4.425,-0.29029734840837484,1.305160896277396,0.19133796857008395,-0.9711530193900911,-0.31660272269501694,1.9381413720478413,0.8211591720499811,-0.2069353736342175,-2.320439189988462,2,left
4.426,-0.28597759999616623,1.2927837239208808,0.18712479514650504,-0.9787589489990823,-0.22669114811573404,1.9694739778069716,0.8157995448971287,-0.2097604837677794,-2.3174033486033228,2,left
4.428999999999999,-0.2775075870240745,1.2881855128439588,0.18274640518963486,-0.9696986289361763,-0.33448330065707294,1.9319604119521827,0.8250706276914235,-0.2048745682369747,-2.322651807996234,2,left
4.43,-0.26367257859521087,1.2850692097306915,0.17993866532206584,-0.9766707848219705,-0.2503808272886521,1.961147094429141,0.8161392115694599,-0.20960696933346257,-2.317431959473357,2,left
4.434,-0.25153451019978246,1.2844584325560788,0.17983008490456676,-0.973173069223443,-0.29621398582648284,1.9454971047797145,0.8222524454964644,-0.20635447393892647,-2.321090573115306,2,left
4.435,-0.23558672981039866,1.286237686616567,0.1856240790805288,-0.9733563461786935,-0.2846063739727893,1.948865613566273,0.8199324158880962,-0.2075516654544039,-2.3199382327674636,2,left
4.44,-0.2166804408197414,1.2858733609741773,0.19413501274495454,-0.9754800100817359,-0.2746617890101273,1.9534168212055767,0.818468539390683,-0.20848474002295037,-2.318079930079235,2,left
4.44,-0.19688608612726835,1.2874100876392895,0.20005881755925886,-0.972379719194027,-0.29293305241330125,1.9457337338781049,0.8230934975002104,-0.20569184003892327,-2.32296506303291,2,left
4.444,-0.17488218377885464,1.2883750124153965,0.20081131917898226,-0.9750907136531656,-0.2754294095148113,1.9528745605799884,0.8164915981152254,-0.20970439822561562,-2.3158260725490676,2,left
4.446000000000001,-0.1518385505486741,1.288274047194975,0.1937602555332354,-0.9740318650165749,-0.2885598413610977,1.9483432089116093,0.8231344989419183,-0.20563104250730269,-2.3232391156415906,2,left
4.448,-0.12814194062759282,1.2879330383942995,0.18030062974393418,-0.9724274239365751,-0.27900539896422494,1.9496299717085404,0.8192924633111285,-0.20798629920658343,-2.318954318941849,2,left
4.449,-0.1058725226524734,1.282654369131131,0.1607387708627022,-0.9771609250066883,-0.28775507052286164,1.9512146684190672,0.8168541750117884,-0.20956622421639604,-2.3156956743839565,2,left
4.453,-0.08542814328303097,1.2764630077658041,0.13279937528271402,-0.9698434793168533,-0.27783596303170355,1.9477667348733978,0.8286550994671762,-0.20206998442473567,-2.3305186788835384,2,left
4.454,-0.06585139792999364,1.2698435860744224,0.10059133143327254,-0.9776922379585062,-0.28782639511026,1.9516441909072821,0.8067150644547827,-0.2159995631429667,-2.3030027009913496,2,left
4.458,-0.04878067787984279,1.2584039698658027,0.06918673778394682,-0.9730810225202675,-0.282975512657949,1.949084934238269,0.834813351981783,-0.19815212855169256,-2.338296819292437,2,left
4.46,-0.033994171655235245,1.2449902477817612,0.040377885285940614,-0.9694815131296478,-0.27422868159097324,1.9484580927399435,0.8113903083218581,-0.21303304111671587,-2.3088502273274933,2,left
4.4639999999999995,-0.022406386671535612,1.2298970995639473,0.01739164865072701,-0.9858508648247367,-0.3050364751696747,1.9537866751816417,0.8121123182024511,-0.2125872026188152,-2.309688123273543,2,left
4.4639999999999995,-0.017421262488567464,1.2150144802349363,-0.00026953872477366095,-0.9553808250299214,-0.24925160865288165,1.9434380125828257,0.8563923375687117,-0.18440435913031272,-2.3656530090384793,2,left
4.468,-0.014833017243320465,1.202160756645057,-0.013753946492406452,-0.9945335100008942,-0.3205798323405983,1.9568311488458388,0.7474958552669158,-0.2537013025126862,-2.228073603063769,2,left
4.468999999999999,-0.010428014076820648,1.185348003459576,-0.019743846713441874,-0.961832471400239,-0.2611534355015838,1.9456070766204698,0.9280384247090783,-0.13881408630219386,-2.456175476350758,2,left
4.473,-0.009972706871596269,1.1735449606638693,-0.020683783128471238,-0.9627662134286974,-0.2622932205580264,1.9460744741237022,0.6899319445151648,-0.2903314445221531,-2.1553290696076823,2,left
4.473,-0.010197645550320598,1.1705545403290711,-0.019827503510636973,-1.024970058819128,-0.377146264061314,1.9669406799468723,-0.30934395668478,-0.9262766788100965,-0.8925625530394563,2,left
4.474,-0.0061650667191591605,1.1598487815279417,-0.01656684842709158,-0.872014580434052,-0.0954024990015874,1.9154604979571628,-0.547408024324993,-1.077765965505347,-0.591744965714392,2,left
4.479,-0.009664177900045912,1.1479598219741385,-0.010570141741046616,-1.1256492368808386,-0.5624060898180402,2.0008678820659913,-0.3669283985354532,-0.9629179330360209,-0.8198071499682256,2,left
4.48,-0.016534220662815277,1.1455219869723954,-0.004851321063766737,-0.7910895091728175,0.05356042721085383,1.8882105502510436,-0.4757819204823931,-1.0321952147250688,-0.6822460215859019,2,left
4.484,-0.01795346815873233,1.143653762177369,-0.0035376427655036064,0.6129825367337538,2.639719892511075,1.415583999534756,-0.43147423418645686,-1.0039759742767012,-0.7382522073948267,2,left
4.485,-0.025564022372120444,1.1418078184386986,0.00026168595285641963,0.9475646641110599,3.25574963134447,1.3029441753635131,-0.43089495896890884,-1.0036514375617358,-0.7389597343978636,2,left
4.485,-0.038710602791166074,1.141722470582458,0.006566342843982054,0.6939057677243072,2.7886776384416336,1.3883326211543756,-0.45404673239533866,-1.0183240092603862,-0.7097332968660743,2,left
4.488,-0.05279161619539281,1.1412349758489835,0.005404401702409081,0.8468520463704416,3.0703953889530253,1.3368452213977162,-0.4263017896660419,-1.0007270332386018,-0.7447666753812539,2,left
4.488,-0.06914109058816435,1.1415143313044398,-0.0004821735572304238,0.7847285543887996,2.9557692390317096,1.3577742877961074,-0.4479348247338304,-1.0144686999485928,-0.7174402923072768,2,left
4.492,-0.08612969350090634,1.1383593762278388,-0.006988025514066383,0.7836218977315716,2.954141262912562,1.3581064514763634,-0.4361865886398535,-1.0069413762190305,-0.732309554006155,2,left
4.493,-0.10459337094686483,1.1305115452408292,-0.010844125736875135,0.8165708801380995,3.014267627375454,1.3470762621880012,-0.4390677493376053,-1.0089379352502295,-0.7285963125673967,2,left
4.498,-0.119955020027935,1.1223796041046292,-0.005589832343370821,0.7771712707555891,2.942242381142592,1.3602763501514539,-0.44179897950769,-1.0103956622122567,-0.7252682620143756,2,left
4.499,-0.1334212319685435,1.1096942910202756,0.00648244614095488,0.8077478986603527,2.9983280015915907,1.3500109496964483,-0.43688848406719416,-1.0076145351449615,-0.7313229804614505,2,left
4.502,-0.14487478845960727,1.0906276440382945,0.020365505430558067,0.7915904806270475,2.9681187457433227,1.3555053847598018,-0.4415578947444771,-1.0103120153831484,-0.7255419398690608,2,left
4.503,-0.1457125090549226,1.0700758768133274,0.03884439317798957,0.7945071159776832,2.9749375162292964,1.3543444237258382,-0.4381845991590314,-1.0081629774742555,-0.7298062003415502,2,left
4.507,-0.13959610431808525,1.0476023221211619,0.06377978173814342,0.8002950522964679,2.983110530023863,1.3527053990817375,-0.4403242922616617,-1.0100328167904915,-0.726879720115679,2,left
4.508,-0.1280566425867861,1.0227118926837646,0.08869326291091426,0.7910020556469025,2.969043007677847,1.355453582898476,-0.438797350958417,-1.0078995772950785,-0.7293171094602398,2,left
4.512,-0.10937978701599571,0.99831413357519,0.10898915937601748,0.7994710764635897,2.982212571154895,1.352905835265914,-0.440270058369163,-1.0105697554758937,-0.7266991232425799,2,left
4.513,-0.08770397149218309,0.9778846434523821,0.12452008000411437,0.7947474721802877,2.9734918602290294,1.354498840568202,-0.4388498796186624,-1.0078183143139343,-0.7293000604652993,2,left
4.518,-0.05842722951399789,0.9610226580523986,0.13664179627243742,0.7942157328428293,2.9770143294076528,1.354114438958831,-0.4394338505113693,-1.0092580360753716,-0.7280972175641756,2,left
4.518,-0.02187579134170421,0.9471531119968102,0.1432404215738753,0.800157127133821,2.9776689731511796,1.3534017340225613,-0.44110991349703343,-1.0112437421622522,-0.7255754626369479,2,left
4.522,0.018493584438281658,0.9362594124491639,0.14556606892253443,0.7901616367688564,2.974607514792175,1.3548461767043354,-0.4356937049194424,-1.0037711675961254,-0.7341804588940724,2,left
4.523,0.06502328288589602,0.9306285295512946,0.14962551590338175,0.801028023463839,2.978259147835941,1.3532350603402932,-0.445392201913419,-1.0174104232891579,-0.7186621770532415,2,left
4.526,0.11195756174872633,0.9352119022087463,0.14598545206628594,0.7944160562177163,2.9755368262506368,1.35427879739213,-0.4330158821587946,-0.9999445389500009,-0.7384884693132162,2,left
4.527,0.15977112878275476,0.9418761663456385,0.13495939114151395,0.7903669927781973,2.976224618834597,1.3546208588320239,-0.4433178559600568,-1.0145087034162281,-0.7219786995276978,2,left
4.531000000000001,0.19588280053726764,0.9600159140039326,0.11633446953433176,0.8107900755216723,2.978180518557115,1.352209912076527,-0.4431573026332726,-1.0141848524133403,-0.722267302119882,2,left
4.532,0.21259387284199505,0.9895186139314092,0.0840795620732698,0.7724267829165934,2.9736581852703337,1.356847204071373,-0.4231231834705079,-0.9861773347200455,-0.7542624040017405,2,left
4.5360000000000005,0.2136620990622266,1.0285581384741347,0.03763632908547029,0.821797762912589,2.979664219751579,1.3508537253885637,-0.4722274032097111,-1.0549390436455828,-0.6758135123928689,2,left
4.537,0.17187005348910567,1.1114466109672907,-0.038967754766188814,0.7805341281293577,2.974571837758967,1.3558755078975167,-0.39084310671535694,-0.9409422645880126,-0.8058304889365142,2,left
4.542,0.12891185613189127,1.1818746739161585,-0.09757031055880053,0.7818255398861687,2.9750147182126208,1.3556749012436016,-0.4981896770183778,-1.0913117548950486,-0.6343509471122571,2,left
4.543,0.11725057247758387,1.204019055483645,-0.11364491738126975,0.8599384955524165,2.9837173543888085,1.346304962365271,-0.9489035288685375,-1.7224799204713275,0.08574941906010466,2,left
4.543,0.07593301968742976,1.2773380037243691,-0.16566763108841392,0.6677367659232718,2.961974422708783,1.3694176858965261,-1.0562719258118634,-1.8728761535072247,0.2572338702852237,2,left
4.546,0.031200481035477793,1.4039172229302914,-0.24147421368046393,0.9864748124936358,2.9981083159483717,1.3310668464482307,-0.9748640101027247,-1.7588504391138815,0.1272115793174609,2,left
4.547,0.021329148668887528,1.4747451924155717,-0.27468776397740274,0.5660495659858882,2.950452344317644,1.381664389032155,-1.0239592632607484,-1.8276011487252175,0.20565846056370257,2,left
4.551,0.019555467814642416,1.4961124880648318,-0.2849663726664642,-1.1983521663586885,2.750729348068866,1.5938317513953801,-1.0040034464190537,-1.7996895967807784,0.17368095766316327,2,left
4.552,0.032015690765772944,1.5557374067436025,-0.3012914591259943,-1.6187690586320038,2.7031321851848116,1.6444416941600979,-1.0036743952710652,-1.7991592563707242,0.17335447512934105,2,left
4.552,0.06418021988467529,1.6248859873080237,-0.29845199383842713,-1.3000400538630035,2.7392024663758634,1.6060774317129152,-1.0142179771641062,-1.8140194903381346,0.1899185678826893,2,left
4.556,0.10942687728273932,1.657203118442321,-0.26541451052415294,-1.4922452103447648,2.717435281552214,1.62918507678719,-1.0016010456782927,-1.7962587755809838,0.17003816777041056,2,left
4.5569999999999995,0.16124203474309373,1.6730505928551764,-0.2387663618037043,-1.4141022947515047,2.7263490858291157,1.6198595908682702,-1.0114034002368983,-1.8100252581061391,0.18557982124260686,2,left
4.56,0.2105253894077983,1.659631939169015,-0.2441781762481841,-1.412875360486015,2.726337685678258,1.6195633048641178,-1.0061937200755087,-1.8028058279998866,0.1770212302047916,2,left
4.561,0.2486334386518851,1.6179331196065299,-0.2820022035342774,-1.4540465356796983,2.7218965904660086,1.6247222987253447,-1.0072043475257657,-1.803976034953841,0.17939340171602963,2,left
4.566,0.2695766669897083,1.5608527965204626,-0.33439114157455724,-1.404767641066863,2.7272541534704313,1.6185921529687648,-1.0089349768462474,-1.806820924440271,0.18085403945836503,2,left
4.5680000000000005,0.2853741073429465,1.483050774115793,-0.4012560227126683,-1.4430911728125615,2.7230114857512193,1.6232884759361514,-1.0061074704114703,-1.8023449599383587,0.1779366635246197,2,left
4.571000000000001,0.3198512860865649,1.384918936804549,-0.5005253385394461,-1.422589079151345,2.725524553233523,1.6209947447063193,-1.0087023020480046,-1.8063900562998856,0.18080701922507364,2,left
4.572,0.3966445653912605,1.2613884387833778,-0.6101477754849817,-1.4268927683164567,2.7244181021577303,1.6209589783691154,-1.0071850509561457,-1.8042689663510556,0.17837167350612615,2,left
4.575,0.5128882966634999,1.1270900040676892,-0.7031638053933569,-1.433065942591039,2.7247870260070783,1.622653866937041,-1.0072430882401429,-1.8035875573767053,0.180830293701279,2,left
4.5760000000000005,0.6446082746704698,1.00409912189771,-0.7753956851769732,-1.4227381308725815,2.724645256796732,1.620243477518207,-1.0086276307092965,-1.8072691576399507,0.1776356217811951,2,left
4.581,0.7605539214892831,0.8943268715556651,-0.8260505364319368,-1.432304144801729,2.724607587136279,1.6223253584390425,-1.0061986685328694,-1.8012681223454425,0.18182071081813472,2,left
4.582,0.8144106735487779,0.8074262077630101,-0.8461699424571697,-1.4263591497210826,2.725290316628922,1.6216178299334567,-1.0088557621597167,-1.807760005423272,0.1774676820068889,2,left
4.585,0.7792682359609162,0.7644290546812333,-0.8277638615901386,-1.4276873643161432,2.7231988205620565,1.6200516673921732,-1.0072135426906366,-1.8038595344582289,0.17981187944831944,2,left
4.586,0.6640323391728982,0.7709440154606262,-0.8010241199798427,-1.4305903465819125,2.727305820532212,1.6243463049964268,-1.0063274426944857,-1.8012379158729201,0.18267894196257442,2,left
4.59,0.4667479528871762,0.8269311622755469,-0.8196414790064184,-1.4248377280731366,2.7213401809422226,1.6177674250888994,-1.011072347703549,-1.8139234692337876,0.17151701380913353,2,left
4.591,0.18653954218857377,0.9432261749201292,-0.8913996626455432,-1.4312345699896445,2.7276692085280523,1.6248137969726844,-1.002116278662001,-1.7901795149080364,0.19196643146208286,2,left
4.595,-0.14712444711919076,1.117127098821715,-0.9589283451611152,-1.4271207052641128,2.7240607161276884,1.6206897562471916,-1.0136516122037889,-1.8207165382419164,0.16576506664012663,2,left
4.596,-0.5071836580448388,1.3133671075695892,-0.991320949288386,-1.4256450658189994,2.7207119904152526,1.6173914137347385,-1.0040068219081095,-1.7952035398718007,0.18761569952215862,2,left
4.601,-0.8232113528679612,1.4882575896827168,-0.9755071513265443,-1.435491591887682,2.734976310490901,1.6322500511299722,-1.0043230896023112,-1.7959687524854298,0.18711331805901213,2,left
4.601,-1.0491348055363088,1.625395866813169,-0.9062063460431626,-1.4166204025018836,2.70859527223067,1.6046145286485891,-1.0225332514133454,-1.8443704708991508,0.14515821839901183,2,left
4.605,-1.16859283132507,1.71696008219347,-0.7951937604744295,-1.440987856693098,2.742451344786807,1.640122701366071,-0.9777092404171391,-1.725318415293006,0.2481721405302465,2,left
4.606,-1.122740606173176,1.7526633420384032,-0.6202442673425087,-1.4205910775585455,2.7141971234082716,1.6104629208098513,-1.052047137142638,-1.9227327643038596,0.07739980540429126,2,left
4.61,-1.0232066251163274,1.7521589168653366,-0.48658981646716815,-1.4213519979718898,2.714928074498413,1.6113121703771793,-0.9539934228786167,-1.6623449857675288,0.30264255762713227,2,left
4.612,-0.9757626078741648,1.743280341822215,-0.45006475053755035,-1.4595551946478782,2.768905252727806,1.6677339933776065,-0.542505077601942,-0.5694508176356808,1.2482555519130467,2,left
4.613,-0.8096892312972044,1.7077951059330352,-0.33712358812793336,-1.365414442701531,2.6362844538458576,1.5289825262243566,-0.4444561796823301,-0.30907652047077155,1.4735043760005488,2,left
4.615,-0.482787120037304,1.6266564861117268,-0.1549523126025658,-1.5215612567250205,2.856152241062517,1.7590816906524331,-0.518788868894422,-0.5064762833083011,1.3027254765451115,2,left
4.6160000000000005,-0.27940725901944075,1.5691554265366494,-0.06611828401002898,-1.315607844884583,2.5661666025002163,1.4555417294901867,-0.4739628637619325,-0.3874186809540044,1.4057368823239977,2,left
4.619,-0.21881636591663606,1.5533269009314548,-0.038597444970903456,-0.4513779614418805,1.3488213551047912,0.18168594145962194,-0.4921903360767361,-0.43586878080377134,1.3638036105739129,2,left
4.62,-0.03480193963206851,1.5044253126394642,0.02937861536184733,-0.24547236080141827,1.0588794540014135,-0.12195405769240797,-0.49246937491576165,-0.43652989367066186,1.3632542881727965,2,left
4.621,0.16500729958281818,1.4578254195710931,0.09514151382540044,-0.40155756783881036,1.2786773879805446,0.10830305634436752,-0.4828779497301737,-0.4111661539978586,1.3851722051665885,2,left
4.624,0.23360280958084761,1.4616109839930254,0.1120496111833259,-0.3074321313660483,1.146118400803502,-0.030583337508802697,-0.49436015964050634,-0.4415545458402874,1.3589038639800775,2,left
4.625,0.2535114778563188,1.4915685872202131,0.10966006607467627,-0.3457347826101361,1.200088013178572,0.02584249027016583,-0.48542698111270727,-0.41787472506675316,1.3793821350680018,2,left
4.63,0.21067738594064842,1.554440323009688,0.07885938239301266,-0.3462335235415637,1.2007253227564054,0.026925651766459138,-0.49021757624696244,-0.4306879058489895,1.3682778254421284,2,left
4.63,0.12356147802457697,1.64517771044523,0.02535163841461519,-0.32625123966020175,1.1726933707408447,-0.003263688702027128,-0.4891844200976499,-0.42765515713661223,1.3709594637409008,2,left
4.635,0.02828739727837525,1.7497681818909627,-0.017521607307264042,-0.3501577465880703,1.2062181751394068,0.03301437445787309,-0.4877955138893221,-0.4244630843801419,1.3736230520685109,2,left
4.636,-0.0840468830397246,1.861414371845899,-0.05226253384522364,-0.33157495155040695,1.1801842282950834,0.00459620953657856,-0.4901418036628942,-0.43008558127292124,1.3688781597332011,2,left
4.64,-0.20624600154553385,1.9617683602624378,-0.08902633112638332,-0.34161104983221574,1.1942625674363452,0.019831723803153713,-0.48796051722195766,-0.4247776684386858,1.3733754981833461,2,left
4.64,-0.3558866665293098,2.0453852960905134,-0.12176789980807595,-0.3391699480563254,1.1907036568280653,0.017104956493981718,-0.48934752492956957,-0.4284654322201513,1.3701839843618684,2,left
4.644,-0.5210976407808094,2.0987926659573946,-0.13843211881081396,-0.33692100310035866,1.1879166805777086,0.010982537229099268,-0.488945349568804,-0.42649780162456596,1.3720622909230331,2,left
4.646,-0.6800634914160089,2.105425413849221,-0.12283637888276301,-0.3408153095299895,1.1927498051027388,0.021557476179044396,-0.48847936924727214,-0.4273161800015605,1.3709524736705783,2,left
4.648,-0.82824626654803,2.061484642327133,-0.059954173041218604,-0.3373771476132977,1.1887051180762649,0.010558426641797897,-0.4895062510456972,-0.42697604773864983,1.3718459023883929,2,left
4.649,-0.9449229180069365,1.9637206084146683,0.04203238386343366,-0.3395658562825519,1.1911529545633623,0.018512227323451612,-0.48834975652650775,-0.4271748653292692,1.3710353084674698,2,left
4.654,-1.0274477432670381,1.8235593092766096,0.17371319491252651,-0.33828465002308183,1.1893414772468436,0.016665556053449604,-0.4891156731196037,-0.4273186577714564,1.3712798063015712,2,left
4.655,-1.0752604238187087,1.6552891491713497,0.31478759554524205,-0.33963659021334924,1.1924260370997837,0.009887721467139909,-0.4892921733996294,-0.4261604396062,1.3725999769749744,2,left
4.659,-1.0843026079117601,1.4726584103456806,0.43059910574510113,-0.33724710272312086,1.1863653643921432,0.026408832104266484,-0.487727732635603,-0.4291312898861964,1.3686377534631764,2,left
4.66,-1.0670684318940133,1.2929925691993545,0.5069482340748503,-0.3409758424410485,1.1956362173776172,0.002004416278574518,-0.49077215595927487,-0.42399979759882606,1.3756585928889473,2,left
4.663,-1.006764358122902,1.121263924630354,0.5324723481621049,-0.3367835564481586,1.1854488050732832,0.027699203656410563,-0.48683055204801834,-0.4305050104168583,1.3667161606769396,2,left
4.664,-0.9204477121512169,0.9701883979126341,0.5198805181295885,-0.3392053281508808,1.1913317864264659,0.012852600868675774,-0.49013474574674737,-0.42510682365534286,1.374153349461202,2,left
4.669,-0.7986850165436572,0.8432453720890538,0.4936021128628736,-0.34176701579123153,1.1970785953262293,0.0007514364193125199,-0.48999420274274863,-0.42512485445533743,1.3740631029285302,2,left
4.671,-0.6397958026038741,0.7386197755983374,0.47432318443885474,-0.33116503954563425,1.1728024418115917,0.0546058415079123,-0.4838602687443796,-0.43584192118132004,1.3595146512735203,2,left
4.6739999999999995,-0.4870205628391507,0.6639728536618777,0.4812659830901575,-0.350800532755261,1.2177792472089517,-0.045304211481420595,-0.49899807728360535,-0.4096481191021355,1.395144911125746,2,left
4.675,-0.2616288782025006,0.6047019883651751,0.48196219985146377,-0.3255428357937653,1.159970828500263,0.08291744936990891,-0.47388173582978765,-0.4530448140012382,1.3360979537351394,2,left
4.678999999999999,-0.1009705102946969,0.5715181905300994,0.4748424973786953,-0.34665490142310884,1.2082577273861292,-0.024088028233570532,-0.507013321327,-0.39580159850263685,1.4139829821712282,2,left
4.681,-0.05808642197934095,0.5656497665274773,0.4702318510010689,-0.34611590280858906,1.2070216993463758,-0.021149721575734373,-0.6459875144547452,-0.15540685027874077,1.7410098897659647,2,left
4.681,0.11822735831516203,0.5467351091958552,0.44015977571637316,-0.30568832156599174,1.1146455207259323,0.1826499369183933,-0.6791164148065034,-0.09813649341485091,1.8189178164741597,2,left
4.683,0.34077976732083226,0.528042135243418,0.39140656099100135,-0.4050510275539212,1.3416413136554066,-0.3182583639190044,-0.65400297959724,-0.14156255414082186,1.7598460856173603,2,left
4.684,0.5480755415726393,0.5262965001472246,0.31390366786625734,-0.2402759834784844,0.965266509038238,0.5122227907998362,-0.6691418891855657,-0.1153799182721165,1.7954669195567199,2,left
4.688,0.7085278847545209,0.524043905633713,0.2522339628723397,-0.45764353463735763,1.4617205382998608,-0.5831272986599985,-0.6629983265113443,-0.12599958269615336,1.7810006540323269,2,left
4.688,0.7458901894037411,0.5249122443298179,0.2365142846401459,-1.3696523734879245,3.5457718182177245,-5.181578327679153,-0.6628785061399092,-0.12622718988813714,1.7807335784661842,2,left
4.689,0.8803446157828582,0.5306534564222094,0.1893143741919508,-1.587020640786883,4.042253806411148,-6.276932887749773,-0.6661529835283706,-0.12052851067043195,1.788424300358175,2,left
4.6930000000000005,1.0651184141573378,0.538005382658833,0.14022807463114512,-1.4223002553258923,3.665833566870716,-5.446346343853091,-0.6622409761819257,-0.12733295430586072,1.7792294068864636,2,left
4.694,1.178854478669906,0.550158435597878,0.1315287420185422,-1.5214663198866243,3.8928716411311717,-5.947608963950296,-0.6652726192538754,-0.12207234381340451,1.7863591697461816,2,left
4.698,1.305812256520551,0.5640274497675242,0.13230721108349824,-1.4814460968871206,3.800484918441088,-5.743091093456058,-0.6636827863440877,-0.12478625409662104,1.782613758247106,2,left
4.699,1.4132934697499082,0.5757533468572911,0.14105056043255534,-1.4803010376145842,3.799197498336457,-5.741207584265588,-0.6639411208627588,-0.1244557325205201,1.783235553339397,2,left
4.703,1.506393320414672,0.584383594673874,0.13661358913722316,-1.5020655698402705,3.8476173931640005,-5.847093414912589,-0.6645660114612428,-0.12317335698743083,1.7846833609533064,2,left
4.704,1.6049113599419143,0.5888790947843439,0.11129849936910294,-1.4764285797513637,3.7896024508502917,-5.71949615123406,-0.6635826147289252,-0.12512245298980393,1.7823960261674747,2,left
4.707,1.690298247148492,0.5890414442841321,0.07605245690729924,-1.4957255631135353,3.8348059515982076,-5.820047689357526,-0.664471459492451,-0.12338689550886779,1.784466751068019,2,left
4.708,1.7706825874301502,0.586970305754813,0.02776096939399635,-1.4866063936828344,3.8103901025208033,-5.763558190868013,-0.6640043298549698,-0.12419288138410627,1.7833675013155494,2,left
4.712,1.8393052634586737,0.5882728627883664,-0.020062471344379926,-1.4863822363430816,3.8160415172173368,-5.7805367439033635,-0.6638581294026011,-0.124814692848923,1.7830608831613484,2,left
4.712,1.8935121309249845,0.5969305512793085,-0.05906018091801021,-1.492473941027911,3.8223984467124135,-5.789029489697516,-0.6646600026604026,-0.12258464216276742,1.7848625111335386,2,left
4.717,1.925928593808793,0.6127408377518873,-0.08728851927681239,-1.4849781431169653,3.8113006875759354,-5.768955038180372,-0.6633517594156574,-0.126105210313101,1.7819110038630814,2,left
4.718999999999999,1.9311197713100743,0.6379679376424507,-0.09532669946296309,-1.4895468712068716,3.82178822823176,-5.792132259089652,-0.6647672200172388,-0.12231625769894447,1.7851066226226435,2,left
4.7219999999999995,1.9071310988373116,0.6709972692734008,-0.08853213151074879,-1.4912950434492172,3.8146085014984488,-5.768108675591386,-0.6639163872709788,-0.12456218986445415,1.7831824727517258,2,left
4.7219999999999995,1.8466366007076196,0.7099265051481574,-0.07828326940734126,-1.4816112655885836,3.818026911808963,-5.794353436956333,-0.663346315470337,-0.1262169905269549,1.7819083929939312,2,left
4.727,1.7617511423888592,0.7564547912651187,-0.069829082733641,-1.4980631758592406,3.817502543670417,-5.765292706796186,-0.6661086581768715,-0.11851490350109742,1.7881141607115063,2,left
4.728,1.66318817439537,0.8067182873641412,-0.0708664337412821,-1.4797881105359236,3.816386272878664,-5.792579646744513,-0.6609375481500233,-0.13288098263707207,1.7764915484544965,2,left
4.732,1.546266158080885,0.8589505985832683,-0.08194769980355013,-1.4908463370877096,3.818156066884075,-5.779288496186682,-0.6675884302975608,-0.1144164608802405,1.791441511969025,2,left
4.7330000000000005,1.4231566241949682,0.9131677577251511,-0.10028287168319391,-1.4988273642891339,3.8161845808083337,-5.760135683049703,-0.6620313846067665,-0.12983771326572274,1.7789494641101946,2,left
4.737,1.284102978504198,0.974194490079102,-0.11848465862913615,-1.4610301866749893,3.818358936571831,-5.829760905534851,-0.6621990425973932,-0.12939464801820985,1.7793289498629261,2,left
4.738,1.1344327176116038,1.0348518151387276,-0.13104980798187432,-1.531812271208835,3.81585435102605,-5.703993161267088,-0.6727389767820435,-0.1000764619569587,1.8030145679342873,2,left
4.742,0.9939096593604814,1.0903298040472738,-0.13492369470962573,-1.4406636050234434,3.818515420406802,-5.864278624018148,-0.6468124647002613,-0.17216463504343416,1.7447481075784737,2,left
4.743,0.8304800267139099,1.1567207978192484,-0.11870846878842378,-1.5168914952177583,3.8165353711422227,-5.730970795471061,-0.6898054609369093,-0.052634773523688574,1.8413709037470056,2,left
4.746,0.7157308994867319,1.198710461849812,-0.0990382979520548,-1.5145998695086056,3.8162090068193013,-5.733802177000529,-0.6330971143004,-0.21029135222774797,1.71392325122177,2,left
4.748,0.6841071760487413,1.20779437489916,-0.09125403491050055,-1.3698372347519134,3.8209891582279836,-5.9900623659726335,-0.395102179096723,-0.8721095560438955,1.179075028979673,2,left
4.748,0.5854408733483789,1.2399607296715938,-0.06647701453005561,-1.7260180885753678,3.809802952367651,-5.361323433144733,-0.3383965094467739,-1.0297659533708825,1.0516345136448377,2,left
4.751,0.4192048877054816,1.275058336472299,-0.015167720053200707,-1.135257860691853,3.8281200076707482,-6.403387937123416,-0.38138479380972257,-0.9102240835341722,1.1482423962275123,2,left
4.751,0.33406690794609234,1.283884437941757,0.018325348281431796,-1.914610193509953,3.804066222594892,-5.0290494696930255,-0.35546361088916834,-0.9823555601127807,1.0899984718465834,2,left
4.756,0.306457009087471,1.2870949170487158,0.029003144758387958,-5.184530928767105,3.702414287361656,0.7401423459182337,-0.36599989488726237,-0.9529476026285546,1.1136571895950007,2,left
4.757,0.21673736432389107,1.2868598054948233,0.0665814035127541,-5.964076462127469,3.678432374912914,2.1144832675341605,-0.3661665498775045,-0.9526381540900051,1.1140594717603145,2,left
4.757,0.10286563933821481,1.2767869485723846,0.11953484263256257,-5.37308909919741,3.696630359430907,1.0725072302537946,-0.3606180331612989,-0.9679154938368619,1.101562826305226,2,left
4.761,0.02026833599736728,1.2523061093243355,0.16060009128713815,-5.7292545795725776,3.6855608970985916,1.7009223967868108,-0.3672515650797198,-0.9495347390916405,1.116482283801332,2,left
4.762,-0.06206073905948428,1.2176703053030513,0.2022289097754059,-5.58505311304235,3.6902973404116133,1.4453364092520442,-0.3621043887234372,-0.9639752375640176,1.1049379843760714,2,left
4.766,-0.13216830902305116,1.1787798521574677,0.24233395994060367,-5.5814657431092485,3.689863499457224,1.4414989211932883,-0.3648437316675159,-0.9559464550687751,1.1110198269240539,2,left
4.766,-0.18622392466541854,1.132281759722685,0.2829323395773271,-5.659622177451125,3.6881988889568427,1.5758934126725819,-0.36428254844065144,-0.9582153412152606,1.1098866790140338,2,left
4.77,-0.230115045454663,1.0818644164408444,0.32670054825488976,-5.566464760717027,3.690344319931876,1.4149703990841282,-0.3634534158273911,-0.9596520062152316,1.1078663207970787,2,left
4.772,-0.2526157977390736,1.0307839106814993,0.36625482114041163,-5.638277596229737,3.6884364506642875,1.540187744535668,-0.36480293192602997,-0.9565919551208601,1.1110242875181022,2,left
4.776,-0.2612540802596418,0.9764718205502539,0.40206680320526145,-5.6018274332878155,3.6901912821173752,1.4730121181287965,-0.3636060019154632,-0.959926267449331,1.1083354714262006,2,left
4.777,-0.2497276355178537,0.9199637127169065,0.42911134337777257,-5.604819186033138,3.6880877004616472,1.487546484263863,-0.3642736259239222,-0.9567854295035039,1.109603732167891,2,left
4.781000000000001,-0.21362633005100895,0.8633114055139605,0.4432204353326368,-5.624843254455747,3.69092731658668,1.5069376074614367,-0.36423115849222365,-0.9598388082980186,1.1100387717686249,2,left
4.782,-0.15978722612373641,0.808113862831324,0.4492153193357624,-5.595172830695972,3.68760361513879,1.4741375878351406,-0.3637721643971872,-0.9567361530533002,1.1082158559959085,2,left
4.7860000000000005,-0.08547243760035067,0.7594326330360881,0.44962031428705296,-5.621295405504897,3.6901756110237978,1.504645499171846,-0.36445259733312185,-0.9595122425141602,1.110588704299037,2,left
4.787,0.0001746827211949447,0.7176834761887662,0.4487318946704679,-5.610349211348181,3.690544463577835,1.4852013873833936,-0.36393126635984613,-0.958264441187417,1.108929544394086,2,left
4.791,0.08673556105447372,0.6848240329218941,0.4469446730468259,-5.597245441273233,3.6846789997713034,1.4909653861063128,-0.36388039830270397,-0.9560812911537744,1.1083951785907193,2,left
4.792,0.17591243548076457,0.6673071048233551,0.4372861094629171,-5.638200881827634,3.6977420601400017,1.4972108154199646,-0.36483826034769806,-0.9635926976629386,1.1123866339702158,2,left
4.795,0.26349758856805766,0.6637252620926701,0.4181773813621787,-5.574464802697863,3.6783361943727724,1.483242467425779,-0.36288818037925796,-0.950145220518237,1.1045938449067472,2,left
4.796,0.3514537572440434,0.6752261865131954,0.3886142979514249,-5.6429021709741285,3.6990080680121435,1.498999940862399,-0.3654547974127255,-0.9672388585761559,1.1147410900087438,2,left
4.801,0.4377296453253807,0.6964048967176615,0.35456272040787296,-5.602578822231376,3.687087441283391,1.4885263297075646,-0.36328557717997023,-0.953041062367899,1.1062098651922692,2,left
4.802,0.5229092246511486,0.7273632410499111,0.31104139815237963,-5.571675861919829,3.676694325504958,1.486276335513081,-0.3633851283405294,-0.9533136660702664,1.1065332156683407,2,left
4.805,0.6098425664192677,0.7676564664092442,0.25734178711391004,-5.713241759833912,3.721988183526657,1.507220631997277,-0.36741278595862037,-0.980683560041982,1.122554892572555,2,left
4.806,0.690093487345916,0.8068591985139697,0.20560120901388665,-5.449558136838149,3.638024093600605,1.4663744710038953,-0.3574541885147491,-0.9135721674129854,1.083041355207479,2,left
4.81,0.7720002396946095,0.8627331715929757,0.13757304575932922,-5.7884090776455785,3.7458315966237277,1.5192752453194034,-0.37398837425543663,-1.0247868729675695,1.1486080131461947,2,left
4.811,0.8224734211067872,0.9045443402209636,0.08904645717396309,-5.5053958188213326,3.655829507968379,1.47492446408003,-0.35217163954244185,-0.8781144964333036,1.0621061602240311,2,left
4.815,0.8338097444376272,0.9159853453629245,0.07817981155060244,-5.5134995179550526,3.658258594270179,1.4768334378241348,-0.2606285944307536,-0.2623875608795637,0.6990952990398713,2,left
4.816,0.8707452377720559,0.9557666321962627,0.03595559814928734,-6.051735994330602,3.82990186626156,1.5590865751592817,-0.2388099969220726,-0.1157106129415859,0.6125858984268546,2,left
4.817,0.9112642164916167,1.0062746145331283,-0.023822770459513646,-4.728253543838584,3.408027468459631,1.3560743814437244,-0.2553511540037269,-0.22692117659713895,0.6781734778335037,2,left
4.82,0.9242236581762933,1.0461861147839533,-0.06980676087772554,-6.922841577724364,4.107518863803569,1.6929063708781404,-0.24537576909763276,-0.15984385453388658,0.6386178664857074,2,left
4.821000000000001,0.9333871236907589,1.075195708501768,-0.10005724471528518,-4.028107320020371,3.184885325150522,1.248593207400571,-0.2494329306204695,-0.18713098049423912,0.6547055981612329,2,left
4.8260000000000005,0.9336536827404094,1.0811180353347527,-0.10566094630258879,8.121082810059669,-0.6877802100924841,-0.6152112996524461,-0.2494931770111628,-0.18753733665609268,0.6549490483952896,2,left
4.827,0.9276951475757882,1.100439467696735,-0.12031343206596584,11.015895804435353,-1.6104301792174158,-1.0594663458335787,-0.24736095577080508,-0.17318325976983362,0.646482566096819,2,left
4.827,0.9165418026410925,1.1224884427242885,-0.13892376215516256,8.82122258332144,-0.9109210132242214,-0.7226972220674475,-0.249914907094424,-0.19038818762092213,0.6566275692502657,2,left
4.83,0.8934391437101512,1.1262457647760935,-0.14103835163220518,10.144672631705266,-1.332788628576842,-0.9257333782941832,-0.24792539526470586,-0.17697501371413876,0.6487201913815993,2,left
4.831,0.8620121071764958,1.13159551261553,-0.13830868463321497,9.606718736645174,-1.1612043676756676,-0.8432715669738542,-0.2489975867257694,-0.1842011675246738,0.6529798427339523,2,left
4.835,0.8205278237051349,1.1327370041750078,-0.1305654306053236,9.598007031854257,-1.1586483411233912,-0.8418115158421153,-0.2487564103529142,-0.18261055014839123,0.6520396248142433,2,left
4.837,0.7734490803798018,1.1269607201256202,-0.11917955132397362,9.881892044441072,-1.2488324126739254,-0.8855186858372228,-0.24846194713790734,-0.18052707968396225,0.6508197103545017,2,left
4.84,0.7235900747569857,1.1189850116319806,-0.10321601333473426,9.542173022538208,-1.1408437222275363,-0.8332587481871448,-0.2489712675307301,-0.18413192358097757,0.6529296736853725,2,left
4.841,0.6688139432976661,1.109124299142513,-0.08392771028870669,9.806231199535915,-1.2248859362765385,-0.8738285222460587,-0.2484883584669278,-0.18066268451719397,0.6509037245568376,2,left
4.843999999999999,0.6114694587685008,1.0992116161380818,-0.06132126444067815,9.6654107489794,-1.1797477925112358,-0.8523336501762826,-0.24881482520870768,-0.18303544911288921,0.652286905192893,2,left
4.843999999999999,0.5522390048320174,1.0898270136750292,-0.03434621775495382,9.693912446317063,-1.1896395275761233,-0.8563567148359648,-0.2486798617260146,-0.18212925101602068,0.6517524761379287,2,left
4.849,0.48987872936302795,1.0829075259639316,-0.013681405295182377,9.738373254375293,-1.202423930351204,-0.8637755277103876,-0.24864779907076068,-0.18158427669204374,0.6514608465011251,2,left
4.85,0.4253598763381322,1.0766729975467315,0.00564553588510795,9.664858204863709,-1.180692118609902,-0.851766763921051,-0.24879533845939633,-0.18332972828053673,0.6524219347319741,2,left
4.854,0.36005708403379216,1.0699148202961966,0.03122590825349452,9.73264242799836,-1.2009428213087094,-0.862746899024871,-0.24859254530766534,-0.1808417880493472,0.6510566901312187,2,left
4.855,0.2942693865592059,1.0610602472027706,0.057635118978721187,9.691723129336307,-1.1878877432641022,-0.8564738277754831,-0.24878578987738723,-0.1833400737441861,0.6524212168819492,2,left
4.859,0.22864888655085186,1.0479705372386676,0.0857507231710734,9.69731446111577,-1.192184372402088,-0.8562574851802137,-0.24867390962940217,-0.18189471331878476,0.6516317753559042,2,left
4.86,0.16501395133342905,1.0297118512281305,0.11657231945976948,9.725428954997389,-1.1954000067934762,-0.8630251925191321,-0.24862822517519106,-0.1809910398541136,0.6511529151084803,2,left
4.864,0.10920341625430896,1.0047939180249768,0.15383276680385788,9.673694161609003,-1.1874811963754284,-0.8514269493504196,-0.2488938217790759,-0.18538951614447174,0.6535098168110323,2,left
4.864,0.06393756375753473,0.9751891529984608,0.20026891308304423,9.730667705329282,-1.1965039263597197,-0.864070604700822,-0.2483980491370006,-0.17720997340900085,0.6491258005490343,2,left
4.87,0.026343133364609424,0.9417748327106492,0.24854486834381329,9.694868281034598,-1.1903728191298222,-0.856322634759658,-0.24903038398650187,-0.18768508484661656,0.6547385352619568,2,left
4.872,-0.0013470552753105398,0.9055809405862052,0.29634594871717945,9.678276350457987,-1.1896345954401746,-0.8518351307925118,-0.24850446309726112,-0.17895209234068862,0.650060114510312,2,left
4.874,-0.020022053922724607,0.8691585326846162,0.3393708723346254,9.774244407369842,-1.2003074718185185,-0.8750623086059257,-0.2485238990786163,-0.1792261580869433,0.6502085135373377,2,left
4.875,-0.03561500005016812,0.8349218255882356,0.3732961091317115,9.592056262971035,-1.1791719709551507,-0.8313388294860767,-0.2495042674282407,-0.19572071220395298,0.6590375279881246,2,left
4.88,-0.04269231263067079,0.8060238990408771,0.39582211173479825,9.826939758896945,-1.2066113650050785,-0.8876288054713063,-0.24709088396770149,-0.1551483326614453,0.637319666858408,2,left
4.88,-0.03830618987110958,0.7807987398632175,0.401272128835371,9.630465128390135,-1.1835830937259824,-0.8405735581867326,-0.25109177906668506,-0.22241930708902796,0.6733282364116628,2,left
4.883,-0.03070210919568242,0.7668972703491457,0.39725568558972857,9.637250723400655,-1.1846710678672645,-0.8420793127023041,-0.24581612207522313,-0.13369513015220563,0.6258373012350048,2,left
4.8839999999999995,-0.025517378882870458,0.7650620532359219,0.39289543889136436,10.00707156967121,-1.2270536191370782,-0.9310484367507814,-0.22368324883006802,0.23859714784976516,0.426561139129735,2,left
4.885,-0.00954067773910297,0.757551327002794,0.37515630320032234,9.096369394985024,-1.1223381271041268,-0.7120941092432447,-0.21840983500906685,0.32731335044902293,0.37907609505077533,2,left
4.888999999999999,0.03367117190761819,0.7507332553732162,0.33406370013257203,10.60679858427412,-1.2960976961342858,-1.0752090420963922,-0.22240731193502183,0.26005766085615056,0.41507436211480164,2,left
4.891,0.06624245946813859,0.7526375705863209,0.3046940402323879,8.614517639813611,-1.0669042434920735,-0.596246577786939,-0.2199965163074637,0.3006097421250177,0.39336799239417286,2,left
4.894,0.07713395955793477,0.7538399668922426,0.29468165702948257,0.254024872161696,-0.10547472404693059,1.4137497402348456,-0.2209776971191407,0.2841351806799519,0.40218946109903825,2,left
4.895,0.11849974775032687,0.7586512298656157,0.26121081254997813,-1.7380713933019463,0.12365116335488499,1.892702040635982,-0.2209905494946025,0.2838505741491042,0.40233493003238335,2,left
4.896,0.177242880224423,0.7728216925522976,0.21308788314941357,-0.22784202374269102,-0.05003530594079787,1.5295981255524702,-0.22047793963757462,0.29257267850785085,0.39767605524027383,2,left
4.898,0.22605525992281045,0.7946916956442553,0.16885887703841024,-1.1386201602754131,0.05470799383510384,1.7485565607561704,-0.2210921833763413,0.28214088945949123,0.40325015812236364,2,left
4.898,0.27579653561025197,0.8206585040678076,0.12206784506449671,-0.7681365905766163,0.012082948766214213,1.6595511136664176,-0.2206131976786858,0.290241421708629,0.3989184072992325,2,left
4.904,0.3217669977407672,0.8474901598305997,0.07849063191577392,-0.7627769725471012,0.011516723383169936,1.6581236155846824,-0.22087363406995808,0.28594473684632027,0.4012264558691946,2,left
4.905,0.36335546998350904,0.877077701907361,0.03993333627077735,-0.9572070063007636,0.033796918629820795,1.7050665766976132,-0.22080897114590195,0.286759614055039,0.4007638588363435,2,left
4.908,0.3991166623247275,0.908139136358591,0.008786758361070724,-0.7243595458971606,0.007102444919536856,1.6488885171412333,-0.22074999916904636,0.28822225652686717,0.40002648893515835,2,left
4.909,0.4245086777026238,0.9376584842059353,-0.019706512109971652,-0.9056690972482562,0.027916539954834348,1.6925635154250949,-0.22085685783888775,0.2858468515321909,0.4012420758953513,2,left
4.913,0.4425643784865258,0.9674188877753849,-0.04913556937335887,-0.807952860363818,0.016603960620703257,1.6692406737163972,-0.22075497626242263,0.28802163520600454,0.40012256785668376,2,left
4.914,0.4517929526028271,0.9961447579547501,-0.0742364934086738,-0.8301764808675342,0.019402789449658744,1.6740370943429665,-0.22082967387780789,0.2867686509269861,0.40079356918634934,2,left
4.917,0.4505727053197056,1.0216468050033933,-0.09883944197089134,-0.8562720885239349,0.02198341964007885,1.681252358462899,-0.22077948194520836,0.28675881414076254,0.40071629718114643,2,left
4.918,0.44129600820735726,1.0479861678464493,-0.12422594681568241,-0.8112077502877223,0.01731798106581015,1.6692629226902147,-0.22081975970303827,0.2880342494730806,0.4002223523694052,2,left
4.923,0.4252289873385966,1.0750917536957227,-0.1459469219714995,-0.8534476685909145,0.021762999899765566,1.6803389094778538,-0.22077746348286853,0.28583150085635545,0.4011197225846037,2,left
4.925,0.4039503503026681,1.0997911098904636,-0.1625871541550315,-0.8252492069580936,0.018516289520414717,1.6735681152546023,-0.22081928301353654,0.2882355242993074,0.4001333364452333,2,left
4.927,0.38233206431523115,1.1237723232989216,-0.17679905323264605,-0.8372763711134072,0.020666372590968825,1.6747500327365574,-0.22080028369255447,0.2867582065219727,0.40075031080803003,2,left
4.928,0.35658573235741126,1.1470291507557016,-0.18828811116241623,-0.837930373589021,0.01898878500475675,1.6788136007859862,-0.22075816991236147,0.28592203121857607,0.4010487394194878,2,left
4.9319999999999995,0.32764388136828637,1.1694875575064887,-0.20346310797559958,-0.8302163725989428,0.02071665324763252,1.6711319654172032,-0.2209004758010885,0.29029734179288336,0.39936090760031695,2,left
4.9319999999999995,0.3038716987593446,1.1907854161409648,-0.22397899264218404,-0.8396939787898905,0.01901899591958983,1.6796216558264085,-0.22064402167917907,0.2820540700405869,0.40255959891432,2,left
4.938,0.27885555939068807,1.2083658786632068,-0.23506129881092153,-0.8322355295505379,0.019771614497681986,1.6742409145316512,-0.2209718212676745,0.2926678730729424,0.39843734984142554,2,left
4.939,0.25233557980852883,1.2207160791347338,-0.23763355886057755,-0.8356265071873316,0.021550967821610093,1.6719598169597059,-0.22069852966729459,0.28379509726823904,0.4018843095592304,2,left
4.942,0.2235820515410483,1.2250398826796949,-0.23156745937874992,-0.8368603015105384,0.015614693651276674,1.6857996653663871,-0.2207040050883588,0.28408054828792556,0.40176871473605114,2,left
4.9430000000000005,0.1922470997595485,1.2236764967580747,-0.21763624357976802,-0.8316708354507424,0.026288933172696496,1.659439248991616,-0.2212320892220503,0.30085077079248057,0.39527080684007787,2,left
4.948,0.16407328240827612,1.209908710568235,-0.19744053884101276,-0.8389858553456375,0.012658592276107682,1.6934407092755548,-0.2199357483285434,0.25957802449281664,0.41126661328382574,2,left
4.949,0.12193323203714122,1.176907981014795,-0.15959759377442756,-0.8326141533544533,0.024005954636479497,1.6649956756822035,-0.2220854878463077,0.32802420085710526,0.38474029077609406,2,left
4.952,0.08716581468644904,1.1489571400615182,-0.12818018807117762,-0.8338007345013694,0.023818912809401994,1.665998434462538,-0.21924888873855602,0.23774254741429618,0.4197261639153692,2,left
4.953,0.07838595762190158,1.137271683556405,-0.11665101827137624,-0.8426257093202285,0.0017911033979458313,1.719464375956083,-0.20735182418220344,-0.14114403787582608,0.5665762078934895,2,left
4.953,0.048743148113784676,1.1029320229778437,-0.08194636599980458,-0.8197377424428256,0.05578807772147631,1.5877859780914352,-0.20451293475259633,-0.23142090303493523,0.6015544613914654,2,left
4.957,0.007567142166281385,1.0248649408548198,-0.00816188473390305,-0.8579984109387233,-0.033700258175795986,1.806172805403103,-0.20666515271808672,-0.1629799084506746,0.5750363843659324,2,left
4.957,-0.007805410320698258,0.9710864791395651,0.04165361287620059,-0.8075042219221457,0.0843257857500186,1.5181317400286742,-0.20536975261486434,-0.20425462095276128,0.5910353208276693,2,left
4.962,-0.011014904810341106,0.9548874255569187,0.05799475976929967,-0.5970589504874014,0.5799727128781318,0.3092506957075372,-0.20588962049281595,-0.1874672224342615,0.5845100781421002,2,left
4.963,-0.010542048768334488,0.8900283583940201,0.11913110456700336,-0.5466830759886794,0.6980035820553987,0.021266056059080565,-0.20591277650600742,-0.18721873346772983,0.5844533049982319,2,left
4.9639999999999995,-0.001023743888239264,0.7956447766600545,0.2041168979654588,-0.5848157001579231,0.6085100158225809,0.23959182753005687,-0.20561413269818754,-0.19603850863206995,0.5878159204160172,2,left
4.967,0.019676139643280684,0.7172044838032894,0.26615668353436717,-0.5618791742808368,0.6625050390472664,0.10789023527279279,-0.20596718007530546,-0.1854774888679923,0.5837776680931224,2,left
4.968,0.04794630872959141,0.6371269158297557,0.3213212112377659,-0.5711285042000559,0.6404944758240811,0.1615586313792876,-0.20569982776443652,-0.193697975048149,0.586940102568244,2,left
4.971,0.07978977620747338,0.5689552882459656,0.35307905534292205,-0.5714018577899195,0.6402702792020618,0.1621257500749667,-0.20582046284153035,-0.18927736321785255,0.5851801735471982,2,left
4.9719999999999995,0.11626737091947423,0.5150850814538894,0.3544008501855366,-0.5663396781061771,0.6516709519837361,0.13430536272698063,-0.20584817347949785,-0.19025950818809056,0.5857109017097916,2,left
4.976,0.15655079470131042,0.47181327669469225,0.3370635036724027,-0.5723505130758819,0.6379874775855476,0.16768477228413536,-0.20570885428400681,-0.1914852904455345,0.585927583349519,2,left
4.977,0.19957153345497303,0.4466773972748723,0.3057084776057084,-0.5677241017731018,0.6486847313399455,0.14159282135065338,-0.20589834652098526,-0.1893899892623691,0.5854324894856963,2,left
4.981,0.24766317081349185,0.4344909334815945,0.26775198048463067,-0.570077070440604,0.6427938804967074,0.15596668898156296,-0.20573830349804723,-0.19134657213473738,0.5859381289556156,2,left
4.982,0.3033284595815542,0.4364437123892044,0.22416006771041197,-0.5698615997217359,0.6444265635462181,0.1519651229692422,-0.20577756642594652,-0.19006902922512356,0.58544080549494,2,left
4.987,0.36199036340624413,0.4520288763251987,0.1794762767729223,-0.5686179364127704,0.6454320993122356,0.1495489592383359,-0.20594580237168364,-0.19053548702061404,0.5860902247220396,2,left
4.988,0.41953977949028765,0.4815391224105474,0.13457234840909604,-0.5704676733455003,0.6434238387807383,0.15440022294855393,-0.20552125704355956,-0.19074478403374998,0.5851002910447165,2,left
4.993,0.47250043551937676,0.5262134457150232,0.08833684415933281,-0.568836125177419,0.6453996491348677,0.14961953568281122,-0.20616421510278526,-0.19012713780077337,0.5864587919185198,2,left
4.994,0.5137106992120534,0.5842714400403304,0.04345160733932658,-0.5695416923515373,0.6437235477998342,0.1537084528967499,-0.20547699521559973,-0.1908424428880884,0.5850325612062992,2,left
4.995,0.5444636687693154,0.6567123630732286,0.001021070483227111,-0.5702874860222017,0.6454151750639889,0.1495081306761812,-0.2058769420729144,-0.19033925886954142,0.5858219596288099,2,left
4.996,0.5631538123047487,0.7409672071016402,-0.037732055831641846,-0.5678754970668852,0.6432175007405886,0.15503845682326245,-0.20620756939098273,-0.19035067644133993,0.5866744695469118,2,left
5.001,0.5684896767702643,0.8325265989237339,-0.07282248916034917,-0.5716423468626124,0.6460964766175479,0.14776243809137285,-0.20473737665547093,-0.1910294560777584,0.5832248678332629,2,left
5.002,0.564380468234763,0.9257927280969516,-0.10457046890825153,-0.5675959236979735,0.6431017650161625,0.15533757602671414,-0.2074681293585904,-0.18963904614862942,0.5895716129675117,2,left
5.005,0.5488573446691631,1.0190778526447606,-0.1333620924999477,-0.5699836224274322,0.6447148613516951,0.15124702987732574,-0.2039606473965317,-0.19145404147619005,0.581433144281907,2,left
5.006,0.5292864134297184,1.1086433635064035,-0.15391135122548377,-0.5717944863557625,0.6466865101551996,0.14630180558808803,-0.2068894417062495,-0.1899266307147911,0.5882234504097917,2,left
5.011,0.49823399106945304,1.192113909203545,-0.16319861779887185,-0.5634648534356742,0.6390084981564171,0.16562200095093582,-0.2068082742729084,-0.1900142986469719,0.5880561906658052,2,left
5.012,0.4559088682667132,1.267185780065782,-0.16997399173587177,-0.5789849437694097,0.653076234124752,0.13021132452104167,-0.20122945419145574,-0.19277523744759417,0.5750530891533153,2,left
5.016,0.4144546429908255,1.327054794169516,-0.17423774080647475,-0.5590402928947205,0.6350504257728102,0.17558685606323182,-0.2149441564150377,-0.18593415140960223,0.6069947564719758,2,left
5.0169999999999995,0.35167906280293004,1.3848301604151745,-0.17310908133295222,-0.57569748362643,0.6500847063359376,0.1377423605492709,-0.19220334552813662,-0.19729174770541247,0.554037327604787,2,left
5.02,0.29990191220244555,1.4204436541480787,-0.17069480486784194,-0.5752214852297011,0.6497353058497881,0.13862239364649442,-0.22219927123253347,-0.18230906601322328,0.6238898388167574,2,left
5.02,0.28611137960190547,1.4261923253122033,-0.16710266078471925,-0.5435425336307014,0.6208769519785866,0.21125942575832324,-0.3481001389317958,-0.11948988647454345,0.9171077545802175,2,left
5.021,0.23957664433490217,1.4464306412518266,-0.15988628318124892,-0.6214347648862215,0.6917418319780646,0.0328946023003784,-0.3780982108630646,-0.10451026815035291,0.9869686572189191,2,left
5.026,0.15801275947339086,1.4519967744660944,-0.14240600622137,-0.49227881441356175,0.5742582686530802,0.3285908830377682,-0.3553539565722327,-0.11586589570855296,0.9339992041441662,2,left
5.027,0.11670369617322422,1.4368841695864267,-0.128833548590225,-0.6626347155577961,0.7292228309575484,-0.06143215880337215,-0.3690717473992937,-0.10901878288002556,0.9659478505179944,2,left
5.03,0.1031870570319434,1.4319559619305102,-0.12299904994677353,-1.3776667846127382,1.3797696706428844,-1.6987579264880288,-0.3634924417182759,-0.11180054175019041,0.9529533581481713,2,left
5.03,0.0627952802975031,1.3912590618135399,-0.08927973207079716,-1.5480175822109503,1.5347613156477657,-2.0888152167942042,-0.36340684885884655,-0.11184997716745049,0.952753206802345,2,left
5.03,0.02037553906417077,1.3080653325622786,-0.02907867854464017,-1.4188684215983551,1.4172350947879968,-1.793071186017859,-0.36634636802467485,-0.11037212829278517,0.9596021763332783,2,left
5.0360000000000005,0.005736827584806384,1.20187717411337,0.042692263197460986,-1.496758261095632,1.488136136990849,-1.9714597998867052,-0.36282273539984694,-0.11214433564537671,0.9513909213857097,2,left
5.0360000000000005,0.01023619121358114,1.0685911587029064,0.12942404725093393,-1.4650702538051203,1.4592774530238983,-1.8988675813165803,-0.3655706167277276,-0.11076019569052181,0.9577957580494677,2,left
5.039,0.037775505292751504,0.922691205247699,0.21899194357026985,-1.4646199264373383,1.4588636077440977,-1.897838949654721,-0.36409088078921914,-0.11150381302792653,0.9543471658533739,2,left
5.04,0.08429158350975981,0.7710711345131912,0.306866974376847,-1.4812353568566543,1.4740424553844194,-1.935938280481282,-0.36441197505258194,-0.11135470116060908,0.9550906409581779,2,left
5.044,0.14272314478606207,0.6228155825319162,0.3831634751111026,-1.461338478105364,1.4558075227345046,-1.8902568010742773,-0.3648512080284737,-0.11110068285694455,0.956127954693527,2,left
5.044,0.20883891327859117,0.4833011744255098,0.4355587291308302,-1.4768264646571163,1.4700865118684403,-1.9258964018503595,-0.3640915036986371,-0.11153932475654924,0.9543337218566473,2,left
5.048,0.2780905632512749,0.3516482626808337,0.4669576608843165,-1.4684822890058746,1.4623091999663593,-1.906615600726296,-0.36482849645890214,-0.1110987503328427,0.9560808154779454,2,left
5.0489999999999995,0.35255892645734777,0.2380991960415404,0.47617976039793897,-1.4703855493310884,1.4641209986206625,-1.9110497606373833,-0.36432136791670644,-0.11140973431635226,0.9548752344249885,2,left
5.053,0.4241095549350311,0.14346100690244862,0.46817076625470955,-1.4725881922600157,1.4662817991820332,-1.9162389319829556,-0.36450643910125313,-0.11131797899276455,0.9553060899481459,2,left
5.053,0.48806927035654507,0.06703203457065232,0.44627590911150483,-1.4687963229003023,1.4623258865963327,-1.907084048237623,-0.36465860325513333,-0.11113448188875723,0.9557058528372698,2,left
5.058,0.548938079682592,0.010357290699600912,0.4088121388938998,-1.4723192518164139,1.4664027461605396,-1.915965118434916,-0.3642087087569448,-0.1116046367297594,0.9545542658101365,2,left
5.059,0.6060515864747045,-0.027733349213651448,0.36119040180645745,-1.4699993853964743,1.463222658931051,-1.9096538256654854,-0.36485608601772224,-0.11091522116788968,0.9562168996104922,2,left
5.064,0.6584690550908971,-0.040540205633865456,0.30483230097999364,-1.4709815786248437,1.464968807391024,-1.9126994124516994,-0.3641975145729434,-0.11163433099055918,0.9545179052600268,2,left
5.064,0.7082931218259254,-0.02577700636403313,0.24288415961656637,-1.4709757276553468,1.4649707776182201,-1.9126930375345272,-0.36457830727885754,-0.11121878961093212,0.9555003023694731,2,left
5.0680000000000005,0.7525638966539219,0.019539999330307756,0.1838917875516401,-1.4705429079700436,1.462996004622171,-1.9102243323535792,-0.3648368986196641,-0.11089507248751358,0.9561846449751669,2,left
5.069,0.7849787068763147,0.09743570878186272,0.12931707836891498,-1.4709460508778631,1.4669761842810134,-1.9145241403298143,-0.3636151706827703,-0.11235614461334889,0.9529794380008515,2,left
5.073,0.8047318254227485,0.2019654733871881,0.07771806721232358,-1.470827251182893,1.461477330109611,-1.9092149893644474,-0.3658851922441607,-0.10964466010955387,0.9589338120617017,2,left
5.073,0.8145750833238865,0.33322595533478483,0.03385886908779985,-1.4706719609861008,1.4670829702798094,-1.9142286056773894,-0.3629763498569053,-0.11312312501870928,0.9513017908498663,2,left
5.078,0.82111437625275,0.4741064030216193,-0.003404836310767147,-1.4708513282437785,1.4639251448452355,-1.9115378498542699,-0.36540189370885323,-0.11022090695543721,0.9576669603038511,2,left
5.078,0.8191751336353303,0.6239311051411647,-0.036987298648360936,-1.4710452781288428,1.4612402286177213,-1.9093057636644968,-0.3653294997007401,-0.11030206986402685,0.9574781909101807,2,left
5.083,0.8094575398584302,0.776196081434354,-0.06143925707022549,-1.4700917082648433,1.4728983496222945,-1.9188289291691518,-0.36073437290100785,-0.11582290128205486,0.9454125970127205,2,left
5.084,0.8036295403589311,0.9083251375929613,-0.07919781416245797,-1.4719622498079739,1.4513699510188998,-1.9014044211230874,-0.372032973046433,-0.10225273623226508,0.9750800434808483,2,left
5.088,0.784205815921335,1.0476583000580972,-0.08854373193570064,-1.4694901953952213,1.4789508621812897,-1.9236151317130292,-0.3533008369996786,-0.12475080208128905,0.9258922589366274,2,left
5.088,0.7664028491858341,1.1369846855960435,-0.08852559051180275,-1.4715829799822866,1.455949388751777,-1.9051426874523651,-0.3780057317712189,-0.0950784781958706,0.9907656239755078,2,left
5.088,0.7612604056824337,1.1564820854750033,-0.08712051878093457,-1.4715362678084873,1.4565856332609557,-1.9056564246402166,-0.481695455405039,0.029479670315509965,1.2630365081710222,2,left
5.093,0.735611323006814,1.2195558323650526,-0.08179586231166752,-1.4674658363399191,1.500360732428474,-1.9407186562082235,-0.5063962310154582,0.059148011935944704,1.327902312690513,2,left
5.093999999999999,0.6958926931461403,1.293577232896574,-0.07296181504794996,-1.4774770349864461,1.3927639310676732,-1.854572444674376,-0.4876699138573775,0.03665493546737167,1.278725879797014,2,left
5.0969999999999995,0.636599436892777,1.3198819846854535,-0.058914956791259174,-1.4608661971229973,1.5711595758428099,-1.9973680350562286,-0.4989653839801081,0.0502243276791402,1.3083852032755203,2,left
5.098,0.5887752364205294,1.3318329777893108,-0.04697979034761205,-1.4827849497610983,1.3358604529845675,-1.809051192422681,-0.4943654212524511,0.044694175955859075,1.2963156356985568,2,left
5.098,0.5768602025137501,1.3305278479611273,-0.043348902434164754,-1.57501092917578,0.3485354363391517,-1.0188400432269877,-0.49431007779861696,0.044636388196789674,1.296150888740852,2,left
5.103,0.5299491159373777,1.3114005316494137,-0.02436584010758478,-1.596949697472394,0.11325965239102076,-0.8305594801279084,-0.4967058540209607,0.04750243185142451,1.3024692269768468,2,left
5.104,0.46515868664454363,1.2615360739143875,0.00801644135525087,-1.5802869780556534,0.29158484925322076,-0.9732795821849294,-0.49383330026250066,0.04406331085840612,1.294899314397171,2,left
5.109,0.42099506172893725,1.1822845835547746,0.03799450612687081,-1.5903970013060902,0.1841385320439004,-0.8872467913772192,-0.49607532135857035,0.046751650468778654,1.3007981525197738,2,left
5.11,0.37799814704335916,1.0878148749791758,0.07075754300722042,-1.5861776874544116,0.22766735513899194,-0.9221746215503872,-0.49485087357148183,0.045271008138003596,1.2976058326507127,2,left
5.114,0.352341781040325,0.9797843748432379,0.1033938969983545,-1.5863038618606695,0.22861300854058414,-0.9228007664170322,-0.4951671528666023,0.04568221933752032,1.298362577900154,2,left
5.115,0.3411662129505242,0.8723660624064038,0.13392553727412848,-1.588266816124238,0.20534442990592777,-0.9043086835402967,-0.49542077544500546,0.04593312491463076,1.2991555622142008,2,left
5.118,0.33696716118241127,0.7676964365733605,0.16402963309130603,-1.5857765817247418,0.23297082367579358,-0.9263621561657923,-0.49494775822376125,0.04543080058977692,1.297757673765958,2,left
5.118,0.34607176411345547,0.6689204870931585,0.19100192024085175,-1.5879288092320685,0.2118322633242918,-0.9093338089730643,-0.49540316919589217,0.04592537682288395,1.2990777282850654,2,left
5.122999999999999,0.3620740810433538,0.5850602036021029,0.21570382523256826,-1.5863598413586835,0.22250781584863238,-0.918235448604438,-0.4950529066665357,0.04550413560443203,1.2981590443266056,2,left
5.125,0.38644931483125733,0.5110614734385942,0.2349332708040986,-1.587450619674371,0.22136485839115336,-0.9167040054028766,-0.49532886515169483,0.0459330299199235,1.298653344080894,2,left
5.127000000000001,0.41467054430667544,0.4520430770595032,0.24232300897879414,-1.5867009458030337,0.2164716333542212,-0.9135447609395306,-0.4950471296847155,0.045372062081419154,1.2984399880014645,2,left
5.127999999999999,0.4400305822416509,0.41252216450691676,0.2417689837422327,-1.5870314465347222,0.2232284858663694,-0.9183489688643431,-0.4953839069109474,0.046108556996956714,1.2985389042494848,2,left
5.132999999999999,0.46377050470887793,0.38817195473152133,0.23424569893342329,-1.5875028736022596,0.2182737451323406,-0.9143782429521912,-0.4950403924069145,0.04534209012427008,1.2984742213798812,2,left
5.1339999999999995,0.4859286934711129,0.3806976551456731,0.2124161086058417,-1.5856610247222078,0.21889321670362277,-0.9159936905088955,-0.495214401094586,0.04575550520468645,1.2984472048231386,2,left
5.1370000000000005,0.5088453804789326,0.3906903451269359,0.17991864172718983,-1.5892951470899404,0.22363001698058754,-0.9172258484532864,-0.49548583480897873,0.0462578994891401,1.2987431818449202,2,left
5.138,0.5313449373290908,0.41420598728523184,0.1434945029239515,-1.5840763672339402,0.21439716711353385,-0.9136538496777391,-0.4944965210777592,0.04429807982121462,1.297970198482981,2,left
5.142,0.5537769683034841,0.44951237574644387,0.10310642559189043,-1.5895653485481456,0.22503186320631433,-0.9180958644349008,-0.4962955386850568,0.04788959607719119,1.2993096782847582,2,left
5.143,0.5813705231940456,0.49710239025879044,0.06561398000570762,-1.5864438719345246,0.21835644200164178,-0.9151043080952713,-0.4939932775455613,0.04328737700767771,1.2976104701827107,2,left
5.148,0.6057745492925183,0.547653030146508,0.03938526947169352,-1.5835975264002264,0.2142521178137461,-0.913846846575021,-0.49591251693156946,0.047125970473090834,1.2990211438966133,2,left
5.149,0.6229231965009511,0.6078134275083563,0.014788053103778353,-1.5957671443961488,0.23525786021737674,-0.9217872913014515,-0.4958719975580671,0.047036276564516546,1.2990142859877638,2,left
5.152,0.6398495846604882,0.6768063960978832,-0.010316049996656796,-1.5732668181960343,0.19558468207341562,-0.9064864997343627,-0.4921739769360081,0.039669540398069914,1.2962203110884645,2,left
5.153,0.6503623252181225,0.7405040735262329,-0.031203384394421378,-1.6021330686963686,0.2467840047189583,-0.9263398261355945,-0.5012506352172099,0.057759990339365165,1.3030518683645167,2,left
5.157,0.6533501613165469,0.8206537915609643,-0.059696153476447175,-1.5780457515794857,0.2039343234213808,-0.9096795496510017,-0.4862034823536904,0.02776865472649993,1.2917327380304238,2,left
5.1579999999999995,0.6537863373737287,0.8807976171594862,-0.08021845548943646,-1.5786787241588836,0.20525463652508147,-0.9102611068377965,-0.5060513985481427,0.06732756203964597,1.306663425302011,2,left
5.1579999999999995,0.6522119970113229,0.895688799029636,-0.08404412144869625,-1.6246579318337895,0.2865308133128586,-0.9416800397335707,-0.5893481854559746,0.23337190294289317,1.3693353816129603,2,left
5.162000000000001,0.6478902341643769,0.9453431975708286,-0.09766944355508603,-1.5116761592179129,0.08653721911633572,-0.8642702376543827,-0.6091965176440942,0.272931812681194,1.3842685963710024,2,left
5.164,0.6295613473074874,1.0219809406070524,-0.11265781317839847,-1.6989910989370265,0.4182135794534753,-0.9926851490587484,-0.5941530196299558,0.24294258721534134,1.3729525529036906,2,left
5.167000000000001,0.611433336883251,1.0540547722292417,-0.11679110607052637,-1.451932804564814,-0.01928312983956501,-0.8232886480807687,-0.6032149669714407,0.26102130893406317,1.379762450434856,2,left
5.167999999999999,0.60735420519373,1.0650804442254347,-0.11862082031496421,-0.41486295429896325,-1.8556278138068545,-0.11230541393512729,-0.5995484144276723,0.2536814988256815,1.377020055886546,2,left
5.167999999999999,0.5916202124061365,1.0936175160159203,-0.11255741881582335,-0.1678203275507855,-2.2930893475790803,0.05707309171515079,-0.5994602127003235,0.25354945493340464,1.3769306152612362,2,left
5.171,0.5657499856677857,1.1139315041041313,-0.09885767758194922,-0.3551092029957087,-1.9614511326477935,-0.0713271672894062,-0.6014317865332091,0.2574362923066429,1.3784369593646069,2,left
5.172000000000001,0.5410553449375504,1.1068656737866376,-0.0830691600184714,-0.2421532614444246,-2.1614588905067973,0.006107103065588801,-0.5990974371029976,0.25280161775347465,1.376670883444144,2,left
5.176,0.5103266420508028,1.0828104725666399,-0.06173858259281457,-0.28812215385990103,-2.0800571134146564,-0.025411590807486395,-0.6008731129384601,0.25637819653193916,1.3779864779681956,2,left
5.1770000000000005,0.4821221707336569,1.0385439856350929,-0.03192825667839313,-0.2887328648098576,-2.0790074744475215,-0.025801999838931864,-0.5999970420341916,0.254512934608383,1.3773924344078416,2,left
5.181,0.45866883025464344,0.9748789696060107,0.006770805252624484,-0.26471305943333934,-2.1214687176735425,-0.009396977992103787,-0.6000511057877638,0.25482546082322344,1.3773210570596017,2,left
5.182,0.43890089533620613,0.8973453373174267,0.0508122451754285,-0.29346762132244236,-2.0706566362253582,-0.029019620253367264,-0.6005159602884224,0.2555008924894079,1.3778083191632313,2,left
5.187,0.43044760327717857,0.8079706091867862,0.09568615938035925,-0.27109805281740784,-2.1101619033427177,-0.013774738844048375,-0.5999043913952671,0.2544820423842584,1.3772385425372837,2,left
5.188,0.43434449169481737,0.7146492957263082,0.14241188630739918,-0.28317331995977224,-2.08882555011386,-0.02201378781518734,-0.600322065880277,0.25531638956490565,1.377551799935543,2,left
5.192,0.4483308434697274,0.6235594630821069,0.18851917969865098,-0.28030360683160216,-2.0939981068310747,-0.019967390964624236,-0.6003468307978944,0.2549942700609947,1.3777739983535366,2,left
5.193,0.46984656223887433,0.5388022378907977,0.22901493686622085,-0.277408179366593,-2.098831154408754,-0.018236972084475077,-0.599771076977518,0.25469555741541117,1.376875572621092,2,left
5.196000000000001,0.4986794778649076,0.46410100417156175,0.2641562990467751,-0.28242248062590025,-2.090459234916466,-0.021235666792494633,-0.6008128649975482,0.25550567557211423,1.3783535079580274,2,left
5.197,0.5306433855069834,0.40606455690124127,0.28932600286508237,-0.2778767640648723,-2.0978858141044374,-0.018658182518914792,-0.5996353385416789,0.25450863748414965,1.3767275413254483,2,left
5.2,0.559849179988539,0.36638148408908167,0.3036776731847161,-0.28083875276791787,-2.0931375750742234,-0.02025909102026506,-0.6003606743318387,0.25517428213103593,1.377700975082244,2,left
5.2010000000000005,0.5872439694390654,0.35080277020167394,0.3111579495040571,-0.2793033769177069,-2.0958605171506264,-0.019202617297387675,-0.6008461438078307,0.25546965091673335,1.3784345571655834,2,left
5.206,0.611607746782175,0.3655672507555278,0.3107011208757926,-0.28030473391487654,-2.093166041289224,-0.020686861916233656,-0.5984635211371803,0.2536631833999323,1.3750291667127654,2,left
5.207000000000001,0.6305479301515444,0.4077414834722808,0.30545018226619247,-0.2788582061808047,-2.097833518550778,-0.017872031999860115,-0.6029431971919368,0.2571348571352291,1.3813907935953846,2,left
5.211,0.6436418652933624,0.4811063871071082,0.29402456396016685,-0.2812117635202975,-2.090523699236714,-0.02220541334148022,-0.5971688671917491,0.2526329906956524,1.3732050906465059,2,left
5.212000000000001,0.6523731406610773,0.571451631850286,0.2770341200757702,-0.27844328687505904,-2.0987761289363593,-0.017407988155150454,-0.6019992805368897,0.25641042878568165,1.3800467750874506,2,left
5.215,0.6556401652424471,0.6864338367800366,0.2538695500025665,-0.28004025903545593,-2.0940119210976698,-0.02017807857252598,-0.6018531744578257,0.2562783077214318,1.37984874087369,2,left
5.216,0.652323496205425,0.8216794466212799,0.22216535559688733,-0.28199194166859703,-2.0888887607880955,-0.0229604000257794,-0.5926831848065615,0.2491546659487925,1.366836766634021,2,left
5.221,0.6469740961346511,0.9468947152165117,0.18892526391163206,-0.27419456175513857,-2.109996715678622,-0.011294159354638574,-0.6152446482685369,0.26670761730517933,1.398838227281122,2,left
5.222,0.6372820049178815,1.0977334323198389,0.14862886300712852,-0.28861819654162346,-2.0709149814191523,-0.032904022158250654,-0.5778275074029495,0.2375866368620811,1.3457697405051472,2,left
5.225,0.6286753400253864,1.2022537132961661,0.1215390536385967,-0.2700494202250684,-2.121184869588096,-0.005123057343575427,-0.6271844164687248,0.2760040963817756,1.4157709969966865,2,left
5.226,0.6267432942592667,1.2268114521258364,0.11610638754911698,-0.28557391588343867,-2.0791747195300374,-0.02833109177304692,-0.8343156350490821,0.4371959487773644,1.7095291418743086,2,left
5.227,0.622368872949711,1.3199233074522418,0.0910575961203484,-0.2852127892578169,-2.080213765235576,-0.0277439648285567,-0.8836718090302671,0.4756127741216749,1.7795284292480955,2,left
5.232,0.6190820808373312,1.4370541019068352,0.05759251503044441,-0.2553560556759649,-2.1607534987322596,0.016684984474989662,-0.8462580038849283,0.44649466126321385,1.726468865655853,2,left
5.232,0.6205654217768404,1.5050306902242307,0.0376996690358758,-0.32869728105754215,-1.9628600808960899,-0.09248543149111228,-0.8688107716413866,0.46404014683093736,1.758447076563109,2,left
5.235,0.6258243579857187,1.5799029764522738,0.02200278790443605,-0.2070877673697313,-2.2909962783266122,0.08852778964645153,-0.8596566945000726,0.45693015852124663,1.7454776374666765,2,left
5.236000000000001,0.6320717857439508,1.6192139970473338,0.01590050800145685,-0.3675064582703562,-1.8581509059751546,-0.1502383940680329,-0.8594887435853822,0.4567793021291255,1.7452212206754756,2,left
5.236000000000001,0.6352049027255593,1.6252312415230084,0.016941149066418637,-1.0409871284039016,-0.04125995789231868,-1.1525571723260475,-0.8643405560779505,0.46057508292549953,1.7521200839391493,2,left
5.24,0.6467833697941752,1.647869696720849,0.025621334624243163,-1.2014282976974202,0.3916181107454087,-1.391339277528348,-0.8585573103685233,0.45606559317626083,1.7439105811392306,2,left
5.2410000000000005,0.667299113689892,1.6593994981017812,0.04159508129203912,-1.0797860969476758,0.06345636482977443,-1.2103013428609906,-0.8630178193925819,0.4595207940992363,1.7502209406979543,2,left
5.245,0.6895037285875405,1.6515358970023415,0.060262942271355105,-1.1531477083628405,0.2613015215890873,-1.319491728186158,-0.8606958824051132,0.45776640940716984,1.7469777820817383,2,left
5.245,0.7150105338555337,1.635628610003797,0.088368728322997,-1.123310550288954,0.1809508890812986,-1.2750652438332972,-0.8610770977670524,0.45797234533601106,1.7474327114232546,2,left
5.25,0.7405110913644082,1.6115161548064139,0.12403260158474766,-1.1228664874096428,0.17955290592741605,-1.2744362862800585,-0.8619302736920532,0.45874761095477523,1.748747784722513,2,left
5.251,0.7643329804238026,1.5854718525803115,0.16585344909844887,-1.1385425769075441,0.22203932309833974,-1.2977335422061052,-0.860650864184911,0.45766327654874894,1.7468496274041287,2,left
5.254,0.7853821282367116,1.5597157643474948,0.21176770540925158,-1.1197820212771212,0.17134310239613582,-1.2698271997486574,-0.8616916873741147,0.4584724142332413,1.7483247982279875,2,left
5.255,0.7995081716337835,1.5389805658387175,0.253631307127402,-1.134364218764814,0.21051979744078703,-1.2915590025375918,-0.86130516186014,0.45833619044614377,1.7479323432172513,2,left
5.2589999999999995,0.8062383363507977,1.5298847455905387,0.2881825331127753,-1.1265568185267132,0.18998298188941853,-1.2798440937218625,-0.860897527124459,0.4576430518147534,1.7469987029456018,2,left
5.261,0.8078240087987942,1.5310535374769747,0.31359805982704847,-1.1282402544942713,0.19361915203888208,-1.2825142608248128,-0.8619602815631002,0.4590306836397048,1.749036038071496,2,left
5.265,0.8015686661593837,1.5405328872720148,0.3319856099199216,-1.130469997649524,0.20074513134918176,-1.28563024416603,-0.8606609963347884,0.4574222550146212,1.7466285657685843,2,left
5.266,0.7884319714383967,1.5604265086374571,0.3444267262790873,-1.1267438810412025,0.18980718051447054,-1.280246260159908,-0.8615233014603845,0.4584379488469523,1.7481773107413094,2,left
5.271,0.7777872735125029,1.5845866060047156,0.35160732711817566,-1.1301312912904549,0.19893952810887605,-1.285289300640871,-0.8619197057666284,0.4590450418494536,1.749022035940349,2,left
5.272,0.7709001039868177,1.6048547148775696,0.3560474231892391,-1.1280717935400397,0.1950221933432042,-1.2819237802873484,-0.8595448091800884,0.45589323649805374,1.7444209288443457,2,left
5.274,0.7680663027639946,1.6194456901690977,0.35941019764928095,-1.1285814954719666,0.19264950712886716,-1.283368667746429,-0.8641003236139765,0.4618546516687186,1.7531667707743406,2,left
5.275,0.7725357937901578,1.6183975390275458,0.36757744884820814,-1.1292990496421806,0.20017837624517906,-1.28341291559194,-0.8581962677867246,0.4541587686449081,1.7418607364757004,2,left
5.278,0.7779996779648444,1.6071889975789355,0.3778569791415545,-1.1279935331344038,0.19069144938493232,-1.2825609150136719,-0.8631483925598821,0.46059977352718323,1.7513303311133535,2,left
5.279,0.7837143174978085,1.5856696753532726,0.38793599058045947,-1.1291099528132842,0.1971544041375261,-1.2835926638772286,-0.8629786329586431,0.46040196129734134,1.7510280135405356,2,left
5.284,0.7945028164662724,1.5473198772458767,0.40623721199478086,-1.1289466653758717,0.19967438518452418,-1.2828048990334078,-0.8536308806957331,0.4481839346854371,1.7330950598258845,2,left
5.285,0.8034195520742541,1.5016909893130128,0.4258841244502173,-1.1275850205036106,0.18301409477071473,-1.283158603388663,-0.87665833068524,0.47824567212733027,1.7772358684434963,2,left
5.287999999999999,0.8137241099882229,1.4233099825747793,0.43833436042253393,-1.130600025324895,0.21524493926532065,-1.283233262545576,-0.8384579864217995,0.42839384245247186,1.7040281879794565,2,left
5.289,0.8257157578869566,1.35648450934339,0.44642785977091803,-1.1265531958554007,0.17337270622384307,-1.2828746722665993,-0.8888515582198,0.4941457580987664,1.8005905377316833,2,left
5.292999999999999,0.8279300642478127,1.3397059362173827,0.44766881835787947,-1.1300038981863083,0.2085443723206248,-1.2832840358746163,-1.1003479699926335,0.7701597733881012,2.205915138289095,2,left
5.295,0.842340094828337,1.2598607198133687,0.4480968490729139,-1.1298014602570468,0.207250864948464,-1.2831046313777217,-1.1507441289474165,0.8358924613618255,2.3024583085521018,2,left
5.295,0.8710956732187944,1.1355458148897843,0.4494406319360738,-1.1235130339993145,0.14108760124655395,-1.2827724947880568,-1.112536206268754,0.7860679379738112,2.229275596491629,2,left
5.2989999999999995,0.8971861233680143,1.034146121440661,0.44332722379567946,-1.1391238418813516,0.30421751057044205,-1.2838306541925062,-1.1355795199945442,0.8161145530258975,2.2734093590887032,2,left
5.3,0.9385395212778007,0.8929025981401476,0.44280030277126214,-1.1131856466571555,0.03353148670350574,-1.2819868293025047,-1.1262061533316632,0.8038750081721265,2.2554383689527646,2,left
5.305,0.9685027653949013,0.79748370026377,0.44930775013809604,-1.1474146346826282,0.39065628559145293,-1.2844495251160937,-1.1260681914124446,0.8037552203789489,2.2552384661323863,2,left
5.306,0.9752258345773822,0.7760087638639268,0.4506815577222708,-1.2911846179548558,1.8885452822787383,-1.2947498212108457,-1.1309933910284382,0.8100589532080082,2.2645447452187812,2,left
5.307,1.0030859682346411,0.6894258971576666,0.4581853183622089,-1.3254241984213102,2.24564760816986,-1.297221795273479,-1.12509283098349,0.802531495136781,2.253421918886332,2,left
5.308,1.0367509689547942,0.5795161151775695,0.4716165489293197,-1.2994380076863048,1.9750636660795162,-1.2953359157933262,-1.129690134373913,0.8083613104408275,2.2620504888947655,2,left
5.309,1.0593280812517052,0.5013156882670284,0.4793856401452096,-1.3151738654299003,2.137927368482604,-1.2965036592428831,-1.1272124680133178,0.8052006695350613,2.2573801394966955,2,left
5.314,1.082470985004126,0.4175829480116271,0.4809877376953982,-1.308656665785949,2.0722513279700587,-1.295971031949132,-1.1277682852183266,0.8060698125366677,2.258599417031512,2,left
5.315,1.0974932460611313,0.3430138164403294,0.47674260623816844,-1.3087682320638705,2.070288873617402,-1.2960668233123225,-1.1284533548185607,0.8065014079682646,2.2594168199540166,2,left
5.319,1.104399629168418,0.2763036055493689,0.47008856445200436,-1.3119114093450244,2.1061159422318365,-1.296206655379876,-1.127268099728311,0.8057505437991053,2.2579981192198417,2,left
5.319,1.1034267189210258,0.21164772134724674,0.4610952190785415,-1.3079925737421,2.063970453673213,-1.2959602715530503,-1.1283945506404864,0.8062443612894837,2.2591109971037713,2,left
5.3229999999999995,1.0959070669508137,0.15173054601604774,0.4518155698360187,-1.311283330255032,2.0956146936532614,-1.296276555498177,-1.1276315358408342,0.8060267576882683,2.258482318715631,2,left
5.325,1.0878147040108357,0.09307564805360707,0.4505545708979509,-1.3090491227812993,2.0808124059994966,-1.2958655869053732,-1.1279434630666223,0.8064404236456413,2.259087379288882,2,left
5.327999999999999,1.0783288656735617,0.04054786685711613,0.4609449266612704,-1.3103845469420978,2.080140036582176,-1.2963912796979704,-1.1280335196526206,0.8051151599576094,2.25771389946648,2,left
5.329,1.0702988724161147,-0.008119382763369983,0.4795081851452306,-1.3096635067514313,2.09051801399951,-1.295812634160482,-1.127655702621867,0.807919755632567,2.260523167920812,2,left
5.332000000000001,1.0639940852059753,-0.051531885968369856,0.49739706473641654,-1.3098218975007956,2.0779103149801195,-1.2962437281149257,-1.1281797011171197,0.8036837093027961,2.256256194099535,2,left
5.332999999999999,1.0554908645050456,-0.0868563112589659,0.5112998804198078,-1.3105543932220856,2.085411168999646,-1.2963008632568083,-1.1276736986096734,0.8082685503235788,2.2609058206812342,2,left
5.337999999999999,1.048053099637575,-0.1145015190251791,0.521448974001729,-1.3083426938259877,2.088831192019945,-1.2953609587830424,-1.1279672267356122,0.8056200269831842,2.258221148126366,2,left
5.3389999999999995,1.0478473130839179,-0.13787481015182462,0.523011960650835,-1.3124998286719198,2.0716743293028816,-1.2974435157160387,-1.1281009996997233,0.8031842484252729,2.2556794917992224,2,left
5.343,1.050758487021548,-0.1552461229097562,0.5148664637962643,-1.3066144597625626,2.1005604429882894,-1.2943598567752614,-1.1273596523889484,0.8136470713970982,2.266506578070871,2,left
5.343999999999999,1.0543806601354722,-0.16382973832945755,0.5039483390031492,-1.3127720796590037,2.068560364418248,-1.2976383897332817,-1.1287436837900784,0.7942531243252865,2.246444301945738,2,left
5.349,1.0615467498105082,-0.16784566722929628,0.4904202705666515,-1.3092930249621284,2.0878634261076066,-1.29575030920234,-1.1269746242650411,0.8191690156735003,2.2722217471887607,2,left
5.35,1.0706051053049195,-0.16604572242468235,0.46957056742877407,-1.3060488922748545,2.101973495976848,-1.2941032024431505,-1.1284494891613557,0.7983615704693761,2.25069609119815,2,left
5.352,1.087466251260422,-0.15882671450380065,0.4424984007931608,-1.3197934660987272,2.035549163500795,-1.3012751905571398,-1.128391648613749,0.7989101357104609,2.251247803327531,2,left
5.352,1.1080479478711547,-0.14753371972817425,0.41369442413530133,-1.294412725611097,2.1598452962541437,-1.287984051552883,-1.1256454090961752,0.8386508802109571,2.292411191691973,2,left
5.357,1.1258022561246115,-0.13207096286851086,0.3837798414713469,-1.326961308241437,1.9998308573949146,-1.305046029314074,-1.1324159662333289,0.7409821879192569,2.1912692315062983,2,left
5.357,1.1499170417408795,-0.11555284266903645,0.34771453474528,-1.2998095164541448,2.1336120821812794,-1.2908055665327285,-1.1211824002219095,0.9029247829851286,2.358957778485557,2,left
5.362,1.1668671407244875,-0.10571958007531171,0.32234151901543634,-1.3005072815599734,2.129672334956128,-1.2911832650392887,-1.136005073457445,0.6893171395690713,2.1377829580116448,2,left
5.3629999999999995,1.1709557551368621,-0.1025425665486597,0.31639099477645827,-1.3523757769736942,1.8754101419210376,-1.3183559941844236,-1.1980916233706744,-0.20731429543409768,1.209213577389978,2,left
5.364,1.1837166359129117,-0.09290890019478852,0.29877597326694205,-1.2249503012174527,2.500852331550419,-1.2515833816248296,-1.2129243940901357,-0.42093174498311914,0.9880489026085721,2,left
5.367000000000001,1.2029211000726447,-0.08350931506746653,0.26797631242492514,-1.4361949120907833,1.4636051888256032,-1.3622853113253581,-1.2016821946927851,-0.2589755542348434,1.1557308619084448,2,left
5.367999999999999,1.21377031249247,-0.08331824204950751,0.2526118277022683,-1.1575885281141916,2.8318758577005774,-1.2162795660979895,-1.2084404804865,-0.35665078814935747,1.0545691798622236,2,left
5.371,1.2168924664473724,-0.08205927257147913,0.2467595266829627,0.01209854660507742,8.573872866013236,-0.6033156986688062,-1.205747212061754,-0.316923431664943,1.0958010313460975,2,left
5.372999999999999,1.2231782817403587,-0.07883497729234429,0.23441698515608986,0.29067210681253774,9.942314913600796,-0.45732521161204875,-1.2055865760406679,-0.31633149317044384,1.0962268491428149,2,left
5.372999999999999,1.2307439611351532,-0.07686062829197997,0.22499008610508703,0.07946586333337452,8.904852661230702,-0.5680104255389573,-1.2071998788409357,-0.33721278990789827,1.0748645562517682,2,left
5.376,1.2317498848771629,-0.07888851068993442,0.2229254187388775,0.20689473612348988,9.530329489171846,-0.5012322690678537,-1.2053041439844572,-0.31220878876249547,1.1005007413521954,2,left
5.377000000000001,1.229858185660641,-0.08485472484443644,0.22404773714032727,0.15492928244779147,9.276465556606299,-0.5284582431956241,-1.206722071560605,-0.331667809349374,1.0804596464969802,2,left
5.381,1.2232835673511744,-0.08733030427618095,0.23243097013169972,0.154454058998171,9.271524069204276,-0.5287203665408318,-1.2061373444338268,-0.3212183014085662,1.0914996780887303,2,left
5.382000000000001,1.2119348865023103,-0.09107689038252081,0.24624050743288145,0.18127562373669565,9.406857540527625,-0.5146464251950771,-1.205848901828782,-0.3235039383739138,1.0884297159305283,2,left
5.3870000000000005,1.1981756273135291,-0.09662085071104089,0.25861657621390816,0.14906980253853805,9.245152550459785,-0.5315415704604411,-1.2068232095478089,-0.32647203858469603,1.0865658520186663,2,left
5.388,1.179325818620848,-0.09671805748152992,0.2685266031941703,0.17427679112528618,9.370447082280906,-0.5183242956461049,-1.2055313172578277,-0.3214303645107708,1.0903031454254188,2,left
5.392,1.155278223992367,-0.0949957581075177,0.27608692089033593,0.1602974639455216,9.30485470451367,-0.5256352149824441,-1.2066077940006803,-0.3261271444276745,1.086621643367643,2,left
5.393,1.1262363197228349,-0.09000697048202874,0.27630487436954715,0.16440030158069951,9.315218629889866,-0.5235331237805261,-1.206405374310585,-0.32310450507762034,1.0897626747917522,2,left
5.396,1.0974733147714708,-0.08118201442272395,0.27063317782147267,0.16634158076256078,9.341581753189494,-0.5224332290205675,-1.2050791703503614,-0.3240843015514717,1.086553734033755,2,left
5.397,1.0709594542331364,-0.07241255144478584,0.2624314510861969,0.16213299955475086,9.300274341869205,-0.5247399695621554,-1.2083183837223588,-0.3248632535553726,1.0907608870174208,2,left
5.401,1.0440215342701005,-0.06367542487849981,0.2469296605685578,0.1663721594187581,9.337541242419121,-0.5224377801610757,-1.2034364613364148,-0.3229783219010648,1.0852337649008597,2,left
5.402,1.0180845904687201,-0.05733900376906413,0.23070019183243812,0.16241296097822722,9.318247532488368,-0.5245118531298247,-1.2086494919327646,-0.3251223664130493,1.0909856584089797,2,left
5.406000000000001,0.9848579539414632,-0.0517007532855159,0.21847265736237603,0.1671917793838921,9.311189229161146,-0.522157191675553,-1.2056235043186763,-0.32367085750658825,1.087883526274698,2,left
5.407,0.936613060213647,-0.04863119611712155,0.2091030310367429,0.16020709404530165,9.34664617841084,-0.5254755263657143,-1.203085435358845,-0.323472947802046,1.0841153464051225,2,left
5.41,0.8801117614530742,-0.0515213427062613,0.2102433282777495,0.16968451203022278,9.289122940401851,-0.521019017721656,-1.214307248438972,-0.32606336911197975,1.0988141433195366,2,left
5.4110000000000005,0.8148749725539006,-0.054528540117251695,0.2202906239916843,0.15975641776511595,9.351304815807296,-0.5256780828424104,-1.1934769851927325,-0.3209480604849999,1.0718804021744712,2,left
5.416,0.7372445025789325,-0.05679333232941545,0.23735683378498645,0.16521663112844603,9.314015942165746,-0.5231307489116531,-1.2202266771436774,-0.32758641479428563,1.1063892434898102,2,left
5.417999999999999,0.6566593222459767,-0.06005404943646071,0.261843946000947,0.17129362810803284,9.288612662031248,-0.5202171235829507,-1.1978959675957257,-0.32201575472395116,1.0776133410053967,2,left
5.421,0.5728183158780709,-0.062492410643980284,0.29252292557499177,0.14693902246072665,9.410820831179167,-0.5317945974071807,-1.1985004511159267,-0.32227581491370916,1.0782694663999972,2,left
5.422000000000001,0.4916476626287973,-0.06349363670910338,0.3267490875347232,0.1917020420523076,9.182195547603794,-0.510534922774361,-1.241073798163104,-0.33254016813019704,1.1335327322737658,2,left
5.4270000000000005,0.42660645355655025,-0.06387312863092612,0.3600423448091786,0.13431220224821205,9.4762054332978,-0.5377874719737352,-1.1364399421580416,-0.3071821755381009,0.9978558393739518,2,left
5.428,0.36941221714540595,-0.06510801811592305,0.400577834566168,0.18219168222306953,9.230574619835442,-0.5150523288172278,-1.309918499100354,-0.34926109258342075,1.2227641979759252,2,left
5.43,0.3379923366920684,-0.06637585876968585,0.4291875605736568,0.18102678759161211,9.237907813970638,-0.5155998177677605,-1.0811124746423622,-0.2937553298309534,0.9261300059268013,2,left
5.431,0.3329418363936932,-0.06665489491543006,0.4360326257155781,0.08929120491116392,9.704020909432916,-0.5591793360858388,-0.12058133478659475,-0.060941165625443355,-0.31933393660095055,2,left
5.432,0.32004916689200236,-0.06802263629679689,0.45668082315817443,0.3146204475607792,8.557573358262381,-0.45214089641337274,0.10820480215211639,-0.005446661470836009,-0.6159555009593696,2,left
5.437,0.3202875296790336,-0.0734644429311293,0.4814546695605673,-0.058958776349978356,10.458631640791847,-0.6296026196189868,-0.06525223481377919,-0.0475133954222567,-0.3910608074924803,2,left
5.438,0.3329394360440813,-0.07860963545683479,0.4871283249197207,0.43380309029407127,7.951143689482518,-0.39552358534281284,0.039389794215650774,-0.02215077717176625,-0.5267428866880433,2,left
5.441,0.3340619689681407,-0.07865409243802157,0.48992602510831257,2.5021828338582277,-2.5731773719552957,0.5870155757251346,-0.0032549049138650143,-0.03245552130219719,-0.4714343220343424,2,left
5.441,0.34739042989359864,-0.08080377851943697,0.4949080039353202,2.9949899174710275,-5.0805571202365485,0.8211203409477394,-0.0037058509524841785,-0.032628665493738274,-0.4708756762934978,2,left
5.442,0.37111979744308804,-0.08617994284849108,0.49271321682251606,2.6213617756669256,-3.179615906465184,0.643630776250063,0.018404705417755154,-0.027182633212813445,-0.4995118018377224,2,left
5.446000000000001,0.39132144341933633,-0.08954896442314142,0.4843794615001472,2.846672397982218,-4.326107981912129,0.7506586359208978,-0.008125745443230966,-0.03369687440433897,-0.46514216279560033,2,left
5.4479999999999995,0.4142343085899335,-0.09301428693307431,0.47551383958826504,2.755099121969612,-3.8596065602952545,0.707171446064969,0.012609892461987795,-0.028635136578676914,-0.49201581546025963,2,left
5.45,0.4376371683418305,-0.09646273468804759,0.46424885663958937,2.7535850232949564,-3.8531088992698024,0.7064252896935339,0.0011998764055001967,-0.03133209313349471,-0.47719754216908666,2,left
5.4510000000000005,0.4616784113748409,-0.10036863424189674,0.45026252074123163,2.8019651756022226,-4.0975417275047725,0.7294452904887604,0.004344305284935063,-0.03079093168734297,-0.48135068841542294,2,left
5.455,0.4858386518455494,-0.10473899289009789,0.43392438827761903,2.744076789890539,-3.804724785439226,0.7019090714513366,0.006325449358799681,-0.029930900800142324,-0.4837894507765531,2,left
5.456,0.5070868690524416,-0.10789360765351794,0.414740321589032,2.7890548870620293,-4.032835335280448,0.7232911649371045,0.0023947673836847536,-0.03134901011335149,-0.47885173832524036,2,left
5.46,0.5265559850216797,-0.11381515362079728,0.3962540804430763,2.7651284710091293,-3.909602772930315,0.7119572343300573,0.006254244693794554,-0.03004289371324459,-0.4837296664787965,2,left
5.461,0.5422380775745433,-0.1200820492352681,0.37662127845088456,2.7698262935711444,-3.93830590710568,0.7140862586161757,0.0030061378178230054,-0.03082685515741081,-0.47951693404086504,2,left
5.466,0.5536210150673953,-0.12397019255690318,0.35738630457603815,2.7776628007552,-3.969908995002165,0.7179855387079137,0.006229229493697283,-0.030732864526574234,-0.483930135080112,2,left
5.466,0.5643673837253288,-0.1292391326855573,0.34175535301827525,2.7648184848222384,-3.914705002921877,0.7116672482386988,0.00209623393738186,-0.030164455822052315,-0.4780365946202306,2,left
5.47,0.5746070573017295,-0.13322020953894798,0.324360207163979,2.7766207257275775,-3.966665138287601,0.7174466435800091,0.007487810413876113,-0.03119970549725619,-0.48582469316301796,2,left
5.471,0.5832444401689698,-0.13679957325173583,0.307930051192403,2.769657057301592,-3.9311586058309658,0.7141399320387836,0.0018842131694755317,-0.030061576289441092,-0.4777093012916496,2,left
5.474,0.5928832284397318,-0.14234223683321928,0.2978071346648652,2.7701209326912037,-3.9485405737755386,0.7140400458158624,0.004894740261730321,-0.030773779259837493,-0.4821034316244689,2,left
5.475,0.6029040166927022,-0.14475051599615615,0.2877225957180578,2.776022271638422,-3.944241289942419,0.7175757315919851,0.008616309948989657,-0.031116095996031917,-0.487352689106464,2,left
5.481,0.6089149919704735,-0.14589125217986854,0.2757703850513442,2.7655515462973597,-3.9421712920203755,0.7115088308600224,-0.005827963902506695,-0.02917426050675034,-0.46677111514859043,2,left
5.482,0.6120204513013818,-0.14636936562981306,0.2650106105714132,2.7770235210359835,-3.945957981434083,0.7181240358728043,0.020627199597387343,-0.03285456719174715,-0.5045087130870223,2,left
5.485,0.6133325900064904,-0.1419589824995064,0.25016474680492434,2.7699055945495843,-3.941274037979925,0.7140683871864233,-0.013269108974852197,-0.028112336858091006,-0.4561477642114932,2,left
5.486000000000001,0.6111969829654611,-0.13498743742779407,0.23326693650653837,2.7661958434512135,-3.949599333052048,0.7117275936608055,0.015000929240268851,-0.03207646407992028,-0.4964841154855783,2,left
5.489,0.6057967001778051,-0.12336290366952472,0.22109504341852163,2.7864011545707994,-3.933401277476871,0.7238636510965539,0.014347333324516045,-0.031946147051066805,-0.49553949836714023,2,left
5.49,0.5971046893626126,-0.10861522539771107,0.20680810727597904,2.7482152748083113,-3.9597869532633103,0.7010151404837606,-0.03992816166616302,-0.024467602293482108,-0.4181403212420949,2,left
5.494,0.5866596509767887,-0.09341177609838305,0.18982672384507737,2.7974061423173398,-3.9267279975453744,0.7304314037059332,0.0933470400216364,-0.04287142761440697,-0.6082077732601797,2,left
5.495,0.5760631562930343,-0.07300092177902881,0.17639130457983604,2.756277865307764,-3.9539921042742137,0.7058405284691243,-0.12760180525998055,-0.012357165264797399,-0.2931071334137527,2,left
5.497999999999999,0.5687713965787944,-0.058924127466757015,0.169584755256891,2.7576321500245786,-3.954534816230096,0.7066289947209644,0.16383459863923275,-0.05259621618264523,-0.7087263360435236,2,left
5.499,0.5663772490223304,-0.05425560984987754,0.16813895237041843,2.835256552923903,-3.898353092641875,0.7531192936029039,1.3872545038118362,-0.22151185603603546,-2.453462898371046,2,left
5.499,0.5606778712583413,-0.037565360352194786,0.1624210020997615,2.644188892010156,-4.034925424835221,0.6387036331719523,1.6787283527180867,-0.26172227423051375,-2.8691185377076414,2,left
5.502999999999999,0.549063607505941,-0.006561655443005129,0.15969102070742194,2.961049805523923,-3.808880589962602,0.8284523059691101,1.4577281239977422,-0.23125103813703626,-2.5539702116982737,2,left
5.504,0.5413857416047013,0.013483192364515218,0.16446108537885262,2.5431198981925394,-4.106990251039361,0.5781656669207837,1.5910264204470173,-0.2496239730746635,-2.7440519416049094,2,left
5.507999999999999,0.5385905196129062,0.019280935165145223,0.16557191802592924,0.7890632760938732,-5.360266565337793,-0.47216691028588226,1.5368059332974262,-0.24213064231720033,-2.6667231858016613,2,left
5.5089999999999995,0.5306183173443422,0.03849004840804826,0.17215581922665846,0.3711874198935902,-5.658514954188238,-0.7224495560023144,1.5359809512700922,-0.2420909115660948,-2.665586733347806,2,left
5.51,0.5162446989419293,0.0698734774272912,0.18896298154666663,0.6879898558444808,-5.432320012061562,-0.5327051996862249,1.5645391800551294,-0.24587810109294245,-2.7062304152586134,2,left
5.513999999999999,0.49867248039379886,0.09806490347514482,0.20517892943503013,0.496899945359941,-5.568835304291473,-0.6471225176670317,1.5303028573389656,-0.2413708435177491,-2.6575231091553624,2,left
5.515,0.4759863902443486,0.12867986262100975,0.2146659881313822,0.5747183473510323,-5.513151363535837,-0.6006178576880091,1.5570032229685178,-0.24484060586296558,-2.69548503088095,2,left
5.518,0.4484166329431412,0.16228625154279938,0.21130131358446014,0.5756552295935254,-5.51262297059484,-0.5998602714118514,1.542623962743762,-0.24294853431601315,-2.675028335200956,2,left
5.519,0.4226803946823656,0.19669642018293412,0.1944841170650593,0.5351254141772084,-5.541422874273226,-0.6244068868322126,1.5457456779302285,-0.24356325450735875,-2.6795785096454283,2,left
5.523,0.40365170557264507,0.23062759832446328,0.16442615941996397,0.5837203499027677,-5.5068345230182985,-0.5950346774103343,1.5500113912744207,-0.2435604847074572,-2.6853456656400785,2,left
5.523,0.39318416909024645,0.25969321481915875,0.12013180041763187,0.5457915831123406,-5.533880220319174,-0.6178642162826526,1.5426320827089248,-0.2435605683193436,-2.6753663574300757,2,left
5.528,0.3938770088885306,0.28327328133076074,0.06745175637597609,0.5665086752183739,-5.5189952081187545,-0.6056902448583221,1.54979072329395,-0.24329894717026754,-2.684907591114333,2,left
5.529,0.4011354169299057,0.3017551176463371,0.012836814974910082,0.5611504186872789,-5.523090371865765,-0.6081530244227866,1.544864774498902,-0.24361525663121733,-2.6784148745121312,2,left
5.5329999999999995,0.413495890601975,0.31622991999714845,-0.03692461008604954,0.5568728886224481,-5.5256953789618315,-0.6119985686329399,1.5466635355467822,-0.24387217661143573,-2.6809848524490025,2,left
5.535,0.4312863340149936,0.32916900905354063,-0.07525811175546127,0.564859035385073,-5.520536425992075,-0.6056411267997028,1.5481379584726567,-0.2422278175965837,-2.6821001071655886,2,left
5.539,0.4476144176998084,0.3399426169426908,-0.09731291248242194,0.5571673043989308,-5.52559873199707,-0.6115026572864872,1.5437751087234375,-0.2458489075309656,-2.678134691033751,2,left
5.54,0.46255048759447026,0.3447562931972219,-0.10245436687901247,0.5630935838991791,-5.521362074954718,-0.6079648397748012,1.5500530540627482,-0.24041475633585518,-2.683721536109398,2,left
5.542000000000001,0.47289753306080096,0.34600109539706136,-0.09612062313707465,0.5583999779780326,-5.525510512384791,-0.6084465306257961,1.5436667150416725,-0.24625029515683441,-2.678202262737221,2,left
5.542999999999999,0.4739775022812593,0.3474102161730071,-0.07990613330741986,0.5632225516299401,-5.520248691888275,-0.6108812387252383,1.5473600440291633,-0.24287832543220636,-2.681396131069766,2,left
5.547999999999999,0.46944151984064986,0.34691046720053786,-0.0542143374866218,0.5574418888509606,-5.52708727203126,-0.606402292199454,1.5498648092327723,-0.23987995525099984,-2.6831806733626964,2,left
5.5489999999999995,0.45978247101467057,0.34360957083257526,-0.025063309575034012,0.5633410553912308,-5.519985598649995,-0.6113348107850467,1.538023766052213,-0.2528852452191507,-2.6741163399077847,2,left
5.5520000000000005,0.44276601560695644,0.3401790185366478,0.0028822538172067866,0.5603482432020219,-5.523792658070192,-0.6082353011553896,1.5600268357598712,-0.22877105179706048,-2.690988943357567,2,left
5.553,0.41193595829202223,0.3417527743908022,0.032211719874155414,0.5557086846325099,-5.528542424232354,-0.6067986277429407,1.531830115114862,-0.2597444213247618,-2.6694036579473437,2,left
5.56,0.37017696908742714,0.34327366520168934,0.0637169563520776,0.5726424235646137,-5.510157073762688,-0.6151086582566638,1.5553445202854623,-0.23388010430004294,-2.6873880444331295,2,left
5.561,0.31778481605810005,0.34249963362879754,0.09933330058699943,0.5418468777895948,-5.543820771778671,-0.5993318586272145,1.5546365686355699,-0.2345765161758032,-2.6867982716710133,2,left
5.562,0.2598135041045792,0.3481828822053826,0.13646169983913053,0.5812536666915051,-5.500689765840038,-0.6196731485418927,1.5101041614192867,-0.283921704258582,-2.652942854086279,2,left
5.563,0.21118678310683847,0.35241743829281735,0.16719091946152442,0.5484096933499987,-5.5366624389884525,-0.6026561025858492,1.6196136461292514,-0.16263217124250917,-2.7362348288518508,2,left
5.567,0.14838124912977543,0.3552202835673832,0.20769155794733507,0.5490877498788218,-5.535830132821673,-0.6032484306515002,1.4380469199448611,-0.3637460003400669,-2.598138472032823,2,left
5.568,0.10273731269632538,0.3608365384878951,0.2368330818884472,0.6124076281983772,-5.466764969699879,-0.6352684571637877,1.677515531858119,-0.09846589524662941,-2.780264240008496,2,left
5.569,0.0945459426970566,0.3613981688660553,0.24109256347185473,0.4570225791986699,-5.636360670924809,-0.5564079730561791,2.6824911936295166,1.0149598309312113,-3.544444585108831,2,left
5.572,0.04574691619992772,0.36715353559385566,0.27767136517252067,0.7145955813884919,-5.3551936978200825,-0.6872080259964878,2.921935234582482,1.2802598269358125,-3.726537772982112,2,left
5.5729999999999995,0.0003923081433617323,0.37521136972572455,0.31447857816567637,0.3748612220197145,-5.726063601712373,-0.514673124510496,2.740408319928365,1.0791226501043025,-3.588495531511857,2,left
5.5760000000000005,-0.0034205209803289047,0.37752432560028115,0.31896310228508595,-1.0514518677229774,-7.2828221902227215,0.2092741952168906,2.8498810638631786,1.200410469655125,-3.6717340897083988,2,left
5.577000000000001,-0.038066375869052343,0.38632127263036914,0.3506412574346033,-1.391216278099935,-7.653737731429397,0.3818056551866311,2.805357063202397,1.1511233259902256,-3.637899507901045,2,left
5.577999999999999,-0.07608636035102537,0.3995809483236906,0.3968733051118031,-1.1336107587963036,-7.372521405244578,0.25100933436755224,2.8046955518287406,1.1502931111523667,-3.6373569388725153,2,left
5.582000000000001,-0.0924556396226518,0.4129734577977542,0.43054094026310474,-1.2889834557755586,-7.542098243742991,0.32987120408408066,2.8280917074736553,1.1763564106147237,-3.6551999584469548,2,left
5.582999999999999,-0.10956878723266533,0.42892955813683886,0.46293462815761005,-1.2257713984213696,-7.473197038979003,0.2978388893813947,2.8000772748542557,1.1451759819137393,-3.6338474911177725,2,left
5.587999999999999,-0.11715184896395113,0.44910586736877367,0.48870897071132996,-1.2248613326184494,-7.472012070565787,0.29727304297545565,2.8218818426175174,1.1693960717903187,-3.6504487019807343,2,left
5.5889999999999995,-0.11897933189718898,0.4744950772205453,0.5099908615804505,-1.2580379752766055,-7.508490297855362,0.31425208592446346,2.8101604380610077,1.1565304392110365,-3.641578340562011,2,left
5.5920000000000005,-0.11757842836852059,0.5019372991759277,0.5256915710050187,-1.2182998983069626,-7.464855980371423,0.29394868114666045,2.812754897182618,1.159013312863526,-3.643415642924715,2,left
5.593,-0.11246638958315247,0.5322813402697404,0.5317827679641167,-1.2492384237593996,-7.498736634673609,0.30970905590788167,2.8160240162569297,1.16331075214898,-3.646133989835908,2,left
5.596,-0.1084042875773363,0.5669985215862674,0.5315410553443722,-1.2325890851040016,-7.480783975301437,0.3013666730310066,2.81044458832403,1.1562998849377193,-3.6416066410482504,2,left
5.597,-0.10411701907487886,0.6062535767685364,0.5232027714825456,-1.236312373593007,-7.484140770405162,0.3029078719992938,2.8156516542452836,1.1627301229564133,-3.6457928432941933,2,left
5.601,-0.09972353018688751,0.6472384011585628,0.5077081149758891,-1.2408840356120345,-7.490347496232926,0.305827104003645,2.8122633116005717,1.1589819877965986,-3.64321846921386,2,left
5.603,-0.09315908257235506,0.6881631903772112,0.4895987678448762,-1.233047141629525,-7.480301341474103,0.30111601778947705,2.8134679400557028,1.1590896297359152,-3.643713758726239,2,left
5.606,-0.08472064901430912,0.7299674574390846,0.46631257680382443,-1.2403727777921971,-7.489486640736073,0.30541814923797245,2.8140976223340903,1.1625912621571528,-3.6451537416670146,2,left
5.607,-0.07436333273737414,0.7676910884548545,0.43473034983658054,-1.2355636881753669,-7.4842474912078405,0.30298250630631146,2.8123480545178747,1.1564699657074509,-3.6423896510357467,2,left
5.611000000000001,-0.06007052552483873,0.8021056402684303,0.39767442640092154,-1.2373908835704408,-7.4840370053650025,0.30282746772536834,2.8143641875109657,1.1631624460269436,-3.645450963742402,2,left
5.611000000000001,-0.04417879684939793,0.8344990204264561,0.3537941307322081,-1.2380158207748333,-7.489758748733564,0.30561761296595125,2.81296055074795,1.1590316775054583,-3.643500748514228,2,left
5.6160000000000005,-0.023996439198356978,0.8581662234110101,0.303941852854975,-1.2359337877628815,-7.479967294920672,0.30087242161562733,2.8129323276797784,1.156778134150581,-3.642717873315436,2,left
5.617000000000001,0.0018856013218073188,0.8754002913902521,0.2554164081337472,-1.238367211890802,-7.490639673878279,0.3060386734341348,2.814990845069625,1.1687803162595243,-3.6476147253083324,2,left
5.621,0.02936990118833772,0.8888957916380649,0.20515530161097445,-1.236623524405196,-7.484102795066196,0.3028833525717364,2.8108233269560015,1.1461362011732306,-3.63826766473582,2,left
5.621,0.06341590201131557,0.8921850364884483,0.14992791329027694,-1.2367937367164141,-7.480300156483308,0.30100942580334755,2.816254200934755,1.1752986657858622,-3.6503299459250838,2,left
5.627000000000001,0.09849380255705463,0.890790107194978,0.0973087476814756,-1.238787059499384,-7.499943385700298,0.31059340177745554,2.811686480321054,1.1509178053460314,-3.6402345311752153,2,left
5.627999999999999,0.1354168484556182,0.8880256504720307,0.0467962835672533,-1.2345970076326358,-7.462971222212145,0.2925723720656187,2.811936626030615,1.1517111661778714,-3.6406029392779566,2,left
5.631,0.17978650848462338,0.8782977335693706,0.0024000195608515733,-1.240086843540225,-7.510569881122871,0.31576496788076003,2.8202354190009524,1.1977616996774665,-3.6595429225917875,2,left
5.632000000000001,0.22048515490811676,0.8677082387821755,-0.02960369316266028,-1.2354607781000553,-7.470778152803603,0.29638501252648364,2.799685208754486,1.0844188291662267,-3.612876597591128,2,left
5.635,0.27856495596417036,0.8512628724251067,-0.0600779966493265,-1.2357536778710903,-7.472054680099151,0.29698529825794484,2.8338016953583076,1.2723857172572135,-3.690283058079623,2,left
5.636,0.32151291830174145,0.8366889200764618,-0.07733212562234987,-1.2440201576589245,-7.547285277870508,0.3336796512353748,2.7887945521424307,1.024456478910504,-3.588179534158427,2,left
5.636,0.32802963760176285,0.8342085447190645,-0.07953502223512876,-1.223508905013027,-7.362132449656768,0.24341087023682548,2.6002002192534066,-0.016061771471176683,-3.1598165654796952,2,left
5.641,0.38074893491414175,0.8177882851964873,-0.0975778141838396,-1.2575617981625575,-7.669200453646711,0.39308728272419413,2.555214163496287,-0.2639747615215001,-3.057727998576089,2,left
5.642,0.43134619129155216,0.800707980585929,-0.11465164739046022,-1.2126511579049564,-7.264153240418663,0.19568522186488974,2.5892886971850313,-0.07602209124088499,-3.1351074504384076,2,left
5.645,0.43856621607809027,0.7990057363071672,-0.11582186414904516,-1.0243357420741885,-5.564355235768357,-0.6329045847429507,2.568797595698441,-0.1893835553462186,-3.0884733170954135,2,left
5.646,0.4878224215058663,0.7853443349295806,-0.12452635066915922,-0.9794696075552486,-5.159274587621949,-0.8302382743207222,2.577032321309328,-0.14325016019502845,-3.1073879245312996,2,left
5.646,0.5522016876654423,0.7657684702194423,-0.13344722598536668,-1.013463543052442,-5.466406443752877,-0.6806633500363777,2.5773269562817194,-0.142618686718114,-3.1077581187575083,2,left
5.65,0.6009219520544928,0.7537305825230083,-0.1344240224423378,-0.9929722493635597,-5.281169338665276,-0.7708628068795275,2.5727701918712724,-0.16678056350883333,-3.0977024259279524,2,left
5.651,0.6598187724698439,0.7447813217092453,-0.13258623275579598,-1.00131955199394,-5.35648205083589,-0.7341239972240861,2.578096792711357,-0.13781976038112492,-3.1096723372250477,2,left
5.655,0.7155606403590238,0.7384320112145965,-0.12175408011802843,-1.0013858387166876,-5.357716921185357,-0.7337535938751878,2.5741476379067594,-0.1604073173863628,-3.1004632081375587,2,left
5.655,0.7628577262958159,0.7350482772535332,-0.10486620317268006,-0.9971268940274739,-5.317876816309256,-0.7526964763397832,2.5758962073896345,-0.148161790440664,-3.10521338999411,2,left
5.6610000000000005,0.8015477808688871,0.7379960202792127,-0.08666423626558219,-1.002198435138363,-5.365658687744522,-0.7300733590532971,2.5761791399528966,-0.15107848535783128,-3.104514192391716,2,left
5.662000000000001,0.8323180211283044,0.7450750993617965,-0.06435269807701344,-0.9982867727436604,-5.328356693846466,-0.7475993670288071,2.5746295490100444,-0.15413515701781355,-3.1026405205372574,2,left
5.666,0.856781565906952,0.753961356825516,-0.040369600467070915,-1.000413687635493,-5.348420474974242,-0.7381008522097297,2.576410406632311,-0.14868806749883506,-3.1053734721261765,2,left
5.666,0.8711286007448493,0.764183337700676,-0.016681700200496564,-0.9997654714024216,-5.344257216463527,-0.7406877301188111,2.5754675796751405,-0.1539252448704269,-3.1032214276556447,2,left
5.671,0.87543920186345,0.7756115516519978,0.008700400848718587,-0.9996522562313541,-5.337777439450061,-0.7420536651689963,2.574678875307978,-0.150165308493292,-3.103860422509377,2,left
5.672000000000001,0.8697741731027936,0.7896057263016962,0.034544652886201975,-0.9998508070049121,-5.348978811196364,-0.7396789841327995,2.577657284347015,-0.15227293979405532,-3.1050702380299726,2,left
5.6739999999999995,0.8562225313260814,0.8030502763105682,0.05909612673168751,-0.9998998012225218,-5.337870941280109,-0.7413091880607199,2.5727999129992334,-0.1514124733435085,-3.1023250606949,2,left
5.675,0.8338233659497241,0.8157037749894414,0.07983777638887699,-0.9997398690188769,-5.345640045139465,-0.7405382573209669,2.5781295998931597,-0.15149408042559853,-3.1055956860515304,2,left
5.678999999999999,0.805210968496145,0.8289639203952065,0.09909905292241802,-0.9994562119579379,-5.343149650400198,-0.7417788543382267,2.574948171933461,-0.1520073727523732,-3.1034748534542045,2,left
5.68,0.7704415817306647,0.8429137620413834,0.11821252855282377,-1.0009298004297653,-5.3393844421805365,-0.7380192151317577,2.572522796552873,-0.15070725712210886,-3.1023651656492928,2,left
5.684,0.7266032576428989,0.857888387022048,0.13037175970939432,-0.9977126646709389,-5.349367908741071,-0.7459388494703881,2.583722584896834,-0.15318230854143822,-3.108547511109074,2,left
5.685,0.6789911166638424,0.8714153867831531,0.14304717606001496,-1.002549414091526,-5.334795666116005,-0.7339676463922729,2.5628138159424436,-0.14935193659743493,-3.096768623966738,2,left
5.689,0.6268155798999566,0.8831843485135061,0.16113519383940256,-0.9973440855060132,-5.349904055507806,-0.7469368544824895,2.5897123082423796,-0.1539964084793364,-3.112007005302285,2,left
5.69,0.5752927581012599,0.8944951420904516,0.1740305960666622,-1.0003547738665022,-5.341170593014668,-0.7394448296685228,2.5672335907600834,-0.15023495707784357,-3.0992360363008453,2,left
5.694,0.5203458681953907,0.9025778517140252,0.18384278786474806,-1.0030434343826835,-5.334583394789583,-0.7325288155888083,2.56787807933508,-0.15015770666220837,-3.0996589272942434,2,left
5.695,0.46242821035288134,0.9076589002841376,0.19558498184200412,-0.9913884609275601,-5.364628826016908,-0.7622056614998587,2.6106452825341178,-0.15780617302706107,-3.123805966075747,2,left
5.7,0.4155983101465113,0.9097179147130423,0.2045503359425339,-1.0130057111714765,-5.308850411847468,-0.7071974987946905,2.505474770046994,-0.1392665344454443,-3.0643419596312462,2,left
5.7,0.35892579439960015,0.9061043756443483,0.20877974402381771,-0.9852297908990587,-5.380392582265382,-0.7778705871203409,2.679874743017791,-0.1699077628228629,-3.162981008701043,2,left
5.702999999999999,0.3194009599113835,0.903020358861284,0.21069352110283046,-1.008436628428024,-5.320703783980671,-0.7188491135386967,2.4498320495902366,-0.12952823052755952,-3.0328583428809566,2,left
5.705,0.3089783623054231,0.9029798935744389,0.2104642252984882,-1.0077866182507869,-5.322412823383216,-0.7204045624979561,1.4843677317711883,0.04012858166185394,-2.486841530640975,2,left
5.705,0.2689183442913826,0.9019391480456826,0.20721844527720193,-0.9635677690129717,-5.435817832175392,-0.8331377761399679,1.2543281303066414,0.08050309788105436,-2.3567206482077365,2,left
5.709,0.21903141811883714,0.9011448261951712,0.2027753538957204,-1.0723104929341478,-5.15701868066208,-0.5560772282282873,1.428714100151291,0.0498846377401942,-2.4553516258557098,2,left
5.71,0.17462827079233617,0.9008750925618498,0.20094985584217806,-0.8919588246100898,-5.6192644365644835,-1.015469414548874,1.3235800656372727,0.06836491752089331,-2.395908640380496,2,left
5.716,0.14007536901933243,0.9006768023936901,0.20329320891610705,-1.1298952204623829,-5.009597271391492,-0.40951206932111556,1.3662805396120343,0.0608250783129348,-2.420017229842032,2,left
5.7170000000000005,0.1318838145213129,0.9005304239049694,0.20422956810242665,-2.128077152926417,-2.450688776540672,2.1340020745649837,1.3670166121707648,0.060753199608718784,-2.420492887128865,2,left
5.718,0.1045270053947819,0.9000741109040472,0.20294184388871006,-2.366102753612494,-1.8410705558456926,2.7399935366674013,1.3444482074642652,0.06466074354079744,-2.4076702500741733,2,left
5.718999999999999,0.06936968372150722,0.9021335009190242,0.20360912411033288,-2.1856525379371528,-2.303244962449053,2.2805554764788765,1.3713840153204218,0.05995539289355265,-2.422930118677196,2,left
5.718999999999999,0.0489752420044795,0.9092231652783225,0.2008361881855792,-2.294365757546348,-2.024490824551659,2.5576337278291996,1.3505556965113672,0.06365493617314846,-2.411197600863248,2,left
5.724,0.023115718294704064,0.9191829930642356,0.1927891016119455,-2.2504522040366703,-2.1379371683302497,2.4449575158239094,1.3615009650503977,0.06159414988965494,-2.4172332857151213,2,left
5.725,0.002350155067902692,0.931526138695622,0.18443015963626946,-2.249135391430608,-2.1394675346742558,2.443235702449236,1.3595127238595655,0.0621825601809264,-2.416375463466598,2,left
5.728,-0.010664750146002797,0.9485512023895848,0.1744220451876884,-2.273306230769276,-2.0801067630306838,2.502530711289085,1.3557953881794464,0.06254201243049431,-2.4139458779239833,2,left
5.729,-0.016500904598921038,0.9673074853995033,0.16271823172721753,-2.2445604444982235,-2.151232540447672,2.4315415152230884,1.361551988403246,0.06176482698867033,-2.4174624262851965,2,left
5.733,-0.013782740653492916,0.9857636020177412,0.15028470281638223,-2.266614598630267,-2.095800458239058,2.4867672704434214,1.356699078456327,0.06261879541007107,-2.4147198992852785,2,left
5.734,-0.00743265472109168,1.0072668437834589,0.1360509508026027,-2.2557500036416727,-2.1258193944875377,2.45717476185063,1.3588836176616277,0.06180286376352491,-2.4154722226234417,2,left
5.7379999999999995,0.005936624213639892,1.0334737723535294,0.12356980527892353,-2.2558196021771173,-2.11865687233757,2.4634972304377927,1.3599082010453558,0.06261101621288423,-2.4171560353026553,2,left
5.74,0.0236426951755289,1.0614419310274035,0.1144714042975972,-2.26338449837505,-2.1112897230604704,2.4721946575129015,1.3562608110544596,0.061777618464387465,-2.4134457365224566,2,left
5.744,0.04308300348320407,1.08906462488433,0.10710961099833899,-2.252546003608953,-2.1243231633050277,2.457552149445318,1.3609242415899234,0.06252970226773863,-2.4178393603295065,2,left
5.744,0.06601403577016787,1.1170119729750105,0.10249302489758322,-2.261939512495192,-2.1119997693776345,2.4711470694301427,1.3577100097183332,0.06218667988561344,-2.415006922749603,2,left
5.747999999999999,0.09093213487887736,1.1447419406140553,0.10102129370597225,-2.2586117146339895,-2.120634812643334,2.462575206293601,1.3565550970023357,0.061606502344773224,-2.4134788077540645,2,left
5.749,0.11482008677876185,1.1723446845970398,0.10184688670641902,-2.2519761209598617,-2.115835109061271,2.464850827059566,1.3645903413360807,0.06362054760832968,-2.4218516283514293,2,left
5.752999999999999,0.13788240995512668,1.2007666854610366,0.10269692151359103,-2.2704991368413143,-2.118192081801867,2.468211491363108,1.3489849345166525,0.06000983732783629,-2.4059263627083807,2,left
5.754,0.1591996029553454,1.2285774627852029,0.1010664662310608,-2.242062522908326,-2.116737876365429,2.4611476935593046,1.3692763555827714,0.06460095251739983,-2.426518095269792,2,left
5.757000000000001,0.17491823994534883,1.2540819676075632,0.10293132779336071,-2.272525143471457,-2.1179048076078777,2.4690594742922354,1.3522296405898375,0.060787763121440797,-2.4092673934076423,2,left
5.757999999999999,0.18605147849445702,1.2817837772178142,0.11243012882518594,-2.2546890480771893,-2.1178359008872247,2.463885387008559,1.3528544699740448,0.06086003914738959,-2.4098256555660047,2,left
5.7620000000000005,0.1945228320206156,1.3073829790862708,0.12086274445730529,-2.2404806638157355,-2.1147754202976885,2.4624111678204677,1.3849237403876369,0.06821264211827052,-2.442475546935892,2,left
5.763,0.20021862760682504,1.327428386038096,0.12855831253627623,-2.304570229385784,-2.1232591851584335,2.473750047639117,1.3058663948761429,0.05018694898800285,-2.362095551738909,2,left
5.767,0.20026517505355962,1.3543548132987482,0.14131081994163208,-2.1853743309817184,-2.108410102596005,2.4518405935819034,1.437033743600776,0.08005491787909236,-2.4954162109611095,2,left
5.767,0.1957003759664775,1.373091068978828,0.1479769719353953,-2.3385001758655024,-2.1272815936872167,2.480170277092657,1.2639963803046106,0.04066952120647505,-2.319553511630021,2,left
5.772,0.1935725944165829,1.3763269046443452,0.14861582211931304,-2.210639377847084,-2.1116017238318183,2.4564407616053026,0.5378002470750112,-0.1246736156574427,-1.581442344318862,2,left
5.773,0.1893642568281199,1.3882552683554241,0.15411925983487013,-2.2142025697954706,-2.1117301970086677,2.4573866128067836,0.36477163134725554,-0.16404274798083612,-1.4055930872737004,2,left
5.774,0.18054242629577322,1.4020664599181614,0.15449586692219242,-2.4576559094743824,-2.142610694728515,2.5016346898425343,0.4959388230155828,-0.13420625209114267,-1.5388986240965008,2,left
5.777,0.17150425862589447,1.4103201086973518,0.14841372917206147,-1.8591706205805016,-2.067048613653439,2.392523758346684,0.4168449113528296,-0.1521894886952301,-1.458515147240084,2,left
5.778,0.15707132915414485,1.4192533832765495,0.1447515039308369,-2.851499236820451,-2.192257719913868,2.5735226645309197,0.4490135398855503,-0.1448798404380418,-1.491209055971371,2,left
5.782,0.14590680106107107,1.4224194943462507,0.14097963484780046,-1.5426382901469593,-2.027101426152811,2.33478295017382,0.4494699907947486,-0.1447828345610344,-1.4916697851805385,2,left
5.7829999999999995,0.14206028391499426,1.4213800643489496,0.1394502697409213,3.9516417761991307,-1.3338098950030024,1.3330050686074717,0.43262834806781425,-0.1485772841337651,-1.4745611888874386,2,left
5.784,0.12822902308214634,1.4204733706060462,0.1406462696288036,5.260506065736729,-1.1686282447446288,1.0943009102633956,0.4527609584942983,-0.14407253147383764,-1.4950085827159425,2,left
5.787000000000001,0.1071160273658057,1.417776584527339,0.14293248929539054,4.268108975890706,-1.2938156703138866,1.2752744284195345,0.43713977958820815,-0.14752025103964614,-1.4791508625378729,2,left
