time,gFx,gFy,gFz,ax,ay,az,wx,wy,wz,subject_number,foot
14.616,0.17179465263217517,0.9998933599707649,0.005804888257623358,0.3859815397039116,0.5326037964624497,-0.9138245823571824,-0.4050296302171259,-0.2526711537250338,0.4397167346960624,3,left
14.619000000000002,0.1682678556752825,1.0012362904267924,0.011083912944622888,0.37911524810286307,0.5329863246794577,-0.9091807975870726,-0.4048291491725935,-0.2533331665304803,0.4399992027198996,3,left
14.62,0.1648646277876044,1.0046137624801443,0.01254849974025659,0.3805799717806026,0.5329835506892342,-0.9103597414396807,-0.40487858013415884,-0.25308951493460086,0.43986668428265363,3,left
14.625,0.16124679514679574,1.0098612586695548,0.011458290608253131,0.3826024377151539,0.5327179066663423,-0.9113614953421844,-0.4050373866948813,-0.2528994493411143,0.4399043293782513,3,left
14.626,0.16121072948124707,1.0147196570432584,0.008759933481373581,0.37919945896287865,0.5330985646681683,-0.9095177368007226,-0.40464692678173564,-0.2534682560855267,0.43989110855936,3,left
14.629000000000001,0.16110148428324234,1.0174679526166794,0.007332088716561709,0.3823582231165726,0.5327686441865374,-0.9112851045355443,-0.4052229345070032,-0.2526510220287992,0.4399277117003166,3,left
14.629000000000001,0.16064942962360113,1.0181530647534731,0.011203229250201785,0.38036935018039253,0.532885743924216,-0.9099548791103751,-0.4046174924387125,-0.25348066409354575,0.4398663004224294,3,left
14.635,0.16229547359885416,1.018429800619338,0.016441554403922073,0.38088942738722253,0.5331180150375613,-0.9109337205676746,-0.404967283686977,-0.2530009808060242,0.4399014680468265,3,left
14.636,0.16384183384789325,1.016183863845841,0.023788800364057845,0.38168714528397335,0.5324690884588492,-0.9100223275907167,-0.40525030830496156,-0.2526790527836632,0.4399817746348452,3,left
14.639000000000001,0.1667132325574692,1.0106023156338775,0.03526120907681583,0.3800216331512174,0.5334653641302727,-0.9110644856743995,-0.4039880189540823,-0.2542061801188186,0.4396952244766371,3,left
14.64,0.16970546879630968,1.0051062766308045,0.04746488136670862,0.38188526424558267,0.5323981900824336,-0.9100126933235533,-0.4063298241759997,-0.2513685370879266,0.4402232215078822,3,left
14.642999999999999,0.17351454108991138,1.0007057082706146,0.060059612918710134,0.380669297211716,0.5330228961547547,-0.9105269196375998,-0.40332473341686603,-0.25500423325724975,0.4395413298587875,3,left
14.644,0.17840822233196493,0.9967441576590224,0.07114497105433568,0.38031183745656283,0.5335208675059222,-0.9114331405835321,-0.40583233133125124,-0.2519729553828664,0.44011217965526195,3,left
14.648,0.18277924605443568,0.9930578433864888,0.07554927559099588,0.38300573440480423,0.531275504390107,-0.9082250484753802,-0.40576360031881037,-0.2520635020448517,0.44010267449436963,3,left
14.649000000000001,0.18911583355195022,0.9902823225788996,0.07622366735774323,0.3778072395153463,0.5354510949849203,-0.9140374780188447,-0.4009878894234579,-0.25780508487863896,0.43899014802138425,3,left
14.654000000000002,0.19547063590741837,0.9898292729036823,0.07525076285362087,0.38452616922475424,0.5300873402186262,-0.9066050616347177,-0.41272522448392934,-0.2436880226827782,0.4417191945607236,3,left
14.655,0.2038576285572889,0.9893244242767688,0.06896261130832268,0.3789014059810084,0.5345654411179719,-0.9127970528267986,-0.3932660618547505,-0.26709225965092,0.43719502939451427,3,left
14.659,0.21180563394657792,0.9869400702064645,0.06434601737515658,0.3791177436098774,0.5344421485983537,-0.9126783490071168,-0.418930380727517,-0.23622632108360853,0.4431625339111311,3,left
14.66,0.214380165678824,0.9862823526622798,0.06213463526877362,0.3896263203280509,0.5259120720880084,-0.900712183690622,-0.5266707085490195,-0.10667181333343792,0.4682375326274776,3,left
14.66,0.2245697486102433,0.9858072683244594,0.05351299586211755,0.36372817247524086,0.5468785812351615,-0.9300648817378806,-0.5523314455039978,-0.07581226973298866,0.4742050407817382,3,left
14.663,0.24230182062293032,0.9813107557709634,0.041744061059777404,0.4066789585069255,0.5121171869103147,-0.8814131630984903,-0.5328765270352542,-0.0992077953042301,0.46967990210676624,3,left
14.665,0.2505705189375276,0.9781139236227043,0.03509752933752302,0.3500366538353812,0.5579640474180096,-0.945581453178358,-0.5446140298774602,-0.08509445055368706,0.4724123813962289,3,left
14.668,0.2531095724613186,0.9762778843932444,0.03332815671455061,0.11225473209697526,0.7504378415717792,-1.215017690717759,-0.5398281566747924,-0.0908458952411991,0.4712927879703331,3,left
14.669,0.26085525412218313,0.9718844170798581,0.027553898758439613,0.05564009954091363,0.7962786337883148,-1.279188730915816,-0.5397830900872029,-0.09090647859076034,0.4712937583009456,3,left
14.669,0.26737555975578675,0.9692723513095178,0.019252639991044207,0.09856094650047409,0.7615238050508094,-1.2305340371225078,-0.5422553177205645,-0.08792516303523719,0.4718533753451145,3,left
14.673,0.2694410410150713,0.9656287614074063,0.01574457337361221,0.07265141052419581,0.7824928109299747,-1.2598856024724383,-0.5392872475441377,-0.09150236177073984,0.4711779386270162,3,left
14.674000000000001,0.2721285542424946,0.9610211927160576,0.014500248373210697,0.08325930158307497,0.7739409567521717,-1.2479293091381893,-0.5416097379004927,-0.08870620008075417,0.47171193541855805,3,left
14.677999999999999,0.274322032347765,0.9599369167621211,0.010028727765638462,0.08326195366736766,0.7738645220650734,-1.2477893659476043,-0.5403233577560105,-0.09024613544949883,0.47139959877553517,3,left
14.679,0.2754691897513908,0.9575978098920401,-0.001811741656476154,0.07794357069535704,0.7782754379951938,-1.2540118089305272,-0.5406972299666399,-0.08981857008618384,0.4715281468118828,3,left
14.682,0.276051666308156,0.9564210606656751,-0.017100946816123588,0.08435741139337807,0.7729785858683489,-1.2465490703639182,-0.5408829692906549,-0.08955744679046071,0.47149995896502717,3,left
14.683,0.2762592762579898,0.9585772162435785,-0.03353584334589873,0.07929055341929431,0.7771253084128258,-1.2523745806813493,-0.540486841541963,-0.09008006421160591,0.4714953147566252,3,left
14.687000000000001,0.27474279352709075,0.9603570539749753,-0.055207115917561334,0.0822464415863966,0.7748224970593587,-1.249192532778442,-0.5408840539471854,-0.0895655456424049,0.4715180017913484,3,left
14.687999999999999,0.27052589150010486,0.9626873795388182,-0.07517108045524615,0.08104504951314098,0.7755055281128709,-1.2500148688434587,-0.5405194340509428,-0.09000370030761802,0.4714325251437488,3,left
14.692,0.26600633915462446,0.9656170403372544,-0.08682788279789491,0.08128320505831141,0.7758113669033386,-1.2506736262192932,-0.5409471150434214,-0.08955773198500291,0.4716614397622617,3,left
14.693,0.25793524463728024,0.9705727103445444,-0.09376730216111588,0.08136227190836717,0.7751355247065886,-1.2494444644957559,-0.5403322981411486,-0.0901408784644811,0.47122269655453264,3,left
14.700999999999999,0.24925092719554343,0.9750114278010178,-0.09340274754792145,0.08111948726237944,0.775819809168527,-1.2506280203280222,-0.5411626968988383,-0.08937534964327742,0.47185701296359633,3,left
14.702,0.24311363044214948,0.9750791585888071,-0.08560099249829758,0.08192991469213068,0.7751681081189232,-1.2497179096888846,-0.5402935820356064,-0.09017197662879045,0.47118456708229806,3,left
14.703,0.23395267143155987,0.9737689595316472,-0.07624899054510262,0.07980971503576076,0.7759793390111793,-1.2504343033004952,-0.5407703326065141,-0.08974239782221757,0.4715672031438869,3,left
14.704,0.22439883337883998,0.9732714307014528,-0.06356800785037797,0.08385469703740409,0.7747733124743582,-1.2497038179646571,-0.5413074483556799,-0.08921995131746141,0.4719263480198533,3,left
14.709000000000001,0.21262778792096576,0.975739031997658,-0.04929359476295758,0.0780119744807434,0.7764172899525267,-1.2505765036726155,-0.5391630848492469,-0.09125739741129463,0.470402466492182,3,left
14.71,0.19737286978874435,0.9765777079529372,-0.037925790392399086,0.08420474057284931,0.774693715302387,-1.2496864568290036,-0.5431027750561578,-0.08752387826290778,0.4732199390613892,3,left
14.712,0.18374746620717286,0.9716152143368694,-0.030531207817939384,0.08068294570772844,0.7756438997215377,-1.25013723338094,-0.5380520852159476,-0.09230781782502134,0.4696039995708118,3,left
14.712,0.16983160351952425,0.9642981121632752,-0.025747423187813714,0.07736779765872642,0.7766892083101637,-1.2508409685493282,-0.5422657245915098,-0.08831802344551004,0.47262215220127723,3,left
14.716,0.15910891696020743,0.9522216106999566,-0.014162781688253795,0.09141929752377641,0.772484840676704,-1.2482763982333869,-0.5421636314964091,-0.08841036643498534,0.47254308495177677,3,left
14.717,0.15254055287040105,0.9393533580374853,0.0058033275725588645,0.06544318858433261,0.7802149312305384,-1.2529400113336315,-0.5340888666685759,-0.09606945108516407,0.46677909680488733,3,left
14.720999999999998,0.15172690499127034,0.9293376911066689,0.02830584092859307,0.09877924366267657,0.7703042648445471,-1.2469716236096127,-0.5539225339641388,-0.07726277540757445,0.48094355172709446,3,left
14.722000000000001,0.1604182751895466,0.916898354893059,0.051107565622992346,0.07095615720899995,0.7785718886545341,-1.251947369473951,-0.5210395507015879,-0.10844038153488823,0.45745846868538553,3,left
14.725999999999999,0.16648187834260803,0.9086839399630611,0.06343063538351634,0.07168046338253362,0.7783718941562852,-1.2518417653448566,-0.5644137804612321,-0.0673176076224965,0.48843588689756123,3,left
14.725999999999999,0.16825533237087792,0.9067951564468331,0.06689902190285366,0.12482784758077645,0.7625296484171905,-1.2422554392270568,-0.7464842248030115,0.10531695461547183,0.6184634171588044,3,left
14.725999999999999,0.17699038379001242,0.9037091490911953,0.07943016436139883,-0.005768015333267276,0.8014394731244561,-1.2657863700318277,-0.7898654359832133,0.14644183762974133,0.6494432944905555,3,left
14.731,0.19388413194871268,0.9015127350980106,0.09942240122436549,0.21075715505456788,0.7369331226500744,-1.22677498431559,-0.7569723416573728,0.1152618989495097,0.6259545542772698,3,left
14.732999999999999,0.20669111306485455,0.9013612694604556,0.11327290964684933,-0.07483779903506158,0.8220151669567399,-1.2782367166879949,-0.7768121952947907,0.1340678861226683,0.6401215271409129,3,left
14.734000000000002,0.2102723017247854,0.9003377412300957,0.1159619047894822,-1.2736609221779462,1.179184577033841,-1.494257206872078,-0.7687438096724835,0.12641600097665198,0.6343590873622258,3,left
14.734000000000002,0.22274204548761117,0.9005220611575637,0.12009609014985492,-1.5592600363043623,1.2642671834202859,-1.5457403161272478,-0.7686155138710447,0.12630792029885562,0.6342718269853564,3,left
14.74,0.24291225155483626,0.90341781844158,0.1337839931684527,-1.3427301330703967,1.1997613859306806,-1.5066975211148086,-0.7728767122013002,0.13032047712454564,0.6373056192930849,3,left
14.741,0.25724615905806547,0.9040023025047336,0.1437645579135579,-1.4733251057577885,1.2386668666416896,-1.5302489866091578,-0.7677661849547327,0.12551362383921677,0.6336692437175264,3,left
14.743,0.2736145641219052,0.9051551939386908,0.1550089716443832,-1.4201909576134704,1.2228351168456428,-1.5206789107175012,-0.7717548675205722,0.1292574886737905,0.636504563568796,3,left
14.744000000000002,0.2923458077616571,0.9138378221233988,0.17144296541058396,-1.4194370408324535,1.2226182033842812,-1.5204979448101374,-0.7696084870167215,0.12723866153878505,0.6349774236677492,3,left
14.748,0.31061439116989753,0.9257481629861399,0.1805226657583553,-1.4473034888637755,1.2309055504343904,-1.5256140878322362,-0.7700602388230364,0.1276993124134244,0.6353112713741268,3,left
14.749,0.33273426130324746,0.9415134115308871,0.1842262898649542,-1.413923122994508,1.2209809089152057,-1.5194654913822871,-0.7707362167076863,0.12823640004167336,0.6357578122694029,3,left
14.754000000000001,0.3548245864372306,0.9621567134419604,0.1782761348304954,-1.4399204528793463,1.2287065090105662,-1.5242818913006184,-0.7695672416816782,0.1273067367336722,0.6349853690356995,3,left
14.754000000000001,0.377362892553609,0.9841940534893245,0.1656730335311447,-1.4259021602568245,1.2245383848034628,-1.5216991729541034,-0.7707193777852466,0.12817996539380194,0.6357316218355731,3,left
14.758,0.3999424039608769,1.0100301773236073,0.15516950632538762,-1.429102007601378,1.2255086469661436,-1.5221639454232334,-0.7699171538719803,0.1275940114877035,0.6352197366959835,3,left
14.759,0.415463719253227,1.0371209068388718,0.14247113127590097,-1.4328271991542625,1.2265644679252787,-1.52319528569822,-0.7701841971692961,0.12784875800117007,0.6354109767005076,3,left
14.764000000000001,0.42896400878338997,1.0659836737373858,0.1397043132616917,-1.4263797938797005,1.2247363826635498,-1.5214135060138378,-0.7705319576216135,0.12785444469988708,0.6355461318295522,3,left
14.764000000000001,0.44204643372119545,1.0985048965439794,0.14677004171061947,-1.4324330248013426,1.2264261480060914,-1.523264801958017,-0.7695894664442993,0.12770134081191303,0.6351317607189181,3,left
14.767999999999999,0.44916282711298733,1.1270128176209275,0.1521701739552308,-1.4283726628738065,1.2253069114439676,-1.521926979854696,-0.7709611104628096,0.12789714885158304,0.635725360473794,3,left
14.769,0.45429725590937076,1.1493180068363882,0.16031618598965686,-1.430141793537158,1.225835042560948,-1.5222403502319073,-0.7695445258335127,0.1277316694470303,0.635125159979758,3,left
14.773,0.45582308277227346,1.1639677575681373,0.1601193549907167,-1.4301649879090244,1.2256735707290767,-1.5233691744400817,-0.7703634174329955,0.127827630063837,0.6354722145399043,3,left
14.775,0.44962333465644766,1.1669723340934797,0.14434970289220184,-1.4291390279120433,1.2257522436327384,-1.5206142863290746,-0.7709685907352419,0.1278149243437604,0.6356995066526986,3,left
14.777999999999999,0.4391918285612866,1.1605983769876218,0.1324145889517748,-1.430443272850861,1.2255678162488275,-1.5246831869619282,-0.7681899173091519,0.12774729533133541,0.6346119482475827,3,left
14.779000000000002,0.42553134600888304,1.1493025387346267,0.13447692365097438,-1.4293531659209915,1.2258534493914177,-1.5203999002549966,-0.7733492254850562,0.1278785556614417,0.6366332346835506,3,left
14.782,0.4092895981376232,1.1333224521910106,0.13999668949468802,-1.4299857422689133,1.2256899193410171,-1.5228750485385862,-0.7667330744606439,0.12771828487411607,0.6340440346415395,3,left
14.783,0.3927697297988396,1.1116611554725204,0.14183821922393938,-1.4298673627908487,1.2253490416281094,-1.524889768028534,-0.7722523540540973,0.12784798237745376,0.6362025428704301,3,left
14.787,0.37836600343597626,1.090474450156082,0.13962103903445866,-1.4295275702496517,1.226580687971838,-1.5159192583156953,-0.7720932495503842,0.12783552227073278,0.6361373589452762,3,left
14.788,0.3674220707398058,1.072163542521231,0.1322628788747724,-1.4301991422977725,1.2243108725569083,-1.5325620012213936,-0.7616122473519246,0.12762849549504093,0.6320519070432671,3,left
14.793,0.3570566596759039,1.0571434060145726,0.12313111949999433,-1.4293934341492625,1.227240316252983,-1.5112027343562975,-0.7873794755020094,0.12814269595463654,0.64209751959112,3,left
14.793,0.3475064055628126,1.0494473529724293,0.11060179966357739,-1.4300387535177617,1.2247895321684636,-1.529028662548498,-0.7446583976045194,0.1272925825546235,0.6254432540929598,3,left
14.798,0.3443662242876204,1.0472700816473295,0.09874692612258637,-1.4299565119089928,1.224829414844967,-1.5285366907021514,-0.8010033294516026,0.12840971886573038,0.6474070453434804,3,left
14.799000000000001,0.34375647619729854,1.0467556860166476,0.09504615366963487,-1.4290118211026979,1.2296052192872473,-1.4945924001509527,-1.0374984064268644,0.13309216126481827,0.7395943457111505,3,left
14.8,0.3408187944699016,1.0473626598479862,0.0859920760711309,-1.4313766371792707,1.2178934852706222,-1.5780267989814813,-1.0938373207170604,0.13420283908719446,0.7615533531797092,3,left
14.802,0.3425626115854916,1.053748749516485,0.07160944775091305,-1.427467656048771,1.2373063571650094,-1.439693780444225,-1.051124720978239,0.13336158068895285,0.744905668790566,3,left
14.802999999999999,0.34588345063971704,1.058953129331174,0.06645384693819817,-1.4326011874789637,1.211701232057412,-1.6221481081757687,-1.0768874561924615,0.13387182462141634,0.7549482719857361,3,left
14.804,0.3470703912325902,1.060932898369427,0.06537656056302978,-1.4541059675990335,1.1040014372097118,-2.3880530217284868,-1.0663992251929062,0.13365525479599635,0.7508559139597943,3,left
14.807,0.35429016530259483,1.0748816208585845,0.06240148386066418,-1.4592171842647175,1.0783819958684324,-2.5705055850786653,-1.066265272837006,0.13367243733982043,0.750812445347821,3,left
14.809000000000001,0.36128006551268416,1.0941308237240084,0.06181626196590875,-1.455329355700873,1.0978359639941768,-2.432166155765005,-1.0717408044561054,0.13375233982726836,0.7529343291183628,3,left
14.812000000000001,0.36216146471672184,1.1112515162870595,0.062460954601327466,-1.457713946847214,1.086039420359059,-2.5156307493164345,-1.0651778169635917,0.13365076520601818,0.7503884561732936,3,left
14.812000000000001,0.36340438676047215,1.1295237945745589,0.057698179856440907,-1.4566673329054671,1.0909508337059353,-2.481619373993489,-1.0702963588073113,0.1337397800015495,0.7523783142664319,3,left
14.818,0.36025029976584033,1.1450586485444232,0.05035350940556826,-1.456789803532171,1.0908238562572068,-2.4812311572815253,-1.0675131134123954,0.13366073567296294,0.7512828927864685,3,left
14.82,0.3502343939312941,1.158010114851912,0.04593219880172904,-1.4571532848595767,1.0885123033311415,-2.4989408150964696,-1.068203682271545,0.1337518703518265,0.7515859901692805,3,left
14.822000000000001,0.3407518673235268,1.1681259552696814,0.042723532037261286,-1.4566136455557879,1.0914280275281294,-2.4776567426465848,-1.068835321673165,0.1336308406495182,0.7517737781624952,3,left
14.823,0.32911987290670636,1.178432305683348,0.041974565362967876,-1.4571974870572442,1.0889321478774108,-2.494342407009621,-1.0676911290365207,0.13377208021498738,0.7513994560673274,3,left
14.828,0.31170679509053734,1.1894293624982297,0.045788532330757546,-1.4565668481291785,1.090710124856069,-2.4851336672947237,-1.0687820084494541,0.13366299602764264,0.751767546600998,3,left
14.828,0.29180021090346075,1.1984988583249814,0.05167352497628075,-1.457278028464959,1.0895289833479376,-2.4876170239487037,-1.0679833912651853,0.1336460954418656,0.7514557180601414,3,left
14.831,0.2692432241954562,1.208722706087669,0.05715171312238133,-1.456542227089771,1.0902911899198324,-2.489454317158177,-1.0685164416959474,0.13389894727088214,0.751769552879817,3,left
14.832,0.24417449344394695,1.2188209905376604,0.06082015321348407,-1.4570665886225216,1.089995159576988,-2.485773665654601,-1.0680944231247627,0.13333675566059103,0.7513627308678366,3,left
14.837,0.22102773252858407,1.2299158707314928,0.061932234453411096,-1.4571808286575796,1.0894460989499424,-2.4896313553979845,-1.0685332208677414,0.13417174200190315,0.7518952349678032,3,left
14.837,0.19857148620972645,1.242232599510511,0.0637658543847591,-1.4559202529172646,1.0914286369505928,-2.4862546180444696,-1.0681011350365974,0.13328225900538615,0.7513415310469211,3,left
14.842,0.17352477686825668,1.2530849387635685,0.06810245397415345,-1.4586665111889254,1.087568319244248,-2.489197998402619,-1.068294407178029,0.13379520945937173,0.751639397958793,3,left
14.843,0.14795188414566296,1.2664476414176482,0.07216956815772568,-1.4546171973444735,1.093091395440306,-2.4864882716054764,-1.0687397550725533,0.13424251611343269,0.7520050827653961,3,left
14.847000000000001,0.12146326689940329,1.2822775402524718,0.0747833699367642,-1.4589159854499922,1.087289513448742,-2.4887614027879588,-1.0672474281864286,0.13229312070723137,0.7505832578297542,3,left
14.847999999999999,0.09454651370959977,1.2991318007947052,0.07479674894605279,-1.4564448373240346,1.0905850297029058,-2.4878611149125347,-1.069932033838437,0.13590698539361729,0.7531874892079189,3,left
14.850999999999999,0.06669981278597203,1.3198112733998122,0.07491974525523726,-1.4542750895214511,1.093602361255769,-2.48580059137715,-1.066504151328905,0.1312666581110008,0.7498512748950574,3,left
14.852,0.03694246705563224,1.3399275960925503,0.07522665952508324,-1.463697050642964,1.0807218090124615,-2.4924481880964366,-1.0693571827374684,0.13514094790746123,0.7526327712697525,3,left
14.856,0.006635364516111623,1.3595225404765574,0.07344645485223891,-1.446242761517826,1.1045336324260608,-2.480680986163904,-1.0693115292883104,0.13503557810131764,0.7525705699266396,3,left
14.857000000000001,-0.02228003074520418,1.381519959165026,0.0755175287559989,-1.4686460620528583,1.0739830309416512,-2.495587287422479,-1.0637704297969095,0.12764880221253638,0.7472256025057425,3,left
14.860999999999999,-0.046035626999128915,1.3981386038596901,0.08127551141066158,-1.4499499300576253,1.099481405058924,-2.4832307736021546,-1.0773500706633876,0.1458060959478757,0.7603458252459083,3,left
14.860999999999999,-0.07239264519642291,1.4140480318977326,0.08615863726289794,-1.450440678092539,1.0987973031038614,-2.483427163264595,-1.0548476437828873,0.11569899969881597,0.7385982531029281,3,left
14.866,-0.0906431778097272,1.4256670043155446,0.08719344150121314,-1.4861286461790395,1.0501583413930615,-2.507354307154382,-1.0845229657809305,0.15541175322268805,0.7672799354568043,3,left
14.867,-0.09355402732732654,1.4266740351818037,0.08938171600920308,-1.398439765049333,1.1697042221000262,-2.44874733831211,-1.2091783026653768,0.32208734474458245,0.8877211789247431,3,left
14.867,-0.11020886379047307,1.43929906884738,0.09753391283073468,-1.5438148347235532,0.971485711127966,-2.5458398314086064,-1.238849549655527,0.3618029967454409,0.9163992816058713,3,left
14.87,-0.12665736583843623,1.4532742569336579,0.10074313706129445,-1.3520780142670752,1.2329433690824922,-2.417808070359636,-1.2163515325484242,0.3316927611928113,0.8946555814828359,3,left
14.870999999999999,-0.12794596284057488,1.455662795941345,0.10082093619259208,-0.5469228462804783,2.3300576179290413,-1.8800921384280134,-1.2299328471321387,0.3498488740578569,0.9077772806063691,3,left
14.870999999999999,-0.14152595833490972,1.469577868637172,0.09705264625153605,-0.35517377534649425,2.591501210303379,-1.752057392119946,-1.224377129376331,0.3424724760483794,0.9024194592312651,3,left
14.875,-0.1605658783823025,1.4904879547896268,0.08092664439696731,-0.5006044077185301,2.3933465094227198,-1.84916343812892,-1.224362933252823,0.342344760636753,0.9023849101363345,3,left
14.876,-0.17054993433041077,1.5101691525830079,0.06544015241566556,-0.4127707098175222,2.5127260636860127,-1.790521133159169,-1.2271708578093627,0.3462511025382218,0.9051267625268824,3,left
14.880999999999998,-0.17625099082575402,1.5335134341065477,0.05392855531388085,-0.44872365877279036,2.464391452754304,-1.8145129446744366,-1.2237878965956486,0.3415788417575032,0.9018300206906606,3,left
14.882,-0.17594287242867646,1.558260321629553,0.03786913940438766,-0.44885066168324567,2.463289549665552,-1.8146205530395951,-1.2264531115833428,0.3452065154104307,0.9044172290770058,3,left
14.888,-0.1689285297612198,1.5852400794687393,0.015742083422200612,-0.43051082468950785,2.489197182766821,-1.8023510154399935,-1.2249222285894636,0.34328447195765827,0.9029614887272326,3,left
14.889000000000001,-0.1583901703791511,1.6098210138520745,-0.01360549834584107,-0.4527657317096457,2.458476101097575,-1.8172210675728386,-1.225491807823282,0.3436435505437424,0.903436390092644,3,left
14.89,-0.14493228455174867,1.6307824146827654,-0.04616348617394643,-0.43499219162117697,2.481921279559615,-1.8053759880698808,-1.2254710063546215,0.34430858965254973,0.903546091843296,3,left
14.89,-0.13029614457324817,1.6492224074177444,-0.07543564481648722,-0.44542474736195914,2.4702014542563306,-1.81227020073276,-1.2253016614081793,0.34323238357316166,0.9032232929956308,3,left
14.895,-0.11739495549059721,1.6614253947007147,-0.09940355910431883,-0.44151897977481847,2.471224804302819,-1.809785981335584,-1.2255309612589387,0.3442163423052923,0.9035717394444733,3,left
14.895999999999999,-0.10126511195589796,1.6704692712588551,-0.11840272096086471,-0.4411764768387513,2.4769653345102354,-1.8094052716365256,-1.225107140530583,0.34365523039571877,0.9031632057820389,3,left
14.9,-0.08313548651949298,1.6739247890085662,-0.13007074692975407,-0.44377901279311893,2.469214998277529,-1.8112642810770985,-1.2260288150841467,0.34363219728289707,0.90381876671439,3,left
14.901,-0.06896697199288944,1.6652688266342381,-0.13505509471019206,-0.4397132077629331,2.4747193556885057,-1.8085507255475437,-1.2243419448899797,0.34424623553822586,0.9027261099792886,3,left
14.905,-0.05481464129607976,1.6478467663997498,-0.13881847519656906,-0.445610911364334,2.4744785319328466,-1.8122630447424362,-1.2267580479635969,0.3431955317635982,0.9042589652550388,3,left
14.905999999999999,-0.040288347795013446,1.6257502142918239,-0.1414358457206673,-0.4371498427121032,2.4681907620767305,-1.8071290605865,-1.224201019265931,0.34434100410028384,0.902643104011762,3,left
14.91,-0.025273231275405872,1.5994133805116004,-0.14424464548307703,-0.4480055913193086,2.4799794590863327,-1.8136084531735284,-1.225649184293299,0.34363897510219676,0.9035480255161469,3,left
14.912,-0.007360794644813814,1.5671878042977565,-0.1493629219992405,-0.43707924998903863,2.466530685010313,-1.807132650948921,-1.2270430350579034,0.3432316379931194,0.9044700367646157,3,left
14.914000000000001,0.008873190960926987,1.5324354291933355,-0.1550525392204161,-0.44295982795369887,2.4748934224831984,-1.810585627579996,-1.2211806652246289,0.34533910958456393,0.9006674775691317,3,left
14.915,0.02564456289962969,1.4977850061505877,-0.16165683601065636,-0.4493740657576337,2.480261472418855,-1.8144597336754247,-1.232009982315322,0.3413711580425409,0.9076771217492293,3,left
14.92,0.04737223936099935,1.45825234253339,-0.16669646659071863,-0.4237830863564034,2.4533713205309393,-1.7991601550582024,-1.2181135810009938,0.3464809356505423,0.8986862114276981,3,left
14.921,0.06906569128059249,1.4196845048894082,-0.1671788153065848,-0.4706567342364091,2.5040433450232524,-1.8271431406530414,-1.2297121325746505,0.34220724931073887,0.9061878532283553,3,left
14.925,0.09590784549835843,1.3803927505797409,-0.1580285591564648,-0.4106779802429372,2.4386861927029826,-1.791350957359327,-1.229410805320377,0.3423488656530163,0.9060007783509016,3,left
14.925999999999998,0.12553207906531616,1.340786548955701,-0.14490331272181894,-0.4606653603047477,2.4933762204722036,-1.821175320116856,-1.2072510998914534,0.35041811142533275,0.8916455620320818,3,left
14.931,0.15708337497891178,1.3030570371101948,-0.1334071039818134,-0.4594419847975071,2.491697277329954,-1.8204532352765863,-1.2617043196216708,0.33054909955093414,0.9269088428790979,3,left
14.932,0.1982959519412627,1.2558201992112248,-0.11231158605626462,-0.363778948122028,2.387939720393158,-1.7633556585023167,-1.1714188036406794,0.36350871228588766,0.8684475010178134,3,left
14.934000000000001,0.22138778700085773,1.227422431657689,-0.09753141157736017,-0.5987247976241766,2.643257272834723,-1.9035757399950815,-1.2905093076454273,0.3200236264435782,0.9455547042592609,3,left
14.934000000000001,0.23300675063705928,1.2146358112566848,-0.0913961305874995,-0.20923512278640796,2.219808345945217,-1.6711230301942424,-1.7903866608167882,0.13758354630679642,1.2692466070155608,3,left
14.935,0.2532657351294663,1.1913712273592814,-0.0792092012583896,-0.7229585928912179,2.778393242013963,-1.9777219583597532,-1.9094914490739845,0.0940723197708058,1.3463488630835774,3,left
14.939,0.26534234567283854,1.1789274818407773,-0.07381136012464146,-2.8793301251001857,5.122791103318158,-3.2646686482836333,-1.8191845324147133,0.1270740352535501,1.2878961509150932,3,left
14.94,0.29159786660730547,1.1548458574080551,-0.06330947196471445,-3.3930907714420804,5.681437076035097,-3.571299097660224,-1.8736529353000577,0.10716682858650704,1.3231498596739777,3,left
14.942,0.3286730408263843,1.1142755783792,-0.05005409685268872,-3.003556711160737,5.257873957562257,-3.338806282512939,-1.8515010750859873,0.11524317657526963,1.3088008191166842,3,left
14.944,0.35421681337098404,1.0853492068789523,-0.04881190857648355,-3.2385020088673624,5.513336786361956,-3.4790346504443836,-1.8511538607930245,0.11543693187899391,1.3086164436070655,3,left
14.945,0.38306801872877494,1.0553735908138693,-0.04045357263799712,-3.142941993372595,5.409447111980987,-3.4220063760411326,-1.8628414292259312,0.11103450962247605,1.3161014150255665,3,left
14.949000000000002,0.407855059891705,1.0273381458685291,-0.024114427400931792,-3.1414766444335025,5.407817735414934,-3.421105900520625,-1.8488273749728985,0.11633991011240707,1.3071430942397368,3,left
14.95,0.4267905346308184,1.0066647401181763,-0.007118797863711058,-3.191827228680837,5.462624602181993,-3.451209481727152,-1.8597613320008155,0.11216233113058963,1.3141089834023032,3,left
14.954,0.4485552488064557,0.9877298561629144,0.010619832799929155,-3.131466479135277,5.396916381862363,-3.4151099688387836,-1.853875845714775,0.11439036892912988,1.3103468627173305,3,left
14.956,0.4669795491660391,0.9698468269269536,0.028052244602010508,-3.1785426950272297,5.448175766479425,-3.443279953710999,-1.8551305986142954,0.11409103159319295,1.3112563156895167,3,left
14.958,0.4837890122591538,0.9528894984332976,0.045828145096664066,-3.153192748225269,5.42058268216434,-3.4281189331944644,-1.8569396559377074,0.11292116424813306,1.3121160644737586,3,left
14.958,0.5037788728932457,0.9423009576038173,0.06466765768641908,-3.1586809517771934,5.426487197423828,-3.4313311036087857,-1.853811022905239,0.11493992301384692,1.3106265742409806,3,left
14.963,0.52336580295803,0.9349182369722322,0.08806180178861042,-3.1662419787055978,5.434906432882123,-3.4360469596851924,-1.8568750409301167,0.11274625788258383,1.3119527465501204,3,left
14.964,0.5433550723252608,0.9290685240968135,0.10994987678301898,-3.153163340418626,5.420346794835911,-3.4278914864121113,-1.8547515881639856,0.11437826737374575,1.311102053758575,3,left
14.967,0.5722261794509933,0.922628691284747,0.12659355352391888,-3.1658691195938427,5.434576914155027,-3.43590368315052,-1.8554855133920605,0.11411804006517437,1.311581959316034,3,left
14.968,0.6042744768327311,0.91183795600012,0.14050916594966328,-3.1571163451826965,5.424729625992859,-3.4303379007235515,-1.856293458289537,0.11223331174978803,1.3111324487081437,3,left
14.974,0.635654304471039,0.9013157990899008,0.15296959787607622,-3.1602868386953955,5.4281736101993605,-3.4322268445226576,-1.8540413054578004,0.11668839418584051,1.311896890620353,3,left
14.974,0.6728247164699523,0.8858906293068789,0.1669995801821315,-3.1630146839053066,5.431753019025113,-3.434489851284419,-1.8573067993552717,0.11007675363168476,1.3106954666204462,3,left
14.977,0.7086205743898988,0.8647383852532683,0.1820010176991893,-3.155028591530564,5.421668621733282,-3.428272908043046,-1.8539508336112882,0.11707915316122278,1.3120571874087261,3,left
14.978,0.7403398550639098,0.8425690148437286,0.1994726007383903,-3.166537054552741,5.436271537745303,-3.437305228730375,-1.85589119813042,0.11303274818689558,1.3112712460843168,3,left
14.984000000000002,0.7708503361959784,0.8141845661711897,0.21675091428148868,-3.154806723376386,5.421289771699348,-3.4279980149859903,-1.8572865870343493,0.10964576010655899,1.310414170856539,3,left
14.984000000000002,0.7944997369768433,0.7838384347316891,0.2281734264471959,-3.1615930798167757,5.429955131775744,-3.433380197599946,-1.85082091738315,0.12459954528641459,1.313932687415556,3,left
14.988,0.8151760450766813,0.7516464792210518,0.23717423216097067,-3.1662376629964086,5.436115438376081,-3.437302355878103,-1.8628292922955596,0.09686126861997922,1.3074191125835122,3,left
14.989,0.8376635399344987,0.7141137262414345,0.2455133208510125,-3.1443432040839134,5.407453204090237,-3.419205803402864,-1.847433071467294,0.13246997096674162,1.3157977546800788,3,left
14.993,0.8599697394534115,0.6792479567257302,0.25114789606311794,-3.18503139739891,5.460698621193499,-3.452814834188869,-1.8602760105549048,0.1027462088152907,1.3087961120550262,3,left
14.993,0.8846920393511253,0.6456814981411825,0.2529567483123696,-3.1328774017286314,5.392429568741977,-3.409715623937146,-1.859899390071957,0.10356050777627032,1.3089665092157154,3,left
14.997,0.9063131151909205,0.6191487280629684,0.2505639302550172,-3.176384168737263,5.449385553913313,-3.445674165556837,-1.835534683228773,0.16019464920365634,1.3223985510363376,3,left
14.998,0.9215639661638667,0.5974657586392237,0.2470920875941048,-3.1750546352650604,5.447682091878626,-3.444616087542461,-1.8954416701286385,0.020988061462789462,1.2893986260393995,3,left
15.003,0.9349696432346197,0.568311439822397,0.24477255088374905,-3.09269544839875,5.339722252274917,-3.376394053793118,-1.7961161355989892,0.25179814518876503,1.3441160018991862,3,left
15.004000000000001,0.9403695072432772,0.5521996569344667,0.24425720956196878,-3.2952724129858453,5.605228614546801,-3.544151976793033,-1.9271172741798424,-0.05263842298586101,1.2719375470808494,3,left
15.004000000000001,0.9428878782515058,0.5453296107605807,0.24608191938110213,-2.9593595362045937,5.1649783773928295,-3.2659922050358,-2.4768879401556694,-1.3305583125761606,0.9688677455882344,3,left
15.008,0.9483687499995945,0.5331216126861198,0.24577019554309765,-3.402437089638436,5.745672084030031,-3.632880515471822,-2.6078689290614534,-1.6350095247319025,0.8966680864150134,3,left
15.009,0.9510355321068268,0.5249430805134154,0.24772323109387623,-5.261453864263345,8.182320740585242,-5.172518781651458,-2.508580354670382,-1.4041650558307177,0.9514271451373112,3,left
15.01,0.961120589543511,0.5056980352519851,0.25966087115361625,-5.704555250677205,8.763031814119213,-5.539406230537916,-2.568441937632082,-1.543431291734536,0.918369563926302,3,left
15.012,0.9791007933487611,0.47858706215967367,0.2732215103981982,-5.368639901404448,8.32278813648972,-5.2612613041480625,-2.5441156144427026,-1.4867143117752548,0.9318623584349026,3,left
15.013,0.9976803774111833,0.45638339645629816,0.2846387467190242,-5.571124482939961,8.58819756442415,-5.428970300744478,-2.543730359518647,-1.4859878007079785,0.9319934633557415,3,left
15.017999999999999,1.021982109833799,0.4315025361393364,0.2965536843982043,-5.489021067390439,8.480485158422677,-5.360846772044626,-2.5565264716372544,-1.515658105141295,0.9249749634469657,3,left
15.02,1.046043612456172,0.4094165045947912,0.3076294826676904,-5.487254940642182,8.478372975790665,-5.359644622043769,-2.541250834833791,-1.4800121913240987,0.9334618157091439,3,left
15.023,1.0673729432857633,0.39149827256801983,0.3188514230712579,-5.531296636470669,8.535815973253337,-5.395755391112488,-2.553069851713484,-1.5079344649280488,0.9267317849164918,3,left
15.024000000000001,1.091723437216605,0.37736366001032906,0.329892709869216,-5.47872370867818,8.467185637829155,-5.35257247671345,-2.5468170687817135,-1.4926256781734633,0.9305485496036487,3,left
15.027999999999999,1.1145508356185436,0.3697914102032007,0.3367249492580701,-5.519381430650599,8.520357260405468,-5.386091561670436,-2.5480710852228805,-1.4964904590104646,0.9294037217983844,3,left
15.029000000000002,1.1342947859830348,0.36546832576730903,0.3369371723090927,-5.498333467379338,8.492534529844946,-5.368357378977774,-2.5499459637960777,-1.5000916536992557,0.9287314828004976,3,left
15.033,1.155750410874489,0.3647924650411184,0.33494647588653187,-5.501088591752881,8.496901031726395,-5.371611962401815,-2.5469986489486303,-1.493233976900933,0.9303595601402113,3,left
15.034,1.1769067481107762,0.36691370821565683,0.33031602862182585,-5.510655279953738,8.508140397355696,-5.377860757273392,-2.5494478010203445,-1.500330671915447,0.9283391713252052,3,left
15.036,1.1927514915019146,0.3700190453940747,0.3200978251911017,-5.496017390157132,8.490548357624508,-5.367791138517642,-2.5483178960060764,-1.4944968894829567,0.9304932664802827,3,left
15.037,1.2059394475211676,0.3732957701873191,0.3061489639579653,-5.509090300158974,8.50641289343182,-5.376981542062934,-2.548048977718217,-1.4986558617580146,0.9283577814214068,3,left
15.042,1.2153542530653456,0.3715685727945347,0.2873553855372096,-5.502852550805917,8.498225618182332,-5.371801087278312,-2.549196343075856,-1.496223950552781,0.9301590400692963,3,left
15.043,1.2149665814726038,0.3652603943671967,0.2700416656904959,-5.498699092485164,8.495138254656958,-5.371396627271092,-2.5480944442133353,-1.496607149461096,0.9293614824019574,3,left
15.047,1.2081526844714003,0.358319082554969,0.2610094777591817,-5.514448423598327,8.510395930854278,-5.377503373090784,-2.5480683267438624,-1.4990896997651877,0.9281609438377935,3,left
15.048,1.1964626354586,0.3468326433931983,0.25446580843575933,-5.489454525021294,8.485669471631685,-5.367151896044836,-2.55013253542175,-1.4927680268520878,0.9323321012168511,3,left
15.052,1.175909167405892,0.3285123101581755,0.24894256729002487,-5.516378031006189,8.512395070743985,-5.378418263331941,-2.5457365016340274,-1.503166964708969,0.9249131293363403,3,left
15.052,1.148405912165129,0.3056340172651003,0.2427363772522691,-5.500379737041257,8.49637335929056,-5.37154272469032,-2.5516322889108967,-1.4904023250837994,0.9342976577413191,3,left
15.056,1.1175118312773185,0.2828351451806851,0.23038072710665763,-5.488776067832762,8.485430449444461,-5.367426717626794,-2.5466046479869746,-1.5008069419558607,0.9265261371028852,3,left
15.057,1.0762254067189452,0.25966194944631327,0.22456291422174895,-5.5431410164336405,8.538019421300291,-5.388405593699455,-2.5468284289659646,-1.5007444655192317,0.9266766362439681,3,left
15.061,1.0279248409666026,0.23623662255654646,0.2267809088883987,-5.441672380640446,8.439641656455887,-5.348963578574006,-2.5562558152123227,-1.4804980344999512,0.9416107396542484,3,left
15.062000000000001,0.9760901719836598,0.21572759448696063,0.2315288725522853,-5.572111239602144,8.56615898424697,-5.399731290028376,-2.5329285741643144,-1.5298679904913506,0.9050137661551163,3,left
15.065999999999999,0.9082493131051104,0.19158458742405543,0.2533099698094584,-5.463150324170071,8.460450204843053,-5.357295630361492,-2.5716774097256927,-1.4481993601377108,0.9656362871634409,3,left
15.068,0.8594903452254765,0.1746188617850164,0.2756326618479654,-5.466337563988851,8.463627724735296,-5.358639350121571,-2.5205376822721988,-1.5558260081974766,0.8857099326310287,3,left
15.071,0.8458247632829861,0.16925013371690917,0.2828026084179488,-5.673333998238414,8.66417313433455,-5.438922809388368,-2.3057626156088586,-2.007586913264749,0.5500806768819201,3,left
15.072000000000001,0.8080953551411654,0.15042971604687772,0.30883371340184285,-5.164271769952995,8.170868103959371,-5.241359300132622,-2.254616332627127,-2.1151590390665014,0.4701875742518037,3,left
15.073,0.7445659630567768,0.1199148319032739,0.3622556355888533,-6.008405346956605,8.98890767790326,-5.568996605328891,-2.2933972311367787,-2.033607436585974,0.5307603572260405,3,left
15.077,0.7110815733074545,0.10247386601659884,0.39488142469696685,-4.894979555001268,7.909889839610503,-5.136831710098944,-2.2699842420571468,-2.0827942544090714,0.4941984449951294,3,left
15.078,0.6998083058785516,0.09793828644218022,0.4059168358433193,-0.22211042977627193,3.381796716010397,-3.3233601648756306,-2.279570441047694,-2.0627759612164454,0.5091513941527026,3,left
15.079,0.6659121276195994,0.08456061875108112,0.44409089356057596,0.8912714759470393,2.302840875601811,-2.891229189412086,-2.2795743284901375,-2.0625057447366126,0.5091942111955102,3,left
15.08,0.6257690091778142,0.06067883615288322,0.491895465098389,0.047237621592963686,3.12072948388887,-3.218794924022362,-2.274764449102947,-2.0729815507283744,0.5016308306979893,3,left
15.081,0.6034446426811801,0.037768073976139044,0.5257451926928847,0.5561328711305165,2.627696075306339,-3.0213409731943064,-2.2805651982966673,-2.060429136866506,0.5107409647205519,3,left
15.085999999999999,0.5860849478688139,0.014241662412187125,0.5567594731979704,0.34936040767330234,2.8278514180813508,-3.1014915257049562,-2.2759839924046124,-2.0702107959583858,0.5035650408286676,3,left
15.087,0.574939695161778,-0.011314272646565976,0.5733946349449188,0.34594611319050017,2.8314589829212675,-3.1029510960219233,-2.278650960021126,-2.064918185223225,0.507684608530196,3,left
15.091,0.5666965461763332,-0.03779813731942459,0.5749489925916684,0.455028545986777,2.7254612425402636,-3.06048552607399,-2.2775798235332334,-2.066169882910164,0.5061561022862193,3,left
15.092,0.5542533877733676,-0.06349006888650303,0.570414706251257,0.32472353685206023,2.851857067643463,-3.1111129008129854,-2.277769412820056,-2.0674905405380555,0.506204234037774,3,left
15.095999999999998,0.5407420867869637,-0.08881530935590845,0.5598048345065835,0.42566116215188854,2.754291684944524,-3.072047346365903,-2.2778726869700394,-2.0651653158205603,0.5066695260338312,3,left
15.097000000000001,0.5250324232921975,-0.11138924096000699,0.5474866522498556,0.37227177012048823,2.805233875109135,-3.0924188048657912,-2.2776276822638213,-2.0673600737274214,0.506044709732043,3,left
15.1,0.5084600652724728,-0.1288266388667763,0.5365289317548362,0.38260896880911,2.7965831149531293,-3.089007147154076,-2.2783600874981373,-2.0658368454207174,0.5071860314902652,3,left
15.100999999999999,0.49368247155893497,-0.14594640747253806,0.5239217780398191,0.3997243586773198,2.7783222491146233,-3.0816289501897813,-2.276491177717406,-2.066645309962543,0.5047175468732353,3,left
15.105,0.485910346344608,-0.1608440962473224,0.5088078729323984,0.3725610898980266,2.805979380223514,-3.092757111816269,-2.2800384258337933,-2.0663169953745095,0.5092289487473651,3,left
15.106,0.4888010040283692,-0.17201075835896917,0.49519746884360777,0.3960559770409709,2.783224321314317,-3.0836440339860993,-2.2749201964343437,-2.0664430935358156,0.5027695964028538,3,left
15.109000000000002,0.5029548068232904,-0.17828708802531995,0.4812870447026198,0.3841847269371105,2.792250691354213,-3.0871642068156087,-2.2803436083802917,-2.0663761283232462,0.5096046220403356,3,left
15.110999999999999,0.5292249471701507,-0.1781882447718771,0.4644898148380382,0.3821913331854374,2.7998425102000706,-3.090421627089192,-2.27726165738649,-2.066308333850275,0.5057355233262932,3,left
15.115,0.562386700504641,-0.17368776328869592,0.4448264400728432,0.39542128684985106,2.7785793119906828,-3.0815821692365577,-2.274350276142888,-2.0667783628279244,0.502004308728131,3,left
15.116,0.5977650907318754,-0.16292259161979905,0.42251536950672536,0.3775647623021091,2.804882046953368,-3.092461316493557,-2.2866738983193065,-2.0655855130600376,0.5176848106055638,3,left
15.122,0.6334663588805626,-0.14888695236782326,0.39541635580595125,0.390399402684561,2.7872470077851004,-3.0851991442315834,-2.2638962212037623,-2.0676425452839275,0.4887232846505367,3,left
15.123,0.6684825671501913,-0.13110716176531806,0.36178180707101193,0.3936368285130071,2.779623410175902,-3.081974298974253,-2.2931251225404017,-2.0650348471841693,0.5258835035023054,3,left
15.124,0.7023041762323456,-0.110883869942227,0.32803981617171735,0.3650293224425443,2.826967574962695,-3.1016870704223427,-2.268733089309247,-2.0671998778324454,0.49487329725800183,3,left
15.124,0.7344876936989674,-0.08928808126932966,0.29360084723967456,0.4214942927361687,2.735865985917779,-3.0638071818798744,-2.269360536791747,-2.0671907046465243,0.49566649615892167,3,left
15.130999999999998,0.7627855314012961,-0.06253954932717262,0.2602264398560209,0.34775978105237804,2.8540326624251744,-3.1129226693459873,-2.3159727064023787,-2.062895706005988,0.5549431485866222,3,left
15.132,0.7848903833056258,-0.0371355936577267,0.23228099077935457,0.4098386924970512,2.75488244800444,-3.0717186266919096,-2.2014500314628735,-2.07339842663428,0.4093074657019413,3,left
15.134,0.8110091927990906,-0.0025937259294072784,0.20207853355083288,0.4073527640321185,2.7583318797799885,-3.0731410843730362,-2.3913155626103513,-2.0559930653440253,0.6507572154109563,3,left
15.135,0.8292999704986832,0.02383416036245263,0.18521053856512038,0.29112206065633683,2.9453510655022583,-3.1508905501450157,-2.140894962094101,-2.078957347541355,0.3322957620169214,3,left
15.139000000000001,0.8316122672186459,0.027406599707529452,0.18251112844893883,0.5779719219995777,2.484580221786538,-2.9593499999829707,-1.089600695261392,-2.1753363599335085,-1.0045985348434023,3,left
15.14,0.8505997327749435,0.05751872263906494,0.16465676514568006,0.10191469193676539,3.248964364289998,-3.2770961585727503,-0.8391940447813682,-2.19832085637451,-1.3230510811098664,3,left
15.140999999999998,0.8714048742186422,0.08942924531227531,0.14980079501194196,0.7300035587286863,2.2406145592040247,-2.8579369048493337,-1.0290444849433076,-2.1808936251691255,-1.0816109664710787,3,left
15.144,0.87443857693592,0.09314099040297559,0.14995647292471323,3.3657819805526117,-1.9913317635420922,-1.098757296177728,-0.9145160624248923,-2.1913880257336595,-1.227250321165959,3,left
15.145,0.8872184047666551,0.11744854003141465,0.1423346061405944,3.993945432530369,-2.999635276125857,-0.6796124373292164,-0.9611783118997118,-2.187165577713735,-1.1679416885802612,3,left
15.145999999999999,0.9052898208040987,0.15069165476363172,0.13320945821936087,3.517682039647931,-2.2352611877330384,-0.9973619056108145,-0.9616980162427796,-2.1870003055867766,-1.1672172899226867,3,left
15.148,0.9193546591413175,0.17517242678096237,0.12992296429947625,3.8049456151208076,-2.6961928730719222,-0.8057485442476311,-0.9374604567964078,-2.189389148138231,-1.198128857867849,3,left
15.149000000000001,0.9352405818038834,0.20128689720744125,0.12913870969006716,3.688066405033588,-2.50871522830903,-0.8836875677793328,-0.9665355444922866,-2.1865585829673986,-1.1610668530703565,3,left
15.154000000000002,0.9500762670549565,0.21945911181684674,0.13140634712547195,3.686363751334503,-2.5060569465831293,-0.8847942891476331,-0.9438242165244338,-2.18871177286739,-1.1899860183923812,3,left
15.155,0.9636856114932192,0.23658572470355957,0.13449101617383405,3.747809640903113,-2.6042291481137427,-0.843969198391394,-0.9562799631129226,-2.1877103139607907,-1.1742211399794855,3,left
15.16,0.9761371816669588,0.24990252604204757,0.13836240192139054,3.674093375530033,-2.4868411099700376,-0.8927994426132588,-0.9529430465963925,-2.1875638416512375,-1.1782240874992396,3,left
15.16,0.9866424809066509,0.25442657083981257,0.14039399458348556,3.7316871631917743,-2.577969280879861,-0.8548715924193309,-0.95059426853694,-2.1885582922079614,-1.1816250172574163,3,left
15.163,0.9917321542707789,0.2607198480711832,0.1419426417763558,3.7004447399249814,-2.5291211607852917,-0.8752233949842405,-0.9551179383093851,-2.1871876994263797,-1.1753645116858162,3,left
15.164000000000001,0.9914533091443305,0.26374684291862704,0.14282992149591733,3.7076639848018287,-2.5401521324993093,-0.8706181053535929,-0.9507169596656708,-2.188353092094981,-1.1813658896137502,3,left
15.168,0.9877914027691795,0.2615370581658023,0.14252035972441118,3.716195749681258,-2.5527323753804563,-0.8653494570902507,-0.9542707543742659,-2.1880340864564856,-1.1768502667083611,3,left
15.169,0.9821618510747118,0.2603627350321699,0.14830908505689655,3.7009035541292894,-2.5317656883328183,-0.8741911737736354,-0.951070461536981,-2.186913786279617,-1.1801689512725169,3,left
15.173,0.9771222542497128,0.25664380232873074,0.15604334911495535,3.7161470508958,-2.550071887605707,-0.8663644037397648,-0.9548452395256813,-2.1897983422227676,-1.1770848936512495,3,left
15.173,0.9690649961397625,0.24794092139454627,0.16343611753679887,3.70482991982212,-2.5394650652993045,-0.8710398267200785,-0.9500617327979948,-2.1854174679264102,-1.1806077523541172,3,left
15.177999999999999,0.9568348758215495,0.2377786981051572,0.17481371096655124,3.71065318250573,-2.542787402450819,-0.869446530342368,-0.9550028856112224,-2.190101947071385,-1.177053328812441,3,left
15.179,0.9420314417039249,0.22861377686875212,0.18609737492784625,3.710652492840082,-2.5427321626645356,-0.8694676152751886,-0.9523976454321895,-2.187372570857652,-1.1787896452574285,3,left
15.183,0.9238855823626987,0.2211554108242762,0.20029853307253992,3.70496875085216,-2.5447888808321553,-0.8690063821965645,-0.9489157029611677,-2.185132453640352,-1.1818578387246146,3,left
15.184000000000001,0.904258956448089,0.2124460909905263,0.2188345641515168,3.715794925323437,-2.536617830085823,-0.8715032382381654,-0.9621301512363973,-2.1951204419873003,-1.171002899991683,3,left
15.187999999999999,0.884688963574255,0.20365838485726534,0.2377071232422331,3.7014251240660396,-2.5516658957224045,-0.8665901912220153,-0.9379899517210234,-2.1765646456729826,-1.190668392182587,3,left
15.189,0.8616222164073299,0.19901990715824747,0.2616102270600663,3.7157027059725363,-2.5339536810812477,-0.8725220883634226,-0.9689039558179615,-2.2003982400603705,-1.16552224812916,3,left
15.193,0.8351617587711306,0.1935773098610581,0.28432487959584085,3.7077857651082216,-2.544721541620602,-0.8688727593280514,-0.9431304938604391,-2.180498385246623,-1.1864715763333127,3,left
15.194,0.8067746571328929,0.18866482887945563,0.30348826370836723,3.701099640227162,-2.5542265785018055,-0.8656343141862066,-0.9436964854524684,-2.1810471595563037,-1.186070313246369,3,left
15.198,0.7790099383466039,0.18872356190248216,0.3262692156534669,3.729961257477722,-2.511987127856341,-0.8800737381286877,-0.9932690760362958,-2.218957528150507,-1.145583978722116,3,left
15.199000000000002,0.7535574012498756,0.19023571254858684,0.3465989788619215,3.676819347517604,-2.590933933791894,-0.8530407146748609,-0.8715845622442113,-2.1257677909144865,-1.2448956700410307,3,left
15.203,0.719753490363079,0.1918231463592215,0.3680146095495015,3.7447919495878406,-2.489137877496292,-0.8879289029681403,-1.0732975855127322,-2.280281860548291,-1.0802877013579515,3,left
15.204,0.6967698130954285,0.1911825069697679,0.3835092975906127,3.6881595585746276,-2.5743079028324267,-0.8587253646726283,-0.8072490455049479,-2.0764806170029733,-1.297394631832363,3,left
15.208,0.6917730899693284,0.19263629167183652,0.3862891641811866,3.68971179579861,-2.572027594890348,-0.8595053646315909,0.30974760326045936,-1.2210178057563723,-2.209002297255001,3,left
15.209000000000001,0.6701633627047812,0.1972192795147965,0.39726481085583837,3.797444281525237,-2.409236006028851,-0.9153527582198282,0.575800776374265,-1.0172216288715457,-2.426119092746418,3,left
15.21,0.6424077059517926,0.1993124801547293,0.41100955011518503,3.5327113636583944,-2.809460984345405,-0.7780438560515818,0.3740827404810285,-1.1717302173065645,-2.261500451259388,3,left
15.212,0.6170585273286393,0.20382207242185982,0.41975297499951414,3.9715774044703407,-2.1457589041049925,-1.0057544721407257,0.4957653474509628,-1.0785383930601218,-2.360808081420017,3,left
15.213,0.5952460758110247,0.20708953302375166,0.42772346719235804,3.3927832518494543,-3.0212586927726295,-0.7053715744469455,0.44620938519177467,-1.1164669496291804,-2.320357154869792,3,left
15.214,0.59006201135487,0.2074275225765859,0.4280130250148581,0.9639760094746657,-6.696330469006891,0.5555662809692066,0.44560761613111516,-1.116976593143834,-2.3198797095294363,3,left
15.219000000000001,0.5740127542232759,0.21200695619847187,0.4316504932707028,0.3853490218760862,-7.571866341757145,0.8559675311459114,0.4714323753417857,-1.0971328416049682,-2.340938265646691,3,left
15.219000000000001,0.5493288412654083,0.21689792774648337,0.43964848337871215,0.8238723248029272,-6.908119570477292,0.6282310490077132,0.4404672903572743,-1.1209105717682557,-2.3156833558605356,3,left
15.222999999999999,0.5344467671978381,0.22241126631337677,0.44344520393090014,0.5596439900133987,-7.3083497135446525,0.7655536860184279,0.46462952945491576,-1.1023788743925835,-2.3353957738572797,3,left
15.224,0.5207315238455643,0.23033094417200273,0.4482294329457812,0.6667943501494789,-7.145646370302787,0.709728273766175,0.45145894695243854,-1.1124148465379249,-2.3246342441203733,3,left
15.228,0.5107189886649623,0.2371230395932431,0.44916123308153477,0.6688094221331868,-7.143148619458693,0.7088716575010429,0.45479958920701036,-1.1100201819093987,-2.327401559802646,3,left
15.229000000000001,0.500641149745523,0.244955054613465,0.4462893267476564,0.6121456397092448,-7.228652504436397,0.7382085290233795,0.4576482935002075,-1.1075570849989176,-2.3296562907098144,3,left
15.231,0.4879799353711,0.25612215295352375,0.44261760388810245,0.6793598169144794,-7.1264963660772125,0.7031582253688213,0.45240835140207925,-1.1119147858224008,-2.3254656538950575,3,left
15.232000000000001,0.4774392048465773,0.26835181661783364,0.43536059831002616,0.6280115339897215,-7.205649909854324,0.7303157136258023,0.4574300640002945,-1.1077944152895398,-2.329495715642053,3,left
15.235999999999999,0.46699856799960054,0.2800248567950705,0.4300724336581767,0.654145591864491,-7.163601172970669,0.7158898352287517,0.45365741662023407,-1.11068133812066,-2.3264162169714213,3,left
15.237,0.45508395740167495,0.2930327687050647,0.4272352067191087,0.6504326578012136,-7.172288363897406,0.7188685912563733,0.4564156443345818,-1.1090775076316317,-2.3287935772963424,3,left
15.242,0.44506557615157616,0.30729873273766073,0.4265498667935702,0.6406932011922853,-7.1845804529063395,0.7230878442731429,0.45387210136013767,-1.1098634473417697,-2.3264291227186966,3,left
15.244000000000002,0.4411568692088904,0.32126073096188135,0.431520445739918,0.6537017531196805,-7.164876402534611,0.7163268125645958,0.4567659596592934,-1.1093805067482938,-2.3292213634390166,3,left
15.247,0.4408982914133167,0.336998809122104,0.43643677941279435,0.6455825848221803,-7.181691697501879,0.7220939318088492,0.453848902803935,-1.1097669964538202,-2.3263818057020575,3,left
15.247,0.44507623198472573,0.35551745389984435,0.4355781472884822,0.6444006696886961,-7.173127402012833,0.7191616584469436,0.455269413301322,-1.1097463530918992,-2.3278062531575765,3,left
15.251,0.45262723061078136,0.37409849677661167,0.429235090434999,0.6548002447865295,-7.172835779176376,0.7190516301396708,0.4578060236092323,-1.108724366068103,-2.3301049532201215,3,left
15.253,0.4619043420295984,0.3923451254433591,0.4161245556054832,0.6399095448683576,-7.1789030551739295,0.7211448654575764,0.4488525538241983,-1.111553570266819,-2.3217976884610914,3,left
15.255999999999998,0.473861943744045,0.4114494887306007,0.3954504811900629,0.6504563921909571,-7.172458789846833,0.7189256571251315,0.4650689791511714,-1.1066031802200764,-2.3368870442483027,3,left
15.257,0.48161246160380644,0.42883541425606186,0.37141652390421664,0.6554551173997284,-7.173091541060477,0.719140389128021,0.4443335524622431,-1.112893527885054,-2.3175827812052683,3,left
15.261,0.4872772074185754,0.44387472047993604,0.3472081157780729,0.6249388158613569,-7.183384535603935,0.7226921401047341,0.4616089264230868,-1.107668432424644,-2.333669910316308,3,left
15.262,0.4937767224202482,0.45793870680770044,0.32504394071575016,0.684051155526791,-7.160487781936192,0.7147946540586816,0.46127721717918946,-1.1077076812945261,-2.3333453268034825,3,left
15.265999999999998,0.4979514485371218,0.4689205805317699,0.30764616844645076,0.6070283498511515,-7.191578405202785,0.7255193414170764,0.4278915909231754,-1.1180073123052183,-2.3023073933305973,3,left
15.267000000000001,0.5029560743868642,0.47563986129526287,0.2921173268017003,0.6718126117139023,-7.164899677964829,0.7163119163548827,0.5097884849713044,-1.092811221881712,-2.378463636587147,3,left
15.270999999999999,0.506333935919266,0.47859090485135297,0.2780701079512471,0.6696356377397736,-7.166247760780589,0.7167897047846736,0.37404223290780814,-1.1345584736072505,-2.2522277295680304,3,left
15.272,0.5064213238484384,0.4792790396568217,0.27206741037868243,0.5468953327030256,-7.2159586616838425,0.7339153181327838,0.5530856828211977,-1.079493544278112,-2.41872815871817,3,left
15.277000000000001,0.5058288210027204,0.48035022780044506,0.2706078506636991,0.8493375840707877,-7.092652839109419,0.6914095883811446,1.304810792724326,-0.8482130688613955,-3.117768838703462,3,left
15.277999999999999,0.5039891032155706,0.48142978284866317,0.26708693943813555,0.34750458896683734,-7.297636623298498,0.7620915012047973,1.483864479057582,-0.7931254345926493,-3.284278101451216,3,left
15.279000000000002,0.503926389297267,0.480870725409508,0.26521824862176524,1.0096089912349855,-7.027000589393834,0.6687506919601363,1.3481119941027542,-0.8349037660233977,-3.1580362586926745,3,left
15.28,0.5051328006584221,0.4797561157450399,0.2652482602610313,3.7886604758297335,-5.890933415849775,0.2771720875826331,1.42998752461498,-0.8096939442567078,-3.234176039087024,3,left
15.280999999999999,0.5016372080940257,0.47978100592113265,0.2682268357484685,4.450887693289835,-5.620150719023885,0.18374525967704053,1.39667399452994,-0.8199596596624126,-3.2031962541213197,3,left
15.282,0.4960449500282571,0.48012938835619945,0.27632685438500115,3.9488115224673392,-5.825460093215737,0.2545775097961391,1.3962107837524216,-0.8201036622650655,-3.202764224597245,3,left
15.286,0.49263223968932635,0.4810042886932517,0.2876614410784453,4.251593914230943,-5.701623419779466,0.21190432139467288,1.41365579091217,-0.8147029265588748,-3.2189912637441362,3,left
15.288,0.4880458829149704,0.483713399587401,0.30328582504168083,4.128488954576312,-5.752026788982419,0.22913943046035368,1.392775071290405,-0.8211999604606348,-3.1995653502271706,3,left
15.290999999999999,0.48358618833258643,0.4878415684322836,0.3195988195690384,4.1265585181046704,-5.752699173948172,0.22966100750889726,1.4090103110919467,-0.8161013604540326,-3.21467437943591,3,left
15.290999999999999,0.48150071881641515,0.49398739225677823,0.33549615298747526,4.19142006125586,-5.726337394500346,0.22016712855166887,1.4002827152834398,-0.8188891060089849,-3.2065471994814434,3,left
15.295,0.4772900075915342,0.5013564096603855,0.3508044496366462,4.113782259462037,-5.757926604455573,0.23145643482340528,1.4022656507543128,-0.8182346580650615,-3.2083958814844475,3,left
15.296,0.4727231424315476,0.5116706074581758,0.36166815411329256,4.174159027188988,-5.733302858101747,0.22279657221691426,1.4045414499748157,-0.8174479244580852,-3.2105218965559255,3,left
15.3,0.4720765522165077,0.5251648413836116,0.37096026428510964,4.141868836529152,-5.746651250884264,0.22705875981622556,1.4006795303428974,-0.8189155763060325,-3.206899715249836,3,left
15.300999999999998,0.47251270782873106,0.5371506201870762,0.3770806418090329,4.148621180036157,-5.7434351353519695,0.22704145473691667,1.404170209418722,-0.8173601798977288,-3.2101988737669847,3,left
15.305,0.473494404722802,0.5507184318873009,0.3800269448085907,4.158395343872367,-5.740219471249367,0.22405435660824297,1.4019920397121213,-0.8186209500110639,-3.2081082307428135,3,left
15.306,0.47701320031620525,0.5660207592072702,0.3835736763242683,4.142063734511469,-5.745939930701567,0.22833053940072426,1.4028170020835566,-0.8178964539997449,-3.2089273055864274,3,left
15.31,0.4782621813472909,0.5811475280586205,0.38430813000189346,4.157183277306087,-5.740520604299748,0.22462585787160672,1.4028089317786558,-0.8178945362735816,-3.208920180459143,3,left
15.311,0.4731876004855589,0.5991230502315219,0.3811919639704928,4.147818262364995,-5.744357514454856,0.2259323589028634,1.4027391942030798,-0.8187897179642588,-3.2087591867156373,3,left
15.315999999999999,0.466108880969149,0.6171676841218564,0.3723894694433032,4.149817588887808,-5.742121684586561,0.22856830553747776,1.402282582449199,-0.8169339621168477,-3.208554444622586,3,left
15.317,0.457688817630332,0.6346469700729358,0.35717965020943154,4.154603903890489,-5.743405185892378,0.2212254304826445,1.403471253768862,-0.8195458437799272,-3.2093316678335864,3,left
15.32,0.4481935342019454,0.6530766574666458,0.33895109900055165,4.14522328003964,-5.742406408855716,0.23249547247740307,1.4019074237399611,-0.8168533649709009,-3.208227425693162,3,left
15.321,0.44112905842348504,0.6702231929185528,0.3177951086073255,4.155640001744894,-5.743301084152543,0.22042264296090863,1.4029058304588595,-0.8183789444759029,-3.2089533133395687,3,left
15.325,0.4336096726479389,0.6853836423060478,0.2934801191351442,4.148962967817768,-5.7430526044975725,0.22749118169068555,1.403805944848147,-0.8196848818047178,-3.2096167639466895,3,left
15.325999999999999,0.42878821269105505,0.6995774098386627,0.26904787384488627,4.146469318701646,-5.7415066279622575,0.23312423590532433,1.399752518384985,-0.8140109186237858,-3.2066092364743786,3,left
15.331,0.43097930110701826,0.7147164795007245,0.2483678328867796,4.162721157546641,-5.7460942049242885,0.2077181659319558,1.4073787121344656,-0.8244970944932547,-3.2122872478246474,3,left
15.333,0.44152252150854265,0.7330125994483198,0.2285535932357768,4.131619643778398,-5.737977990827981,0.2549698143062328,1.3975107493379695,-0.8110583227585082,-3.2049270730891353,3,left
15.334000000000001,0.461706434370436,0.7533549997620449,0.20950007828219708,4.171769850543296,-5.748314010817024,0.19426598712499266,1.4057822167338458,-0.8222633049614348,-3.211101166899796,3,left
15.335,0.4852149355429211,0.7769761543555972,0.19153105266955947,4.138165731240303,-5.7397166312597605,0.24495683068387908,1.4055622624098483,-0.8219687172474476,-3.2109410967640137,3,left
15.339,0.5139624967094952,0.8065630821556216,0.1733561537281902,4.139404849575885,-5.739821424577991,0.24353754788911924,1.3897221853463486,-0.8005997920469113,-3.1990967577710077,3,left
15.34,0.5467384623474922,0.8344010125896536,0.15744568052532254,4.202393876796959,-5.756643291476438,0.14703550851995034,1.4286746664653815,-0.853096839488477,-3.228220281417,3,left
15.344000000000001,0.581938694918595,0.856738386363231,0.12663814132863782,4.047192189068351,-5.715439249114353,0.38428126714036354,1.3640687992248508,-0.7660736342148852,-3.179917137473562,3,left
15.345999999999998,0.6113452666785817,0.87138821116017,0.09232724229394262,4.304614664002001,-5.78373185558728,-0.009097221472443517,1.4492996070335762,-0.8808421291965092,-3.243640290863504,3,left
15.345999999999998,0.6114423318163116,0.872613331619498,0.09276341664474608,3.96508006631754,-5.693639289797361,0.5097680161542947,1.8070965561029133,-1.3628583095476032,-3.5112558838257613,3,left
15.349,0.6125177880708652,0.8718897294921834,0.09167756795207645,2.5402983560180967,-5.315379118042554,2.6876336180237335,1.8923413550800559,-1.4776330658346124,-3.5749957051215127,3,left
15.35,0.6441337926055817,0.8762025022073546,0.051341394952893527,2.200836259279443,-5.225222392735716,3.2064937036739423,1.8277129222027355,-1.3905688740272435,-3.5266549954734616,3,left
15.35,0.6788320778742083,0.8758290771971255,0.0059369791017608985,2.4581660922576516,-5.293606829294939,2.813120353298088,1.866685956505926,-1.4431845255668203,-3.5558408435843774,3,left
15.354000000000001,0.714262489052504,0.8636628991072519,-0.02643687467837278,2.3029848699320556,-5.252349798437724,3.0503697757644757,1.8508418508316276,-1.4215882457687328,-3.5439136961188815,3,left
15.355,0.7561853275858701,0.8386035113298866,-0.051438088239912444,2.3661303980623707,-5.269105073765449,2.9538460638202526,1.850594327086688,-1.421615942003872,-3.543836514082443,3,left
15.359000000000002,0.7988501047772091,0.8032579660735306,-0.06495920732622569,2.3669635088673218,-5.269462489577117,2.952471285971647,1.858934337464714,-1.432492454223986,-3.5499680509450857,3,left
15.36,0.8458155508630978,0.7589975388271996,-0.07277913134938051,2.333996987017592,-5.260415357026421,3.0031000208934504,1.8489618750641816,-1.4192138679302948,-3.54255496001251,3,left
15.366,0.8890358687743236,0.7094645403489744,-0.0870582388210483,2.3734429949924474,-5.271308593228316,2.942455914347632,1.8567004716834488,-1.4299408548528707,-3.548432767891407,3,left
15.367,0.9252063450103667,0.6598262079365311,-0.11251171234505,2.342773996483216,-5.262748869022326,2.989685743626006,1.8525816602459195,-1.4234151957130055,-3.5450628996017457,3,left
15.369000000000002,0.9535650346760288,0.6161705794801573,-0.14623606798847674,2.35933404676882,-5.267325928450796,2.964219290389221,1.85342557226403,-1.4262360706495891,-3.546192049306698,3,left
15.369000000000002,0.9690725836795099,0.5832762935532616,-0.18346981056731443,2.3553375244648604,-5.266618856071433,2.970031200655635,1.8546722448677735,-1.4258488767969901,-3.5465137238593476,3,left
15.374,0.9729010030018688,0.5605459225528255,-0.21689068681120705,2.351539508538107,-5.264467966897136,2.9768004490315327,1.8526430148936819,-1.4247629945595732,-3.5454827330475585,3,left
15.375,0.9622542749109119,0.5513063004096103,-0.24098908437193772,2.358115589160208,-5.268182507242495,2.965085489529514,1.8544426406501646,-1.4272010288131172,-3.5468331071531214,3,left
15.378,0.9406822869093742,0.5558478741430907,-0.2574406232594311,2.3522559399380514,-5.264211081968127,2.9760843098127854,1.8534395148468503,-1.4227948089104303,-3.54517978087973,3,left
15.379000000000001,0.9146706377562643,0.5717142409306375,-0.2612083048221138,2.356017178890785,-5.267135558656073,2.96870659087983,1.8535016060539804,-1.429861157560695,-3.547289787860139,3,left
15.383,0.8820311419158277,0.5984585109841869,-0.25137299837355265,2.3539056388350965,-5.266591598250139,2.971920228866861,1.8541946283552644,-1.4203768934323446,-3.544729814220829,3,left
15.384,0.8398381176385177,0.6332207016033358,-0.23506665938691618,2.3558523504472366,-5.263536257598233,2.9719653549835225,1.8531681227116452,-1.4301006789517219,-3.547243408756977,3,left
15.388,0.7926307673021458,0.6745211374100919,-0.21558581502735855,2.352558950048217,-5.270826072726509,2.970095240685269,1.8539545051225077,-1.4247410182947289,-3.5459358943136623,3,left
15.39,0.743092611783254,0.7183762385299377,-0.19648666044989008,2.3577416048050726,-5.2600220824002974,2.9724736123920987,1.8540315173990591,-1.4193165164240753,-3.544358503278457,3,left
15.394,0.68264712620989,0.7628103705418305,-0.17506170189662712,2.3518595952302723,-5.271444947254935,2.9704840457445867,1.852585469448516,-1.4415733984418937,-3.5504305883052845,3,left
15.394,0.6152224953672827,0.8072896445019813,-0.15068489082734055,2.3552553620994336,-5.264843400204347,2.9716379751970194,1.8555298735031243,-1.400647298038451,-3.539367112839232,3,left
15.398,0.5433402091383562,0.8480772234482193,-0.12376068136229859,2.358970341377767,-5.259363920492737,2.971428758506449,1.8516534564936942,-1.4530738826404752,-3.553500831798658,3,left
15.399000000000001,0.47208793623147394,0.8823037317680955,-0.09975303262424182,2.3437292383515205,-5.28361914700379,2.9707895820005454,1.8549317080134011,-1.4093557770110152,-3.5417338553106053,3,left
15.404000000000002,0.39750766889159017,0.9078873573519126,-0.0722177548735024,2.3719456222068063,-5.238623003054366,2.9720487236486264,1.8547764562597782,-1.4104643436722895,-3.5420000077614704,3,left
15.404000000000002,0.3133395595285021,0.9274970384855667,-0.035689248803823945,2.335646384857549,-5.296383892800172,2.970536126164876,1.8487010520491307,-1.494026773689799,-3.5645747571543107,3,left
15.407,0.24273302767958316,0.942714651586143,-0.011671683949947114,2.3659841757313735,-5.248168606056358,2.971747546687983,1.863732884943861,-1.28874412232134,-3.50916824382084,3,left
15.408,0.1462266781960297,0.9534065341389862,0.03359574824600384,2.365238197667588,-5.2494992821095625,2.971600669447601,1.8387679258081584,-1.629079070076203,-3.600999763328222,3,left
15.413,0.07185536993017208,0.9587922744571984,0.07610117405622974,2.3070543436959765,-5.341333478396409,2.969802115195981,1.8717168223486436,-1.1801832487661428,-3.4798935845041634,3,left
15.414000000000001,0.06359535401960778,0.9593728674799302,0.08067656585902036,2.4500167330207114,-5.115592069886639,2.974292018188926,2.0098787815208965,0.7039769907666548,-2.9714011044357935,3,left
15.415,-0.032597177439109074,0.962362756357268,0.1484551929397434,2.212959229725958,-5.489886151892685,2.966878426083003,2.0428433913303854,1.1528907751944295,-2.850313176971927,3,left
15.418,-0.13265112461045042,0.9658770021335974,0.2195566499306831,2.5256717555445274,-4.996192416341444,2.9766021824211437,2.0178543356669367,0.8125459386409568,-2.9421196426976817,3,left
15.42,-0.14925587753509018,0.9660282763603272,0.2312163825594824,3.838409668822167,-2.9240108436657084,3.017226978728891,2.0329048361596667,1.0177873856950344,-2.886724416595893,3,left
15.421,-0.25367522277026505,0.9652684540967508,0.30202754212282473,4.151189085833714,-2.43030536862517,3.026845726410989,2.026834009771682,0.934359131064548,-2.909325914900517,3,left
15.423,-0.4000900773018027,0.9625328502867879,0.3993594141593899,3.914027017561244,-2.80461780249178,3.0195962802048983,2.026634292672144,0.9330084383046092,-2.909508624448015,3,left
15.424000000000001,-0.5164433199842224,0.9611269991866248,0.46898913400363185,4.057075910130452,-2.578861210518972,3.0239504032636573,2.030004012067468,0.9770364198583724,-2.8978820153462923,3,left
15.427,-0.6453836598582836,0.9627108953213163,0.5394525629032612,3.998897040353563,-2.6706945362658905,3.022143990470714,2.0260018953390277,0.9243478343359063,-2.911850067526876,3,left
15.427999999999999,-0.7577466465795021,0.965404011602318,0.5910142856011891,3.9979832882011377,-2.6720546506656806,3.0222605428217006,2.029064818489693,0.9653005031459158,-2.9009061511733973,3,left
15.433,-0.8554810321578571,0.970851305754955,0.6229036095729816,4.028687373216242,-2.6237750855069626,3.0228968847642865,2.0275785895158416,0.9434678749885758,-2.9070097155623467,3,left
15.434000000000001,-0.9446225129553252,0.9778277015629437,0.6406978026610066,3.9918663136002386,-2.681627551886482,3.022203497545072,2.027530211886992,0.9478685597733773,-2.905140336169228,3,left
15.437000000000001,-1.0189241526703423,0.9853368687215933,0.6450922986948024,4.020599543205193,-2.6365406972879786,3.0226513014063414,2.0286773156763886,0.9547976720886182,-2.9044441289678424,3,left
15.437999999999999,-1.0805954334297803,0.9918800974271792,0.6448165926253191,4.005134382142245,-2.6608352616019433,3.0223637364202336,2.027054465796714,0.943354484259852,-2.906092581496657,3,left
15.444,-1.1223903489715452,0.9931058967340385,0.6390315801038451,4.008414845697298,-2.6554320112370564,3.02283687398973,2.028452494994349,0.9539006875229744,-2.90439403939918,3,left
15.445,-1.1484183816790545,0.9887092980694333,0.6336525926376324,4.013215615114875,-2.6485839222390783,3.021784864414518,2.0279922998952076,0.9475549040035058,-2.906116403373746,3,left
15.447000000000001,-1.1553007461101144,0.9798721358845601,0.6318736273603973,4.00491251292641,-2.6604316578774747,3.0235963064499933,2.026893630184407,0.9483588754483936,-2.903771519653872,3,left
15.447000000000001,-1.145251453411597,0.96615876289411,0.6278409657913939,4.0130660131681655,-2.649106289301373,3.021310851596028,2.029869930858913,0.9528639100128335,-2.90741906944548,3,left
15.452,-1.120338321403035,0.9500825446912136,0.6212570141403396,4.007404078723923,-2.6568118268764094,3.0231586115106204,2.0253181841243046,0.9446238784647749,-2.902387340415073,3,left
15.453,-1.0784721292238075,0.9338163779521966,0.6124529363986069,4.009330992433008,-2.65375984941993,3.023235747906816,2.030191505018906,0.9536913546394603,-2.907675123134196,3,left
15.457,-1.0328791369518067,0.9180471032828894,0.5964551234125511,4.011610654740941,-2.65244540507281,3.0195543949072707,2.027342316617223,0.9480044417722691,-2.9047399986197853,3,left
15.458,-0.9800214923164305,0.9071046437147832,0.5755478510563968,4.005334959969062,-2.6571311755265667,3.0279348123472634,2.0250505706322013,0.9453181626909247,-2.9016140262483177,3,left
15.462,-0.9176160692551797,0.9013601655937076,0.5526300812507565,4.014449690353297,-2.6505318580545563,3.015424965484393,2.035350201343994,0.9607033084548505,-2.9143200477450875,3,left
15.462,-0.8528235741069482,0.8987383090243871,0.5208177639638243,4.005061649834088,-2.6570481994596586,3.0287708957108133,2.016199745583215,0.9315148620985586,-2.890931899026273,3,left
15.466,-0.7780914582475902,0.9006926778069637,0.47731224590921423,4.0104895519880905,-2.653277716821815,3.021059721484418,2.040802411096195,0.969143831488421,-2.9209250000100146,3,left
15.467,-0.6992684247616496,0.9050819188085344,0.42754555640456304,4.014440205357363,-2.6511767877399546,3.014390017931139,2.020255773086861,0.9376654411686232,-2.89589949530141,3,left
15.470999999999998,-0.6099336781750009,0.9114893320609687,0.3649655812303363,3.996207369394338,-2.6618587504617146,3.0435507230570717,2.0208352129843536,0.9387559768923757,-2.8965196952143017,3,left
15.472000000000001,-0.5166307732501094,0.9191326777999808,0.2970378322227787,4.030067586094628,-2.641975535436087,2.989473221027589,2.0599425001466116,0.9980052492783382,-2.944429384366592,3,left
15.475999999999999,-0.4297719103307659,0.9264473582873485,0.2314109321166053,3.9866486176252356,-2.6674104396761407,3.0589137098431958,1.9637891430420822,0.852088753201179,-2.8267373089617434,3,left
15.477,-0.3223968561135962,0.9367230069508532,0.15056716453765184,4.022872968776709,-2.6462208519820862,3.000939100106267,2.1232294009314776,1.0941078564916915,-3.02186309023583,3,left
15.48,-0.24770438744380965,0.9430495103557628,0.0959358859033003,4.021804253790501,-2.6469119281098417,3.002510406935385,1.9129217002842223,0.7748702419112402,-2.764490398117228,3,left
15.481,-0.2272807195120763,0.9448397451874855,0.0809507696757788,3.9530926251238934,-2.686809248437288,3.113053285365795,1.0303771260775503,-0.5644801499339889,-1.6842117171346966,3,left
15.482000000000001,-0.1642450957426369,0.9523488371675494,0.03259076237545669,4.122047867571528,-2.5886602729320973,2.841349250082037,0.8200787944377834,-0.8836766855191116,-1.426835884608218,3,left
15.485999999999999,-0.061074314892992226,0.959421274816812,-0.042370321584725326,3.841929158136842,-2.751385777124932,3.291843164240124,0.9794839446962054,-0.6417432830406973,-1.6219487632392753,3,left
15.487,-0.006072196058799393,0.9614700578754842,-0.08093045942039623,4.211334663053286,-2.5367765455992908,2.697662222278966,0.8834151801690675,-0.7875305529218543,-1.5043157163939187,3,left
15.488,0.012386441342878484,0.9618538885225091,-0.09274561909504671,5.760071302824294,-1.6360237571140668,0.2042016078227178,0.9223737476905989,-0.728435114131338,-1.5520951060199777,3,left
15.49,0.06775232167057299,0.9589570587629729,-0.12567270022135202,6.129031071045845,-1.4214047508325085,-0.38982518651892145,0.9231513600512115,-0.7272148463350903,-1.5529161432809828,3,left
15.491,0.1413630881172565,0.9519182152828622,-0.16913768452408273,5.849864389890008,-1.5841800898520635,0.06033267194893833,0.9024181105826544,-0.7587181150282896,-1.5276663419244851,3,left
15.495999999999999,0.19775149417725052,0.9394215389296475,-0.1973474996850644,6.017339108656878,-1.4858960790413402,-0.2108352057841523,0.9270847812466636,-0.7212656394011481,-1.5578032742217145,3,left
15.497,0.25550391504506564,0.9207090255250069,-0.2231709190477681,5.950458172588103,-1.5260450015947513,-0.10097522384528429,0.9081329249328005,-0.7500041865422898,-1.5345007328424516,3,left
15.5,0.30993669553994463,0.8975102663911134,-0.24298532498963882,5.947742163508223,-1.5263862388293061,-0.09876036451997741,0.9178563376479605,-0.7353286809402841,-1.5467429831346777,3,left
15.501,0.35766441800763105,0.8724986826097137,-0.25341177146689975,5.984493714308627,-1.5055449302993142,-0.15699658514390696,0.9165239899170645,-0.7372106004479576,-1.5445255661279864,3,left
15.505,0.3990554754834618,0.8471832993846277,-0.2596098814322917,5.9428413515316185,-1.5308245096797093,-0.08812133657618984,0.9125308288686926,-0.7434423276716626,-1.5403572963372092,3,left
15.505,0.4345289405406506,0.8202323130677006,-0.25673959738735685,5.971684126269835,-1.5106527678276027,-0.14042164059194176,0.9182673806007081,-0.7345995661090211,-1.5468054963585955,3,left
15.51,0.4701914369450671,0.7929617216290175,-0.24756840748577286,5.96173885049123,-1.5222872967069612,-0.11430851023668588,0.9138353216105779,-0.741325671948892,-1.5413760000509495,3,left
15.511,0.4995892976250281,0.7693216490788712,-0.22930231100821638,5.955861617225953,-1.5185274126353558,-0.11723956510757892,0.914952581508934,-0.7398803341660956,-1.5438057770321785,3,left
15.515999999999998,0.5260062222665032,0.7493384665234257,-0.2033909317286591,5.9686452017145255,-1.5168148656497114,-0.12794115338842552,0.9178996821880621,-0.7348346051690464,-1.5449850011046418,3,left
15.515999999999998,0.5491211476879296,0.7339402516436754,-0.17937956910366487,5.9604054695144235,-1.5216563833233692,-0.11459201709774103,0.911566034675266,-0.7453023531994163,-1.5408550698336967,3,left
15.52,0.5678121530936204,0.7260411063780126,-0.15330886207319552,5.9533953016073085,-1.5151199960195836,-0.12162353269136615,0.9190267400994927,-0.7330669460044614,-1.5461250013367516,3,left
15.520999999999999,0.5857717022303974,0.7232430141584636,-0.12339381467067784,5.982005282249634,-1.5227379524273394,-0.12581783976840863,0.9142404207525754,-0.7408595923411895,-1.54249871087611,3,left
15.525,0.5976210336125809,0.7262701845639417,-0.0940528411082269,5.933814378540601,-1.5145759658841507,-0.11069328040236344,0.9115930203943619,-0.7453287217220441,-1.54118010696639,3,left
15.525,0.6060478607816796,0.738444788439878,-0.06674152734173228,5.98761603820913,-1.5218662899055224,-0.13072336269836882,0.9259071497380051,-0.7216205987693174,-1.5502849433925663,3,left
15.533,0.6130173744380869,0.7569119372251931,-0.04209395377953169,5.955285082476975,-1.5183737852550974,-0.11715352085464065,0.8987166940772882,-0.7665697849925333,-1.5326127344035136,3,left
15.534,0.6173951143708211,0.7788383756653579,-0.01560898796198544,5.9300420524653665,-1.513847531941577,-0.10966309766386323,0.9338633661706776,-0.7084958625540114,-1.5555876826862165,3,left
15.535,0.622665490194948,0.8032378130228288,0.009638114779547173,6.046062353006616,-1.5304573439217095,-0.15132538139996343,0.9044220853754996,-0.757134647938462,-1.5362887006721113,3,left
15.535,0.6285981507228102,0.8319217652498242,0.030542815684685545,5.82928028838654,-1.5005866179564382,-0.07147096562347341,0.9053724921097105,-0.7555725832021103,-1.5369921381393197,3,left
15.54,0.6359730062284892,0.8603047881940415,0.05096180035716119,6.108367571575493,-1.538528973404645,-0.17516204827224235,0.9611032943324878,-0.663477275815241,-1.5733087061493385,3,left
15.540999999999999,0.6460949440820531,0.8829137867672354,0.07024301448329422,5.875042872704701,-1.5070282916527762,-0.08809418430499301,0.8239003963568479,-0.8902007403544812,-1.4837874141135852,3,left
15.544,0.6588000390175663,0.9079113715267461,0.09556276706947764,5.881678333560018,-1.5077312982070028,-0.09090124630867107,1.0514752065231814,-0.5141328824028433,-1.632312746008255,3,left
15.545,0.6662502080828767,0.9232805940920736,0.1147337243217735,6.325957366054416,-1.568071965109807,-0.25607331303666686,0.7512715531735419,-1.010234918966493,-1.4363779950185773,3,left
15.549000000000001,0.6681750329675613,0.9252030811368055,0.11923293673364732,5.233386836472288,-1.4200293555597132,0.150713030911932,-0.5086691154101403,-3.092151260806853,-0.6140194137860503,3,left
15.55,0.6754217938497549,0.9407812201321595,0.13298911506447816,7.045231467767025,-1.6653650274048089,-0.5241611699098941,-0.808884521956874,-3.588303645231247,-0.4180881858416886,3,left
15.55,0.6800569667162502,0.9554843898564062,0.14492212659462145,4.6552193680186384,-1.3418271138960065,0.36621300242463745,-0.5812795030281326,-3.212154771382607,-0.5666311190050566,3,left
15.555,0.6794458478439667,0.9567594963754875,0.14416712442386093,-5.37585874741367,0.01613218521138665,4.103142934907266,-0.7185395237918191,-3.4389515334218643,-0.4770325319418825,3,left
15.556,0.6800839275749019,0.967099213279109,0.14631331640139453,-7.766081360826822,0.3396446375372083,4.9936840472530895,-0.6627231675386969,-3.3468430965969374,-0.5135181062086676,3,left
15.556,0.675511573430265,0.9780905808126016,0.14251187475827598,-5.953938616293025,0.09437741153894473,4.318515980921148,-0.6618715066183334,-3.3451797971503163,-0.5139623649289735,3,left
15.559000000000001,0.6643415918951427,0.9806353014061044,0.12768006138866628,-7.046671707167777,0.24228563435565498,4.725634755850239,-0.6912395256203538,-3.3940673990755776,-0.49495136125353323,3,left
15.56,0.6492245538286368,0.9805480035218285,0.1073212791877443,-6.602634458934788,0.1821522422022046,4.560234854105921,-0.6560804694890947,-3.3356162183677247,-0.5177440064483827,3,left
15.562999999999999,0.6338039973328282,0.9746948430627278,0.08488639313345205,-6.59513557637456,0.18120277225797388,4.557365556030647,-0.6834347368860572,-3.380968640201746,-0.49995647388461373,3,left
15.564,0.6175503598787178,0.9666378578353442,0.06855893698850929,-6.829973001998919,0.21289710392298822,4.644964939524783,-0.6687660937074817,-3.3570304069302503,-0.5096648408616455,3,left
15.568,0.5938734153110109,0.9595912208608898,0.061419854658465896,-6.549036180898893,0.17496141949911115,4.54019214594403,-0.6719272871215135,-3.361287580490246,-0.5071710827245137,3,left
15.569,0.5656151822181776,0.9531699664781788,0.06317112468565747,-6.767253522182907,0.20445881116661918,4.621539085791488,-0.6761849595718059,-3.3699865912969775,-0.5051330619793055,3,left
15.573,0.5367235770889485,0.9473172097806094,0.07039133130135916,-6.651353162477729,0.18869685271894351,4.578442126217846,-0.6689942603190984,-3.356064103408757,-0.5089174558123153,3,left
15.573,0.5087642549374259,0.9412320148899793,0.07836620915245844,-6.673683665478606,0.19196051966938604,4.5864875548154895,-0.6756785903458469,-3.3687356215867093,-0.5052790826925007,3,left
15.578,0.481854987292986,0.9380669204060156,0.08537533699734068,-6.712467422192158,0.19679462768719924,4.601410112008159,-0.6714315806599642,-3.361732345148713,-0.5080577582075805,3,left
15.579,0.45071037183768226,0.9393272607976455,0.08947444926487993,-6.649222668863776,0.1887437335752814,4.577266832543292,-0.6726532623735915,-3.360733900845271,-0.5059155606999296,3,left
15.584000000000001,0.4178298679856416,0.9455305309164437,0.08878662291167949,-6.707219875025133,0.19618787500159846,4.599337335159031,-0.6741025356199586,-3.3700234562631906,-0.5080425940546698,3,left
15.584000000000001,0.3890242178817309,0.9557146914833607,0.08274565424659039,-6.673451052279898,0.19161342436987056,4.586759814503875,-0.6709247311347775,-3.3544869667154016,-0.5055325946620529,3,left
15.589,0.361156158820639,0.9698990403975811,0.07401990506212475,-6.6743038998327195,0.19248213324918495,4.586220777183984,-0.6745015500783367,-3.3713615346117884,-0.508084616380615,3,left
15.589,0.3356830232922874,0.9890293575540214,0.06542242806931345,-6.706119988886549,0.1950675024645554,4.600032827574299,-0.6721359221970913,-3.361117873071084,-0.5068055029583739,3,left
15.592,0.3149896319800941,1.008248115884038,0.057833585833608314,-6.650569433892171,0.1901156256615096,4.576414811393147,-0.6715772332195842,-3.3547327692904396,-0.5047354981411517,3,left
15.593,0.29653826575802794,1.0289814560874806,0.05399186723897433,-6.7112935586623355,0.19559880757298653,4.602153250134899,-0.6764460142240603,-3.3866791823327187,-0.5122107186501779,3,left
15.597999999999999,0.2833671391789816,1.0525763789708484,0.052225486931523804,-6.673828060237871,0.1921077376897713,4.586395124252082,-0.6669790592269969,-3.326712078532502,-0.49863445647206006,3,left
15.599,0.2717972003896585,1.076511298009358,0.05030775988002521,-6.653315940054604,0.1906960394961711,4.577201937253021,-0.6792337567411229,-3.403874655425156,-0.5160017789449253,3,left
15.603,0.2592693034308208,1.1034756243076451,0.0545817311820774,-6.762376316608452,0.19949089390883162,4.624622997338623,-0.6689623317514898,-3.3393900418424147,-0.5015304126409579,3,left
15.603,0.24598129296420862,1.1325882937804583,0.062350066342848856,-6.556640209059044,0.18270698146176956,4.5353824889175405,-0.6693947737268853,-3.3413868950255505,-0.501818438705007,3,left
15.607999999999999,0.22979444897581455,1.1597381089476915,0.06537618442575435,-6.821598467590631,0.20436671535458523,4.6502635665723036,-0.6884754614620556,-3.4635206907059706,-0.5297488047880694,3,left
15.607999999999999,0.21824886803301136,1.1812291423819214,0.06811341772152352,-6.600078476159654,0.18623734055450025,4.554235777997677,-0.6413937991441367,-3.163034784260711,-0.46122506459881235,3,left
15.613,0.2007274127496622,1.1979096732031311,0.07053573405675673,-6.60729559270569,0.18690141802876575,4.557290567944552,-0.7195067237768097,-3.661330034136923,-0.5748039268190157,3,left
15.614,0.1835551626336147,1.206638295513384,0.07013405086365682,-7.0256898122389995,0.22090977845004806,4.73890451948972,-0.6164693941335028,-3.0040756237632658,-0.42500281735540446,3,left
15.617,0.18215614685140186,1.2077841269404614,0.0708746260068531,-5.9958822341794225,0.13710936434453153,4.291979761566556,-0.1842263795807182,-0.2456146097676397,0.2040022735111116,3,left
15.618,0.16424880561501318,1.2144753155760397,0.06849051287598823,-7.703730882759528,0.27611819701997337,5.033144169124528,-0.0812026269958092,0.4116084252945183,0.3538051306086756,3,left
15.619000000000002,0.14253877208785543,1.221214418929598,0.0632961995825381,-5.451045647938343,0.09274816119894352,4.0555356593897525,-0.15930086053289655,-0.08665287366148602,0.2402243750399063,3,left
15.623,0.13902048761104643,1.222097967635547,0.061420376120954565,4.002685236095996,-0.6765470694392346,-0.04724986441606738,-0.11221361703415206,0.21384592621561305,0.30874740502551906,3,left
15.624,0.11868278783517996,1.2231813592926142,0.05864459547911508,6.255243291455722,-0.8599206119696062,-1.0248127409528607,-0.13134301942586757,0.09159956408766476,0.28082329256194516,3,left
15.624,0.0864885094264837,1.2194395010533776,0.05209606885660702,4.5475322641362395,-0.7209079875184639,-0.283697707198036,-0.13167063788274191,0.08984493554044383,0.2805217987450696,3,left
15.627,0.05653641206121241,1.2112774847418168,0.043676711513004715,5.577392099908176,-0.8047069506507378,-0.73064123697717,-0.12154951478077733,0.15398222916119733,0.29501248492193266,3,left
15.628,0.02060865422103897,1.2023620668823842,0.03352170429336217,5.15854160526192,-0.7707111918387117,-0.5488635256938659,-0.1336545351985688,0.07716553417979154,0.27762591158679306,3,left
15.632,-0.020598051787803356,1.1953502179143687,0.025925005456402125,5.152306326145555,-0.7700200114229236,-0.5461610934585258,-0.12425217754821617,0.13698335230746195,0.291210502996898,3,left
15.633,-0.0715679345317022,1.1929456245147558,0.023747638736245053,5.372418478730871,-0.7881882375244135,-0.6416836662020649,-0.12924945473481392,0.104740027873087,0.2837517607984227,3,left
15.637,-0.12241513472974873,1.1896400489196752,0.019629557405774635,5.108862237801354,-0.7664898268592488,-0.5273056860308007,-0.1282767870225915,0.11208173923178391,0.2857685939097655,3,left
15.638,-0.1663094426058984,1.1859620515669316,0.01305648594366228,5.313993207747906,-0.7832904071570677,-0.6163291024498059,-0.12662449406509962,0.12067702747403956,0.2871393757793578,3,left
15.642999999999999,-0.20706361674150986,1.1863920924056899,0.009662026101240078,5.203729346880371,-0.7745288120960726,-0.5684760606324049,-0.12932583800805253,0.10582553126642329,0.2844747993295404,3,left
15.644,-0.23754095633118377,1.1904599293634062,0.012994221169060231,5.2281189850716805,-0.775833453895586,-0.5790608377727527,-0.12684605548098277,0.11974897474564716,0.28707461431551984,3,left
15.647,-0.26162974285927043,1.197108918418391,0.02863489882916407,5.2589029261948,-0.7795089403387587,-0.5924211633188239,-0.1283014317697272,0.1104454026055955,0.2849481936289633,3,left
15.648,-0.28579868780234513,1.2043835063094233,0.05014310801883948,5.206379205149487,-0.7737994819726096,-0.5696254609908955,-0.1282280387627493,0.11443641272275341,0.28692414793012644,3,left
15.652000000000001,-0.3093149885109605,1.2106746874090977,0.06776136589331827,5.255391319672466,-0.7789316843139319,-0.5908973346465825,-0.12694091821835798,0.11460003151071567,0.2845257336696782,3,left
15.652999999999999,-0.3322503373165757,1.2146057661667276,0.07854692447110612,5.223518533545954,-0.7763480898957859,-0.5770644939324139,-0.12920940468688258,0.11213269191582317,0.2875965466712555,3,left
15.655999999999999,-0.3480257019426565,1.2122864241646547,0.08086656981588877,5.234795700061403,-0.7751443598960376,-0.5819570812678267,-0.1267263065594644,0.11517664493064428,0.2844175175306038,3,left
15.657,-0.3562150660499481,1.2046470409887087,0.08353639410683547,5.240840557619218,-0.7804841400611289,-0.5845850808774397,-0.12826360993333286,0.11276426300947245,0.2861051979333775,3,left
15.662,-0.3711657083200323,1.1991692069955686,0.10571968867593767,5.224205285952241,-0.7718984973128646,-0.5773578131908104,-0.12908073068954062,0.11392323119963167,0.28829870545903935,3,left
15.662,-0.4039907096485179,1.2049246628363472,0.1447516498868745,5.243354438239208,-0.7811659549133235,-0.5856776543015622,-0.1246728911780052,0.11415132619078708,0.27990807355729475,3,left
15.665999999999999,-0.46058510937360125,1.2253648045434598,0.16725283171209007,5.230053575088238,-0.7756294501216703,-0.5798980894099799,-0.13299752506759532,0.11277232822235153,0.29525029462590713,3,left
15.667,-0.5450904038320946,1.243317995424678,0.15028111196465804,5.229676329325463,-0.7717586028410818,-0.5797336436584475,-0.12227436607987147,0.11475672729393521,0.27559914095829136,3,left
15.671,-0.6336300390360083,1.251273214806857,0.09948052300114053,5.249469992786661,-0.7901743257336378,-0.5883385220382131,-0.13124063439231545,0.11301452011640864,0.29198505033021616,3,left
15.672,-0.7068607672422105,1.2426165175920634,0.05590094310996248,5.209495569107805,-0.7557569340813586,-0.5709580978696284,-0.13094471436644206,0.11339211119399979,0.2916176160882584,3,left
15.677,-0.7588622854163334,1.2118640977574184,0.04477389459968809,5.261547557588787,-0.8000087966081045,-0.5935939126607417,-0.11402159446830139,0.11562705025384425,0.2601234423722164,3,left
15.679,-0.790738585442778,1.1837538890663235,0.07330438201015244,5.217812886492036,-0.7630432170337649,-0.5745682785381199,-0.15568021119286907,0.10974759683448675,0.33744261343820015,3,left
15.681,-0.8562019099387118,1.1361889463339008,0.15703269576861142,5.220096234681948,-0.7641314586744143,-0.5755767009332069,-0.08659062360141141,0.11959139141033072,0.20926701548211324,3,left
15.681,-0.9135540965199737,1.0962746577518447,0.22223594576968145,5.299843150474635,-0.8343248597791022,-0.6102333657194389,-0.17772305085122228,0.10660677624003918,0.3783281442168971,3,left
15.687000000000001,-0.9226343849264483,1.090534706329663,0.2369806958447459,5.1025765367833325,-0.6616992609595446,-0.5244724726762726,-0.5601767746094928,0.05257412418429683,1.0880688720328893,3,left
15.687999999999999,-0.9880852837513429,1.016991588975754,0.2726308506434426,5.429933339786492,-0.9479404181971091,-0.6668143210563087,-0.651311083927969,0.0396542727263022,1.2571395597393908,3,left
15.687999999999999,-1.0507364281404614,0.9407133707934496,0.2973795995063082,4.99819187120978,-0.5703958024299479,-0.479058591576063,-0.5822135666404522,0.04941279978459569,1.1289537362455087,3,left
15.692,-1.0576161723906878,0.9294031607993812,0.2831747451590215,3.1868287018297115,1.0143035522486232,0.3083799732442074,-0.6238922835033327,0.04356052603043702,1.2062685607006642,3,left
15.692,-1.1107836841975316,0.8684670588434877,0.2748372292346178,2.7553423962763595,1.3918232732708051,0.49606700976068846,-0.6069328833273719,0.045916919865390204,1.1748095447122278,3,left
15.693,-1.1655568694957585,0.7851250664357168,0.2187977253729056,3.082423091603398,1.1056090456194536,0.35379950762227275,-0.6066862744043295,0.045959046731889115,1.17436703325584,3,left
15.696,-1.1760138579666135,0.7217653068912826,0.04259557934700372,2.8850516144999805,1.2782449058183634,0.439588579005723,-0.6156048596588793,0.044757186426735096,1.190860132489608,3,left
15.698,-1.1483352459558083,0.6546250944534013,-0.20854640676142244,2.9657140016005656,1.2079621247683612,0.40468556582324666,-0.6049004278619828,0.046129361769342916,1.1711028092577367,3,left
15.700999999999999,-1.0436774865861709,0.623278333323632,-0.4602611518649402,2.966027413415036,1.207066171367289,0.4042073145466232,-0.6132703829023338,0.045152233701648274,1.1864897835179766,3,left
15.702,-0.8902040223206665,0.6356017467674029,-0.68329577175649,2.9251173788925513,1.2437560678367774,0.4224726936336293,-0.6087234039003973,0.045588722079228636,1.1781927564311816,3,left
15.706,-0.7238743814100814,0.6909546684949058,-0.8563060711415509,2.974356434545627,1.1997787041481458,0.400594055649279,-0.6097770474590138,0.04553052925145185,1.1800889271559263,3,left
15.706,-0.5459946610648531,0.798880526954035,-0.9260760295949192,2.935596081502508,1.2340776992071796,0.4176475465092075,-0.6110269575237576,0.04552518439292512,1.1822865529910438,3,left
15.71,-0.37095435349517847,0.9564223041695673,-0.8520363735414223,2.9578044548316758,1.2154261582318895,0.4083929912319869,-0.6087690243223645,0.04528621678096447,1.178484217667069,3,left
15.712,-0.2193415627333267,1.1685943858799381,-0.7150456136833865,2.94964740976364,1.2200564635469342,0.4106511185025518,-0.6110484337710218,0.045927253082503755,1.1820481905647489,3,left
15.717,-0.10281505869696178,1.4122130933666028,-0.6413157588627899,2.9497522308886257,1.2242844911960682,0.41282267651283056,-0.6093231966219721,0.04498855603495133,1.1796628461712222,3,left
15.717,-0.020342284184384947,1.660993997204228,-0.6399194416912366,2.952448436822926,1.2166227559478036,0.40893130142324996,-0.6102345018941053,0.04580274099227777,1.180703731297676,3,left
15.720999999999998,0.03725871944727122,1.91578554968788,-0.6318522394668351,2.948931456960165,1.2239283995818686,0.41262718075887794,-0.6102349688117481,0.045810495560237,1.1806985076618675,3,left
15.722000000000001,0.09664365914235681,2.171209908289101,-0.5698080241613317,2.955090439202406,1.2185768435365962,0.4099695550404051,-0.6092870891402611,0.04419624301852236,1.180146482697063,3,left
15.725,0.18109704805009702,2.4105255487661807,-0.5116785391126238,2.942029899535817,1.2221567602072767,0.4116260612024556,-0.611139525331249,0.04793033784693628,1.1808263202342602,3,left
15.725999999999999,0.3174873249146316,2.5992026705417066,-0.5187255180428504,2.9657819104744423,1.219310647358998,0.41048869925413867,-0.6086343790882842,0.04232295408397149,1.1802913151972692,3,left
15.73,0.5392304222524916,2.670833237928635,-0.5959419637098449,2.9318068189242013,1.2222781494282011,0.41155261899073137,-0.6111539069336132,0.04832198146549385,1.180581531091605,3,left
15.731,0.8393429839071351,2.5416272559957465,-0.7910280616824211,2.9677543963595645,1.219353787491981,0.410534544866554,-0.6097463822400708,0.04484887702136879,1.180503327252803,3,left
15.735,1.1583038273879134,2.214761980976573,-1.0503273636961752,2.9474117666592545,1.2206657377014145,0.4109392726729377,-0.6085531520730282,0.041852258512888985,1.1804733430779617,3,left
15.735999999999999,1.4251506513928072,1.8159703475804179,-1.1691246218299285,2.9277530058125834,1.2236641820077303,0.41220336737101804,-0.6137172574891705,0.05497531444884511,1.1804972006466845,3,left
15.739,1.5979008760809426,1.4451464510230188,-1.054887710145847,3.0103165131397858,1.2136013806647372,0.4081644165754291,-0.6041958319455669,0.030630556452264486,1.1805557600075725,3,left
15.74,1.6175421074339034,1.1687812338430548,-0.7953292485935015,2.8578260655106957,1.231707531445111,0.4153900855846733,-0.6163834686683419,0.061895978144439756,1.1804094734482158,3,left
15.745,1.4955325475211207,0.9853505652144022,-0.5102412016436778,3.053494333529325,1.208587262479182,0.4061647251581664,-0.6062252553858588,0.035791293695406255,1.1805624701103694,3,left
15.745999999999999,1.214710305686852,0.8902118141233821,-0.25445844915259175,2.890191784573081,1.2278311192212554,0.41385417527878593,-0.6065029643690596,0.0364987923107398,1.180563348214825,3,left
15.749,0.6875544116931541,0.9568844069900095,-0.03949520096931858,2.8944067874269797,1.2275207628961253,0.41371240192927944,-0.6258359157591031,0.08627646541034947,1.180203852886768,3,left
15.75,0.044969393279721326,1.1414116374106027,0.1468639943622327,3.2064769502107513,1.190152656481203,0.398806896699739,-0.5783267120338518,-0.0360736191019963,1.1811038493781094,3,left
15.754000000000001,-0.731553013501052,1.5478780858297578,0.2540154702990623,2.4396763440918123,1.2817349201024237,0.43538909131005615,-0.6570885332662304,0.16678861351118868,1.1795922519565192,3,left
15.755999999999998,-1.398786417497496,2.017310790198294,0.24479605033192722,3.711021875359215,1.1299744693529759,0.3747186554904588,-0.5532117964804175,-0.10078118771058248,1.1816030771499297,3,left
15.757,-1.414724911994813,2.0270089415833317,0.24311565013763367,2.0341069081996306,1.3301120472769994,0.45478507681416175,-0.11728261694820606,-1.2237291370954768,1.1901881962661323,3,left
15.759,-1.4213600056802973,2.0362318561762156,0.24080701992998357,-5.004786390347246,2.170795621044688,0.7904879212134506,-0.013428753631818755,-1.4912548568608512,1.1922344836498056,3,left
15.76,-1.9428369136370756,2.543340542816463,0.12135416499228475,-6.681767275592541,2.370908564411465,0.870641088538052,-0.09214385270010769,-1.2884889932551182,1.1906513864792931,3,left
15.76,-2.317009877503805,3.0662678461408266,-0.052730634286663185,-5.410350399963134,2.219174768952369,0.8098767825879135,-0.04470307123319338,-1.4106848059005883,1.1916541448986215,3,left
15.765,-2.3681671820673675,3.4196731560897895,-0.20743086246019227,-6.177123970850309,2.3107671613485836,0.8464233406939247,-0.06395764903468651,-1.361104373243676,1.191179981361934,3,left
15.765,-2.2486198467553717,3.6471076182347115,-0.31610602255145326,-5.865290195161259,2.273310661420412,0.8318290347118833,-0.06429678999105819,-1.3602099407415311,1.1912659543869246,3,left
15.767999999999999,-1.9174099958365702,3.635818375076368,-0.34412405417657577,-5.860566452435027,2.2731905060773663,0.8310175960894354,-0.05413631915091882,-1.3863925482984465,1.19142634251486,3,left
15.769,-1.5067135592594665,3.428840028921807,-0.2902344152916535,-6.024598529770655,2.2921616442546715,0.8396672750215184,-0.0662190045987998,-1.355286974456226,1.1911110646330152,3,left
15.774000000000001,-1.1125905067107853,3.0645308310223247,-0.1526310514754402,-5.828203680531841,2.2693129572459556,0.8294856462828044,-0.05694192462598284,-1.3791218619746184,1.1915426792303543,3,left
15.775,-0.8010963929720507,2.5994417453750476,0.04391791344306879,-5.981007863289824,2.287301904674491,0.8371240774268027,-0.061737476650688725,-1.3668774341533636,1.1910200683678172,3,left
15.779000000000002,-0.6087500151508883,2.111268556566914,0.23809459251748605,-5.899067752586779,2.27700594057681,0.8339059396459276,-0.06094234113126969,-1.3687915896995693,1.1915606049719023,3,left
15.78,-0.49750713809557295,1.6368511286646998,0.386627329454223,-5.916717474998713,2.2807555483776865,0.8325253756357063,-0.05929691051043039,-1.3731373644828222,1.1911748752712543,3,left
15.784,-0.4429869276905619,1.2153326971628848,0.46399058988158415,-5.940522275390263,2.280773166285977,0.8374872968362264,-0.061632517683158715,-1.3671217446671147,1.191125018505212,3,left
15.785,-0.40583105052399326,0.8580283205915168,0.4585024521940526,-5.900325201623489,2.279437323463377,0.8308760477391866,-0.059985156762857976,-1.3711662912234126,1.191933257569392,3,left
15.789000000000001,-0.36712330615571354,0.5738727928548324,0.3868061646386434,-5.9376890100898665,2.2811383087265424,0.8363996476273137,-0.060207659281164685,-1.3710482957303691,1.19015640887257,3,left
15.79,-0.32410557778581367,0.3673320745267249,0.2734779862622889,-5.913965326456619,2.27828107611652,0.8353008070414507,-0.061425670628563675,-1.3672314181712202,1.1927762139343792,3,left
15.794,-0.26016890158261685,0.23017623919157365,0.14118556604506066,-5.920741596093578,2.2842109308276655,0.8286841266987062,-0.05944456476388989,-1.373059112106914,1.1899973571370999,3,left
15.794,-0.18092008790116298,0.15946431219582102,0.009896514495895285,-5.928947656098334,2.2734886812182395,0.8449357005474192,-0.06093768442021625,-1.3687939843964934,1.191595398412252,3,left
15.798,-0.0784270597167859,0.14299625431125712,-0.11403198223882083,-5.9110316048321305,2.2888067721242145,0.8204203467790477,-0.061491132908057695,-1.3670081444664035,1.1929895858515829,3,left
15.799000000000001,0.063447915651997,0.16070556866241809,-0.2290531861924327,-5.931186855301021,2.2726032739269506,0.8466050022282607,-0.0575203251174798,-1.3788151097594032,1.186923111245666,3,left
15.804,0.22746780534021827,0.2033480534799875,-0.3318916723424975,-5.917872926750501,2.281767196047463,0.8313951031739459,-0.06533562490453984,-1.3557553524240562,1.1981626131265288,3,left
15.804,0.42465738609006004,0.2636164245774874,-0.4051447335780197,-5.914660600785119,2.290650964632208,0.8186808350776611,-0.05510024605656871,-1.3858816032725625,1.1837363854474052,3,left
15.811,0.6370357036524918,0.3312680722032276,-0.4562381363233791,-5.942246255649492,2.2533813026958174,0.8749754741240048,-0.06373053972634285,-1.3605098593238716,1.195775728462316,3,left
15.812000000000001,0.8694609811553385,0.3958677207787039,-0.4816856666133237,-5.888647965465585,2.3222089774341677,0.7704578315786177,-0.06342366712082062,-1.3613879456508684,1.1954574625175933,3,left
15.812999999999999,1.1324921512218356,0.44548887705463014,-0.4597264908204622,-5.958017027227733,2.233893994690792,0.9046918688717234,-0.0471027642840709,-1.4094120313512901,1.1724836565458667,3,left
15.814,1.3699376782061954,0.4751606908980687,-0.41480363908768625,-5.89988478375635,2.307600618766575,0.792612911825006,-0.08734864986232493,-1.2910315812376107,1.2289350614563643,3,left
15.817,1.6668543609170912,0.47305440597447124,-0.31714131728509665,-5.902304075412367,2.305699632162871,0.7956941588290602,-0.020557109614696763,-1.4874759291198094,1.135347658532155,3,left
15.818,1.8800998454813813,0.46100892955166517,-0.23430564524334113,-6.010370482404397,2.164840287483065,1.009256545973852,-0.10868411997501734,-1.2282863802205104,1.2587766843258348,3,left
15.823,1.9161096627191962,0.4586190205215808,-0.22101609555192836,-5.743765025817935,2.5109520854652776,0.4842832114811951,-0.4786132915737987,-0.14032385693890861,1.7769316991953827,3,left
15.824000000000002,2.1208100087790354,0.426227644606392,-0.11678474785349725,-6.186057672769463,1.9370992368978883,1.3547388237523585,-0.5667524108226741,0.11890973730328183,1.9003304812037551,3,left
15.824000000000002,2.3199764772640386,0.3927185711209772,-0.011955579188152477,-5.602667404210786,2.6940243516077134,0.20659388694020908,-0.4999308495536543,-0.07763203522824483,1.8067905728022473,3,left
15.828,2.3345717941554716,0.38774230547849714,0.0012040860967375677,-3.155090164072985,5.871354837538572,-4.612679220128122,-0.5402316836081116,0.04090657913017452,1.8632020975434385,3,left
15.829,2.447466319288287,0.36631243954587317,0.08112511931880621,-2.5718412068526906,6.628356624713547,-5.760880810925883,-0.5238306835623192,-0.007322870539040786,1.8402276236511688,3,left
15.83,2.5467304294524884,0.3483345419252724,0.16632199946046466,-3.0139586552715585,6.054377028912837,-4.890321363843064,-0.5236136100313162,-0.008001884479575387,1.8399828616951468,3,left
15.834000000000001,2.5379631186733884,0.3613650565431139,0.18346635683015605,-2.747374068522392,6.400612390957976,-5.415422059117395,-0.5321812299053348,0.017278807500308618,1.851859115535785,3,left
15.835,2.508600837257059,0.39408169136913773,0.1791366038882177,-2.8557847209272307,6.25970843276963,-5.201752369611995,-0.521925726766806,-0.01299955738605241,1.8376673662751357,3,left
15.837,2.421083193811878,0.4505027165954304,0.14664050803251882,-2.857354493738245,6.257689799752312,-5.198694475332125,-0.5299029621937237,0.010576648390209477,1.8486718461191074,3,left
15.838,2.3084909993738725,0.5243281368652757,0.10849679034187984,-2.8005274236558693,6.331736153988553,-5.3109061014900005,-0.5255963259110303,-0.002138430960052253,1.8427124558448469,3,left
15.843,2.192667128023382,0.6059995624988976,0.07398008143829751,-2.8684879559820584,6.242869198063586,-5.17633239776243,-0.5266240326184484,0.0007855481469536078,1.844292278963663,3,left
15.844000000000001,2.0770345589115546,0.6905769495863718,0.046346755033995976,-2.815699565137555,6.312331853325729,-5.281382054164066,-0.5276449763460278,0.0041043941489449995,1.845269292777099,3,left
15.847000000000001,1.9790963820515675,0.7697675262897785,0.038398651717049564,-2.84402891933593,6.274621761191963,-5.224490853074756,-0.5258767921062388,-0.0016400862160108956,1.8435723466065186,3,left
15.847000000000001,1.892613025814326,0.8364440003819593,0.03661310750808205,-2.837619632067738,6.28335130600442,-5.237598872827842,-0.5274730386301909,0.0037219771338685157,1.8448520552396643,3,left
15.852,1.812122182748316,0.8915219123092577,0.041974259271190306,-2.8302689938579144,6.293673732149218,-5.252997532943114,-0.5264366368888274,0.00014202171131012147,1.8441623508701772,3,left
15.854000000000001,1.715982920555133,0.9460726328711977,0.06395106187354618,-2.8426230139701274,6.275100751185596,-5.225660643539692,-0.5269847184301619,0.0017488931245294142,1.8449364962005634,3,left
15.857000000000001,1.5934408052810736,1.0059607930811696,0.10837001819733848,-2.83164734224091,6.29372298434812,-5.252469179275918,-0.5265893194768656,0.0015735724518061776,1.8429702450399055,3,left
15.857999999999999,1.4448278550325855,1.0697810381770423,0.17610622896926642,-2.8382564654043216,6.279773924436494,-5.233075005737561,-0.5271924124895189,0.0010910024260275888,1.8470429792989764,3,left
15.862,1.278551322821548,1.1341977149164553,0.25489183132890236,-2.835957366379108,6.287039827406591,-5.242690025727682,-0.5262230207190285,0.0016055362945258606,1.8408695488508395,3,left
15.863,1.1067666530302973,1.1928096901057463,0.3307537195723095,-2.8359849783527364,6.28704009180281,-5.242678260267983,-0.5273488835268993,0.0013294914661598617,1.8475801552470466,3,left
15.866,0.9355348635140273,1.2423944493324925,0.39594059886341126,-2.8354984485219177,6.279732992087488,-5.234202184917202,-0.5266995364866238,0.0014916162948406522,1.8437041612557326,3,left
15.867,0.7781462485120789,1.2826730662514325,0.44493536136655654,-2.83861896830687,6.293826699869795,-5.24962075326105,-0.5259338783772087,0.001028405855228568,1.8400754831383672,3,left
15.872,0.6394546066441542,1.3114328520008134,0.4741238978901595,-2.8323101292869044,6.274947185431067,-5.229873744748873,-0.5290177386778669,0.002275803567183745,1.855584138632485,3,left
15.873,0.5153636038833218,1.3284155424940747,0.48875978923856656,-2.840001869143768,6.293818832402074,-5.2490219594521355,-0.5233124119545285,5.689009838212404e-07,1.826841686434759,3,left
15.878,0.4080185932882128,1.3325722392864412,0.49453432265436004,-2.835248821466233,6.283315601319744,-5.2385660481652465,-0.5306548687808885,0.0029729770134018056,1.8637722817153417,3,left
15.879000000000001,0.3213495670264717,1.3228081132956966,0.4940973599805157,-2.8310229185148583,6.274428717256413,-5.229806321016222,-0.5245179761368799,0.0004674541203475152,1.8329298233164604,3,left
15.883,0.24390521237266227,1.296929138569578,0.4984114339919276,-2.849888423803662,6.312840233025666,-5.26741240777988,-0.5246608334968919,0.0004745179658212416,1.8337346414890452,3,left
15.883,0.17627787694833968,1.2618686404173867,0.510176091747736,-2.8145477713282787,6.242066514387277,-5.198370521276949,-0.5364587301028114,0.005516359172767201,1.8926733529926754,3,left
15.887,0.12040322185217922,1.223955632464147,0.5280517411261719,-2.8601712807401762,6.332624366538297,-5.286539584024247,-0.5074806468145181,-0.006833343754615945,1.7478316027849994,3,left
15.888,0.05617467184788277,1.1747779664443938,0.5568003345055323,-2.8219782334521613,6.257161964739613,-5.213144230980166,-0.5555266507921466,0.013651839553508686,1.9879884098375848,3,left
15.892000000000001,0.013263947666782704,1.1398407980477094,0.5739589020286826,-2.822987813504355,6.259222216185938,-5.215155935052786,-0.49215157981081814,-0.01338752620697897,1.6712151192941591,3,left
15.892999999999999,1.4625268228968052e-05,1.1304466381272822,0.5770942253223661,-2.8960676540342583,6.402823817501401,-5.354671450409672,-0.22604920342512289,-0.1270041032041405,0.34148814318807663,3,left
15.894,-0.04323245708917299,1.1018808230206791,0.593756434939898,-2.7163978643572806,6.049947910624212,-5.011881449153586,-0.1626707191517014,-0.15407299781560652,0.024703115663252576,3,left
15.895999999999999,-0.11251107139278493,1.0555970382920357,0.6046763299898968,-3.0143701002642573,6.63494817004581,-5.580117160325543,-0.21072441763803776,-0.13354409687239777,0.2648782252152011,3,left
15.895999999999999,-0.15141773682520154,1.0323088925094714,0.601131583992131,-2.6212616674060616,5.863395926523158,-4.830700369383189,-0.18173356532819898,-0.14592333613992514,0.12002145573996822,3,left
15.897,-0.16377550702525273,1.0238567084030379,0.5996194845875458,-0.9698199316853211,2.6248980085933735,-1.684905578683753,-0.19354843213272416,-0.1409015282929299,0.17895896507312997,3,left
15.901,-0.2007766230730257,1.0010891356248357,0.5875307654988746,-0.576369949292159,1.8533640342424396,-0.9354520189019145,-0.19367429705256367,-0.14079394484805452,0.179793707570967,3,left
15.902000000000001,-0.2538958543199143,0.9744880876088006,0.5658278160891763,-0.8750659274617493,2.438349941935442,-1.5038062815828406,-0.1875461388007164,-0.14348956130873333,0.1488864561613803,3,left
15.907,-0.29397244248052345,0.95798992501981,0.5431365842160769,-0.6942820675537047,2.0854473390702424,-1.1607524035080232,-0.19489942154000844,-0.14027043714336074,0.1859089129080934,3,left
15.908,-0.3334722466792671,0.9470721897632877,0.5144717590094764,-0.7687226468345503,2.229154046882637,-1.3007111656040267,-0.18915316709560887,-0.1427587627320802,0.15707604982862197,3,left
15.911,-0.368300942078449,0.9463282878395143,0.4752959635357655,-0.7685323552114123,2.2310145557619068,-1.302153422605676,-0.192311278713166,-0.1414774931360812,0.1726228245586363,3,left
15.912,-0.3929750557421739,0.9530843658166701,0.4174735262212258,-0.7306763129311067,2.1558174159893024,-1.229266932098265,-0.191450159223495,-0.14162709853517105,0.16907262566170994,3,left
15.915,-0.4123481611285478,0.9637859482569893,0.34496100790269435,-0.777692125043862,2.2461374856491974,-1.3173134465376317,-0.1908837171743618,-0.1422452674365138,0.16494716409222215,3,left
15.915999999999999,-0.4195123454513143,0.9810433574128598,0.2652595615962503,-0.7385422201700744,2.175417464321889,-1.247611158075569,-0.19199444639798813,-0.14130895517002123,0.17208522213679905,3,left
15.921,-0.41082602740618407,0.9998914761963484,0.1803497872133059,-0.7636050455109802,2.2141457438290018,-1.2869658239597257,-0.1909077704249869,-0.14214141168716332,0.1653898635651754,3,left
15.922,-0.3886772646068182,1.0166009481328833,0.10396825674410043,-0.7521351141725825,2.204432436598342,-1.2754012209770802,-0.1918075147776305,-0.14176040469075077,0.16987484555087207,3,left
15.925,-0.35411347485093325,1.0263181685327452,0.03925354783024501,-0.7526419289833093,2.195242652641498,-1.2681719913806029,-0.19094695356841784,-0.14144434047983478,0.1679209362033892,3,left
15.927,-0.30719952315388244,1.0272044737705497,-0.02194839401702526,-0.7615504109170272,2.2126205298193957,-1.285067848182234,-0.1920178883733599,-0.14254926740598414,0.16791037544381654,3,left
15.932,-0.25344994853068226,1.0222607074912369,-0.07481379813003997,-0.7428051664825737,2.1947538341246684,-1.2645619010608264,-0.1906347772201606,-0.14080923619261795,0.1689981297231277,3,left
15.933,-0.1942916946041769,1.0103861736359578,-0.11799230977875108,-0.7722218385329,2.209269612858538,-1.2858618612051722,-0.1920692739980071,-0.14268120575151705,0.16763891207705678,3,left
15.936,-0.12702958516077892,0.9903283456400981,-0.1492093017705323,-0.7342118772795149,2.199129376777029,-1.2652717674336376,-0.19130342896599423,-0.14157272254740275,0.1687395354034394,3,left
15.937000000000001,-0.052105720907271766,0.9605412917995806,-0.1640509586513384,-0.7721417590612348,2.2048670644905073,-1.2822935627447634,-0.19033103897896242,-0.14075032393449863,0.16812666510298863,3,left
15.94,0.030684831519294718,0.9228524495431971,-0.17198501849006206,-0.7515510805644601,2.204141064127224,-1.2749751000835026,-0.194075748447454,-0.1445673375973641,0.16825271253890728,3,left
15.94,0.11873463761940506,0.8821329872123346,-0.17558034140926604,-0.7310062561159119,2.1980627604637593,-1.2633648465570881,-0.18722322573149924,-0.1374494885438266,0.16848029246659396,3,left
15.945,0.20738297698816827,0.8386779855108601,-0.17374457928616202,-0.81501960903194,2.213154746170107,-1.3029859054098663,-0.19600174021326683,-0.1465977250655286,0.16808458665209033,3,left
15.946,0.2918423362343072,0.7964313074517917,-0.17492625803798462,-0.6609402421719801,2.1885219255722745,-1.2327721093581614,-0.18868099525313664,-0.1389571546562049,0.16845680121547912,3,left
15.95,0.37210351805930897,0.7653128492178989,-0.18925181657182583,-0.8580135816332928,2.2186627917276796,-1.321479399094194,-0.18884789022348247,-0.13917672920163232,0.1682860674044501,3,left
15.950999999999999,0.4418426513162296,0.7446205165725717,-0.21543129795336746,-0.693829746430821,2.194136058368652,-1.2480465964993073,-0.20291041699921364,-0.15370300893263866,0.1681035332123907,3,left
15.956,0.49723070322941054,0.7336699076865667,-0.24229125817419922,-0.6979513845654468,2.1942493278939206,-1.2494849620528,-0.16838248593788596,-0.11798496457472196,0.1687413380293559,3,left
15.958,0.5457381008760871,0.7369388428748123,-0.2695275780859598,-1.0116349924792536,2.242036823479084,-1.3905313065532594,-0.2256230294100582,-0.17720979308806944,0.16763525764021053,3,left
15.96,0.5712166072676038,0.7411163682303914,-0.2872117900373451,-0.24122869107088452,2.125567847479026,-1.0448451703770516,-0.15012236702321352,-0.09909371465988276,0.16909775307264713,3,left
15.96,0.5789056093247089,0.74546757776448,-0.2914263101842892,-1.5182873049626375,2.3182075624384426,-1.6175266653685427,0.1668203388823409,0.22879499853381682,0.1750086104303346,3,left
15.960999999999999,0.5915777500450053,0.7549437518840676,-0.2985036069976166,0.165950849586037,2.0643460629217003,-0.8624127047669727,0.24232751652849438,0.30690695347364316,0.17645066345941318,3,left
15.964,0.5989638556250139,0.7592573369970644,-0.30228834281747596,7.23591863148498,0.9988268713381132,2.307258307845838,0.18507992408672091,0.24768658236998692,0.17536670049700165,3,left
15.965,0.6096505885936043,0.7720703900389496,-0.29873528946306815,8.919896025951086,0.7450835448067465,3.0621879364682454,0.21960517375467692,0.283406337454325,0.1760129169341208,3,left
15.966,0.6266719613449228,0.7949032686598855,-0.2934779720279581,7.643287041205029,0.9374561340101625,2.4898746230148,0.20556603027905831,0.26886523029820186,0.1757570180879193,3,left
15.969000000000001,0.6333278104360649,0.8139383912168288,-0.2831813658010569,8.413207341015273,0.8214318306244219,2.8350389057712695,0.20534882377151215,0.26867753961768914,0.17574413792111176,3,left
15.97,0.6319743322256538,0.8357685029926255,-0.27140394734750556,8.099811047628755,0.8686264450805057,2.6945632455807287,0.21274170479841237,0.2762724104162799,0.1758900221266163,3,left
15.972999999999999,0.6203043562946897,0.8569261982555801,-0.25890331089409757,8.095888355246394,0.8693359744984857,2.6927201752006678,0.20389135843468698,0.2671696619552174,0.17571969444130886,3,left
15.974,0.5945875858628797,0.8759688079122976,-0.24663888874116224,8.259132728719958,0.8444982410720572,2.7660741973502234,0.21077487418782204,0.2742679194351521,0.17585002727574706,3,left
15.979000000000001,0.5568275914276495,0.8972484647523025,-0.23721261050770617,8.063812077656415,0.8742694349553302,2.6782685373263986,0.20709185011187675,0.27041176241749426,0.17578254125680254,3,left
15.98,0.5071623667314946,0.9165706554895665,-0.223534378678433,8.215617705944766,0.8510576006876218,2.746564734523972,0.20786553884936515,0.2713601110651315,0.17579309769116935,3,left
15.982999999999999,0.4465331451254511,0.9370661057752447,-0.2031022223239677,8.133595972456483,0.863560417991917,2.7096915052632644,0.20897375186315045,0.2722516574688023,0.17581952973749393,3,left
15.984000000000002,0.3795998319716266,0.9577843290340134,-0.1787957624578072,8.15374076952175,0.8608216910648651,2.7185098100545826,0.20711908649508243,0.27064583839142986,0.1757786150299809,3,left
15.989,0.3089024531849113,0.9753386697187802,-0.1515691842269996,8.171605671031969,0.857181079841804,2.727198384742046,0.20883717217512549,0.2721738091251799,0.1758153533315654,3,left
15.99,0.23314110954539796,0.9939714095735253,-0.12508783308184063,8.14064778964716,0.8634788253335599,2.7121499420867674,0.2077692320992247,0.27106669882961476,0.17579542910212886,3,left
15.994000000000002,0.15893679941307293,1.0112122130904222,-0.10255858612665256,8.167680834821311,0.8574017766743597,2.725704508956509,0.20800814722228966,0.2717769646648629,0.1757919212529137,3,left
15.995,0.08982799348050083,1.025676008730625,-0.08416386327051559,8.150641093639916,0.8615666601353026,2.7169210831973603,0.20852905339503525,0.27125762245193596,0.17581958238785908,3,left
16.0,0.024499786018625153,1.0415765694765295,-0.06596853948923839,8.16113583409249,0.8599999658628206,2.721615393908368,0.20749636392741738,0.27176791369816655,0.17577382582006087,3,left
16.000999999999998,-0.036175432552976464,1.0551474102299614,-0.04663992085693379,8.148461845415309,0.8589440441144073,2.71805855144566,0.20864491059162538,0.2712733480275714,0.17582324631360263,3,left
16.003,-0.09371884098873412,1.0646242225966984,-0.03267839003485257,8.17168596900835,0.8622218260445115,2.7236139529722294,0.2079059912247354,0.2714810362390401,0.1757935535436129,3,left
16.004,-0.14802287123531754,1.0745205874115205,-0.02223756508533358,8.135706967334183,0.8575325395710546,2.7147290347336988,0.20764168480642248,0.27204619256260154,0.1757742139249609,3,left
16.008,-0.19968053108231734,1.0835288565181895,-0.008853910677183807,8.17582993248929,0.8622652973339255,2.724993077065209,0.20940862061671534,0.2702053210776323,0.17586867642037163,3,left
16.009,-0.25129094183788825,1.090308065953241,0.007920531377691825,8.152665878056496,0.8595273028857693,2.7190715184968086,0.20602145986447534,0.2735045439754342,0.17569213264896047,3,left
16.012999999999998,-0.30184539192291593,1.096178999193807,0.025536751931890228,8.128775148549913,0.8577597324678128,2.7122069932291506,0.21039581700355114,0.26929465179883977,0.1759185838120355,3,left
16.014,-0.3501319641556756,1.1001172654648261,0.03561658414740764,8.228254043790024,0.8662640752867807,2.7399697238641587,0.2067332795917864,0.2727975070063102,0.17573038108249356,3,left
16.018,-0.396842938418304,1.1031806064135765,0.0321640239021696,8.04402197841732,0.8504531225843508,2.688598031076433,0.20687220665082667,0.2727457708638617,0.17573375163062213,3,left
16.019000000000002,-0.437474048411452,1.1068555248739251,0.018283357219470053,8.280910578987065,0.8707076630724994,2.754706376958354,0.21372659259723353,0.2659280678200294,0.17609621327617705,3,left
16.023,-0.4731864254202065,1.1093477857188794,-0.0007287748010315538,8.082995304462825,0.8538182477287054,2.699451177896934,0.19683136328796402,0.28263181760330786,0.1752092127561459,3,left
16.024,-0.5069518805144074,1.1083348448019121,-0.022846292393226133,8.087941323785522,0.8543427601476397,2.7007577181480955,0.22485794540545817,0.2549527051660976,0.17667693714258215,3,left
16.027,-0.5241117741202761,1.1071760283862166,-0.036733152111443554,8.46708166358211,0.8862698287499267,2.806916948958313,0.18788871183992775,0.2914570367158674,0.1747434043917874,3,left
16.028,-0.5270860354050526,1.1069149483116205,-0.03881718478862685,7.535510195123214,0.8077393447588661,2.546138921539412,0.032809646634706355,0.4448411233401389,0.16655675001502762,3,left
16.029,-0.5319410756318439,1.1009455811231308,-0.04830388292722569,9.080130574386072,0.9379500259016974,2.978527846660748,-0.004153037707577304,0.48135423921826626,0.16462068879555514,3,left
16.033,-0.5336198496370248,1.0955472489159335,-0.05809679384984756,7.042682278429895,0.7662096200154543,2.4081709206527058,0.023860767870896405,0.4536528061353528,0.16610021370778522,3,left
16.034000000000002,-0.531340538152165,1.0940937994689213,-0.05930006861224042,-1.5105401676526364,0.04558865781534402,0.013543903256007184,0.0069830002365598096,0.4703983378792154,0.16518214556300861,3,left
16.035,-0.5238890323967706,1.0847056583299326,-0.0710733430942258,-3.548140884824029,-0.12614363394175934,-0.5568683281705772,0.013819335672655055,0.46351857109750066,0.1656017267551558,3,left
