time,gFx,gFy,gFz,ax,ay,az,wx,wy,wz,subject_number,foot
2.653,0.9371873698169874,0.036623741589334916,0.38004290711245114,2.5582058015742333,-3.251677242680829,0.10234317437725289,-0.2564311599433703,-0.2302571466645682,0.09690564021793424,3,left
2.653,0.8930418857228292,0.007190113285640662,0.36651193390860476,2.5634274684289666,-3.2762174897937033,0.10433377403137059,-0.25788430699438836,-0.22653558120103168,0.1020364373081562,3,left
2.657,0.8456477679241229,-0.0238926659252911,0.3573717373227525,2.5703561064371963,-3.3048926704124453,0.10640361281441141,-0.25640762332953726,-0.22995114356667923,0.09709472052935408,3,left
2.659,0.796829479251316,-0.05885621264027089,0.35157093243905346,2.5583704615956453,-3.25526562005283,0.10281971286464557,-0.25783344425729504,-0.22795189717132808,0.10090035247056783,3,left
2.661,0.746951316452459,-0.09134396351753465,0.3449106565890918,2.569932129986543,-3.301894988377574,0.10609422113525038,-0.25602103356427347,-0.22803537264889295,0.0978912515987414,3,left
2.662,0.6942809650605472,-0.1224802019301113,0.33999505628290416,2.5620103672157066,-3.2705975036233235,0.1039464364680901,-0.2587458767485408,-0.22984347524546692,0.10097659870792271,3,left
2.667,0.6385045597771386,-0.15608497678404704,0.336537479344892,2.5649962210422244,-3.284178083838012,0.10501822991617166,-0.2550200825421761,-0.22666743403374526,0.09728171400299673,3,left
2.6689999999999996,0.5842611772080197,-0.1843875880317508,0.33644719534063433,2.566980377360417,-3.2845892853987264,0.10446422558699933,-0.25892900606622543,-0.23014220039331035,0.10105174685576143,3,left
2.6719999999999997,0.5334376231935861,-0.2093482861833594,0.34348994649761755,2.5607977735366143,-3.27618022856172,0.10514268525623319,-0.2567696158185322,-0.22799389114143156,0.09913983224137377,3,left
2.673,0.4806172645838673,-0.23293737702508951,0.3553331269784319,2.5696393082344713,-3.28698779383494,0.10399335603426828,-0.25441570071772845,-0.22683878279607755,0.09617096682125134,3,left
2.677,0.43263137776942484,-0.24780031178426482,0.36717858424852456,2.560720631075397,-3.2777713440572676,0.10540053733588392,-0.26391239761223284,-0.23303430098891464,0.10700321056810654,3,left
2.678,0.39533575371495483,-0.25970526477326367,0.37810798922795674,2.5658812549949355,-3.2831182409821746,0.10458826814501127,-0.24644499092660685,-0.2213391993368804,0.08730368516076877,3,left
2.682,0.3574300688614013,-0.26673049318747455,0.39523833571840966,2.5691976022627854,-3.2826296843723366,0.10348955949582855,-0.2688429811264622,-0.23640192520896214,0.11251298757040484,3,left
2.6830000000000003,0.32126513001027357,-0.268729500192626,0.41346595893712657,2.553212938293756,-3.2781763105643265,0.10778503902676811,-0.2501547319802401,-0.22380892989551188,0.09149982516964408,3,left
2.687,0.2869763156195694,-0.26657104879971183,0.4266389349108031,2.5829345871085216,-3.2867555897691743,0.09984177136029805,-0.2506155086905546,-0.22421968776621937,0.09193853906051988,3,left
2.687,0.25023796939887094,-0.25119113322643855,0.4412888327456608,2.5448585176834557,-3.2761713628488813,0.11007780931349431,-0.2864034021737511,-0.24800089363400687,0.13243866992876832,3,left
2.6910000000000003,0.21644724824263573,-0.23345618808784516,0.4508157120829511,2.576611758590368,-3.284802322258397,0.10151243495681522,-0.19848890753285678,-0.18946895470616265,0.03304193546524909,3,left
2.6919999999999997,0.17167667097787226,-0.20165901758328797,0.4601265177167645,2.5756153052321538,-3.284060052094576,0.10171271769272017,-0.34424961748020433,-0.28653617535930853,0.19781534241255538,3,left
2.697,0.14120933556559528,-0.17361850013674615,0.4702633656762488,2.515617998358388,-3.269825635455651,0.11819982183456273,-0.15198196137482747,-0.15850687921074258,-0.019528499059396166,3,left
2.698,0.13562407528925918,-0.1692636182427743,0.47268710005314585,2.663211343516939,-3.3051613354031315,0.07768683951555556,0.6550718481668858,0.3788121408647144,-0.9319576940691944,3,left
2.698,0.1024758233080691,-0.1292362490188044,0.4897432892580567,2.418474836678298,-3.246655552555299,0.1448787509029482,0.8473751341389891,0.5068236014459908,-1.1493491464046857,3,left
2.701,0.07525783244727216,-0.0884446979696979,0.5092610079148667,2.7412813660031103,-3.3236514328773943,0.056226202283900656,0.7015618624450851,0.40977983811350904,-0.9845097007330302,3,left
2.702,0.072592943281486,-0.08231338686639572,0.5117262392172681,4.095614978893059,-3.645923371968436,-0.31581343001376805,0.7895113283973973,0.4683043800296102,-1.0839382981478318,3,left
2.7030000000000003,0.04912540844093803,-0.04639212322568077,0.5250809546626511,4.418428330102058,-3.722656628123538,-0.4045087664071819,0.7537489837077366,0.44448954457306766,-1.0435029587082176,3,left
2.705,0.030922722427636617,-0.00044329121126079115,0.5465087070636443,4.173706385700284,-3.6645345272601424,-0.3372627224219887,0.7531648770221109,0.44417144098643,-1.04285397033936,3,left
2.7060000000000004,0.02611269645531233,0.03047037951638655,0.5581572322631165,4.321219200204026,-3.6996257233502536,-0.37778586383127993,0.7720846867464124,0.4566153391288833,-1.0642253629083513,3,left
2.71,0.0231609730652132,0.06013388933212384,0.565230303529848,4.261406610179494,-3.6851756397346973,-0.3613950776752449,0.7493877434002996,0.4417213814597286,-1.03858846154105,3,left
2.7110000000000003,0.03534700802058616,0.07668582654540412,0.5665733576057805,4.260119762923606,-3.685382996743068,-0.36094931302304395,0.7671111052184169,0.45330596700507564,-1.058604110370057,3,left
2.716,0.05355531338364549,0.08851449819345954,0.5611603270306151,4.292203663294595,-3.6922635997917377,-0.3698972763159262,0.7575785574809342,0.44705238967851546,-1.047835747180892,3,left
2.717,0.07658255915951952,0.09655740447638532,0.5548402277887633,4.2539053872711,-3.68390801615556,-0.35924201319896654,0.7595446736543846,0.4485439499897263,-1.0500770790253462,3,left
2.721,0.10387708192129545,0.09586868232697326,0.5452542358800322,4.283524094197434,-3.690623785474518,-0.36743719495526506,0.7626579286361135,0.45002772148682657,-1.053538720369894,3,left
2.722,0.13011135504978297,0.09419577565118942,0.5276497987489267,4.2681883917755545,-3.686334920842408,-0.3633380399811493,0.7572750798633043,0.4474585588406018,-1.0475523584524882,3,left
2.725,0.15787305543306768,0.08742995472506046,0.5082166096890371,4.270202386570768,-3.6888915718451507,-0.363522782512667,0.7626289102252775,0.44977812585582505,-1.053483783992227,3,left
2.7260000000000004,0.18550318369277174,0.0763246662820674,0.49009775398987643,4.2771596634042055,-3.686962153036905,-0.36606966514859784,0.7588761112976887,0.4482719023851771,-1.0493376428165524,3,left
2.7319999999999998,0.21357300000493595,0.06557725588671964,0.47096673305318615,4.266510995211296,-3.6888300503820655,-0.36236400793465906,0.7600583615406735,0.44906790634738003,-1.0506751166770871,3,left
2.7319999999999998,0.24262748302647763,0.0537504641395949,0.45310318063770477,4.2760224482410205,-3.6875830450798173,-0.36559918555291115,0.7619643124904014,0.4484956125696413,-1.052650782332762,3,left
2.736,0.27253727686203066,0.04207461052830877,0.43510105427671564,4.271478294083294,-3.686471824257966,-0.36435613399711964,0.756953206823253,0.44936687116117063,-1.0473947253651987,3,left
2.736,0.29970412454512874,0.03169115804021893,0.41280639717658296,4.2684749277271115,-3.6922680690750744,-0.362376964126096,0.7642768667432036,0.4479661421957388,-1.055063958939959,3,left
2.739,0.32068683648332297,0.025993818468516415,0.3852839779604032,4.279896646745428,-3.680104517861923,-0.3681525492022361,0.7566713895030426,0.44959328969747797,-1.0471165093718209,3,left
2.74,0.33892178781529986,0.02462252246443361,0.35222315393514636,4.2617660511256705,-3.6979915938263646,-0.3592363278923192,0.7610684395079549,0.4486554624666653,-1.051711277196456,3,left
2.745,0.3571703891593485,0.024143095630162013,0.3143753997036637,4.28129680139779,-3.678971587534569,-0.3687972164877899,0.7644095164108192,0.4475460263630287,-1.0551648517720085,3,left
2.7460000000000004,0.3754075079985967,0.028072718912732844,0.2740152972024731,4.269690740578576,-3.689884933591709,-0.36318443632912667,0.7492046311744304,0.45200947005116543,-1.0393930350602782,3,left
2.7489999999999997,0.39150207241848345,0.03661409073797871,0.2340134024161186,4.261277217742091,-3.6996713513369874,-0.35878398838232456,0.7774323087958115,0.44375369269784737,-1.0686753866734213,3,left
2.75,0.40822264407672965,0.049185910561343624,0.19942752277560066,4.300703385974012,-3.657461576364707,-0.3787596134942799,0.7412224670185794,0.4543766624104443,-1.0311166362098505,3,left
2.755,0.42629307401747435,0.06594221981463762,0.17236606935291102,4.227116892107722,-3.7356278087501877,-0.3415847430621091,0.7714373013601591,0.4455007436672964,-1.0624546318682389,3,left
2.755,0.44270989497377433,0.08840328256775232,0.152123887721546,4.321711431519486,-3.6352841614828333,-0.38934887102622984,0.7705676096248281,0.44570023841963374,-1.0615502240088683,3,left
2.76,0.4588566427261286,0.11222878003423586,0.14035288301720433,4.242695654027624,-3.7190450006349294,-0.34945998733160266,0.7131666877404392,0.4627815924031129,-1.0020294033087058,3,left
2.761,0.47357293167413017,0.13500543031159473,0.13247826125367612,4.245000316795991,-3.716818965559505,-0.35058774563042094,0.8542959725496826,0.42083958680873224,-1.1483702470724486,3,left
2.765,0.48839514447107235,0.16530871414392723,0.1315162126244056,4.395124675284167,-3.5569708922621546,-0.42649255191457414,0.6202945492762695,0.49037150371523325,-0.9057306638476607,3,left
2.766,0.49915674046622105,0.18514733848262127,0.14046367670969348,4.025940256050411,-3.9498078654197073,-0.2398688377585087,0.9289342112386882,0.3986607361708715,-1.2257606923827093,3,left
2.766,0.5015881448473625,0.19467984248619324,0.14028994241237436,4.638117258802259,-3.298480889899173,-0.5493170975728342,2.2241712437418433,0.013343352374210693,-2.5688452873843146,3,left
2.7689999999999997,0.5039817213601335,0.20972361957179772,0.13534516550995052,3.8306531691394357,-4.15757470368996,-0.14115242053077065,2.532786814889579,-0.07838996182001615,-2.888850742501769,3,left
2.77,0.5061916771505254,0.218874276086318,0.13396444293900753,0.4416400967428459,-7.763723603801575,1.5719544661664264,2.29884074571657,-0.008791670624619597,-2.646261668948767,3,left
2.7710000000000004,0.5074001626933151,0.240853343884968,0.11228657297764992,-0.3658000224107086,-8.622824319715324,1.9801097664083254,2.4398761999161627,-0.05087309367221818,-2.7925278892431744,3,left
2.7739999999999996,0.5090259638141587,0.27577820262786307,0.06987121559089791,0.2463406201546179,-7.971483342351859,1.6706841636280942,2.3826026967992564,-0.03356610729287308,-2.7330935673029457,3,left
2.775,0.5064836844124784,0.30031605448747356,0.014621254431206505,-0.12281673481219296,-8.364340619630305,1.8572674186199662,2.3816017312983027,-0.03364729521716617,-2.732119750387691,3,left
2.779,0.49937323865006006,0.3243003760573149,-0.05445734412233935,0.027317520271945533,-8.204469602982073,1.781420325306257,2.4118903901677315,-0.042284732851696046,-2.7634638288403606,3,left
2.779,0.48573304914028576,0.34770619422138643,-0.11947650847261,0.029550029535390626,-8.202261057480168,1.7802294276415436,2.375749927272265,-0.031694436844308276,-2.7260157336149566,3,left
2.784,0.46645928875626985,0.36973003547337957,-0.17262475242495956,-0.049321575646974695,-8.286022340344754,1.8201599732229603,2.4036823186473297,-0.040316431319497144,-2.755033604098975,3,left
2.785,0.44556765360513617,0.3920491266036368,-0.2090472060773541,0.045078536706259734,-8.1856463741522,1.7724153982426816,2.3890292959007127,-0.03494858866525574,-2.739666185903661,3,left
2.7880000000000003,0.4215065846499842,0.40763365409423924,-0.21945356790421786,-0.028329617698266536,-8.263885746010969,1.8094684840066313,2.3916445547853793,-0.037463718240196654,-2.7426762452194753,3,left
2.7889999999999997,0.39936564627261417,0.41738198131688764,-0.21103832984440843,0.01104587739337285,-8.22156732569119,1.7897372487957426,2.396695075505036,-0.03683536749894353,-2.747547480008555,3,left
2.793,0.38136786296980896,0.4207020382594201,-0.1821803127978452,0.0024211806730114124,-8.23146906373846,1.793799778932947,2.3889217665108053,-0.03622134332319117,-2.7397786610600603,3,left
2.7939999999999996,0.3625789879664941,0.4164738779401769,-0.1337818161683253,-0.008608460051543147,-8.242316927727215,1.7997397109613396,2.3954318671176122,-0.03817240151436638,-2.746531778590872,3,left
2.799,0.3461542112656943,0.4039568604658734,-0.07672173408670195,0.00998912654200139,-8.223235796222166,1.7900482529900033,2.3925944673433865,-0.03417945920106363,-2.743048644448735,3,left
2.8,0.33030752469802777,0.38563140835141113,-0.006954465469552872,-0.007060201590806274,-8.241383006736527,1.7986637661737754,2.391006632857743,-0.04090387578605281,-2.74263837901843,3,left
2.803,0.3103612611155848,0.36481882369313634,0.07041974300102666,0.003594541893381053,-8.228735039984285,1.7938175254725142,2.3962181532502855,-0.03171756768106648,-2.746198162585541,3,left
2.804,0.28758568360999154,0.3421750182388445,0.14441281150085933,0.00036650578876419593,-8.23516531677901,1.794216269324194,2.3896222882398757,-0.04120133841771636,-2.741324677089581,3,left
2.8089999999999997,0.2590391717842676,0.32165229606631507,0.21102483372191394,-0.0022561626447216883,-8.233487600884587,1.7973813084099608,2.394131099118364,-0.03592829181831112,-2.744864031917963,3,left
2.81,0.2187507129993858,0.3016809186493927,0.2650683968903811,0.0032616527244956816,-8.23237931156007,1.7926314769447633,2.3958484087666543,-0.030740391142743184,-2.7456656424438535,3,left
2.8139999999999996,0.1659845302196281,0.28442328193693334,0.31123590744873963,-0.0017521302747546086,-8.234962735016605,1.7962985539515988,2.384330271446216,-0.05226052434248048,-2.738007458071053,3,left
2.8139999999999996,0.10738113701450501,0.2753195594368406,0.3526793018678271,-0.0003980435841281026,-8.231148627815738,1.7965910806467211,2.406636609207987,-0.012630157064806795,-2.753190311333205,3,left
2.818,0.049256444324714106,0.27064756385638145,0.38905966441462403,0.004147852239507525,-8.236694991264432,1.7900186372136697,2.377652937562961,-0.06341839947142339,-2.7333410392987574,3,left
2.819,-0.004120700197437421,0.2699823110300908,0.4176501620915377,-0.006757273478681767,-8.229043880734439,1.8034577188701117,2.4019947592551376,-0.021057292738042733,-2.7500621996241303,3,left
2.824,-0.05455932322752853,0.27579932258931683,0.4340437320019524,0.008138181957738114,-8.237916895364522,1.785750519025128,2.4011120202923824,-0.022145761120833635,-2.749377833242349,3,left
2.825,-0.09391378567462808,0.28389331276097274,0.44433201664399646,-0.004675907169744294,-8.230914238602553,1.8007240216703295,2.355292097833935,-0.10307643808419552,-2.7181100461125594,3,left
2.8280000000000003,-0.12197136369930975,0.2952752406274012,0.4559168508757454,-0.0037439813188002756,-8.230476390767098,1.8000246910158095,2.468236828239985,0.09576177382932405,-2.7952986502408694,3,left
2.8289999999999997,-0.15908168100743303,0.3130050792548691,0.4722589180833222,0.01913476759891152,-8.245495285503038,1.7722552463224044,2.280845091078467,-0.2338971397887548,-2.6671881927609635,3,left
2.833,-0.18471898679073753,0.32362527098834604,0.4834318428561798,-0.03794724116253777,-8.209493675904724,1.8409347693463989,2.5280609702656145,0.20092042924811865,-2.8362135176159597,3,left
2.8339999999999996,-0.19569095044530577,0.328948685562617,0.48993448440174253,0.05702125572748841,-8.268833885270547,1.7268998648779097,3.5655366884525286,2.025973221189065,-3.545484393544482,3,left
2.8360000000000003,-0.2125624484708349,0.3381927685207464,0.5029207451768687,-0.06836387714637387,-8.190701913629457,1.8773704510746856,3.812765843014495,2.460809475582984,-3.7145223959805835,3,left
2.838,-0.2233403102876776,0.343367034964441,0.5092631334262517,-0.5941307911264486,-7.862088603411982,2.508728190343695,3.6253340787803117,2.1311379823980454,-3.586371607477864,3,left
2.839,-0.24739763349954935,0.35622020581113145,0.5070552151601349,-0.7195481107205477,-7.784003117303877,2.659210752817532,3.738364248970881,2.3299414557775426,-3.6636492648678827,3,left
2.84,-0.28366453614168763,0.38005424118574144,0.5037956512455083,-0.6244776260742038,-7.843221572475852,2.545128940997146,3.6924045658390274,2.249133603695389,-3.632232629251543,3,left
2.842,-0.3053954638084544,0.40224622064362836,0.4982660826520444,-0.6817842862721051,-7.807453947194734,2.6139237869623173,3.6916973422852832,2.2478181168122826,-3.631738693909547,3,left
2.843,-0.3194120761983459,0.42894374547113623,0.4971994123077899,-0.6585306057040877,-7.822117856150231,2.5859494143350945,3.7158877447627807,2.2904748954824417,-3.6482907622203764,3,left
2.847,-0.3231157583140588,0.46049158831741477,0.4976311084227539,-0.6580777454662181,-7.822095200342635,2.585525393722434,3.686929653316176,2.2394294815861517,-3.6284800306936362,3,left
2.8480000000000003,-0.3181875802192822,0.49179733260440395,0.4931994988959868,-0.6704672694122555,-7.814776338971197,2.600236753333106,3.709457448225,2.2791016306211658,-3.643887361754164,3,left
2.8539999999999996,-0.3092621316762585,0.5244421277844243,0.48222987067038536,-0.655666933564426,-7.823615610411838,2.582624969119954,3.697381622778887,2.2579617474637534,-3.6356405142006176,3,left
2.855,-0.29567172448489537,0.5604461443230171,0.45609958949364326,-0.6671394658595065,-7.816626426995653,2.59633043795081,3.699973753716285,2.2621990107374685,-3.6373825827235082,3,left
2.858,-0.2835056820907622,0.6006674990608429,0.414066380741414,-0.6611098802157704,-7.8207100789200465,2.5889673756989247,3.7034984505751947,2.2689543454001946,-3.639844112220736,3,left
2.859,-0.26729133192625265,0.6439078521817657,0.36131216362975227,-0.6621231775451707,-7.819041499257391,2.5905874968180758,3.697554623817982,2.2578167996697314,-3.63571708567889,3,left
2.862,-0.24369675178133185,0.6896142454305147,0.30065590587265323,-0.6644272011709625,-7.8193850193042,2.592659244962634,3.7030766259507377,2.2680744997711098,-3.6395428334435573,3,left
2.863,-0.21628910639649057,0.7337965162605947,0.23659643851259637,-0.6607806046320637,-7.8194782933064655,2.5891321480437925,3.6995798284063985,2.261928503406783,-3.6371523881104437,3,left
2.8680000000000003,-0.1854923208704451,0.7750305654718153,0.16940468088374766,-0.6640844275064488,-7.819154605112108,2.5924207571489575,3.700552580261789,2.262627989550113,-3.6377245098187885,3,left
2.8689999999999998,-0.14911108040366727,0.8149084990154343,0.10204198332894301,-0.6623154496528698,-7.82027384905111,2.5902916549477664,3.7018212896320906,2.2671721764760044,-3.6388044925248026,3,left
2.872,-0.10516434376847056,0.8473187615485869,0.035457491803344836,-0.6618758710027051,-7.817326624148167,2.5910185839756976,3.699092806554441,2.258921950950877,-3.6366218093883793,3,left
2.873,-0.054792962562026995,0.8694331092446081,-0.032658428328096456,-0.6646510209585934,-7.822955488544223,2.591482673184547,3.702156474856528,2.2679907273414353,-3.6390547660910064,3,left
2.878,0.0002671377527543872,0.8836875187205346,-0.09674165768458882,-0.6600872484494509,-7.814824322013345,2.590281572663229,3.7001413674835906,2.2623182476896058,-3.637481225044551,3,left
2.8789999999999996,0.056783691217590894,0.8922868265796327,-0.1565063137617651,-0.6650310598346085,-7.823441453706453,2.591656467219419,3.6996196028073207,2.259571338258186,-3.6369567680968924,3,left
2.8819999999999997,0.11237782282875121,0.8965467840903838,-0.21366831259740351,-0.6620498505249469,-7.81854258554401,2.590712685229298,3.703890746701859,2.275100486722665,-3.6406132204171193,3,left
2.883,0.16722575864344097,0.8975503618204508,-0.2585608796423058,-0.6600980009279045,-7.813927367544998,2.5906398235031443,3.6956128140578066,2.245668751624759,-3.6335872619989917,3,left
2.887,0.22031292414139156,0.9013346693625208,-0.28499905437787193,-0.6696516738979141,-7.83348021090108,2.5921705570987132,3.7063199283202564,2.283602192382653,-3.6426630689542416,3,left
2.888,0.26761665605636215,0.905318180399421,-0.30121852705589525,-0.6517518214836231,-7.797339324792282,2.5891136301515107,3.6973526574681688,2.251876512689463,-3.6350653425467576,3,left
2.891,0.31447108898172843,0.9073800553413573,-0.3037375724990854,-0.6747770090569041,-7.843714325853776,2.593087097309696,3.697710978604185,2.252954614671765,-3.635353164158281,3,left
2.892,0.35979502649446315,0.9099247155563577,-0.2924346850810734,-0.6555378505071978,-7.805017377374898,2.5897512882439813,3.714421729727797,2.312728140637107,-3.649567677731257,3,left
2.8960000000000004,0.4008282801548204,0.9129052812819276,-0.2758268241011291,-0.6561223045698025,-7.806004638352226,2.589914859846208,3.6732209080523637,2.165554756852024,-3.6145363947271223,3,left
2.8960000000000004,0.44704079105891625,0.9233848477966455,-0.24589838857633656,-0.6925984825930273,-7.879971056055175,2.5960323961181,3.7415566545710783,2.409639908618259,-3.6726403322960337,3,left
2.9010000000000002,0.47508194975199897,0.9324343668107211,-0.22292215894574574,-0.6028693896514952,-7.698258826696004,2.5809125308726455,3.6514344451683147,2.08768960281693,-3.5960050931796945,3,left
2.9010000000000002,0.486282916613997,0.9382005378140535,-0.21398896067072892,-0.7516637347812488,-7.999502527702246,2.6060003718786326,3.273152764925448,0.736600907889765,-3.274388692993229,3,left
2.9019999999999997,0.504922280335115,0.9482523648537482,-0.2003519411723526,-0.5554031188124182,-7.602196155691736,2.572912616714137,3.183071642364852,0.41468108528791625,-3.19777341533809,3,left
2.906,0.5157355101718819,0.953828223309753,-0.19161796293409633,0.26830544811358986,-5.934089078330468,2.4340819370213205,3.251362935565991,0.6587332589267494,-3.2558557563499857,3,left
2.907,0.5278408798744569,0.9671788041227185,-0.1763624758304658,0.4645585797556075,-5.536830140614782,2.401011678062567,3.2101452070710934,0.5115473219384734,-3.220816257782185,3,left
2.907,0.5380818686554274,0.9914780671867679,-0.15234478898342302,0.3157723392326679,-5.838022523284717,2.4260805875502327,3.2270034134963685,0.571430268065651,-3.2351024137771605,3,left
2.911,0.5300136735565166,1.0147903085507748,-0.1326715282557086,0.4055044869377419,-5.656290766280781,2.410953528992985,3.2270444658882504,0.5722729520464687,-3.2352360898879464,3,left
2.912,0.5152729513902037,1.0432190861386728,-0.10702655525332713,0.36900150010459143,-5.730427437837023,2.417133844077171,3.218532094073657,0.540884803356796,-3.227859375076295,3,left
2.915,0.4857663384758979,1.0751964859751795,-0.07916484657646962,0.3684747629676279,-5.731048388376787,2.4171623305806547,3.2287862237869636,0.5784821469694343,-3.2367151028239984,3,left
2.9160000000000004,0.4426157256047678,1.1083949513338962,-0.05065412507544266,0.38763113962794205,-5.692876644948904,2.4140202129872614,3.2207037456620373,0.5491954068779583,-3.2297841003861274,3,left
2.92,0.3935772501103672,1.1444969234326436,-0.017182097892440802,0.36468841992578505,-5.738728663617643,2.417800795305225,3.2253638725372693,0.5650132227933184,-3.233629546808031,3,left
2.9210000000000003,0.336999826322833,1.181643761846911,0.018554170562895742,0.3825526251313042,-5.702813412005044,2.414827110480015,3.2235890866953634,0.5613365341961858,-3.2324963043611676,3,left
2.927,0.2808225486133192,1.2190467465481203,0.05311504549989312,0.3729282831524571,-5.722815398848448,2.416523439951854,3.2237329865233386,0.5572660467402961,-3.2319717165163557,3,left
2.928,0.22377096533978702,1.2537931685186396,0.07735342121299241,0.37510803012330807,-5.716753456550487,2.4159170855151224,3.224147012570767,0.5643688368773662,-3.233117354987151,3,left
2.931,0.16655531107508803,1.2853535700040177,0.09111458340057577,0.377696419166902,-5.714347302792239,2.41589256917939,3.2235309506048377,0.5576859008841685,-3.231960968542333,3,left
2.932,0.11266381687358847,1.315107339827397,0.09621887132131415,0.37323484920278516,-5.719905304375166,2.4161392567582896,3.224818488891709,0.5622442613807385,-3.233050133000806,3,left
2.9360000000000004,0.05844108059586844,1.3404219392642436,0.08883026625562646,0.37741392776035854,-5.714212941018534,2.4158376733064673,3.2218711366444475,0.5600347984809471,-3.231717637303862,3,left
2.937,0.006117449583753546,1.359077270870821,0.0748249663684794,0.37463587415500454,-5.719863730170571,2.4163096497221286,3.227333073269363,0.5605363435892328,-3.2336798107602265,3,left
2.9410000000000003,-0.04359929920797438,1.3755533740717896,0.06203724984362729,0.3757881392566083,-5.712390293164908,2.4153676087624807,3.2194901060865373,0.5608772916839285,-3.231012211656924,3,left
2.9410000000000003,-0.09264024164184664,1.3915386539769399,0.05117111892116836,0.37592744093001623,-5.723853089122171,2.417052891384736,3.227793645524515,0.5603108730273139,-3.233807180738421,3,left
2.946,-0.1404651484672884,1.403003074537214,0.04275228053637835,0.3750555901640529,-5.708098782867863,2.41465087197258,3.2230863340203513,0.5609589108914903,-3.2322693475398125,3,left
2.946,-0.18409759892245028,1.4072479624321115,0.03769205502996686,0.37610871944157404,-5.724641114494473,2.417190346536965,3.2185817723896895,0.5599292490776675,-3.2305632812162193,3,left
2.95,-0.21918984828271543,1.405501611102265,0.030693849260435876,0.37530475889725645,-5.715481090257673,2.415756490598579,3.237563449232418,0.5618351528158024,-3.237405910804171,3,left
2.951,-0.24411554962733406,1.401126917997504,0.014307748379058705,0.37557969604283864,-5.70561780352034,2.4143557023724185,3.2024951726391286,0.5587706462480593,-3.2248301222021833,3,left
2.955,-0.25858257542071017,1.3942194135141697,-0.015541767808845666,0.3759611001552836,-5.745560383591025,2.420215727930763,3.2474929468359486,0.562599211283749,-3.240950681779861,3,left
2.955,-0.26438173438196894,1.3866833184510625,-0.06021551218877349,0.3749675108151294,-5.672072455634172,2.4093979140003925,3.2099416300989856,0.5594473682107513,-3.2275059933238697,3,left
2.96,-0.25584940023361813,1.378445082669934,-0.10673327031066727,0.3763079281211541,-5.766297543226079,2.4232762269622414,3.2109050123659673,0.5593649791510391,-3.2278230733437736,3,left
2.9610000000000003,-0.24159292754080078,1.3720399101999434,-0.14393641392712328,0.37516220251835275,-5.687696718219765,2.411696469014261,3.282675273722286,0.5659213070332938,-3.2536059917821047,3,left
2.965,-0.22399528614998182,1.3710563809109546,-0.16837394823345364,0.37529448975870205,-5.6895984786055385,2.411988066735489,3.1063413389872325,0.5500078567713208,-3.190296598972283,3,left
2.966,-0.1859178172786441,1.3667543160491795,-0.17324922209262986,0.3771483569053822,-5.840193609540228,2.4341354907843855,3.398686030427972,0.5763369068194315,-3.2952424908028473,3,left
2.97,-0.15958797299520644,1.3614779178218614,-0.17097281331761693,0.37247105766184596,-5.4703354095146555,2.3797298058171013,3.0130971360100793,0.5416195323101711,-3.156832553334209,3,left
2.971,-0.1451502334937274,1.3582979292016073,-0.1638234211069659,0.38025900954894876,-6.083479149323887,2.469924089354522,1.3943989577457132,0.39558336486572665,-2.5756626316477442,3,left
2.971,-0.1195927435856454,1.353330228236365,-0.15066427996805531,0.369981813628367,-5.274787456409545,2.3509664585377745,1.00882261171743,0.3608566828841483,-2.4372681624866903,3,left
2.975,-0.10536891408080946,1.3504247222718746,-0.1431995279356389,0.327015661224074,-1.879601403344905,1.8515301879417374,1.3011537274848437,0.3871958050717248,-2.5421973170990144,3,left
2.9760000000000004,-0.07577682422206786,1.3414481294720362,-0.12394014132334567,0.3167465759619271,-1.070945498250225,1.7325833299193087,1.1248146261109644,0.3712861774659909,-2.4788815645696762,3,left
2.9760000000000004,-0.03515701838101779,1.3265921602132988,-0.09254720639366136,0.32452575814105544,-1.6840505160783252,1.8227659588719174,1.1966299283943165,0.3778091170443092,-2.5047199857470814,3,left
2.9789999999999996,-0.017150300337617268,1.3140875019654803,-0.06499102320188287,0.31984510195482074,-1.3141775963321494,1.7683558378743043,1.1974964036808053,0.3777985771654837,-2.5049176372551245,3,left
2.98,-0.0032722703649922195,1.2988550789035909,-0.0358976020215926,0.32172811737174734,-1.4649011514536916,1.7905419305349533,1.1600840284787268,0.37454370891563715,-2.491644190944743,3,left
2.984,-0.0014010794808420502,1.2824618909150591,-0.006218208483007498,0.3217977152612497,-1.466526581850651,1.7907503321610458,1.2049434501657323,0.3784748755588261,-2.5075942217230143,3,left
2.985,-0.011886092181592051,1.2652237553216361,0.023682908572422584,0.3207418519840127,-1.3883219652927061,1.7792898570851623,1.169934862200411,0.3753660796657388,-2.495092026804046,3,left
2.989,-0.02438456468861912,1.247324515482409,0.05380805104697954,0.3219928120033957,-1.482152502820031,1.7930493935060245,1.1890353622152112,0.37718392113698274,-2.502081059991607,3,left
2.99,-0.048576627372435684,1.2370237442688201,0.08402928558221426,0.3210377719898969,-1.4088348328742961,1.7822828214565192,1.1841480699428715,0.3764380058903606,-2.49990333335073,3,left
2.9939999999999998,-0.07997343286669964,1.2325373782220788,0.1173995926290794,0.3214961089625146,-1.4491161786241018,1.7882448602524157,1.1801002012738993,0.37659709484075293,-2.499178221047466,3,left
2.9939999999999998,-0.11911138649267015,1.2305778723386758,0.1534535848705409,0.3215234218183147,-1.4381615674734387,1.786515491110091,1.1875944582435425,0.37663078330093736,-2.5009757455453427,3,left
2.9989999999999997,-0.1646808670824237,1.2354256773728503,0.19231159308380052,0.3211460159741377,-1.430881978269045,1.7856477756130804,1.180396661331525,0.3764932311386985,-2.499103405565844,3,left
2.9989999999999997,-0.21053701981555253,1.2442753569735983,0.22755110009828505,0.32167577497298455,-1.4451165050871557,1.7874924733109783,1.1858644137131158,0.3769906635233974,-2.5010725552067603,3,left
3.005,-0.25500579058669404,1.2514998568670632,0.2528863995478754,0.32122100203178905,-1.431202151028776,1.7856443344963882,1.1817196440674005,0.3756688234498937,-2.498264523201806,3,left
3.0060000000000002,-0.2917829365653687,1.259548663982362,0.26574897830917943,0.32136443081195337,-1.4426812088277288,1.7873346200434883,1.1857435588508394,0.3781983952894361,-2.502725979471492,3,left
3.008,-0.3218450917802944,1.2681877661365273,0.2665881009238522,0.3217417685759059,-1.4317936165190392,1.785364569437173,1.1810453648111983,0.3745423040619558,-2.4965385215416473,3,left
3.009,-0.34479350183572144,1.2723941985534397,0.2587197292259583,0.32073393730223043,-1.4452471310806363,1.7881857683000912,1.1858109208981658,0.37841813203632824,-2.5030475963358123,3,left
3.016,-0.3575226552145663,1.2750868221750102,0.24155857181083643,0.32227272851627653,-1.4279141723807132,1.784379623970246,1.1834407445602317,0.376212631654335,-2.499423724410949,3,left
3.017,-0.3642572706058803,1.280083040378282,0.21940474295296994,0.3206250364690367,-1.4458815671879797,1.78836213770302,1.1794979760680009,0.37414221823534277,-2.4956196850083305,3,left
3.0189999999999997,-0.36904608211515255,1.285407535439775,0.19417770852650368,0.321588836616211,-1.4363049410053434,1.7861792911148648,1.1936445902327861,0.38292729306684525,-2.5111556506983614,3,left
3.0189999999999997,-0.3702576849194732,1.2925032107990901,0.1635239692260731,0.3223641350452968,-1.4240627955292677,1.7837116494760377,1.1679699862565194,0.3666840303889357,-2.482543663810296,3,left
3.025,-0.36518320806790017,1.3008344174384718,0.13332759170401298,0.3188778953578535,-1.4711142585786519,1.7935522820433576,1.2008126483041102,0.3875317793766707,-2.5192396941884865,3,left
3.0260000000000002,-0.3585299216482114,1.3091417139977268,0.10805235149875772,0.32536243275248794,-1.3850346530503765,1.7754755572148655,1.1734430779148166,0.3701285903060164,-2.488619124999728,3,left
3.028,-0.3470330390219082,1.3187735863180088,0.08534498743952426,0.31702828289028706,-1.4953009956386036,1.798648538425752,1.1739927271594195,0.37058931663022177,-2.489385362367595,3,left
3.029,-0.33132181212197676,1.3254544015689016,0.06648107790253875,0.3239938022617164,-1.4033517050689395,1.7793176164858973,1.2268119071214985,0.40381361794782245,-2.547984251654743,3,left
3.033,-0.3172223668093488,1.3289134707559498,0.049235611164594226,0.3237851937860333,-1.405431178135989,1.7797821136782108,1.0972105603209772,0.3221589870540449,-2.404023237761627,3,left
3.033,-0.29784947366200887,1.3308823133382996,0.027603684121667967,0.31055608841481974,-1.5821037296607732,1.8168364064294265,1.3120420944216904,0.45755023059328986,-2.6427058454946284,3,left
3.0380000000000003,-0.2849310210129364,1.330224156632625,0.013731792090382116,0.3431078376025806,-1.1483453523546194,1.72582926816158,1.028680448668326,0.2789631229994647,-2.3278788089994173,3,left
3.0389999999999997,-0.2789971588314154,1.3296653412349508,0.007141297733839625,0.28911113636520985,-1.8674139185731935,1.8767074938904713,-0.16087299668751734,-0.47046298186082247,-1.0065233999318792,3,left
3.04,-0.2682966472438324,1.3294819297886014,-0.003125233027617182,0.3603556284408228,-0.9189738051905534,1.677698715244204,-0.44425483127197696,-0.6490443770459626,-0.6916957583018963,3,left
3.043,-0.2623849932975504,1.3294850087705155,-0.009422222088484523,0.6591325664033055,3.0626564316222287,0.8423050585260154,-0.22941818051468735,-0.5136868140111044,-0.9303500706324106,3,left
3.043,-0.2511248655050603,1.329682918749623,-0.021325096993764538,0.7304149811296521,4.011152355730369,0.6432841560472657,-0.3589519746112291,-0.5952463896135108,-0.786491847833886,3,left
3.0439999999999996,-0.2315298098814091,1.3287788414343766,-0.03895178372067052,0.6763772533141343,3.292023409776035,0.7941755026016802,-0.30632738946120164,-0.5622023989025489,-0.8448771649064869,3,left
3.049,-0.21556219886292588,1.3260418132917513,-0.04609279233916571,0.7089133860688319,3.725758807806754,0.7031733403479956,-0.3054406415761056,-0.5614878658347928,-0.8459617016386347,3,left
3.05,-0.19988563953627098,1.3190712402057148,-0.049475403326520465,0.6958204041401594,3.549286581974558,0.7401841486801144,-0.33322821588258755,-0.5791475569666754,-0.8149978245159472,3,left
3.053,-0.18663742657557283,1.3110439248739696,-0.05060566612612751,0.6953189248896818,3.5467761017315436,0.7407422257611319,-0.3000509087151075,-0.5581785444825693,-0.8518944847480316,3,left
3.054,-0.17493109455802597,1.30545171959317,-0.04866608913185777,0.7027043487163263,3.6393433540481865,0.7212771151006583,-0.32571837882463106,-0.5742250022615967,-0.8234581940996744,3,left
3.06,-0.16211401406377446,1.2983198740838429,-0.04969010810450036,0.6939520776503219,3.52846166937241,0.7445837379479321,-0.3122082823157947,-0.5661181070276864,-0.8382175578915307,3,left
3.06,-0.14921830379925782,1.2875482879294937,-0.04948421376696713,0.7006169968818365,3.614806748612869,0.7264493164022952,-0.3147013300266138,-0.5669915001946929,-0.8358755089756311,3,left
3.063,-0.13530757438477672,1.2748409203423654,-0.04312237593911684,0.6974898712652813,3.568283767695104,0.736175264975465,-0.319228416746686,-0.5706988426931343,-0.8303228045012336,3,left
3.065,-0.12193499580056642,1.2600131252808762,-0.03189664545966482,0.6971084825878606,3.5788236660372696,0.7340771820532974,-0.3121779766603847,-0.5655753519273896,-0.8385721669535349,3,left
3.0669999999999997,-0.10776455383773788,1.2414966234982403,-0.021335880423458083,0.7000652353393133,3.591333255294132,0.7312574967573839,-0.31815663404431394,-0.5693364186499541,-0.8319339045035148,3,left
3.068,-0.09626189498752658,1.2206141255625225,-0.02021874245047027,0.6959717627800976,3.56976646458871,0.7360216492746178,-0.31539009253417016,-0.568856282798089,-0.8342348246174036,3,left
3.072,-0.09651486975986565,1.2033770672476884,-0.033177858849209,0.6994603404593309,3.5899689078198596,0.7315922284307218,-0.3142998920804366,-0.5652831830324686,-0.8372113399973027,3,left
3.073,-0.119296995222514,1.2017018697075192,-0.04926119333349746,0.6984701332915274,3.5765412591407904,0.7344081404212761,-0.3185367879457905,-0.5722582699790938,-0.8298707638267917,3,left
3.077,-0.1787778703858808,1.2223668119827091,-0.06769342549305027,0.6952286128921212,3.5821031714777094,0.7335941130627298,-0.3130650832207043,-0.5642210127342284,-0.8387572822087892,3,left
3.0780000000000003,-0.2708021393244463,1.2587282346628215,-0.10965485247672041,0.7036418852519786,3.582794529944908,0.7326420149787818,-0.3168667073293069,-0.569268199945711,-0.8329108738455591,3,left
3.082,-0.37154420927914716,1.3031780382897602,-0.17236152556125933,0.6908502109885297,3.578553027660283,0.7347362743608583,-0.31815392928365344,-0.5723651951954095,-0.8300841100468959,3,left
3.083,-0.45706379832328914,1.3471527883000811,-0.23239370329597048,0.7045309567477394,3.583672552952269,0.7323777996567586,-0.30884969138865864,-0.5564984562043086,-0.8465382096011687,3,left
3.0869999999999997,-0.508929994678056,1.3829596752099442,-0.2951256923384262,0.6965557638971863,3.5797704010874,0.7339394766046792,-0.3269711973168844,-0.5864695171178045,-0.8150590639474505,3,left
3.088,-0.5221853175142679,1.4074652888230346,-0.3820922233841564,0.6900308062279283,3.5810826824960413,0.734301815379353,-0.3033907781761471,-0.547788969817394,-0.8558279015473503,3,left
3.092,-0.49688904090059693,1.417240525256895,-0.48109794571589204,0.7191591656352547,3.5829936680021914,0.7311043220161157,-0.3232071383023424,-0.5801634695942548,-0.8216444127569347,3,left
3.093,-0.44157574881759776,1.4182127933765662,-0.5624633939705044,0.6650376812062935,3.578068171690441,0.737326330094703,-0.3224714940151595,-0.5791616287728205,-0.822797769557945,3,left
3.097,-0.37342275131219405,1.414595304065101,-0.6130177345197032,0.7345546138799864,3.584702786497215,0.7292696492158206,-0.2852170545171292,-0.517764835351554,-0.8873725220105841,3,left
3.097,-0.31301655759493663,1.4094492860823298,-0.6446225922969555,0.6765102752119143,3.57903831864751,0.7360253036657682,-0.3770693249804775,-0.6688504879714385,-0.7283245865449364,3,left
3.1010000000000004,-0.2920821481140181,1.4072619398634392,-0.6712453235753542,0.678114686908191,3.579673137646518,0.7357342982679324,-0.22467031240522586,-0.41827818536419337,-0.9921599585279292,3,left
3.103,-0.2960712762669351,1.4088736448335064,-0.6857032893372914,0.7886814444097292,3.5888945670785644,0.7232005979218922,-0.4257158472054786,-0.7488020085942075,-0.6441140089028969,3,left
3.1060000000000003,-0.3003342826050156,1.415407057200256,-0.694372442184648,0.5168852925497738,3.5656620257430305,0.7541413339401792,-1.2694894742104823,-2.1361011941149526,0.8166106171553815,3,left
3.1069999999999998,-0.32404246409087895,1.403756814124221,-0.6921305253926415,0.9675415375526468,3.604329003625576,0.7027959987125572,-1.470520946106397,-2.466616697088078,1.164674444889647,3,left
3.108,-0.34588849024256035,1.3857587055407254,-0.6801817437183408,0.37313370013728636,3.5533154915977767,0.7705397821526796,-1.3181236264010043,-2.2160446178282296,0.9007885882173466,3,left
3.111,-0.3456159146482439,1.3763216920513603,-0.6691415953107732,-2.121840299269238,3.339866663940925,1.0547488081461696,-1.4100295799722116,-2.3671647883464138,1.059939471806738,3,left
3.111,-0.32608092465060723,1.317291225394095,-0.6143823650065033,-2.716223915382087,3.288909699044387,1.1225382835101092,-1.3726259272810344,-2.305674030747637,0.9952014776616018,3,left
3.112,-0.25980314247627245,1.2096300779905738,-0.5285596669673125,-2.2656073544853843,3.327518962855295,1.0711031983102042,-1.372145368412121,-2.3048315409863256,0.9942474360796973,3,left
3.116,-0.1504678219711843,1.0891046419849246,-0.4684449656550792,-2.5373657330931407,3.3042508753134903,1.1021679263363677,-1.3916487992002082,-2.337011848781855,1.0282667765857014,3,left
3.116,-0.01992765005372093,0.9543059557144862,-0.4295344668995178,-2.4268104688000376,3.3137005564091475,1.0895038266010202,-1.3683140288947122,-2.298481852616034,0.987509468976252,3,left
3.12,0.12056247996188706,0.8268914180395779,-0.4102581478577335,-2.4252470802606108,3.3138611730111878,1.0892967225888748,-1.3864520280835022,-2.328467471888089,1.0192657653454176,3,left
3.1210000000000004,0.2544924089680657,0.7192401581092595,-0.40742309158013484,-2.4831799555712517,3.308863076302175,1.0960895426202164,-1.3766546218471656,-2.3122882299518217,1.0021516758377866,3,left
3.1260000000000003,0.37901937661088814,0.6412734278214034,-0.4242999198338026,-2.4138397801049445,3.314851037152501,1.0877991511507905,-1.3790449091376313,-2.3160766530719687,1.0059860625708184,3,left
3.127,0.4758162637529758,0.6213980532628486,-0.49946911337390293,-2.467762867906398,3.310173151401926,1.0944872975279782,-1.3812216120827459,-2.3201114685641766,1.010731208969697,3,left
3.1310000000000002,0.5092923203200646,0.6888500346017095,-0.6345817609449226,-2.438764158575651,3.312711804101822,1.090648707565503,-1.3774511962186682,-2.3131265014910305,1.002521930597349,3,left
3.1310000000000002,0.4471074575907429,0.8498963745641375,-0.8097477182104321,-2.4453555972751344,3.3121267010741224,1.0916281605446811,-1.3807695234530555,-2.319546845183475,1.0103299789193156,3,left
3.135,0.2708259890049295,1.0658785513318585,-1.0057175082603669,-2.452941469053889,3.311423156085416,1.092948384330307,-1.3786628894330233,-2.3153142934301805,1.0050383304574382,3,left
3.136,0.024577893250841906,1.3017137633746434,-1.1497949030513506,-2.4400301977982615,3.312692203520589,1.0900137982796847,-1.3799149018114563,-2.317365687905075,1.007191078908752,3,left
3.14,-0.22301016356043213,1.5342521556363415,-1.1844169189080422,-2.4517728860041856,3.311408478725829,1.0938700436193418,-1.3785366877534178,-2.316527332350439,1.0078568114087711,3,left
3.141,-0.42762188225074704,1.7293288736015975,-1.122834144668467,-2.444352456735456,3.3123839428767266,1.0899360236148987,-1.3810014049973631,-2.317317459402523,1.005149954172427,3,left
3.1460000000000004,-0.5470174269819541,1.8652172033487668,-0.9821683061861924,-2.4472422643274045,3.3118659024776056,1.0927267525467905,-1.3771652764381792,-2.315876723026223,1.0089122995909847,3,left
3.148,-0.5635483783465292,1.9446329585293083,-0.7747318565746604,-2.447217057519436,3.3118651013662523,1.0927459362923249,-1.3814658174786874,-2.3177601033509303,1.0052672997165106,3,left
3.1510000000000002,-0.4757151483436676,1.974285072893228,-0.5221875394076243,-2.4467037505110323,3.312412468225883,1.0881205071188913,-1.3789832870146508,-2.316674986705344,1.0073770818652186,3,left
3.1519999999999997,-0.2968319364882983,1.9661168393331687,-0.25320278347801434,-2.445832202507476,3.311337251795216,1.098457529269129,-1.376374784612892,-2.3149716248814216,1.0083856663211241,3,left
3.155,-0.03438801305655788,1.9292693355753683,-0.031021900319253094,-2.448816414547257,3.3127970635088224,1.0832286783039735,-1.3871841549243147,-2.321433738619147,1.0029234236985065,3,left
3.155,0.3015280142147679,1.859300237537356,0.09093045640112915,-2.4446513372342533,3.311324790598148,1.0993507212438471,-1.3671684208999697,-2.3094975502866726,1.0131048654108699,3,left
3.161,0.6395666496261252,1.7822952973412134,0.13109473970578928,-2.447370925309097,3.312149416381822,1.0900711017399285,-1.3929082379783861,-2.324889795109462,1.0000991561405321,3,left
3.162,0.9417388298854041,1.7268570905422314,0.136487623129604,-2.4498517718027033,3.3128461821445434,1.0820874451018383,-1.371401971914287,-2.312007856970233,1.0109256054631786,3,left
3.165,1.135042163015028,1.7293362188983155,0.1297654304965512,-2.438627350706511,3.3098231421559685,1.1169859009505607,-1.371934076396458,-2.3122818120360797,1.0105489820463693,3,left
3.165,1.1853387664991715,1.8015398138144332,0.11444404656806546,-2.4598001898498016,3.3154010603510535,1.052307059349102,-1.413154136126343,-2.337175215948176,0.9902648165898063,3,left
3.1719999999999997,1.1218203987904654,1.9126925724638317,0.11035544552500791,-2.4323676347493883,3.30825740108693,1.1353299331568842,-1.3118789769499792,-2.2760394286425147,1.0401820565104127,3,left
3.173,0.8709182676840262,2.0833263037058565,0.12370782656972615,-2.455371933835518,3.31421619866869,1.066029733381019,-1.4798005172212783,-2.3774195384057104,0.9574255804986868,3,left
3.175,0.6341170058924528,2.2046531742018463,0.13576039378517976,-2.4547813405493577,3.314043384859855,1.0679097424177,-1.258301459496562,-2.243673557575246,1.066558205342091,3,left
3.176,0.5544056255985411,2.229300310101918,0.14373188571866524,-2.410644322789091,3.302725995898551,1.2000185888379604,-0.32840390308422246,-1.6822347012181804,1.5244508729447956,3,left
3.176,0.2943610808438913,2.3157562974867636,0.16584265160540124,-2.519155679789313,3.3305573493249176,0.8753132103355407,-0.10688451976825884,-1.5484632272390977,1.6335512251509798,3,left
3.18,-0.16438899602996213,2.38070755461686,0.2389551013173365,-2.3391943165614633,3.2844041001928557,1.4136852081771039,-0.27484187106660823,-1.6498662904566819,1.5508435331566597,3,left
3.18,-0.41950092188603927,2.363994521586137,0.30305043509060087,-2.5765968577163068,3.3452856743266253,0.7035787326869565,-0.17352612475735052,-1.5887573876602783,1.6007249354039284,3,left
3.181,-0.4977053856161148,2.360086537032137,0.32515111215087833,-3.5737889699424166,3.6005162138632034,-2.276980431156209,-0.21477415540615297,-1.6135255010862606,1.5804262078273519,3,left
3.185,-0.7302944718825635,2.2926747633582156,0.42574623732982453,-3.8112584431399315,3.661382511995022,-2.9870781510727666,-0.21531349618539705,-1.6140464559977048,1.580148565843585,3,left
3.185,-0.993924300213809,2.1455661033947715,0.5992551921106459,-3.6311291991841173,3.6152868692528184,-2.448730341527767,-0.19374287695820386,-1.6008284447251109,1.590778933111026,3,left
3.1889999999999996,-1.1055006642211997,1.9637613213177691,0.7732218340233965,-3.7399511520321385,3.6429790066457253,-2.773387200809058,-0.2196142020381433,-1.6165327756469114,1.5780361392234905,3,left
3.19,-1.1504884236741129,1.7398375550283272,0.9380750070368882,-3.6953572421714975,3.631906760402698,-2.6413543863054465,-0.19941651318106868,-1.604503836427074,1.587978490249785,3,left
3.195,-1.1151040738342402,1.5050384622070385,1.0541057939596248,-3.6952839996357927,3.63140688694888,-2.639382571531538,-0.21040148219590563,-1.610601406363354,1.5825800166834543,3,left
3.195,-1.0148832689424834,1.2706766732278507,1.1143304591014143,-3.7179193815605833,3.637674182160036,-2.7087569283471753,-0.20772367711640677,-1.6099061925269669,1.583881253819624,3,left
3.199,-0.8835561967181343,1.041104936501322,1.1216244198462328,-3.6903884432104803,3.6304237283646152,-2.6257320010488088,-0.20507880508793802,-1.607178379903199,1.5852040792583453,3,left
3.2,-0.7119188296547622,0.8315594146414151,1.0734783822082552,-3.7124686326014293,3.6356755808671455,-2.690278412062842,-0.2098777505082393,-1.6109774008127589,1.5828250016395264,3,left
3.2039999999999997,-0.5314567052364793,0.6437226653251495,0.9821370751807352,-3.699335713754051,3.633601761646247,-2.6556889179152687,-0.20519740528467745,-1.6081596010377583,1.585129896921479,3,left
3.205,-0.34010573529520716,0.48600825450409757,0.842985866168118,-3.7045358053700306,3.632716066623648,-2.663205806771023,-0.20868319287973455,-1.608591241580287,1.5834415124011,3,left
3.2089999999999996,-0.14222616999756138,0.36591678833484564,0.6628767139255931,-3.704516302513211,3.6354298259628286,-2.6729896757367793,-0.2065121190183522,-1.6111035862178658,1.5844461927195896,3,left
3.2089999999999996,0.05553194956315306,0.2855283245662473,0.4613255875613547,-3.7016460575387944,3.6325285770802953,-2.656567383025117,-0.20771013955259388,-1.6061235092341577,1.5839524319471636,3,left
3.214,0.2559442319239237,0.2509281282776452,0.26421878699643697,-3.7066852160578776,3.6337987140862467,-2.6715596697466855,-0.20717971403770405,-1.611883030833076,1.5841108665396724,3,left
3.215,0.44578014527435084,0.26393054163720187,0.09477713368143767,-3.6987252844331033,3.6357814092051983,-2.6623161825979116,-0.20698571781290862,-1.6082533587859842,1.5842663715540124,3,left
3.219,0.6224616186224652,0.3189103271470275,-0.03365719467743082,-3.710701575863083,3.6296609661893027,-2.664867051976369,-0.2083744060040183,-1.606062776664162,1.5836321821878463,3,left
3.219,0.7862864635175191,0.40839380141954174,-0.11070291274266711,-3.695023744262986,3.639350637032207,-2.667601850962157,-0.20516713338918174,-1.6173804132713463,1.5849900621660598,3,left
3.2239999999999998,0.9362292373138434,0.5215544425133927,-0.1455069555385493,-3.7109358900864216,3.6288176382647004,-2.662294417602036,-0.21043724990106444,-1.5959835062577128,1.5828073443436312,3,left
3.225,1.0796120510889269,0.6510143351609812,-0.15112812713650978,-3.702278394173292,3.6350387851938497,-2.666963409787342,-0.20391391010797524,-1.6236043566992326,1.5854883182003536,3,left
3.228,1.2192840154959286,0.7836361997690848,-0.13640112013227973,-3.6931475673796768,3.639981229637655,-2.666006370897042,-0.2092578290457351,-1.600484898559711,1.583302933540275,3,left
3.2289999999999996,1.3595055942239307,0.9128046837509993,-0.11213940804636557,-3.730031663114806,3.6175772281090497,-2.6610062422913456,-0.2092695207436054,-1.6012017217368015,1.5832791360864578,3,left
3.233,1.4911218507788293,1.0318302117750515,-0.08449008482336919,-3.6623560946931395,3.6593056150326184,-2.6724466008329113,-0.19866315274895996,-1.6450423245770445,1.5876656968873237,3,left
3.234,1.5963851393088695,1.1259873870998818,-0.05638894604253548,-3.748994032297176,3.605663644832207,-2.656980473379731,-0.22450789568183938,-1.537158735890031,1.5770066316794735,3,left
3.238,1.6842235664526712,1.2102992036546742,-0.02132532120763548,-3.6767727941234125,3.6504652490878664,-2.670211749960041,-0.18173856992859375,-1.7160793121203306,1.5946301100479607,3,left
3.239,1.7270285587231506,1.2565576133090381,0.00516939447296926,-3.6785626362056094,3.6492320871058084,-2.6693713868356523,-0.23812406140223422,-1.4800727863466392,1.5714073484257307,3,left
3.2430000000000003,1.731184392889049,1.2624682782890757,0.012600127070739018,-3.816713871218159,3.5638640513406648,-2.6454307650535673,-0.4748739860427108,-0.48942346480823223,1.4737888138389699,3,left
3.2439999999999998,1.745607201583911,1.2844024741098945,0.029887443076854713,-3.4773907882319826,3.7737066054235475,-2.7049575232242753,-0.5312616175066709,-0.25342648648728605,1.450580414393417,3,left
3.2439999999999998,1.7230603049768742,1.2716325364370864,0.050961119827640566,-4.03991823337993,3.425784372404249,-2.606017547824889,-0.4885084076494157,-0.43234786312721574,1.4681792834582483,3,left
3.248,1.6848443430278333,1.2361501669763468,0.05683257384334796,-3.297975623429705,3.884677829936254,-2.736592158353796,-0.5142869861023149,-0.32442092251460863,1.4575464357912287,3,left
3.2489999999999997,1.674275996355776,1.2260612851317698,0.059471602870334636,-0.1837235093729448,5.81152033427267,-3.285104522815266,-0.503822887339189,-0.3683770647600719,1.4619183067483363,3,left
3.25,1.6247293051075888,1.1613627294036384,0.06097790507437893,0.5582067570694302,6.270439914285003,-3.415726330588047,-0.5036183824224478,-0.3688995867927089,1.4618818681603645,3,left
3.2539999999999996,1.5567524009641405,1.05338128312864,0.0617230889983315,-0.004264705081189438,5.9223992126773375,-3.3165723384349937,-0.5092002976826199,-0.34601524675209633,1.4597500338759872,3,left
3.255,1.5070764380907475,0.9515746540055696,0.07062056661986224,0.33491246721781753,6.132550528762778,-3.3766568570358864,-0.5025298799929259,-0.3734562670250363,1.4623334329877435,3,left
3.258,1.4521965594151327,0.8445715800531903,0.08310356084690707,0.1970282133339588,6.046617539943319,-3.351695704070435,-0.5076964861071162,-0.3520361234970778,1.4602749868356641,3,left
3.259,1.39657986743778,0.7556950714914139,0.09041443169382432,0.19487188165771563,6.046159892403427,-3.352256207207442,-0.5050002533046822,-0.36374051820843556,1.4615273164351024,3,left
3.264,1.3358586993008368,0.695237325047779,0.09587150669384073,0.2674521014193052,6.090201877581283,-3.364115359313918,-0.5054046446874909,-0.36070378784681645,1.46090739899742,3,left
3.265,1.2672839317298483,0.6584018734767687,0.0986200685759,0.1806646544207543,6.036876260549358,-3.3492206180120947,-0.5065308551140442,-0.35830514196769114,1.4612232400033822,3,left
3.267,1.1952533555786125,0.6465519694792419,0.09594028831825366,0.24801855761575795,6.079285336978418,-3.3618906488113955,-0.5047793069613546,-0.36279489325509084,1.4609884968836282,3,left
3.267,1.1196728982706554,0.6579474712285502,0.09347802309720891,0.21215268720194236,6.05472668108809,-3.352998317864809,-0.5063545512309013,-0.35846703953956005,1.4611016532682137,3,left
3.272,1.043850371964643,0.6925127861706175,0.08893218073408846,0.2195343928113826,6.063370387514359,-3.3587271810857597,-0.5055597966815554,-0.361814290647226,1.4614360850677897,3,left
3.273,0.9638242985233826,0.7436094096756294,0.0776120360851075,0.23033659119126032,6.065053229432239,-3.3551983743343996,-0.5051954067323778,-0.3591332819583768,1.4601716683286132,3,left
3.278,0.8770007598731729,0.806193496564395,0.06559731358959424,0.21271540835074884,6.05813659280396,-3.356423195918017,-0.5068247486631677,-0.36192572671285106,1.46273265982836,3,left
3.278,0.7827164841659783,0.8764063125772252,0.060233148096520396,0.22837659996460216,6.067861592913543,-3.35922223839487,-0.5042032300994008,-0.3585584332939964,1.4589909531024987,3,left
3.282,0.6848598232342855,0.9527447523718509,0.061410472153034114,0.2195755627371977,6.055021965573456,-3.3496352264132243,-0.5070333741056638,-0.36199942044058075,1.4629648617521696,3,left
3.283,0.5852280924485402,1.0321956064091689,0.06425544979442102,0.22028064716714174,6.072356494306025,-3.3681233074043413,-0.5053420299046758,-0.36024593095846574,1.4606920987236265,3,left
3.287,0.4830040525088213,1.1033535825944363,0.06668888629397568,0.22606404496878146,6.050725412478798,-3.341747432392955,-0.5041618652099868,-0.35757142301814104,1.4586177002029328,3,left
3.287,0.3877976752008262,1.1665160259230047,0.07012427960537027,0.21739723435689398,6.072237100958196,-3.369423264007441,-0.509781539971207,-0.3673729965377842,1.4675072933839277,3,left
3.292,0.30135743304567664,1.2237499869941597,0.07264990375980564,0.2240829310527252,6.0608452395734,-3.3537288650041734,-0.49927777131761203,-0.3495391417407864,1.4510559156201812,3,left
3.293,0.2252429613143946,1.261370184450064,0.07444532549199437,0.22462909563583924,6.047799412894722,-3.3392773908760764,-0.5127834653863251,-0.3723620365887168,1.4721720963732086,3,left
3.298,0.16933905683341036,1.2832462496887955,0.07871215492930211,0.21261314605054848,6.0989428955756155,-3.4008210231662543,-0.5015008983112631,-0.3533388617081436,1.4545471787084527,3,left
3.299,0.13462474946445369,1.28264017448789,0.08548777679611932,0.23717219052713945,6.005502865747648,-3.2870914173627996,-0.5018346189153533,-0.35373562703122197,1.455010497586975,3,left
3.302,0.11727993238023689,1.253908883959068,0.09301027040961607,0.20481549048696063,6.124977791828307,-3.4329784276553497,-0.5232549835315122,-0.3903980090718243,1.4886609751260504,3,left
3.303,0.11338202817270408,1.2201691529901755,0.10307974494909852,0.23217830145473084,6.025447964169266,-3.3112498997409627,-0.47057319130842934,-0.3004241113857897,1.405970031873591,3,left
3.306,0.125214699389038,1.156961118119103,0.12340420936718943,0.2308957832950594,6.027812787684985,-3.3144411412960073,-0.5579302696842707,-0.4495711680509038,1.543068841711214,3,left
3.307,0.13689809062649194,1.1045900301682685,0.13950243285467226,0.18015931696901308,6.2184717385431,-3.5468254848272496,-0.44270646602106717,-0.25284718162266595,1.362239461430714,3,left
3.312,0.13902152254863973,1.096322752428152,0.14280061333602345,0.3056525125456939,5.7503307677098245,-2.9758089596800605,0.04090775179059483,0.5730410933073355,0.6031595160870639,3,left
3.312,0.15757581045086452,1.0360003766809753,0.1555262977384856,0.09727347877250701,6.5263513074510895,-3.922513149169503,0.15612742543384392,0.7697846385195846,0.42233342074764146,3,left
3.313,0.17514111414682543,0.9775882257927472,0.167528842054884,0.3722464822827657,5.5028476281561165,-2.6738515872048096,0.06877481350629151,0.6206164186395622,0.5594286752621094,3,left
3.3160000000000003,0.17829264077012014,0.9704125870181988,0.16789025830332494,1.5259400906170981,1.206453354466442,2.5675639972268516,0.12145831215922229,0.7105822747077364,0.4767363846408008,3,left
3.3169999999999997,0.19707582113616656,0.9223721221676234,0.17146589211401228,1.8009747940691112,0.1829543962149867,3.816178518725427,0.10002311107552607,0.6739900729289862,0.5103986424333815,3,left
3.3169999999999997,0.22232505769568145,0.8659557228661888,0.17368894263430207,1.5924461983050462,0.9589346930227967,2.8695572205399817,0.09972130341174819,0.6734422967674795,0.5108366086128333,3,left
3.321,0.24501001058060404,0.8323225073531504,0.16865622723543094,1.7182073081009366,0.49091622888881925,3.440479769882291,0.1109581214858357,0.6926819978695741,0.49324804637486075,3,left
3.322,0.2757121612845286,0.7993551753673274,0.14963674753877387,1.6670876025025816,0.6813355584399077,3.208160249622382,0.09749797428180801,0.6696434789487195,0.5143280187136984,3,left
3.326,0.30987764018871655,0.7831400662600376,0.11570568760282345,1.6662257127920272,0.684044557172875,3.2049856235310026,0.10798210811968698,0.6875703885191085,0.4978922753446211,3,left
3.327,0.3439880088090035,0.7790236623340634,0.08137389079338743,1.693308844669268,0.5841584765084904,3.3265653574045655,0.10232328068714824,0.6779539347983394,0.5068129354597868,3,left
3.332,0.3777713666154233,0.7879097555759318,0.049750524413426964,1.6608266638203795,0.703816751259546,3.1809826207103566,0.1036294962598511,0.6800320537871571,0.5046384176843675,3,left
3.333,0.413227575204926,0.8091274736302383,0.02334150546279367,1.6861900417145113,0.6106159003266103,3.2942910448353118,0.10510368970652603,0.6828131841796671,0.5025381893106862,3,left
3.3360000000000003,0.45045252575731487,0.8357639244939088,0.00023606524362067283,1.6725532065054622,0.660868526328868,3.2331541329547573,0.1025400014163114,0.6781109839303621,0.5063003281514507,3,left
3.3369999999999997,0.4843467911544908,0.8686807139568544,-0.02702554189555851,1.675346835341868,0.6494306364253661,3.2474446097051164,0.10494915247659356,0.6824838370100726,0.50272749415773,3,left
3.341,0.5116157800855963,0.9021456026091283,-0.05220075026922214,1.6798483005773552,0.6359845740310567,3.2627640917407854,0.10331777092526498,0.6797002160993724,0.5052898993804198,3,left
3.342,0.5315157413506164,0.9344723113141097,-0.07357740050226905,1.6720692218957713,0.6592564551133672,3.236241025051396,0.10407659639687214,0.6805154867757479,0.5037123087487658,3,left
3.346,0.5434045636030711,0.9623151160877367,-0.08932711935484632,1.6798233534078053,0.6373588910170853,3.260663267303633,0.1039702011403808,0.6814323164467724,0.5047626123624912,3,left
3.3480000000000003,0.5473799321576343,0.9860038425862463,-0.09363695519692798,1.6743796829101987,0.6520735139558134,3.2445392034970273,0.10373911289795937,0.6793986550803275,0.5038076720376246,3,left
3.352,0.5443665037011823,1.003458291222987,-0.09101641480811379,1.676068422394514,0.6457343159264546,3.252288859075067,0.10405801860232941,0.6816906740845856,0.5047117069760041,3,left
3.353,0.5364334024529649,1.0094575938001373,-0.08157959219515502,1.6789392700575263,0.6453490548813308,3.2493687119367936,0.1037591370271026,0.680170445785981,0.5043692951227429,3,left
3.355,0.5215181225389354,1.011816899738145,-0.06738996105617578,1.67144344115551,0.6497174397356307,3.2517873569920734,0.10406935066637857,0.6798301064579533,0.5031827746669015,3,left
3.3560000000000003,0.4967281417864384,1.0100040275512547,-0.052736469107550143,1.6824070279726397,0.6440106897949092,3.2471905277215445,0.10364113914383123,0.6829077034564821,0.5069165756053655,3,left
3.361,0.4684175220232589,1.0022914995167387,-0.032030286493883856,1.6710094717341168,0.6490192470417353,3.2534026071467252,0.10426757870111478,0.6769135098208445,0.5002554794233727,3,left
3.362,0.4367002194622456,0.9948373675004165,-0.010581385175815652,1.6775965760308713,0.6461138985550988,3.249826660358223,0.10350073695289615,0.6846748492722085,0.508749657748927,3,left
3.365,0.40216037926448095,0.9835333571314399,0.0021477598965484877,1.6826388303941147,0.6459930553569313,3.2438377337361164,0.10412584789039908,0.6781689651602079,0.5016820697762696,3,left
3.366,0.36461037031217036,0.9709312245001822,0.011720972286227007,1.659751953917311,0.6496073362951043,3.266287366555593,0.10416704814944565,0.678445604124053,0.5017819398823895,3,left
3.372,0.32217828398019077,0.9642291020000991,0.02060465154282623,1.7022331189679671,0.6427515121564951,3.2248396710124987,0.1027840861411155,0.690521753890319,0.5155586681247009,3,left
3.373,0.2839465355198366,0.9587592806242788,0.0294641253275666,1.6477423510863414,0.651356549365183,3.278303767863682,0.106115073969619,0.6607210201562039,0.4818045578894455,3,left
3.375,0.24466997310577093,0.9526038621197364,0.04273325649707872,1.6932038129754143,0.6442633624947871,3.2335563281755118,0.10060932872908093,0.7101633443512384,0.5377431259457088,3,left
3.375,0.21616508264861645,0.9491855507806829,0.05169933456585067,1.6919200032731374,0.6447046477146232,3.2344688002126465,0.10787055984319287,0.6449457526464887,0.46396203590111307,3,left
3.38,0.20787252986190047,0.9484725193750526,0.05522355666825725,1.6054872504761473,0.657163692362845,3.321080568095894,0.13842687149942204,0.3713509403736014,0.15414185748650924,3,left
3.3819999999999997,0.18308237488776324,0.9502235012032161,0.06497452697281053,1.8179521569976957,0.6263540262618008,3.108416897072531,0.14569635437841089,0.306143971539027,0.08034826028556885,3,left
3.3819999999999997,0.142458846193917,0.9536132098243952,0.0793877465376697,1.4656989770750029,0.6774171589910734,3.4610552366492646,0.14018168081378374,0.3555748052093375,0.13630035970572063,3,left
3.385,0.12221766225324453,0.9543491686581176,0.08866732660231798,1.9302886069854108,0.610128575580429,2.99584444296421,0.14350927470376598,0.32576969057798055,0.10255139807148371,3,left
3.386,0.11602566490263033,0.9545468715903579,0.09122014120519646,3.88061762357846,0.328344475844241,1.042488002094442,0.14215592394454146,0.33788398442020545,0.11628323557490997,3,left
3.387,0.10008968788152998,0.9582269407940217,0.09734074211404528,4.345195190069937,0.2611543760901909,0.5771632172232848,0.14213340967840044,0.33807856492793176,0.11647969098758348,3,left
3.39,0.07969942637872021,0.9614339056581999,0.10418619821607858,3.9929195957510943,0.31205782333660925,0.9299684329727266,0.14284987606530128,0.33169032531158,0.10927362151407127,3,left
3.392,0.06456064903534427,0.9629389529398505,0.10179447779131884,4.20551508868496,0.281395828646473,0.7171974308292246,0.1419920611707015,0.33933452873798126,0.11790569572764005,3,left
3.395,0.054413261142747936,0.9641949393935444,0.095550847457342,4.118780058681256,0.2938203342553326,0.8037180730093727,0.14265775801153435,0.33339085235251803,0.11118510519905181,3,left
3.395,0.0498348352366767,0.9657292547768273,0.08950841660336609,4.117973621252702,0.29407673404708956,0.8050390438290529,0.14230765685219637,0.33656909252114003,0.11480048139403007,3,left
3.4,0.048506797140948646,0.9657067738991646,0.08515784419342667,4.162889144319237,0.2874561602251323,0.7595358182497217,0.14236623951207672,0.33590465215069476,0.11399541900087458,3,left
3.4,0.05168749424016853,0.9602090977538243,0.08403915927788512,4.108769001697543,0.2953313432206536,0.8139649830414635,0.14250093759162558,0.33494280753288086,0.1129957508586169,3,left
3.405,0.05739850078803449,0.9526777782756802,0.08640863061791601,4.151411525648982,0.28927184220991076,0.771706313627367,0.14228772288683178,0.33654960924235855,0.11470639134711871,3,left
3.406,0.06541178017223237,0.9427897735379394,0.088776803401272,4.127466104120849,0.292403541055553,0.7942364591785864,0.14248088079257387,0.3350621472574804,0.11310840521575274,3,left
3.41,0.07857338196067346,0.9289566837701045,0.08816543073712875,4.134644617106125,0.29192891193743,0.7895522374412494,0.14237823392070964,0.3359840491874825,0.11415293426744277,3,left
3.41,0.09040881621045073,0.9192612922765,0.08884279752799323,4.138273963653074,0.2907163636402039,0.7828405003752654,0.1423498447840592,0.33578524847098035,0.11376876766905639,3,left
3.4139999999999997,0.09893232893450915,0.9123231006968011,0.08677720815841945,4.129738234140523,0.29249734324488363,0.7938433728214823,0.14251756907441676,0.3353187464783346,0.11360388188814372,3,left
3.415,0.10603397223392538,0.9050175638480924,0.07907257517625632,4.139568047903646,0.291081462771926,0.7840198837471032,0.14224269943643203,0.33623513236660085,0.11409965905633088,3,left
3.418,0.11346098975697602,0.8996549490285933,0.06629119445967277,4.129419012396819,0.291534644345694,0.7896302377462582,0.1425402988912557,0.3352172436220801,0.11352463973583299,3,left
3.4189999999999996,0.12480064591007366,0.8932745294400425,0.046899422908413854,4.140458972308132,0.2922548493620114,0.7889826673986121,0.14236116173539393,0.3358702284105409,0.11393025703778162,3,left
3.424,0.13797946116512244,0.8888321244242304,0.028123012667397106,4.128269240083372,0.2905624097777454,0.7856610614640103,0.14224238920773444,0.3361117623489518,0.11391639146160643,3,left
3.425,0.15229848006690697,0.8868039334615428,0.011021681493905356,4.139698006198156,0.2925926116503104,0.7907710494237656,0.14282046495659143,0.33452873181842613,0.11338215881865096,3,left
3.429,0.1713484271980042,0.8829584827110729,-0.0036198190177446276,4.134143817918328,0.2912678511863901,0.7867665181967991,0.141737998244983,0.33755938193817925,0.11448013482662263,3,left
3.43,0.1914163412756688,0.8796983809501452,-0.012080800892364551,4.126093502760524,0.2905979664649003,0.7865847461697475,0.14313013538271852,0.33364659964511645,0.11304641965691108,3,left
3.4339999999999997,0.2094721996130351,0.8771459775419906,-0.0218048306959234,4.155307340166248,0.29440044701282286,0.7934136738549656,0.14196722147592944,0.33692180223807255,0.11425273083539841,3,left
3.435,0.2276944527471494,0.8753655924828972,-0.030684376853546615,4.102550812091649,0.28714304507192845,0.7793238203909203,0.1420017454664818,0.33680006152899034,0.11418354039299727,3,left
3.438,0.24240837323214692,0.8752145836984382,-0.03399360982539255,4.169782271834924,0.29653604031071845,0.797929624442234,0.14420862506007953,0.330663489834502,0.11200403062699264,3,left
3.4389999999999996,0.2555813569332571,0.8748734313567454,-0.037373950440545506,4.113867236110983,0.28866287828299775,0.7821796184544959,0.1387813370279518,0.3457854150865759,0.11740327147823698,3,left
3.443,0.27125000554344164,0.8733986387502758,-0.03795002796948824,4.11505490954463,0.2889245782710486,0.7829400820959727,0.14778016095631025,0.3207025340652977,0.10844112991770108,3,left
3.444,0.2802320329909548,0.8718540403069973,-0.03657957569694396,4.222542535191833,0.3038078597019418,0.8120832773435793,0.13591166484019884,0.3537875119026045,0.12026161237156974,3,left
3.448,0.2826105113968037,0.8709651706286374,-0.03716265130838489,3.95881696227501,0.2671561118209931,0.7399697767010617,0.0860876776501669,0.49261375894636295,0.16984058071969876,3,left
3.449,0.2861629746817477,0.8683705573035962,-0.03255884685853298,4.395917669015361,0.32795325635299544,0.8597192866781731,0.07422129335817731,0.5256946535914717,0.18165401861354316,3,left
3.45,0.2872565914311148,0.8663959195476664,-0.027471401273637883,3.8194343689946053,0.24775194791699084,0.7017045986323078,0.08321783415918371,0.500616193276418,0.17269949604708906,3,left
3.4539999999999997,0.28558353708226986,0.8669717140322819,-0.02612668522378188,1.3994763811424522,-0.08885131907654781,0.03869598468895169,0.07778967100382983,0.5157397882533894,0.17810164546157511,3,left
3.455,0.2828716821312704,0.8657183571238742,-0.021927002555841534,0.8229627301996756,-0.16905609917132575,-0.1193291785149429,0.08000414229340609,0.5095885840956234,0.1758968334914372,3,left
3.455,0.2762389981589901,0.8646141980299991,-0.02111151088663428,1.2600776168657435,-0.10824872451233934,0.000470027335082758,0.08002234023057544,0.509498341399779,0.1758820704488019,3,left
3.46,0.26559934036981636,0.8681584455888246,-0.024856537010911887,0.9964306196617921,-0.144921974969775,-0.07177504361653403,0.07888282781504591,0.5127283706870953,0.17701035457808917,3,left
3.4610000000000003,0.25091781954209713,0.8754426141257073,-0.02928159984519134,1.10367307532294,-0.130003878143842,-0.0423893110191536,0.08025167039122996,0.5088605860015429,0.17565432457693944,3,left
3.4619999999999997,0.23439576865345346,0.8834953753399639,-0.03740964328893084,1.1052972450820486,-0.12978550543953232,-0.04196355255904102,0.07917923917798418,0.5118717937039232,0.17671880592273087,3,left
3.463,0.22057023136843262,0.8916259720545884,-0.044394582849762776,1.0488292293419295,-0.13762183027566827,-0.05738348903851439,0.07977735435725294,0.5102501849164729,0.1761178063916664,3,left
3.467,0.20958187597568234,0.9025772719082634,-0.04764102360010408,1.1165203295666735,-0.12823393325013793,-0.03891921433925355,0.07959409145916405,0.5106160961707518,0.17631891597629168,3,left
3.468,0.1991478098728927,0.9149248969671484,-0.048257321412975104,1.0637344705490814,-0.13554778596976214,-0.05329553210115644,0.07952603859679494,0.5110547134616601,0.17635417859732627,3,left
3.4730000000000003,0.18853994621604395,0.9276416526326894,-0.05075621306881298,1.0921642243341103,-0.1316057819238879,-0.04554427727179643,0.07968734727583293,0.5102999712602688,0.17623361728840892,3,left
3.4730000000000003,0.17885539002234713,0.9448269386772696,-0.06452630979450913,1.0859697120679974,-0.13249261091258618,-0.047319447385299286,0.079521079192108,0.5110064686485539,0.17636716831907817,3,left
3.478,0.16886176581599738,0.9659883524489075,-0.08493605660016,1.0775983206544182,-0.13357555911359417,-0.04936062466788116,0.07968990027699716,0.5105383157012912,0.17619884795023083,3,left
3.4789999999999996,0.15462544637413927,0.9897855351564478,-0.10189651655100218,1.0920803120110811,-0.13170194404612423,-0.045829477804479796,0.07945967949287815,0.5107285091250334,0.17648735119742054,3,left
3.483,0.1385561856544242,1.0159691618529758,-0.10922665196868758,1.0780606191177111,-0.13347897639134151,-0.04913352254467499,0.07981805105168563,0.5107610318593331,0.17599498072039044,3,left
3.484,0.12441101526471213,1.0397471489371826,-0.1046709620451087,1.087692523821158,-0.13227735551068298,-0.046923254694900954,0.07932363197304305,0.5106006984514277,0.17668949853443408,3,left
3.487,0.10827869294174121,1.0593559421008685,-0.09749811670341957,1.0841338329949455,-0.13277344345881298,-0.04790224989573372,0.07984316080718548,0.51079235814671,0.17595664336817518,3,left
3.488,0.08875379972449907,1.0776267295435964,-0.09299624696036293,1.0814235497512288,-0.13289422943653872,-0.047847980858572906,0.07955487779509188,0.5106488415059429,0.17636818052703124,3,left
3.4930000000000003,0.0701110368710804,1.0923052879893889,-0.08622748646984796,1.0895820621969807,-0.1323452715279905,-0.04743389605755155,0.07924758333289175,0.5106877609104047,0.1767816631923761,3,left
3.4939999999999998,0.05381140522695593,1.1000568493710694,-0.07833472026769336,1.0778672001574816,-0.1331004667440503,-0.04792644538629176,0.08049609269899317,0.5107834300528442,0.17506841466808187,3,left
3.497,0.04009922334287859,1.1021557885571818,-0.07070421093049359,1.0897501389366728,-0.13237993750785532,-0.047567276720359195,0.07819824830330771,0.5105582162222534,0.1782280226337288,3,left
3.498,0.031224587950222333,1.0974080006419507,-0.05679809252715735,1.0828775504313968,-0.13279668746858328,-0.04777682736651504,0.08114467470006158,0.5108578391969033,0.17417521455967744,3,left
3.503,0.025257903191452675,1.08739704222103,-0.03779399324656536,1.0782964471867755,-0.1329706011191536,-0.04758855265361272,0.0786867708855001,0.5106038600480969,0.17755651429192043,3,left
3.5039999999999996,0.022322807793525374,1.0750629225560928,-0.0183751077548339,1.100084732181001,-0.1319707427370358,-0.04793429275535687,0.07874646585481412,0.5106262828705705,0.1774724382554994,3,left
3.5060000000000002,0.02362655293266814,1.0601198864585597,-0.000576344829889045,1.0595913668593124,-0.1338357346826603,-0.047317553533293734,0.08345489306895101,0.5110584584826134,0.17100183535667138,3,left
3.5069999999999997,0.021354186811564015,1.0459979678668971,0.012784645710987629,1.111475736087879,-0.1314577423338399,-0.04813925267253731,0.07189088721203331,0.5099789570200433,0.186895792104471,3,left
3.511,0.02034252480785719,1.0321788329112926,0.026055507519020738,1.068210405801861,-0.13343415088414612,-0.04744045901252182,0.09106146936623621,0.5117720066900724,0.16054692713026716,3,left
3.512,0.02694826452089727,1.0222441515750922,0.03568575716241981,1.0695236256382157,-0.13336510833090193,-0.04741811691374577,0.06577695696519495,0.5094085053735216,0.1952985705492618,3,left
3.517,0.028885134077282975,1.019305517299149,0.0389777640349394,1.1514172530117588,-0.12967060733232666,-0.04892172181814772,-0.040377362305411064,0.4994898436511343,0.3412023474728564,3,left
3.5180000000000002,0.03308808292652389,1.0103631778598219,0.04570377143971345,0.95002366822588,-0.13875760267746684,-0.04526069668501627,-0.06566057252658622,0.49713164625817075,0.37595104195236223,3,left
3.5189999999999997,0.04897540610077965,0.9951172606259338,0.05449016790022025,1.2839351623842798,-0.12369924066621593,-0.05132925676377257,-0.04649139945948625,0.4989189562659689,0.3496053668537127,3,left
3.522,0.0575736996378023,0.9885743490689459,0.05967895377218829,0.8435389263270842,-0.14354871166070793,-0.04332060509754909,-0.058055940398130335,0.4978372763957634,0.36550053949392114,3,left
3.523,0.061350896154198496,0.9861608198242559,0.061665909997379496,-1.0046499526610875,-0.22685863540453793,-0.009579369992569324,-0.05334284138131902,0.49828847863659614,0.35901934821979253,3,left
3.523,0.07803478277196979,0.9741029735026245,0.0642927291922188,-1.4450064836227825,-0.24668164974480145,-0.0015708076025183852,-0.0532931994226226,0.4982699576077965,0.358958051061104,3,left
3.5260000000000002,0.10096977157609238,0.957960747245692,0.06941967066094876,-1.1111570531498745,-0.23166464399917522,-0.007639229813927138,-0.05573668842929093,0.49807468816310907,0.3623066931857367,3,left
3.5269999999999997,0.12347099578374716,0.9441372076657394,0.0744472228004907,-1.3124993047279214,-0.24071742945660274,-0.003978314145943369,-0.05280461721039586,0.4983158428670652,0.3582864019244413,3,left
3.531,0.1467313972053457,0.9303409575268671,0.07832446502477661,-1.2306026917249313,-0.2370209495315447,-0.005481938043594369,-0.05509626568598228,0.4981158675190933,0.3614319857068449,3,left
3.531,0.1718317246527826,0.9183235347938545,0.08047777253533786,-1.2293890990261391,-0.2370182758679893,-0.005459353716784354,-0.05383543380008782,0.4982617198410616,0.35969080028261213,3,left
3.537,0.1960176328878891,0.9086893106657814,0.08180702111552342,-1.2724369622190992,-0.23884979649692392,-0.0047610685804375125,-0.05418243011548912,0.49813894381232526,0.36019425071094924,3,left
3.5389999999999997,0.21457863134138028,0.902774709886428,0.07977594035281238,-1.2208623597596788,-0.23667820108714072,-0.005582059949021107,-0.05440230086683555,0.4982740586950321,0.36045078370788863,3,left
3.542,0.23117245873373882,0.8992368033293421,0.0717232808276757,-1.261048960038802,-0.23833877775987522,-0.0049660001067435965,-0.05396673559424606,0.49812374269767784,0.3599081425708914,3,left
3.543,0.24587165719843596,0.8960426986568955,0.06052295042343598,-1.2393935719797604,-0.23742751066509704,-0.005311486176597192,-0.054394208063414225,0.49823608604566766,0.3604510349183685,3,left
3.5469999999999997,0.25623964200663785,0.8968809373740574,0.048083551955618475,-1.244232778981487,-0.23777333476142437,-0.0051225472587317356,-0.05403525555079468,0.4982709531303255,0.3599572617724433,3,left
3.548,0.26542938653821685,0.8984352634768182,0.035437564704541694,-1.2502711466918113,-0.23763431327978385,-0.005334083850040764,-0.05438967567339678,0.49795532695692896,0.36052725983208184,3,left
3.55,0.27460115338630875,0.9000571214728124,0.02114846908931088,-1.2398255313762985,-0.23787143002085645,-0.00497158453034928,-0.05393698938166946,0.498643295408931,0.359715723517648,3,left
3.551,0.2851827812372314,0.902961233891731,0.006823154716866929,-1.2497769140086556,-0.23745158843129033,-0.005468123453185242,-0.05452676106944236,0.49762492282027376,0.3608087734583871,3,left
3.555,0.30040039051430445,0.8995518361386138,-0.0024374775307494673,-1.2430240306191604,-0.23783934948153523,-0.005051003485766656,-0.053913959380558416,0.4987090860333932,0.3596654550273709,3,left
3.556,0.31757169391351125,0.8941076693240626,-0.007791576467065855,-1.245746803918748,-0.23796817293859635,-0.004996373940548676,-0.05424292989261793,0.49808493513081514,0.3602915030891236,3,left
3.5610000000000004,0.33319014267558117,0.8894624115243565,-0.011369752328987289,-1.2466977917571864,-0.23672713002790094,-0.005981765166527181,-0.054650972179033114,0.49753548084465665,0.3610024065451599,3,left
3.562,0.3494996534709679,0.8802850334918164,-0.014438047405471093,-1.2430249528335813,-0.23949567950043843,-0.003757485870706281,-0.053068824684462126,0.499921563602838,0.3581714027643048,3,left
3.5660000000000003,0.36519368177408834,0.8709270800677567,-0.017821796050525716,-1.2481552114712082,-0.2353498007177748,-0.007081948320455727,-0.05596627367118499,0.49549979483698764,0.36337099358705705,3,left
3.5669999999999997,0.37659204965690446,0.8606881579888004,-0.02072622204361619,-1.243148930696711,-0.2397902213876355,-0.0035296282842785403,-0.05225390183754659,0.5011769830553863,0.35670573406729855,3,left
3.57,0.38517419133157405,0.8497544817202113,-0.022925521212744174,-1.2460462946260793,-0.23722477663982866,-0.005582030387596793,-0.05535007707537058,0.4964374151825702,0.3622657610886828,3,left
3.571,0.39538166974600597,0.8385437390307053,-0.024033385342980447,-1.2475188801686747,-0.2349670777428906,-0.007370039792273433,-0.05527853865230099,0.49656514358372744,0.3621325955182019,3,left
3.575,0.40555474932055446,0.824174983838753,-0.022266855172340484,-1.2397477020216652,-0.24478799165698922,0.00043073833035595045,-0.049333998807830265,0.5056049562460323,0.3514736176795849,3,left
3.576,0.41133481052051485,0.8099498034031503,-0.016629533676532197,-1.2542250110572075,-0.2265779633026656,-0.014034618706143196,-0.0639310171709189,0.4833862741445334,0.3776519554280863,3,left
3.582,0.4186889746658887,0.7918012861872472,-0.013295259565866156,-1.2357208041584928,-0.2499644740159167,0.004541143471891074,-0.03973142438020613,0.5202265900182208,0.33425189296894164,3,left
3.583,0.4263507766019954,0.777813334304825,-0.013846853877867403,-1.2511301133475077,-0.23043816117390584,-0.010967580550228399,-0.07165135360292361,0.4716331888052082,0.39149655016690665,3,left
3.585,0.4277019362129112,0.7740232862547023,-0.015584851298053046,-1.2506051155296456,-0.23096292913576794,-0.010549579938887749,-0.20564735153213823,0.26766777206238057,0.6318023014197096,3,left
3.5860000000000003,0.43123678262577114,0.7652880423950301,-0.019514405911099073,-1.221683694068575,-0.2682131575195608,0.01903020797993192,-0.23757174493574962,0.2190709293507732,0.6890508210174813,3,left
3.5869999999999997,0.43568314201038927,0.7595372545694468,-0.02681721740638731,-1.292849502304417,-0.17665908110735778,-0.05367197684256073,-0.21336596408809036,0.25591655099134036,0.6456458072601627,3,left
3.589,0.4307104846148998,0.763151533049643,-0.04348929021932869,-1.1748645022880493,-0.32845934906868235,0.06687141852195465,-0.22796595590539878,0.2336936805397993,0.6718252916336208,3,left
3.59,0.42516402124236025,0.7634489135293183,-0.05803702549769223,-1.3304520586530837,-0.12823892547880236,-0.0921240842186361,-0.22202752031134976,0.24273269627612648,0.6611745350089604,3,left
3.59,0.4246219997654593,0.764177114478003,-0.060771042238205016,-1.9830711644041088,0.71204725464894,-0.7594777155507236,-0.22193622248095235,0.2428698583718832,0.6610199122426678,3,left
3.594,0.4194405688001703,0.7715043429518553,-0.0659063139774665,-2.13856742526034,0.9122318779000224,-0.918465418676643,-0.22506603319891533,0.23811058436549842,0.6666137215052552,3,left
3.596,0.40779444061235987,0.7848600958406076,-0.06722072887991103,-2.020755652344037,0.7605106778146287,-0.7979394622773649,-0.22131354126972175,0.24381511576091797,0.6599110532326374,3,left
3.6,0.3891436618429785,0.8033701846318799,-0.05412281301047573,-2.0916953193269716,0.8519366206089919,-0.8706129772614043,-0.22424060659239908,0.2393672123956277,0.6651337839524369,3,left
3.6010000000000004,0.3637926037599164,0.8272829704532693,-0.03896206129700575,-2.06298991144777,0.8148524407009701,-0.8410709200386732,-0.22266455510864108,0.2417628515776038,0.6623187760423952,3,left
3.605,0.3382028561809585,0.8600715416790488,-0.03875923802779134,-2.0623633294502857,0.8141671601257143,-0.8406156429736183,-0.22300418190492316,0.24123944402713607,0.6629504092139477,3,left
3.6060000000000003,0.30971431806033045,0.9000054998506057,-0.05723788729295151,-2.0776275146081957,0.8337660909499167,-0.8561426634752455,-0.22347872251845075,0.24053815568390124,0.6637287906650378,3,left
3.61,0.2750850605413493,0.9492373881996286,-0.07377814276227332,-2.0596310182879325,0.8105040204332816,-0.8375925855604605,-0.222657874433909,0.2417512336987688,0.6623818021472079,3,left
3.611,0.23486737470475788,1.0101215557676086,-0.07503975484565081,-2.0732148310250236,0.8282950127924299,-0.851965337286092,-0.22345741101370892,0.24057893689782336,0.6636621962797196,3,left
3.615,0.18948158630435946,1.0734492008273242,-0.070829292950917,-2.0665616910516644,0.8192090387006029,-0.8443303435304221,-0.22290555804548623,0.24138324822201263,0.6627948645956434,3,left
3.616,0.14328354497538354,1.1356730876433998,-0.06362473534986603,-2.0671063385432715,0.8205476076889345,-0.845907494979428,-0.22310245087948433,0.24108326903719135,0.6631490055413274,3,left
3.6189999999999998,0.09965220239431756,1.1930998809904985,-0.04649180133508805,-2.0700846271196296,0.8238743691232717,-0.8481397051321988,-0.2232868396285829,0.24086877378969934,0.663252812945494,3,left
3.62,0.05937045813949671,1.240572500587621,-0.02111290217142409,-2.0665914047583986,0.8193733274425538,-0.8445616792510666,-0.2227566752806179,0.24152446104909475,0.6628205709583601,3,left
3.6239999999999997,0.02101257348201218,1.2780095387372294,0.005730559541146606,-2.068105866942407,0.8222615510056264,-0.8476152059082271,-0.22352231047397958,0.24058482174023318,0.6634200138186093,3,left
3.625,-0.013079852114986367,1.2997243007962627,0.034142707510515485,-2.06994927237947,0.8224897743757937,-0.8460597500044829,-0.22273966724711725,0.24153539090913395,0.662841215582379,3,left
3.628,-0.04209781247162135,1.3076032355949547,0.06507692573341883,-2.0648781304294492,0.819161003614927,-0.8460073344814185,-0.22319221361179975,0.24098571805871563,0.6631761209910676,3,left
3.6289999999999996,-0.06651391290303398,1.3018390064657308,0.09185283901891016,-2.071306834337536,0.8240262223163761,-0.8471084041748571,-0.2235080370940323,0.24062472649199207,0.6633320001557879,3,left
3.635,-0.08401135173059936,1.2837676883943097,0.11471286098601374,-2.0670693804170193,0.8205422366143936,-0.845938695099236,-0.22202974482324347,0.2423503874471825,0.6624782916129051,3,left
3.635,-0.0915222526607882,1.2565472757199787,0.13575757868197205,-2.0645192106643337,0.8189569171167274,-0.846053758042493,-0.2247759700705539,0.23914315342646209,0.6640696185267776,3,left
3.638,-0.08237847270944548,1.2128016756351783,0.15196188379827458,-2.0780072495447106,0.8288881672684494,-0.847921541634683,-0.22125592071752154,0.24325170425362058,0.6620378080771872,3,left
3.64,-0.06191463098151207,1.1650485738296523,0.1700366551623947,-2.0523142203152327,0.8095971299251123,-0.8437664372443576,-0.2241917214954226,0.23982640374088646,0.6637283337259197,3,left
3.6430000000000002,-0.02319157915730169,1.1067036187360646,0.1875736901438658,-2.0856084394727525,0.8347568736560387,-0.8494084363390249,-0.22410467289614966,0.23992999113098493,0.6636701567611678,3,left
3.6439999999999997,0.030198807678890358,1.0393398556471536,0.20050763710698172,-2.057679994800375,0.8135830476386119,-0.8445673383857035,-0.21853949333879252,0.24641302966413414,0.6605026460861073,3,left
3.648,0.09052977924502298,0.9754297822743973,0.21613567155387697,-2.0585574346795146,0.8143085251150672,-0.8448112142378681,-0.2322234739527116,0.23047157791836803,0.6682953758601029,3,left
3.6489999999999996,0.1712055496116554,0.8941098827115312,0.22747340763282398,-2.1115804723967972,0.8543953155075781,-0.8538335313146022,-0.2095357320593264,0.2569007965174388,0.6553781485982357,3,left
3.654,0.22065275467299017,0.843321694507762,0.23013460848162712,-1.9810360894615027,0.7555915272948338,-0.8314556242524055,-0.2394585114918003,0.2220452353497111,0.6724100596343444,3,left
3.655,0.24272963771129202,0.8224996008324106,0.22797122547903015,-2.1975958598090886,0.9195497157067882,-0.8686554714580577,-0.3650424204205333,0.07575280092726497,0.7438925811146575,3,left
3.655,0.2812119684119312,0.7847304158002195,0.22441395531926828,-1.911891875344465,0.7032151611741769,-0.8195425033583803,-0.39496188119223863,0.04090404289125447,0.7609154262335249,3,left
3.658,0.3027483346057168,0.7637697283172706,0.2219425013570649,-0.7128225681180096,-0.20469987904866815,-0.6133630038532514,-0.3722791791602658,0.06732369416391311,0.7480106064306242,3,left
3.659,0.3392886303669096,0.7309009932155679,0.21170431588443453,-0.42706554073179304,-0.4210920821688146,-0.5642255486583037,-0.3859593919763423,0.05138725944243543,0.7557978620191271,3,left
3.66,0.39215672000646956,0.6853805922832201,0.19294311363273314,-0.6437123335205017,-0.2570333627736746,-0.6014821978566193,-0.38039288512966885,0.057878599225290386,0.7526167913054695,3,left
3.6630000000000003,0.4214538316915386,0.6709444437478893,0.17032925935631005,-0.5130848147007563,-0.35594858930942685,-0.579007013191067,-0.3803157625295256,0.05795355992008,0.7526004680418351,3,left
3.665,0.45166386694334526,0.6659278525213634,0.14188788051754192,-0.5661338793778676,-0.31579004556658063,-0.5881627702348908,-0.3832316707942841,0.05457792355312922,0.7542208338365954,3,left
3.668,0.4743046805170814,0.6751280845102303,0.10676119057115557,-0.5670998792010291,-0.31503280440538095,-0.5882673867641725,-0.37973850129234943,0.05862625239089643,0.7522715671233382,3,left
3.6689999999999996,0.4898702620227621,0.7027002732929019,0.06510510515446279,-0.5389287245381618,-0.336401202377985,-0.5835075887842907,-0.382459996947214,0.05546499783747835,0.7538037318808619,3,left
3.673,0.5098474762247576,0.7390853501484963,0.020995553560357427,-0.5726091862821416,-0.3108615634202002,-0.5892164774063062,-0.3809888820165207,0.05719629717508795,0.7529334003662889,3,left
3.674,0.5227875918595415,0.7828982037201307,-0.019516295783652254,-0.5464810828844551,-0.3306621596749929,-0.5847579786526512,-0.381333638885874,0.0567378826126098,0.7532361642810561,3,left
3.677,0.5365394413344287,0.8250477923773556,-0.051112931944368695,-0.5602559224209926,-0.3202607245667729,-0.5872008852372298,-0.38170678549836623,0.056401062806004446,0.7532650014945013,3,left
3.678,0.5489699221178641,0.86637216411473,-0.07172040990327831,-0.5578459657054458,-0.32199042829048885,-0.5865516378169191,-0.3810529547149475,0.05704264338359112,0.7531180736123613,3,left
3.6830000000000003,0.5539400984158136,0.902637677050424,-0.0766729509363833,-0.5527627190029213,-0.3260036617339898,-0.5860809020806808,-0.38166904658852097,0.056420678224296,0.7532892056154425,3,left
3.6839999999999997,0.5569641473374498,0.9285725957024519,-0.06484557918639142,-0.5608713197124757,-0.3196623529523921,-0.5869806776787097,-0.381245369393296,0.056915023024359204,0.7530464786804199,3,left
3.688,0.5564100037882833,0.9435664897114802,-0.043626497214040515,-0.5535014156294542,-0.3254034395075137,-0.5861074164680395,-0.3814599704175331,0.05648756443542492,0.7535016825819214,3,left
3.688,0.5489312395262886,0.9487810595283446,-0.015776961681883125,-0.5575341705014896,-0.3223511103793274,-0.5868048275977421,-0.38139216937203957,0.056972184786399344,0.7527019472638965,3,left
3.693,0.535119368359964,0.9472219343863026,0.008070299228931902,-0.5582427517135677,-0.3215171889470057,-0.5861943005229528,-0.381392130373813,0.05636704373011604,0.7538374099797631,3,left
3.695,0.5150304838940825,0.9374280345258936,0.022134054807595054,-0.552587580434361,-0.3264789717743599,-0.5868949837993948,-0.38141097554258996,0.056990285103237705,0.7526377040365373,3,left
3.698,0.4884322958166973,0.9214277769726058,0.034920432768235476,-0.5619902795700866,-0.31834533487887506,-0.5860160790329116,-0.3813703842953887,0.05666468539245777,0.753313953139594,3,left
3.699,0.46007474764652573,0.8975689068388184,0.04668195809532055,-0.5517874032877728,-0.32715168807954637,-0.5869219641001497,-0.38148266285305216,0.05621274714122583,0.753980825862874,3,left
3.702,0.43475742679202123,0.8658420522262699,0.058691878851348606,-0.5579659668395477,-0.3218490212119447,-0.5864475769737805,-0.38123223026544917,0.05791056651828011,0.7511996503946639,3,left
3.702,0.4102811104359503,0.8326246788727569,0.07274354236072486,-0.5618866345252489,-0.3183416055078169,-0.5857959744747057,-0.3816532834788244,0.05481221978223828,0.7563325769615772,3,left
3.707,0.3874903842229726,0.792709481645183,0.08333167054050729,-0.5424289645857618,-0.3354312800092777,-0.5882503125991221,-0.3811222089937246,0.058779749351907384,0.7497472040043406,3,left
3.708,0.3710361090750509,0.7468453703218335,0.08274843798750087,-0.5789268141151941,-0.30342581188438916,-0.5837706159797087,-0.3815619158748334,0.055471325783052555,0.7552427644478983,3,left
3.7119999999999997,0.35935049666484875,0.7018995251977832,0.07147933876713303,-0.5319710414673413,-0.34459057530234516,-0.5895064021440202,-0.3815644920016672,0.055544957717262554,0.7551026188662785,3,left
3.7119999999999997,0.35002986430664274,0.6588269111452751,0.06377194022095076,-0.5712061614811204,-0.3101991308718698,-0.5847248138467924,-0.380677969884588,0.06190714918357185,0.7445954430234735,3,left
3.717,0.3438397088524009,0.6212301267003781,0.07095514589208447,-0.5700075716237258,-0.31123169298170233,-0.5848283154574874,-0.38284041380153133,0.04628707108019986,0.7704106935573662,3,left
3.718,0.3432323401598527,0.589546032493664,0.08954874718345363,-0.49565005382703364,-0.3764681368232978,-0.5940299864328087,-0.37925866638607736,0.07218281102876975,0.7276104006642223,3,left
3.722,0.34684382042895445,0.5723792763948905,0.10234440727617013,-0.6785651287445695,-0.21601244450076473,-0.5714448182324406,-0.38398331898804655,0.038025133886844614,0.7840636011328478,3,left
3.7230000000000003,0.34677401913700157,0.5677497300061725,0.10672791093968423,-0.37525369070846204,-0.48207497889252904,-0.6088828525125582,-0.4038161287805715,-0.10532456338799356,1.0210360592447623,3,left
3.7239999999999998,0.34474867823022004,0.5595968840611454,0.11141614750757171,-0.7753075316030613,-0.13115258281201586,-0.5595047096370469,-0.4085419783228994,-0.13948259900543064,1.0774902997151083,3,left
3.727,0.34423972585705775,0.5551371294267295,0.11564162847748247,-2.4544092022360497,1.3417676268015906,-0.3521949532430717,-0.4049615096838983,-0.11359304635716273,1.034689109141921,3,left
3.728,0.3377543476201057,0.5617627551114859,0.12447858645881782,-2.8544050288973044,1.6926375490949288,-0.3028184104480746,-0.40711434464388563,-0.12918968760449462,1.0605031257911763,3,left
3.7289999999999996,0.32153116126201314,0.5803805498089882,0.1253015145431003,-2.551175348357398,1.4266502787049689,-0.340252407226527,-0.4062509125904548,-0.12287679590885033,1.050001343890627,3,left
3.73,0.29536769667149404,0.6183249013968172,0.10437267950982837,-2.7340470331862026,1.5870620688822523,-0.31767474963167575,-0.4062163633187504,-0.12272916503022088,1.0498507025499912,3,left
3.735,0.2636789208033259,0.6765690237500828,0.07813755890537968,-2.659619977275228,1.521772326424017,-0.32686532191488615,-0.4066992481945254,-0.12611800790512953,1.0553604231139473,3,left
3.735,0.2323806394335078,0.7517577932794441,0.051823907860213146,-2.658663647207752,1.52094464802342,-0.3269814526575884,-0.4061377336690827,-0.12210247435736436,1.0487620596594867,3,left
3.739,0.20214091374805374,0.8381978986768376,0.023557271712034856,-2.69747724494501,1.5549701092470842,-0.3221907648092026,-0.4065486047859573,-0.12516196848395753,1.0538985301098114,3,left
3.74,0.17862974610273102,0.9289445958265925,-0.0006184609681496541,-2.6510338719453594,1.5142600050962964,-0.32792435970138034,-0.40637803791452165,-0.12364262347168542,1.0511332593972091,3,left
3.7439999999999998,0.16705538562275213,1.0170429466351103,-0.019560200509692767,-2.6871385705598714,1.5459017582792376,-0.3234665052790625,-0.40632547703726846,-0.12375577366607528,1.051757069764133,3,left
3.7439999999999998,0.16855458826776934,1.0953077466775585,-0.028739133013804666,-2.6676373828983344,1.5288077279834305,-0.3258745718079722,-0.40651643632203016,-0.12453106453140846,1.0525028780845738,3,left
3.75,0.1817764114704446,1.158435884809352,-0.025649171178493732,-2.672380286127532,1.5329933022519375,-0.325289187387899,-0.40630684268519385,-0.12349831480795274,1.0512227325150731,3,left
3.7510000000000003,0.20013758810202056,1.205395761546854,-0.01470398936856519,-2.6767549611413815,1.536750506001124,-0.3247477223091594,-0.4064056550667624,-0.12421720681496734,1.052414963973794,3,left
3.753,0.2207000347356809,1.2361158438052127,-0.00318880844768461,-2.6691769335693962,1.5302410463145157,-0.325686009712575,-0.40653045881586386,-0.12422338855455384,1.0516326840097596,3,left
3.7539999999999996,0.24321528646710186,1.2483325294339749,-0.0013621090959457561,-2.6758731346916544,1.5359457796308504,-0.32485582346082664,-0.4061217214788816,-0.12331597204599144,1.0519436508004207,3,left
3.758,0.2630196751641706,1.2447363543341634,-0.013271939170196506,-2.67160659549269,1.5323379734516194,-0.3253853621282594,-0.40677497374435884,-0.12498424722454085,1.0519998234301928,3,left
3.759,0.27749103617474025,1.2311069743684446,-0.03447468091912745,-2.67409736910953,1.534524106678309,-0.32507796711112136,-0.4060627091028717,-0.1230907608132165,1.051749644178292,3,left
3.764,0.28744450999278975,1.2092079729507805,-0.05553221019299806,-2.6714936570846968,1.531989992081638,-0.32539396656190606,-0.4064848557166365,-0.12426191793746416,1.0520217796684723,3,left
3.765,0.29209923565027607,1.1751481264374806,-0.07028488475219637,-2.6760805686283655,1.5365852145342362,-0.32483997155086386,-0.4068158106138099,-0.12503177610279548,1.0518597141580144,3,left
3.7689999999999997,0.29434144722274275,1.1301103770854128,-0.07756565196740031,-2.668921338697275,1.5294524631938409,-0.3257056532789645,-0.4053066743641687,-0.12122035838543767,1.0518372337538682,3,left
3.7689999999999997,0.2996662638621404,1.0772848776310868,-0.07336341703991496,-2.6769729315978292,1.5374242816459627,-0.3247307640603677,-0.40811963632358506,-0.12839302059499658,1.0520517752617997,3,left
3.773,0.3085547288028722,1.0136687141288818,-0.06335781613222816,-2.6723259892717794,1.532822779606877,-0.32529384622739566,-0.404502654371244,-0.11914552838551094,1.0517140537338285,3,left
3.7739999999999996,0.3188138170784266,0.9459586500533431,-0.055424026158743825,-2.667386034432538,1.5280367461539988,-0.3258931600710969,-0.4075241818416538,-0.12688135016818725,1.0520222038360068,3,left
3.7769999999999997,0.32941101463156186,0.8730281278259491,-0.044284721799373136,-2.6877943124446504,1.54792020450138,-0.3234168720445656,-0.40743972818050445,-0.12664828244073198,1.0519735847468452,3,left
3.778,0.34008523318120176,0.799830624830803,-0.03148646737386014,-2.6500090650188124,1.5111005864570766,-0.3280027270349712,-0.4016855794166883,-0.11196086120032542,1.0514932229931386,3,left
3.783,0.3527892325197024,0.732548910289317,-0.021688576893488777,-2.698602402690225,1.5584448026435234,-0.3221037733493384,-0.41583201836145917,-0.1480944999729742,1.0527319691357744,3,left
3.784,0.36815806893001235,0.6556864478673196,-0.011898085700755175,-2.658001965996778,1.518891106242846,-0.3270342401192915,-0.392375834697092,-0.08817120546101684,1.0506563900079986,3,left
3.7880000000000003,0.38020349677836884,0.6058063526858845,-0.008313170990155763,-2.658996294899903,1.519870078186154,-0.3269097305929748,-0.4233139783349025,-0.1672132598822777,1.0534016364254435,3,left
3.7889999999999997,0.38508149187903945,0.5915192556734796,-0.010210003971360083,-2.736846718386299,1.5956710225684017,-0.31746418908072904,-0.5531865825191506,-0.4989873383266792,1.0648985004098392,3,left
3.79,0.39864665623229056,0.5448516117325788,-0.011969863036644723,-2.5455879195540043,1.4094385097067894,-0.34067757356413775,-0.5841230127259747,-0.5780281079107291,1.0676443605665362,3,left
3.792,0.4353906481826808,0.4756925935405026,-0.02630306991523222,-2.862699521160365,1.7182170433068142,-0.30218254329553895,-0.5606682891444996,-0.5181033629923077,1.0655634195362684,3,left
3.793,0.46260718180662047,0.4421055941530225,-0.04138113107163581,-2.4444203109785145,1.3109301490268455,-0.3529661735902767,-0.5748168277830819,-0.554247591650844,1.0668185531328496,3,left
3.799,0.47069929560029217,0.43052586357667966,-0.04672363484394506,-0.6883797348546317,-0.39892989966768855,-0.5661283892825881,-0.5690536545656284,-0.5395348171815042,1.0663060890312925,3,left
3.799,0.5064476613199025,0.3984041187048924,-0.06566643021346194,-0.27010035910315333,-0.8062176918697538,-0.6169315986708306,-0.5689866973686847,-0.5393424431478462,1.0663036244082156,3,left
3.8,0.5640925028741111,0.35950781605477394,-0.08733078910779121,-0.5872122216130435,-0.49743775472748775,-0.578405962566868,-0.5719846762616905,-0.5470310124710511,1.066563946588937,3,left
3.803,0.6160101359119468,0.3347247062984313,-0.09515448858971054,-0.3959532012876247,-0.683671428427046,-0.6016446651928609,-0.5683892229229228,-0.5378167163821845,1.0662509330920444,3,left
3.803,0.6709076218471165,0.3117484865163569,-0.0973405049758912,-0.47380362765075656,-0.6078705516701255,-0.5922005854655972,-0.5711964626341104,-0.5450007878334138,1.0664973724447413,3,left
3.807,0.7278116813425501,0.29306350836442996,-0.09423024653781181,-0.4747983492594586,-0.6068893265234412,-0.5920269640448835,-0.569660620419169,-0.5411015698992776,1.0663556092350515,3,left
3.8089999999999997,0.780299177326297,0.2806552563179016,-0.0928926793222444,-0.43419703013515576,-0.6464479410643388,-0.5970646499692703,-0.5700634626014716,-0.5420522479366143,1.0664090761310907,3,left
3.812,0.8262290351169802,0.27394005151070333,-0.09648194350944586,-0.4827916454694458,-0.5990967194712598,-0.5910129559090227,-0.5703697720403094,-0.5429697576640715,1.0664056210709718,3,left
3.812,0.8626193772575204,0.2816937996018778,-0.10295894141284359,-0.445005105885801,-0.6359232748536816,-0.5957500895278007,-0.5697911427606146,-0.5413260528170021,1.066391934748855,3,left
3.8169999999999997,0.886440537103242,0.3068311062351289,-0.11822935936994866,-0.46541399397625005,-0.6160368114515153,-0.5932082301503125,-0.5703505933569516,-0.5428870907510996,1.0664115563337893,3,left
3.818,0.897822887832276,0.34906800005515454,-0.13985405161988268,-0.4604750107465427,-0.6208170072318302,-0.593680341172265,-0.5699116899803309,-0.5417671258291381,1.0663722488164706,3,left
3.821,0.8974179195301301,0.410456974956131,-0.16166559611477835,-0.4558247273096707,-0.6254373759222853,-0.5946546944428919,-0.570277860624111,-0.5424577955943412,1.0664607290892603,3,left
3.822,0.8803703887156368,0.4907014390145651,-0.17964147868470612,-0.46388219040812895,-0.617433051900181,-0.5929711267184492,-0.5698782465346924,-0.5419960341852397,1.066297460215532,3,left
3.827,0.851622864178352,0.581005574474625,-0.1931046731040061,-0.4567156373670945,-0.6246056840771823,-0.5947063821442273,-0.5703696575857959,-0.5424175447940769,1.0665316227632986,3,left
3.8280000000000003,0.8158127798902066,0.6811323393927161,-0.20719348038361346,-0.46130856670458187,-0.6199786748613754,-0.5934591462186527,-0.5698653555086926,-0.5420178852746032,1.066283887618498,3,left
3.832,0.7746347107570142,0.7945740809999036,-0.2202841309374727,-0.4587044921095329,-0.6225125038347576,-0.5937692705662874,-0.5701258586169327,-0.5421703583860481,1.0664240086393462,3,left
3.833,0.728461529105253,0.9161185504719545,-0.2223425980827013,-0.46118505596665904,-0.6203853484216539,-0.5947473123353659,-0.5705032253670181,-0.5426907859231056,1.0665592517389553,3,left
3.8369999999999997,0.673265821647666,1.0442106446446782,-0.20984777408109254,-0.45694260234961037,-0.6238583851905626,-0.5923388833032559,-0.5691019463478019,-0.5410495575505392,1.0659914455488169,3,left
3.838,0.6126063729311373,1.1770371255494287,-0.1880050874506718,-0.4636022694536125,-0.618354690469531,-0.5958918207219603,-0.5716553230035951,-0.5439787009622785,1.067039650325016,3,left
3.841,0.543092442722717,1.3066334143907143,-0.15925725915462477,-0.4560639248649849,-0.624649855715804,-0.5921574084648032,-0.5683870185071435,-0.5402427827552778,1.0656953965356348,3,left
3.842,0.46792237006812154,1.4320971374713343,-0.12910778588065985,-0.46041441380474774,-0.6210164453041533,-0.5943161638826572,-0.5711111103224242,-0.5433521128900413,1.0668161128501108,3,left
3.846,0.37992458429332915,1.55340557193023,-0.10222488099847633,-0.4651404143086158,-0.6169376583962884,-0.5960573603458458,-0.5710539096988387,-0.5433060830077524,1.0667898904198168,3,left
3.847,0.281259173337538,1.66299928849453,-0.08238770950562174,-0.44572150948514466,-0.6335645066369593,-0.5882809735951555,-0.5658061121969702,-0.5372503637387187,1.0646418205753125,3,left
3.8510000000000004,0.18311455489075035,1.7606707491899638,-0.07440995094223919,-0.4816701401779534,-0.6027890520237331,-0.6027112071419296,-0.5786843812863243,-0.552091346294052,1.0699143718104902,3,left
3.852,0.0549774686645509,1.837743930415769,-0.06553744889164129,-0.4354306556726218,-0.6423869270728029,-0.5841906294494088,-0.5573376568511582,-0.5274934312536741,1.0611768363204537,3,left
3.8560000000000003,-0.03513733227952379,1.882714844078224,-0.061859395996310074,-0.47406884107954794,-0.6092897150132658,-0.5996500049258469,-0.5854922320443513,-0.5599400925098914,1.0726973690962338,3,left
3.8569999999999998,-0.056411317864452575,1.8892198380620822,-0.05973369019878659,-0.47312944887090147,-0.6100931227784341,-0.5992144663678576,-0.7037078110786886,-0.6961567288790402,1.1211047604548399,3,left
3.858,-0.12949418730564652,1.8864435655713379,-0.038282331437011714,-0.3990073950239532,-0.6736105184996828,-0.5698010643483553,-0.7318622477579418,-0.7286136017366238,1.1326184520267588,3,left
3.862,-0.21682814690473337,1.8688429419254795,-0.007569109852090812,-0.5811052038819523,-0.5175537793663287,-0.6421140259741465,-0.7105156731129778,-0.7040046361927658,1.1238883189159234,3,left
3.863,-0.23420699050762145,1.7508645198882482,0.04987451331026515,-0.27917617254388744,-0.7763199966446228,-0.5222107336386372,-0.7233939994578487,-0.7188414245995624,1.129163682980447,3,left
3.866,-0.23392004635637897,1.643145155639158,0.10147529006349476,-0.6774404402829158,-0.4349768326473808,-0.6803640323186371,-0.7181457043147834,-0.7128223373061382,1.126991065602754,3,left
3.867,-0.22646859465280061,1.6070011888655178,0.11505989867385709,-2.3495482213484222,0.9978666377714033,-1.3440376702445906,-0.7180895740732857,-0.7126974783189824,1.1270176634051647,3,left
3.8680000000000003,-0.17335057295653766,1.4505487603677092,0.16224762343784824,-2.7478573495674707,1.3392414687163359,-1.5021808978715185,-0.7208121314626801,-0.715919842028714,1.1280626437292858,3,left
3.8710000000000004,-0.07430994312289263,1.2151297413835387,0.23044638997711558,-2.4458421540458657,1.0804458224087492,-1.3823090255973982,-0.7175453545784071,-0.7120713551864906,1.1267938102962227,3,left
3.872,0.04397690793698729,1.0009814782752815,0.27938975916746567,-2.6280547826309166,1.2364724137037215,-1.4545534354250444,-0.7200980727584889,-0.7150490899041242,1.1278094668003265,3,left
3.8760000000000003,0.16428484610482236,0.7682074527596372,0.3280241050608973,-2.5538189593421263,1.1731039557907315,-1.4252537593765198,-0.7186954804384975,-0.7135044793998713,1.1271769095948097,3,left
3.877,0.28328879845838983,0.5512411340652312,0.3630222613735008,-2.5529407934210364,1.1720036633440787,-1.424673647178126,-0.7190770750715948,-0.7137135949033353,1.1275207564068426,3,left
3.8819999999999997,0.3973555849898756,0.3550975346841707,0.3812257738737912,-2.591638157759854,1.2055076768385917,-1.4402601527886156,-0.7193302948504736,-0.7144025165254215,1.1273014316291794,3,left
3.883,0.5027111188528051,0.17404338976167713,0.38309934143053603,-2.5451561654761177,1.165528278921414,-1.4217131067122581,-0.7188349296612451,-0.7133444525872125,1.1274948402442915,3,left
3.885,0.5988031068585751,0.022838349419560748,0.3598181028784774,-2.5815503405189677,1.1964246013828845,-1.4359688284555254,-0.7193192181613066,-0.7142909460310483,1.1273772813559084,3,left
3.886,0.6913845863325414,-0.10295830921037695,0.321966436853658,-2.561554131379367,1.180226167951304,-1.4286436048142894,-0.7189195351458167,-0.7138336995205123,1.1272109248593782,3,left
3.89,0.7777510910024452,-0.19442543745735827,0.28054260519802243,-2.5667883990410063,1.183098373273129,-1.4296685442940256,-0.7192989358755024,-0.7135505151310674,1.1279519998474303,3,left
3.89,0.8522973400947136,-0.25328347349005703,0.23923199182871674,-2.571030262617172,1.188712223879866,-1.4326430013764173,-0.7188298072345382,-0.7146564272330858,1.1264212115817103,3,left
3.895,0.920498880183429,-0.27373491544243433,0.20136414640430217,-2.562810619500633,1.180091371727023,-1.4283519118470602,-0.7194343411134011,-0.7128965811668453,1.1286659479865533,3,left
3.8960000000000004,0.9785858732710475,-0.24715539167887715,0.16977027481566145,-2.5712303035063337,1.187292336283484,-1.431684708541046,-0.7188076616210226,-0.7147933072308021,1.126280153378724,3,left
3.8989999999999996,1.0247148286553234,-0.1797966916243002,0.13871118600694504,-2.5642024068571656,1.1841961739417401,-1.430802933815243,-0.719141717738325,-0.7136646884853171,1.1276474268129255,3,left
3.9,1.0585804893940072,-0.06917902059265754,0.10832038115194684,-2.5698427240041744,1.1823425664996754,-1.42868233549844,-0.7195685310549489,-0.7128529891108741,1.1288821252389458,3,left
3.906,1.073149564041585,0.07963541419872562,0.08168724749509715,-2.5650983308563893,1.188252344111302,-1.4333021531751342,-0.717927891028064,-0.7166698105131357,1.123569944005959,3,left
3.907,1.0701479315719902,0.2544501259765106,0.05056269744672989,-2.5688130410385592,1.1808020552343654,-1.427844750282934,-0.7209294324635898,-0.7095431253096375,1.133405309679583,3,left
3.91,1.0458877121099053,0.45368649162595764,0.013191697333974175,-2.5675669970821424,1.1858776441929124,-1.4313547617627487,-0.7170845339930078,-0.7187058575783859,1.120779300833333,3,left
3.91,1.0088186159557193,0.6556847156840602,-0.02499887743835725,-2.5636939434150445,1.1878565468813629,-1.4332713575171363,-0.720290689593843,-0.7110503571025232,1.1313196555343414,3,left
3.915,0.9621316435371379,0.8597157946593887,-0.05818712499023071,-2.5754805826694818,1.1747755210763804,-1.4228378180498353,-0.7202182705583615,-0.711278099051149,1.131037674179118,3,left
3.9160000000000004,0.9055023310295058,1.0593397035613799,-0.08140584756230934,-2.554841982591525,1.2000778352835102,-1.4426694113455247,-0.7140577234307826,-0.725811611177682,1.1109263737624715,3,left
3.9189999999999996,0.8446954569076626,1.2285120013481734,-0.09342130001396481,-2.5809036150034768,1.1672137847752029,-1.4170319373776334,-0.7291826243809412,-0.6900627618967208,1.1603555035399529,3,left
3.9210000000000003,0.7591565429464238,1.3976826257968549,-0.09406517982455467,-2.559331169117165,1.194806352984397,-1.4385065322236286,-0.7041092719487099,-0.7493462443078002,1.0783982371710774,3,left
3.925,0.6908508760447214,1.5026310328674193,-0.09017415571600723,-2.559630393673209,1.1938214492836554,-1.4378175253490135,-0.7371804956441149,-0.671147283112854,1.186501792303793,3,left
3.926,0.6696016314718483,1.5255031781870108,-0.08762566708252971,-2.60152236409521,1.141843377175303,-1.397158200961467,-0.8760189301582727,-0.34305175064386917,1.6401981699992054,3,left
3.926,0.6031772495965375,1.6003871592362187,-0.08108566239768748,-2.4989676587004843,1.2699387787151108,-1.4972459438123962,-0.9090920534152945,-0.2648593240545326,1.7482996893384735,3,left
3.929,0.47453271284671705,1.6789399392843352,-0.06833548168605355,-2.6688545988509267,1.057429142468298,-1.3312438025456883,-0.8840164005434301,-0.3241204356471783,1.6663542454983369,3,left
3.931,0.3980485805771896,1.6930009545132498,-0.06025901112054454,-2.4448280729699974,1.3377630297942649,-1.5502111148703746,-0.8991413884766057,-0.288423093265736,1.7157501389332679,3,left
3.9339999999999997,0.37433186610957603,1.6992143331224607,-0.05656502114811477,-1.5042735822528264,2.5143460912853826,-2.469296481538524,-0.8929858678551466,-0.30286832728735025,1.695701779282925,3,left
3.935,0.2999063507509158,1.687948394617643,-0.039122703402171714,-1.2802482636593475,2.794653275129213,-2.688239284991087,-0.8929014373116587,-0.30321136839312,1.6953313021192233,3,left
3.935,0.2106314929630376,1.6451479418144994,-0.003481303435313809,-1.450104797326398,2.5821609453864776,-2.5222641327949757,-0.8961257727841453,-0.2954503117407485,1.7059609698542433,3,left
3.9389999999999996,0.16645418905171572,1.5752127953432389,0.04735692947688096,-1.347652669118965,2.7103083694287977,-2.6223602888787005,-0.8922615745680134,-0.30464351096824793,1.6932929547177278,3,left
3.94,0.14638529949025783,1.4807247698441115,0.11099906786403169,-1.3893364752317252,2.658149865403212,-2.581616451822283,-0.8952736651287403,-0.2976422924954083,1.7030592966450115,3,left
3.943,0.15886391071497824,1.3793314634476639,0.1819535586341638,-1.3899416310658552,2.657496669528614,-2.5811115882088833,-0.8936444788333459,-0.3011135553721307,1.697983997783212,3,left
3.944,0.20043240850684058,1.2797117892832865,0.2547829065151155,-1.3680441963117507,2.6846588796324227,-2.6023203128792574,-0.8940255895969207,-0.3008655122623195,1.6988011042947972,3,left
3.951,0.2557814329966266,1.1938766947278556,0.3173627644413609,-1.3942874860788637,2.6521668672135306,-2.576949899818433,-0.894443392997792,-0.2990776443893183,1.7006917738868337,3,left
3.952,0.3216389973030436,1.1294138624955652,0.37089383089310624,-1.3738341229569917,2.677413579479475,-2.59666196507003,-0.8937086243889575,-0.30145211769674063,1.6978719467818466,3,left
3.9530000000000003,0.3851181168821029,1.0872036902324436,0.41904638071129097,-1.3848573353784328,2.663771323956057,-2.586009010548236,-0.8944072663067,-0.2998064220154617,1.7001514767987562,3,left
3.9539999999999997,0.4399673872679506,1.0719607282210215,0.45028692369836043,-1.382398458277738,2.667142142180035,-2.588649418958056,-0.8939207086175079,-0.2997735829237984,1.6993375950971115,3,left
3.96,0.48234002029297185,1.0781213978152868,0.46616774827409496,-1.379309033537878,2.6700556188156797,-2.5909026640344357,-0.8941673836101112,-0.30189368025767577,1.6983699245417345,3,left
3.9610000000000003,0.5114865591144226,1.0953300509224673,0.4728518240897336,-1.3846558728234242,2.6650077761854156,-2.5869977267774047,-0.8941041433582021,-0.2980105995110707,1.7008093904270212,3,left
3.963,0.5318470722442821,1.1219784158395179,0.4680074486107912,-1.3795518778624416,2.669377502669768,-2.5903649619157045,-0.8940600022557508,-0.30241374328887083,1.6978443593968602,3,left
3.964,0.5450483878649639,1.1566778917669671,0.45507922389252947,-1.383020901055177,2.666645591152845,-2.588267062003717,-0.8941603588178776,-0.299692546906137,1.6998021306475937,3,left
3.969,0.5508602036508221,1.1943718263164909,0.4402719574191538,-1.3816350857422477,2.668392046730056,-2.5896328482425295,-0.8940141600008922,-0.2978973668774236,1.7007293450361718,3,left
3.97,0.5535719980100238,1.231903596256157,0.4259559393182878,-1.3810911430143067,2.6660916295027075,-2.5877662732072757,-0.8942245976634837,-0.30676990348400535,1.6952683186441144,3,left
3.9730000000000003,0.558720386852715,1.2687595738458597,0.415423459689399,-1.3830985126828814,2.6703958260248206,-2.591285227860028,-0.8939358958228841,-0.2900752371919,1.7057276369075003,3,left
3.975,0.566795270182268,1.302476886488534,0.4110884142149411,-1.380280603543099,2.6637510321685394,-2.585862718486696,-0.8942698512525293,-0.3115993053307462,1.6921773497136479,3,left
3.978,0.5738502858388908,1.3320594101511478,0.4098333231853001,-1.3830498806857388,2.671131058100166,-2.5918725978726167,-0.8940068209361958,-0.29359198731622316,1.703541231426981,3,left
3.978,0.5835854142421848,1.3573311910162578,0.40726507836454506,-1.381446321431972,2.666866473681515,-2.5884035877112272,-0.8939893690901868,-0.29413906208844887,1.7031535978999695,3,left
3.983,0.5995063857040788,1.3741921386318217,0.399478977130464,-1.3805887745929502,2.662548494659532,-2.584899938979049,-0.8945560617948098,-0.32831754712642447,1.681697290413937,3,left
3.984,0.6154494600804141,1.384293730938866,0.3874636948881719,-1.3850235136363696,2.680624192566804,-2.59956646738269,-0.8931991962638075,-0.2442226990621923,1.7345513965390384,3,left
3.988,0.6388914511345607,1.3824935224109622,0.374970122763466,-1.3767631019735929,2.6471349184431494,-2.572402929956411,-0.8954347427800504,-0.3836918105169658,1.6468708607783022,3,left
3.989,0.6588382660250691,1.3723218774382513,0.36788153526867373,-1.3873290945056427,2.6902006524190045,-2.607321732414462,-0.8924920078658981,-0.19971623563751595,1.762540073577615,3,left
3.9930000000000003,0.6636095898763281,1.3698489956254811,0.36716905082259976,-1.378524139282872,2.6542082764614046,-2.578154604247357,-0.8801072894351322,0.572413207387525,2.2479577804704136,3,left
3.9939999999999998,0.6928140490561068,1.3471463518702391,0.3626668108367602,-1.3788258172152599,2.6551469468737823,-2.578880930687818,-0.8771674293617302,0.7563999681652558,2.3636359039075567,3,left
3.9939999999999998,0.7381537452328364,1.30314194621111,0.3601588763941471,-1.3953606623258525,2.723990625368149,-2.6347483222167853,-0.8793971115574536,0.6169122522910107,2.2759367319049417,3,left
3.997,0.7716527744867214,1.2588010609685314,0.36570578714638496,-1.3546613074571092,2.554766206786253,-2.497492946117038,-0.8780488175441246,0.701025527719446,2.328819033711036,3,left
3.998,0.8241904903294075,1.1828960080502018,0.37175291435097213,-1.422151757430346,2.8354038804253823,-2.7250579238705326,-0.8786057178576798,0.6668397083157596,2.3073290180776045,3,left
4.003,0.8647495011108204,1.12570264576914,0.3773603259626874,-1.3331322656988913,2.4651764493483297,-2.4249026359686963,-0.8785959010061503,0.6662766954573491,2.3069700288355883,3,left
4.004,0.8749198388533997,1.1109820656436318,0.3792411754191909,-0.9597692930385561,0.9115570446078507,-1.1646950342308195,-0.8783326795135185,0.6843322599314239,2.3183279736790707,3,left
4.005,0.9141896646304619,1.048758285055778,0.38310678899598627,-0.8707470697495412,0.5412191566756207,-0.8645450017568838,-0.8786533902684022,0.6627284283694249,2.3047397137685737,3,left
4.007,0.9685917404253225,0.9594443124500196,0.3935225151134387,-0.9382303248518391,0.8219890908396463,-1.0921142346523314,-0.8783953515955022,0.6795164138828846,2.315296908473937,3,left
4.008,1.0116193497815797,0.8847331651848924,0.3991059227656067,-0.8975680463433321,0.6527649516230776,-0.9548214841533238,-0.8785596757750864,0.6705766451933067,2.309680713135295,3,left
4.013,1.0567195117444377,0.8016314514793689,0.3991071486768578,-0.9140189692555072,0.721305342095794,-1.0107803290975754,-0.8784631219854167,0.672354898251254,2.3107847224022526,3,left
4.013,1.0975122607735375,0.720775088918078,0.3981713114274479,-0.9144516996241925,0.7229587906965503,-1.011358378841234,-0.8785340854214883,0.6752378237704689,2.312621269878692,3,left
4.0169999999999995,1.1344145005775248,0.6440523784696165,0.3946191829743265,-0.9054984868000231,0.6858917555958088,-0.9823650209384673,-0.878466384772725,0.6704954065656881,2.309610226242938,3,left
4.018,1.16706825905796,0.5668612481703723,0.3867627572425357,-0.9161625899495389,0.7300898493578283,-1.0171592874641027,-0.8785110262413187,0.6748593342089062,2.312377410885613,3,left
4.022,1.189530455637629,0.4957480789328996,0.3782430510069458,-0.9079518129543025,0.695996429621782,-0.9899594116655691,-0.8785535208218314,0.6722591837821826,2.3107425794854324,3,left
4.022,1.2046055618516842,0.4320570320566858,0.3750884473713685,-0.9120903780139853,0.7133660318870763,-1.0049404407409608,-0.8783374457407501,0.6725109764355433,2.310857990288177,3,left
4.027,1.216108058678952,0.37276421918760994,0.37533689404022996,-0.9118223253851306,0.7117806389466654,-1.0007807535822777,-0.8787898788418991,0.6745344224897769,2.3122286733095936,3,left
4.0280000000000005,1.2259416250136197,0.3124909304420257,0.3716784578550314,-0.909409974639795,0.7025476959380632,-0.9982394554899017,-0.8781246919645118,0.6708934906757263,2.3097922123728507,3,left
4.032,1.2395470905197334,0.252717910201647,0.3620747895296962,-0.9129521442710495,0.7163011810289228,-1.0033259720269248,-0.8788322059221623,0.6748905595545336,2.3124628096137583,3,left
4.033,1.2592832883939113,0.19371866171651897,0.3499765004685359,-0.9098461532718751,0.7041629126980791,-0.9983182644790165,-0.8784258581737054,0.6723981900066694,2.3108038892766087,3,left
4.038,1.2770758432342417,0.1364589357000831,0.33320951838380075,-0.9110958243542666,0.7093669313939561,-1.002580494289299,-0.8780625764689615,0.6711559580072275,2.309946424777814,3,left
4.039,1.2922050957352351,0.08360089870584451,0.3118352386128985,-0.912818489656061,0.715084789911804,-0.9982478246039328,-0.8796318833306602,0.6780756285281864,2.3146373769071307,3,left
4.042,1.3072761701303302,0.036554231593463056,0.2959862703622004,-0.9076229759173795,0.6967851759210859,-1.0039074248448765,-0.8767245682913871,0.6649756838467863,2.305767463554007,3,left
4.043,1.323475344675174,-0.0027903919139499146,0.2878583190882159,-0.9156763404703787,0.7253397070465265,-0.9964803231030697,-0.8804580257486196,0.6818562176909483,2.3171966780813777,3,left
4.047,1.3409249952519275,-0.03560922702467945,0.28019409542395296,-0.9070331475160678,0.6946638927593936,-1.0042085585813738,-0.8773396835001521,0.667739929718783,2.307636771935681,3,left
4.047,1.3576800734550063,-0.06205015393008172,0.27099213535869227,-0.9121194420403214,0.7127617795837027,-1.000041841043901,-0.8774268294367638,0.6682136674559696,2.307960922597716,3,left
4.051,1.3734943798819226,-0.07973368962519686,0.2671413384081087,-0.916053570953235,0.7265218553708015,-0.9949705700916043,-0.8833677581714157,0.6948282927156895,2.325981302957083,3,left
4.052,1.3837288275340862,-0.08984034902286643,0.26903800618142815,-0.8980933075152719,0.6632809352471484,-1.0147433534938286,-0.868758621657268,0.6293063647194139,2.2816063221018648,3,left
4.056,1.3918285499867973,-0.09361167763744607,0.2678764760575556,-0.9315406573168507,0.7811147600273594,-0.9785113644426604,-0.8929879349669834,0.7379701665891167,2.3552111774434277,3,left
4.056,1.3982545661017898,-0.09075508346653643,0.264865159817096,-0.888553271932049,0.6296756128779781,-1.0249373389523093,-0.8610215442119981,0.5946441604380958,2.2581125637794273,3,left
4.061,1.4003595463367788,-0.08948555201880906,0.26470450757933056,-0.9244682263803117,0.7561739567004835,-0.9862176448457294,-0.726884330888448,-0.006849978786982347,1.8506944079493513,3,left
4.063,1.4079929733311431,-0.08953755083525529,0.2684550599201968,-0.9234157125540782,0.7525146565617707,-0.9871149647514156,-0.6948968070633692,-0.15015647766927115,1.7535697807251682,3,left
4.063,1.4139088653791045,-0.08566290236194438,0.27309017977717276,-0.855165839018998,0.5120382447453471,-1.0614414613968848,-0.7191590631981737,-0.04151742152900435,1.8272189144267377,3,left
4.066,1.4158034136283897,-0.08222467247307552,0.2701675742670238,-1.0230402383410095,1.1034173769013496,-0.8789321322862578,-0.7045229255303427,-0.10703448318904836,1.7827974931975188,3,left
4.066,1.4266241286587018,-0.06968711838462924,0.2644290597359086,-0.7446289713996804,0.12275378936418524,-1.181497301787966,-0.71046160341395,-0.08037642975165804,1.8008423231933992,3,left
4.071000000000001,1.4347612997606252,-0.0562824223492696,0.26485791949960935,-1.1119076225390647,1.416322083243229,-0.7824163251414823,-0.7106027577157649,-0.08001389115113772,1.8011925721477138,3,left
