time,gFx,gFy,gFz,ax,ay,az,wx,wy,wz,subject_number,foot
7.785,-0.11367721570817882,0.9643103585483166,-0.28753271396082025,-2.657062716404851,-0.7536254423278994,-0.8381088147728151,-0.12484306267843903,-0.10089483254292617,-0.5065431450696627,3,right
7.785,-0.08722465212428623,0.9602677896182837,-0.3028534176583366,-2.6593921192484675,-0.7608184980950414,-0.8459774022224084,-0.12490601181323317,-0.10109829399015538,-0.5061440626875657,3,right
7.79,-0.05922383126625031,0.9595215863788433,-0.31976319903026534,-2.6553543183772463,-0.7483628195231606,-0.8323510893630932,-0.12493825569897614,-0.1018212224189218,-0.5060307309619954,3,right
7.791,-0.030327191102557258,0.9585543546230548,-0.33447672089612823,-2.6587294712554774,-0.7597531902444512,-0.8448003555071765,-0.1248298626216626,-0.10005540230329257,-0.5065094809333233,3,right
7.794,-0.0032728111256829203,0.9560542629354374,-0.3451843393817545,-2.6566892161908973,-0.7522762525729749,-0.83663477564567,-0.12498349586227649,-0.10266319033583644,-0.5058463789686505,3,right
7.795,0.02019501560673204,0.9551934241703681,-0.3549500490638688,-2.658205419425581,-0.7559933778201712,-0.8407129646644991,-0.12483043062661281,-0.09991831766063737,-0.5064854793852026,3,right
7.8,0.04435078204757412,0.9545842041535348,-0.35878036595402557,-2.6556074119878206,-0.7541255968417828,-0.8385954164752651,-0.12491896036887644,-0.10150475295389395,-0.5061155064052747,3,right
7.801,0.06698117341382753,0.9534122079080499,-0.3576285495193951,-2.660717568938728,-0.7563544304486663,-0.8411971135821557,-0.12497163243545392,-0.10279420827500949,-0.5059467798076558,3,right
7.805,0.08725403683538425,0.952428676567971,-0.3543123352570129,-2.652901982028127,-0.752555466991742,-0.8367958418774302,-0.1247105751004991,-0.09704965149963188,-0.506879588458317,3,right
7.806,0.10557192904424881,0.951074892743672,-0.34545225096530313,-2.6614883806838203,-0.7572341584594651,-0.8421777951369833,-0.1251961623244085,-0.10770822549118304,-0.5051400719370163,3,right
7.809,0.11666743947035242,0.9495042295276553,-0.3344651269932729,-2.6565301799711323,-0.7545369728598745,-0.839074543919839,-0.12457468690630676,-0.09402830930325672,-0.5073611745059932,3,right
7.809,0.12494455805375544,0.9492943913898365,-0.3231931418272387,-2.651689739122401,-0.7508195901112342,-0.8348730334962462,-0.12509251929737436,-0.10544642276701022,-0.505512645219244,3,right
7.814,0.12879760036795895,0.9489786574050303,-0.31169213370364995,-2.6721398664331,-0.7652876443984002,-0.8512872457041314,-0.12507626251938528,-0.10512828822639927,-0.5055783032486656,3,right
7.815,0.12543703743467988,0.948230117451798,-0.300564198759371,-2.634252145606636,-0.7385446189166864,-0.8209426964427651,-0.12409889500415437,-0.08339333002633253,-0.5090360867397321,3,right
7.819,0.12163236807255583,0.9472044336337351,-0.2876605950805218,-2.682947901537939,-0.7730013005882446,-0.8600362124380957,-0.1265025198564338,-0.1368232184106287,-0.5005256695278952,3,right
7.821000000000001,0.11051334775638198,0.943930050045708,-0.2700968844928796,-2.642274085305168,-0.744179925478273,-0.8273370598284628,-0.12251777075237384,-0.04823322995117059,-0.5146349165980089,3,right
7.8229999999999995,0.09745260316776241,0.942112661431395,-0.2547297647888471,-2.643312779861817,-0.7448193159106189,-0.8280709144052995,-0.12777264240428915,-0.16508241374903482,-0.4960289597403162,3,right
7.824,0.09221138411901905,0.9419465150333626,-0.25042589192794595,-2.7211297835536215,-0.8003871539201604,-0.8910846338656551,-0.14982780162639686,-0.6555176011054046,-0.4179693771918245,3,right
7.825,0.07984535406282224,0.9410159937666102,-0.23794789700487526,-2.5299157055851653,-0.6639072894872325,-0.7363069220716831,-0.1550811432198392,-0.7723663969265404,-0.3993694195821035,3,right
7.827999999999999,0.05915306399976279,0.9401514428626527,-0.21173250021466533,-2.84695745210597,-0.8902168034249932,-0.9929618664576767,-0.1510985117623261,-0.6837783458097753,-0.4134692467493183,3,right
7.829,0.04743247610276821,0.9387340652701912,-0.19905372083539646,-2.4287709292348127,-0.5916713123852542,-0.6543817087896506,-0.15350112901940882,-0.73720301855533,-0.4049667358480762,3,right
7.83,0.043553324903759474,0.9376092986763671,-0.19607057965159475,-0.6732327827914589,0.6617522395771627,0.7670582328080551,-0.15252164555645567,-0.7154777495939386,-0.408424660985876,3,right
7.832999999999999,0.03177835837211452,0.9371670264433103,-0.18651437368919255,-0.25503186365812097,0.9603650931688577,1.1057204886269092,-0.15251219640438485,-0.7151461707563672,-0.4084757249485077,3,right
7.835,0.01773882072984466,0.9399682849630274,-0.17950237477527708,-0.5721002094996589,0.7339555253726576,0.8489469130403686,-0.15301846268514774,-0.7265776332330987,-0.4066595611433882,3,right
7.8389999999999995,0.010911371981931137,0.9447531485033607,-0.17852886029714263,-0.38085301002046934,0.8705039142572515,1.0037964167374758,-0.1524107598805877,-0.7128918284705614,-0.4088341433502023,3,right
7.84,0.003229947629519185,0.9476294405321672,-0.17982478011963826,-0.45869884305728137,0.8149794171168454,0.9408596855877688,-0.15288621645259037,-0.7235391930689026,-0.4071412390354603,3,right
7.845,-0.004297995687592943,0.9527763719870455,-0.18159090978741532,-0.45972928448399564,0.8141142182176769,0.9398147743255583,-0.15262298307466668,-0.7178313781257535,-0.4080528389714358,3,right
7.846,-0.009134660555249152,0.9587727763382919,-0.18099879679987108,-0.41902424578630104,0.8433654854916688,0.9730763371441056,-0.15269926627937278,-0.719056984325304,-0.4078472276222807,3,right
7.848,-0.01300085225985512,0.9623755209215499,-0.18099798198970032,-0.4678048764025384,0.8083481491195263,0.9332773530114894,-0.1527376898118647,-0.7207224956868006,-0.4076005237580347,3,right
7.848,-0.013955199547479116,0.9670045438546142,-0.18214709994757253,-0.42978065389461606,0.8355792815426148,0.9641963626412695,-0.15265612200838452,-0.7179134241185599,-0.4080249430700884,3,right
7.853,-0.016605265484753398,0.9723868550202955,-0.18193936509567749,-0.45038805612038235,0.8210253496827392,0.9477656231391454,-0.15273781284318538,-0.7205233391185353,-0.4076276779133384,3,right
7.854,-0.0237235534772944,0.977336432768791,-0.1830559848375979,-0.44543691753274206,0.8240434408538257,0.950949827542958,-0.15266316566897778,-0.7188704387195729,-0.4078908856670356,3,right
7.858,-0.02975919359654676,0.9816408060102407,-0.18636023989241535,-0.44044471937796814,0.8284994843204836,0.9564135951918112,-0.1527500439679565,-0.719330465580691,-0.40778404248988487,3,right
7.859,-0.03404163030967268,0.9834722462379478,-0.18842363098188125,-0.4493114396341533,0.8210741107770794,0.9474895544559676,-0.15262573691674713,-0.7199298759055638,-0.40776555132723447,3,right
7.8629999999999995,-0.04026406857749352,0.9833278500662389,-0.18957624443710858,-0.440916034410136,0.8279411880395227,0.9556782307235011,-0.15279339694117589,-0.7186403380996319,-0.4078560147499252,3,right
7.865,-0.045554915806946594,0.9836558444097561,-0.19114748830306802,-0.4468411197718597,0.8237182368672593,0.9508928423530852,-0.15261798807117843,-0.7200886170066669,-0.407747892399811,3,right
7.867000000000001,-0.05086746462971925,0.9848804783120972,-0.1905173351595862,-0.4434380927641227,0.8245289229790953,0.9510679994805318,-0.15271409229669253,-0.7191355356481791,-0.40782884365356564,3,right
7.867999999999999,-0.058972346366059726,0.9862631909782853,-0.18850139973918012,-0.4453058953009553,0.8268957322472492,0.9554525715273772,-0.15282289533451815,-0.7188899169836896,-0.4078070248498793,3,right
7.872999999999999,-0.0627742469111589,0.9869049229016429,-0.1863238640582347,-0.44393477760997346,0.8223541544546307,0.9477655547756619,-0.152389239632315,-0.7209076016297842,-0.40775261951788544,3,right
7.872999999999999,-0.06430634925839102,0.9854344727962004,-0.1832965250967994,-0.4451328420195756,0.8273838610701607,0.9561733950717628,-0.1531857553668714,-0.7169956516800837,-0.40788053000633406,3,right
7.877999999999999,-0.06716448779019799,0.984591167938532,-0.18212266404359034,-0.44485675498462224,0.8241805063468368,0.9509786394446985,-0.1521647580701619,-0.7220569421018577,-0.4077102734162258,3,right
7.879,-0.06648510694158541,0.9842372489798504,-0.18255265656767503,-0.44255732450247076,0.8228911213995278,0.948168960184348,-0.1530163676886993,-0.7178160903106987,-0.40785478534853403,3,right
7.882999999999999,-0.06370897459436389,0.9790916189198573,-0.1828390810038913,-0.4492465479953547,0.8309435016139171,0.9631957645258798,-0.15299615698263513,-0.7179901319087678,-0.4078416324554084,3,right
7.8839999999999995,-0.05753871367727258,0.9735785113652775,-0.1839331496933736,-0.43745017172468925,0.8155754658239538,0.9348361928228275,-0.1513631460757593,-0.7258821267236519,-0.40759657405447763,3,right
7.888999999999999,-0.04626467771174455,0.9699989993313755,-0.18550916438174714,-0.4524609034925848,0.8354062442905468,0.9713609035151087,-0.15537339588222301,-0.7064148027945545,-0.4082096168001438,3,right
7.89,-0.03218431991966911,0.9632634601180364,-0.18504738911858973,-0.439984090132989,0.8188111970661998,0.9408250081762853,-0.14872529267293683,-0.7387104293404401,-0.407190604520304,3,right
7.893,-0.022035202258145793,0.958802349718943,-0.18359824893043541,-0.44011059815857057,0.8194114866700909,0.9418196886891864,-0.15749377799878203,-0.696111336569459,-0.4085345937406436,3,right
7.893,-0.01920109336030794,0.958752050407232,-0.18492420169087748,-0.4645951545626914,0.8505587339917489,0.9994906266822504,-0.19430625366825888,-0.5173863351632138,-0.41416593165014315,3,right
7.894,-0.01356481622956398,0.9571461688108367,-0.18714901228966135,-0.4046630888353373,0.7738249403616895,0.8575472217381448,-0.20307463728746286,-0.47479472190372335,-0.4155082329409361,3,right
7.897,-0.008442711292403558,0.956195642180082,-0.19019752980495322,-0.5039702418518496,0.9010984087599623,1.0929431121931592,-0.1964266440204656,-0.5070822557167397,-0.4144910475241611,3,right
7.898,-0.009406143962592917,0.9575481595939976,-0.1938172878322894,-0.3729884415311102,0.7332223532986948,0.7824568941363539,-0.20043693602440676,-0.4876118554011879,-0.41510478259724687,3,right
7.898,-0.009910451770449982,0.9576996045543271,-0.19665441265120698,0.17708005840832225,0.028771628019811257,-0.5206634822927426,-0.19880355939192718,-0.49553069040727216,-0.41485367105282667,3,right
7.902,-0.01281913523410752,0.9560748585477371,-0.1999904514731431,0.3080880278782648,-0.1390852585813491,-0.8311313354378179,-0.19878413511393805,-0.4956469800682009,-0.4148535453471247,3,right
7.903,-0.01823522718915767,0.9560215533949206,-0.2020029718100684,0.20875595633740016,-0.011831790128700448,-0.5957428301189751,-0.1996346175358808,-0.4914889343392702,-0.4149793764660398,3,right
7.907,-0.021090811684399823,0.9587049414551192,-0.20495885297976238,0.26866522921811004,-0.08857609097362945,-0.7377380125230053,-0.19861474221495248,-0.4964677653269006,-0.4148277251529865,3,right
7.9079999999999995,-0.02402565605439583,0.9593740015036071,-0.2057562357363612,0.2442993801546717,-0.05735464892600822,-0.6799100004438156,-0.1994107747231558,-0.4925913985821803,-0.41494760207882364,3,right
7.9110000000000005,-0.02919867233137865,0.95970104939554,-0.20253873065957534,0.24393401927092706,-0.05691039100853498,-0.6791923810972482,-0.1989761535268931,-0.4946798840782812,-0.4148772333816412,3,right
7.912000000000001,-0.03445834958396371,0.962992640296417,-0.20180590571969448,0.2567400402772565,-0.07328460876526505,-0.7093797869625418,-0.19908806317601968,-0.49420618263898686,-0.4149068596693406,3,right
7.916,-0.03947574548898952,0.964664513793653,-0.20244065271790065,0.24141804795611116,-0.053670122597079505,-0.6731411933432889,-0.19917881657481032,-0.4936461051258684,-0.4148991560232484,3,right
7.917000000000001,-0.04452324503145691,0.9663689313611447,-0.2066248977923638,0.25331797324715344,-0.06895153174481723,-0.7014904102671461,-0.19900997239254797,-0.49461206166262045,-0.41489984910000177,3,right
7.922000000000001,-0.04793096683777354,0.9695770328410706,-0.21142273264459507,0.2469668976344876,-0.06069798161004252,-0.685957306099414,-0.1991724018956546,-0.4937070665880536,-0.4149035392654614,3,right
7.922999999999999,-0.049564765376093015,0.9722472856659539,-0.212313939119273,0.24829897534476716,-0.06260883225778986,-0.6899495718915595,-0.19904804094726147,-0.494309876131194,-0.4148843216154754,3,right
7.9270000000000005,-0.05059268509484943,0.975969894879284,-0.2143023771682243,0.2501726374786326,-0.06475645344446256,-0.6933612174258844,-0.19914464242225374,-0.4940563567210166,-0.4149383993573007,3,right
7.928,-0.05038820497943792,0.9805021586889937,-0.21486557466581035,0.24708745819675448,-0.06100638282285875,-0.686871365605719,-0.19904778777327842,-0.49403419714292574,-0.41483376431716246,3,right
7.932,-0.04871167865095537,0.9864689244441401,-0.2154947245499818,0.24985324008182774,-0.06455169984374413,-0.6934331872255088,-0.19916259795784197,-0.49421127127272574,-0.4149853291150263,3,right
7.933,-0.04867354469507767,0.9913078133113196,-0.21661054770956015,0.24825075087745382,-0.06212092315078037,-0.6881086048956588,-0.19904573711875173,-0.49399571599743963,-0.41482459870317945,3,right
7.936,-0.04859655471993579,0.9949783986564813,-0.21506537042504942,0.24848542464178575,-0.06328543131383553,-0.692155289468928,-0.19910453053775684,-0.4941626259382295,-0.41491613414822226,3,right
7.936,-0.04525336269249042,0.9999281262882853,-0.21796244877441573,0.24934258584657595,-0.06309428730506147,-0.6889784776396255,-0.1991984438437894,-0.4940965936295367,-0.41500165790654364,3,right
7.94,-0.042870299329848385,1.0018714726954994,-0.22067497806675807,0.24798699156238588,-0.06273236993703316,-0.6913184298484365,-0.19885820150072775,-0.49404201303701384,-0.41463819662517687,3,right
7.941,-0.043963844928465015,1.0001714569332782,-0.21605054898369155,0.2490664961174735,-0.06332081262408634,-0.6906683281398951,-0.19947641010089012,-0.4942052294782878,-0.41531028361931854,3,right
7.946000000000001,-0.04740242085727866,0.9957301602144892,-0.21049258439081248,0.2490762076135558,-0.06264856962488095,-0.6879254571166167,-0.19868546825295158,-0.4939817458040026,-0.41444773271278196,3,right
7.947,-0.05197498063933888,0.9933228599158561,-0.20510608776530656,0.24733470861136467,-0.06341471792469447,-0.6959031211839075,-0.1993446211558912,-0.4941739650786702,-0.4151676470409241,3,right
7.95,-0.05846392398829184,0.9951517200819415,-0.19712285612189945,0.25096584512886433,-0.06250787826452675,-0.6820599056070089,-0.1993312439724409,-0.4941470934952699,-0.41514886939355355,3,right
7.9510000000000005,-0.06570341952160147,0.9951156026610636,-0.1855542815368515,0.24615849096581918,-0.0634871734065218,-0.699492151905508,-0.19805973235021168,-0.49385165916368295,-0.41377382659306294,3,right
7.956,-0.07123674003885017,0.9946461434421461,-0.1726377262196926,0.2502332059615628,-0.06274767225775481,-0.6850841784526174,-0.2011796949255673,-0.4946033017613578,-0.4171526778487433,3,right
7.957000000000001,-0.07875468664711663,0.9939304188708001,-0.16510471572091664,0.2500283612465045,-0.06264752594864029,-0.6852497855960673,-0.19600799205955471,-0.4933505891181558,-0.41155058139512535,3,right
7.961,-0.0829146089157502,0.9924811600005455,-0.16353420884810238,0.24251007168301825,-0.06437740445814677,-0.7133193700908822,-0.20282939462784857,-0.4950030679034879,-0.4189397903429472,3,right
7.961,-0.08328169605360095,0.9930706256994136,-0.1637261831495173,0.26112611341630987,-0.06029902555135801,-0.6446529841985399,-0.23147031985821692,-0.5018984072344924,-0.44996000067951764,3,right
7.962000000000001,-0.09135327625332162,0.9939992545338516,-0.16412813763618234,0.2302078074574946,-0.06699616360157608,-0.7583812079598342,-0.23829275270613806,-0.5035455054986733,-0.4573500708438685,3,right
7.9670000000000005,-0.0970708942133836,0.994688819517592,-0.16479291042610097,0.2710083038177109,-0.05818561757210728,-0.6084206814796471,-0.2331194307856575,-0.5023014763852325,-0.4517461956905542,3,right
7.968,-0.09743064560688552,0.9938109107361747,-0.16441539613447978,0.44219088014232777,-0.02111473814298907,0.021222808246968816,-0.2362407558645127,-0.5030451951773844,-0.45512769237818385,3,right
7.968999999999999,-0.1038944627720991,0.9923461896886315,-0.15985141871394848,0.4829966729604481,-0.012305931164935977,0.17117008995068855,-0.23496925882323322,-0.5027513510552641,-0.4537495559447733,3,right
7.97,-0.10760207109720504,0.9922839483279662,-0.15049468126298343,0.4520607059485394,-0.01898833474388659,0.05748479719742791,-0.23495338986379927,-0.5027350203295482,-0.45373330312866583,3,right
7.971,-0.10866836057793856,0.9904811085512966,-0.1392600504266212,0.4707168268312415,-0.014954765658750407,0.1260553276566724,-0.23561808523397465,-0.5029009480456574,-0.4544529049935436,3,right
7.975,-0.11169142996559575,0.9855498277426878,-0.13037080130935857,0.4631304254087187,-0.01659703028833963,0.09814706048849192,-0.23481916394677205,-0.5027176070788975,-0.45358653390010734,3,right
7.976,-0.10939892279114197,0.9804532593477505,-0.12672374584901422,0.4630139303680221,-0.016622695536652306,0.09777388408012574,-0.23544538397318254,-0.5028375774806604,-0.454267940572189,3,right
7.981,-0.10928990525773044,0.9788562345365658,-0.12815142492193873,0.46700856678797487,-0.015753004874656244,0.1123677639501433,-0.23510146733153492,-0.5028082611657052,-0.45389008389672825,3,right
7.982,-0.11125815033550762,0.9764947785760362,-0.1327025253221559,0.4622227500780457,-0.016799239112512222,0.09488992514085379,-0.23518910606561222,-0.5027636198678737,-0.45399156801012963,3,right
7.983,-0.10776691500955812,0.971927413812489,-0.13702049266502092,0.4659526767616231,-0.01597995185898244,0.10849370729079508,-0.235268994263511,-0.5028353153865343,-0.45407287105344374,3,right
7.9879999999999995,-0.10605328914535254,0.9707024352743776,-0.138471678352368,0.46394363317658527,-0.016420325355477643,0.10115223749793024,-0.23511531981061312,-0.5027986098557022,-0.45390635302653426,3,right
7.989,-0.10582761989956384,0.9704432545512478,-0.13802827137067442,0.46438672139826453,-0.016335922886642075,0.10287288557625916,-0.235275809635872,-0.5027404260111634,-0.45408995344748737,3,right
7.992000000000001,-0.10632056646047691,0.9713732561373667,-0.13796907026325994,0.4649627412945937,-0.016173540025172142,0.10470120325928772,-0.2351417508616629,-0.5029296071227367,-0.4539224470901788,3,right
7.992999999999999,-0.11195236621421305,0.9747125554189783,-0.13885311837975384,0.4639667176039033,-0.01645475210783971,0.10153457334403855,-0.23523990419348217,-0.5026228063937805,-0.4540620258732444,3,right
7.997000000000001,-0.11854303326027946,0.9751579817176171,-0.14118467193156586,0.46492317943213235,-0.01616674261528643,0.10444519058401042,-0.23518013859016046,-0.5029606875139947,-0.45396183390483086,3,right
7.997000000000001,-0.12447338864041152,0.9729308368314101,-0.14473639861007334,0.46427011400750484,-0.016372856811809743,0.10252638064151709,-0.23519175337420078,-0.5027599125226108,-0.4539948936293392,3,right
8.002,-0.1292244880050869,0.9719169754192866,-0.14987415645352037,0.4645221721880256,-0.01631888460832344,0.10345741669044226,-0.23525004098028635,-0.502598570192569,-0.454075709853719,3,right
8.003,-0.13035322517061232,0.9728990630927976,-0.15667357652243136,0.4646609385666993,-0.016168343385140796,0.10307373574731618,-0.23509685594806157,-0.5033294194249258,-0.4538324587871342,3,right
8.006,-0.13117789557534504,0.9747252777181885,-0.16105685610447656,0.464204863734858,-0.016542582742999565,0.1034392914580797,-0.23535120985375663,-0.5019668316136939,-0.454251348248348,3,right
8.007,-0.1316132659636603,0.976000495511718,-0.16478125628917645,0.4648529361025175,-0.015991165230857633,0.10277533895178503,-0.23503783081468116,-0.5037196943117652,-0.453727816557582,3,right
8.012,-0.1291487170888983,0.9766388021302393,-0.1706552976678587,0.46420488639091473,-0.01656978708921277,0.1036406306464111,-0.23529374432297917,-0.5022548736053674,-0.45415867261639387,3,right
8.013,-0.12593929517671526,0.9781340560050836,-0.17432322436788966,0.46457990581496483,-0.016235316945814086,0.10314224159463445,-0.2352918782630882,-0.5022959011321342,-0.4541525588751637,3,right
8.016,-0.12274039992062942,0.9790075270216411,-0.17566068184526124,0.46480775163257193,-0.01596762994585077,0.10236372118691502,-0.23479442587328195,-0.5050863457763907,-0.453320577792241,3,right
8.017000000000001,-0.12058335146253117,0.9752156295264441,-0.17583115995843002,0.46368674077439737,-0.017165962326547234,0.10531954312359254,-0.23600798548232807,-0.4982252569725963,-0.45535547567699763,3,right
8.023,-0.11911581681643753,0.9695124515506439,-0.17536567036872577,0.4657721304583018,-0.014942229533192701,0.09986006833132692,-0.23400031490558357,-0.5096025720850577,-0.45198646156452127,3,right
8.024,-0.11685408222282137,0.9683815320521049,-0.17646850641351194,0.46310191749169083,-0.017795989633659127,0.10689966676843092,-0.23664608617991928,-0.4945951465235146,-0.45642754197290936,3,right
8.026,-0.11718750665040648,0.9669412492719524,-0.17716623740972307,0.4653280843584865,-0.015414194493473006,0.10100885128146522,-0.24775432452716412,-0.4316050840966189,-0.4750729553592016,3,right
8.027000000000001,-0.1192976733023689,0.961699601203437,-0.17762117076398865,0.4652565922202565,-0.015481068788280894,0.10113299214647412,-0.2503984847270653,-0.4165968473772679,-0.4795121221428748,3,right
8.027000000000001,-0.12055546080284388,0.9612625272026896,-0.1825720318703431,0.4610573604249223,-0.020012870780623155,0.11251885771995829,-0.24839385824467322,-0.42797535367184525,-0.4761465877215471,3,right
8.032,-0.1216657500077477,0.96535522840459,-0.19065728589331746,0.47138864363180066,-0.008872117482512123,0.08455872100496045,-0.2496034725556565,-0.42111348800602677,-0.4781772813552945,3,right
8.033,-0.12155514282086852,0.9702493856591728,-0.194695013604012,0.45425771564015877,-0.027344220446529156,0.1309227549398761,-0.24910973859137278,-0.42390331122100045,-0.47734872340492734,3,right
8.036,-0.12124002217666353,0.9742016834904613,-0.1943610889994618,0.4768528476843552,-0.0029797448958128,0.06975778385621181,-0.24910621859288704,-0.42394720547441306,-0.47734211919320213,3,right
8.037,-0.12040368692129566,0.9757593883917962,-0.19477221864233624,0.5716471067463162,0.09927974508745567,-0.18705304922013263,-0.24935942241106024,-0.42247704985157764,-0.4777681745883897,3,right
8.037,-0.11856340200418257,0.979736539432035,-0.19302325679511012,0.5942419694028525,0.12364413058561745,-0.24823475575966572,-0.2490550881118933,-0.4242367545917979,-0.47725629789659413,3,right
8.042,-0.11648703113709144,0.982096765175186,-0.18553894010511215,0.5771131872682626,0.10517252394853799,-0.20184581035657811,-0.24929375486126687,-0.42286837434172375,-0.47765739333780843,3,right
8.043,-0.1132509763441591,0.9810375855272129,-0.17803249953182873,0.5874380130147655,0.11631190140529835,-0.2298231632753117,-0.2491599561804856,-0.4235998925069233,-0.47743354656839876,3,right
8.046,-0.11147968213074282,0.9805330339895472,-0.17558754966763904,0.5832513555834773,0.11178268904003427,-0.2184476692403471,-0.24920251189424744,-0.4234476547392518,-0.47750246038382094,3,right
8.047,-0.11078958602051486,0.9781781327242555,-0.17707024945299174,0.5831618545745174,0.11171218880306039,-0.21826801633843487,-0.2492147067879998,-0.423224798960861,-0.4775272945960704,3,right
8.05,-0.11217102944557582,0.9785839453608439,-0.17883033661927644,0.5854065995685335,0.11409762479330932,-0.22426500308641995,-0.24918241088232518,-0.42359657086109515,-0.47746772400280035,3,right
8.051,-0.1171800493353701,0.9817533041938717,-0.18067152503424988,0.5827269342659367,0.11124218537896521,-0.21708647968421238,-0.24921653991365036,-0.42325259836049106,-0.47752928822766844,3,right
8.06,-0.11946540179600615,0.9825536093956784,-0.18115107304566722,0.5847996004504632,0.11346302851600017,-0.22266755368237753,-0.24917893041420158,-0.42346483107862914,-0.47746617937201724,3,right
8.061,-0.12124275553656909,0.9840083533099374,-0.17760797854724797,0.5837254240830335,0.11227446666728247,-0.2196889522047788,-0.24923556298425742,-0.42342196246872554,-0.4775533567385822,3,right
8.062000000000001,-0.12535008021768496,0.98558922841181,-0.17309956559787698,0.5838690070356352,0.11252500714164834,-0.22029644610566013,-0.24914346170068122,-0.4233078925903698,-0.4774167961548754,3,right
8.062000000000001,-0.12533132694294385,0.9876047144809289,-0.1650147620433145,0.5843514095523825,0.11288088922889979,-0.22122824893405618,-0.24927194672998432,-0.4235288545514223,-0.47760554874020605,3,right
8.067,-0.12230488890756405,0.9903521476034519,-0.1547575830849492,0.5836117114496507,0.11228462346398321,-0.21968376376155407,-0.24913660112242628,-0.4232838345284282,-0.477407066063404,3,right
8.068,-0.12015986378025048,0.9903281073110005,-0.15113671149237745,0.5842729071912566,0.1128372133047985,-0.22110916520498874,-0.24921224946799436,-0.4234403669113837,-0.4775174465410414,3,right
8.071,-0.11626252354241495,0.9899285700912499,-0.1541051940966869,0.58395490790015,0.11249266036594577,-0.22024415227924987,-0.24929025171079258,-0.42350124175926834,-0.47763411823384017,3,right
8.071,-0.10953642601958097,0.9887279010178066,-0.1608660159021678,0.583752892515233,0.11257295989051444,-0.22037592762654903,-0.24896970203974403,-0.4231135637906517,-0.4771585659512339,3,right
8.08,-0.10412974724907843,0.9865560495977603,-0.16703406213637007,0.5845334119507852,0.11273360793787182,-0.22093920340510798,-0.24956052516600788,-0.42385444031620345,-0.47803433293950814,3,right
8.081,-0.09934987931700878,0.9859338202176415,-0.1721957483994469,0.5832927697237722,0.11241154482685889,-0.2198918961799496,-0.24880253543629924,-0.42289814781026125,-0.4769109452700168,3,right
8.081,-0.09023658836413997,0.9826350007136962,-0.1781298606598583,0.5846293631990147,0.11277019029351679,-0.2210468117179263,-0.249435293380921,-0.423698591653078,-0.4778486663101555,3,right
8.081,-0.07926904068534088,0.979571100485336,-0.18284032472219014,0.5838348982735757,0.11253876878912425,-0.22031881600893247,-0.24941882356281322,-0.4236690856163805,-0.4778245150349409,3,right
8.085,-0.06838889411145954,0.9806116525609812,-0.18599637501727778,0.583260479331807,0.11245922587859064,-0.2199922061095746,-0.24820949944475915,-0.4221683198221769,-0.47603149856514315,3,right
8.085,-0.0564425350680527,0.9816888657760028,-0.18980767958495331,0.5859547324365855,0.11300360862922626,-0.22191390064930266,-0.251181715886691,-0.42586645818383584,-0.4804379903274244,3,right
8.09,-0.04506264594198392,0.9826103923185892,-0.19844362730966944,0.5809261160507894,0.11195869675891551,-0.21826157452761125,-0.24625289563483888,-0.4197320862043684,-0.4731307814592233,3,right
8.09,-0.037995484054099096,0.9827422969313758,-0.20420016501450797,0.587389713006149,0.11330824762220609,-0.22297075663460827,-0.25275526073573995,-0.42782390252331326,-0.48277085315062124,3,right
8.095,-0.03654789522832365,0.9830841475167638,-0.20721304751532285,0.5819916924954378,0.11217853338486192,-0.2190320364045772,-0.2800437457468016,-0.46177607746929716,-0.5232276533611375,3,right
8.095,-0.03368543039174236,0.984274022904265,-0.21609047323015562,0.5821467622340191,0.11222106468083007,-0.21916778985068655,-0.2865496677651302,-0.4698680836733669,-0.5328730682980309,3,right
8.096,-0.03020148489618581,0.9829450394743733,-0.22112902490950365,0.5924079980604342,0.11433560652159297,-0.22658077135805035,-0.2816153698926488,-0.4637329460083668,-0.5255576454083083,3,right
8.1,-0.028374569514174455,0.9780625395835812,-0.22260068383493253,0.5671788337831383,0.10912461010576283,-0.2083279544705255,-0.28459189358796055,-0.46743299062265653,-0.5299705561210469,3,right
8.101,-0.023164827440146814,0.9707346459173892,-0.22597181832549101,0.6090092059921779,0.11776773933606574,-0.23859816679952212,-0.28338343757661744,-0.4659288153067156,-0.5281789498192917,3,right
8.105,-0.020330159030518727,0.9669992179140787,-0.2274313828723798,0.5538396320516336,0.10636798109848083,-0.19867479492084716,-0.2833571517326765,-0.46590391221030536,-0.5281398954018355,3,right
8.106,-0.020031885340292238,0.9666138651834004,-0.22656142830302006,0.32225655102895256,0.05853099092484438,-0.031121433031271635,-0.2840103474840163,-0.4666999445749995,-0.5291084872846646,3,right
8.107000000000001,-0.016365609986061118,0.964568238311987,-0.22643464609065464,0.26710054439224507,0.04713474310771498,0.008788836394762328,-0.2832240567776092,-0.4657453115598793,-0.5279424882148092,3,right
8.111,-0.012421839251301438,0.9626701219420405,-0.23313195624195182,0.30891041426467625,0.05577314612758655,-0.021462806902327637,-0.28384185342715357,-0.4664905481928032,-0.5288586855226494,3,right
8.112,-0.008900069329687106,0.9609960132603237,-0.23973940545932157,0.2836962937328267,0.05056399277581572,-0.003220158658437819,-0.28351158895810485,-0.466089747994899,-0.5283689264530733,3,right
8.113999999999999,-0.004349414454190032,0.9612834454580598,-0.24254765365152345,0.2939636973491846,0.05268435544335063,-0.01064808446894095,-0.28356236733345325,-0.4661727710789659,-0.5284439775977148,3,right
8.115,0.0017365741069085602,0.9640433163037322,-0.2499556425109488,0.2940770875721467,0.052709834563073904,-0.010730252496990066,-0.2837181390992093,-0.46630256270435677,-0.5286756726603836,3,right
8.119,0.007478238009046447,0.9652925842105374,-0.2553722198221501,0.2887615721401581,0.05160819492061271,-0.006885521243768622,-0.28344919733167095,-0.4660782341104829,-0.5282756460540177,3,right
8.121,0.011172646862873722,0.966011644953945,-0.2543135089333063,0.29511459893587383,0.052925260842978585,-0.01147967637963275,-0.28373685732331466,-0.46630080961582926,-0.5287037245714501,3,right
8.124,0.014222969885348083,0.9666595756466528,-0.25272928447614296,0.2901864551243609,0.05190277535988093,-0.007916785844463953,-0.28352496505179026,-0.4661450746960273,-0.5283882951788796,3,right
8.125,0.01654681220682666,0.9670760954460982,-0.2524904236947575,0.29285407046873724,0.052455674356610416,-0.009845534126882445,-0.2835642226962449,-0.4661948096372295,-0.5284465005430039,3,right
8.13,0.021188871384504607,0.9686874981304575,-0.2563060684129448,0.29215630190649877,0.05231536172625035,-0.00933841910351944,-0.2837862663018946,-0.4662710435386643,-0.5287780461366018,3,right
8.13,0.02919803019265906,0.9713622751454069,-0.2628183913751472,0.29169309395981424,0.0522075712424038,-0.009011001026010301,-0.28325661225859855,-0.46606929394525676,-0.5279873986708001,3,right
8.134,0.03408334096598828,0.977544443101802,-0.2684055043930589,0.2924971077893201,0.052394400890648465,-0.009579222693020247,-0.2840416665233285,-0.4663638454782015,-0.5291593714295322,3,right
8.135,0.035862478298765016,0.9854258234914711,-0.2740301007293169,0.29186930339559936,0.052239320197960376,-0.009141659454115741,-0.28321154257766146,-0.46605835731053835,-0.5279200204212521,3,right
8.139,0.041060966609777455,0.9908145219295281,-0.27778932438902004,0.2922220526594008,0.052332405765610567,-0.00938354988197828,-0.2836913843039086,-0.46623494438273994,-0.5286364524592624,3,right
8.139,0.047962358310449864,0.9970108647732846,-0.27711110080756596,0.2918764519905169,0.052261207599893805,-0.009133409008037333,-0.28408948319475186,-0.4663683653165832,-0.5292308620832045,3,right
8.142999999999999,0.05195826896821221,1.0027469050259488,-0.2724943488185272,0.29267273128536997,0.05238817583311475,-0.009734244923869498,-0.28232678675716616,-0.4657601489324939,-0.526598867129046,3,right
8.145,0.05276262243613731,1.0052666892690638,-0.2682744782520423,0.29104102584810476,0.052136828060148896,-0.008497145533216748,-0.28559704449197104,-0.46688926768025807,-0.5314820076957902,3,right
8.149,0.048815280825410076,1.0089683249641417,-0.26918496080213394,0.29351888360926603,0.05252082610399966,-0.010374283453803148,-0.2813987754645217,-0.4654410231126584,-0.5252130275822964,3,right
8.15,0.043353675963375506,1.0124502728010825,-0.2722480297655413,0.2908195134320947,0.052099502093944663,-0.008331293294014162,-0.2849036714819161,-0.46664932640765255,-0.5304468340704714,3,right
8.152999999999999,0.03937405882029797,1.0129769142033025,-0.2754964875518509,0.2923785779663397,0.052342817648839385,-0.00951128180928813,-0.28480590957648944,-0.4666147588933452,-0.5303004227729323,3,right
8.154,0.033692523185179665,1.015430568605883,-0.27879775157139175,0.2938510351630424,0.052579099438710475,-0.010621430643225595,-0.2781327683756858,-0.46431893370214194,-0.5203365341568098,3,right
8.158,0.03042008737196293,1.018859141547867,-0.27888313306737844,0.2875732665161713,0.051579370112795966,-0.005883270022302836,-0.29453825571406783,-0.4699630593132004,-0.5448329543405375,3,right
8.158999999999999,0.03192451397083025,1.0207384508930764,-0.2787173612365271,0.29920709269683426,0.05343166658991175,-0.014664196778218886,-0.26733564066559357,-0.4606051459234652,-0.5042138541737378,3,right
8.163,0.03225582194506908,1.0237500844465979,-0.28005356723363684,0.28425822698480036,0.051051041078983214,-0.0033814789371014193,-0.303216629065753,-0.4729475770559532,-0.5577919900463733,3,right
8.163,0.03253557887845946,1.0235472409082806,-0.28066779433288075,0.29674263806310974,0.0530394615621515,-0.01280401670067455,-0.45378364309669733,-0.5247526281750301,-0.7826084464145164,3,right
8.164,0.03540376721340493,1.0215783057233867,-0.28172442856949975,0.2964198372503336,0.05298859069105067,-0.012559874240388964,-0.48966257295495436,-0.5370943900128606,-0.8361830461025757,3,right
8.168,0.03644296094107929,1.0230401843835244,-0.28329425989947493,0.27255228926605324,0.04918469876841643,0.0054519647083133066,-0.4624674669103363,-0.5277372453654898,-0.795577290038133,3,right
8.169,0.033190343369115936,1.0237853782309443,-0.28432655733527995,0.33120381418892225,0.05853192682541944,-0.038810300441667084,-0.47885509306565655,-0.5333814883819733,-0.8200414516896687,3,right
8.173,0.027437154073983908,1.0243031365639443,-0.28248234315116927,0.2339545012795074,0.04303341630175088,0.03458026138406113,-0.4722131328969255,-0.5310835869077395,-0.8101343760912472,3,right
8.173,0.02363231867330727,1.025066777786463,-0.28060342943121896,0.36223587061465107,0.06347729972034225,-0.06222859916910553,-0.47207404741443,-0.5310537044150012,-0.8099121572509751,3,right
8.174,0.021832896574403765,1.0251287006748768,-0.2785676695336697,0.9009496497568559,0.14932099127008797,-0.46876124591297663,-0.4756175642111227,-0.5322551160483668,-0.8152174817063712,3,right
8.177999999999999,0.018967857657346536,1.0250684344947156,-0.26951247033051884,1.0292917090927824,0.1697719527181324,-0.5656126503006833,-0.4714066043375537,-0.5308139519442073,-0.808923719291484,3,right
8.179,0.01771966338211432,1.0233160298853323,-0.2600810621679993,0.9319135115946661,0.15425870189015126,-0.4921318068973546,-0.4746344887868102,-0.5319396109510961,-0.8137313254433192,3,right
8.182,0.017186737489244326,1.0223089962386362,-0.25205568863499056,0.9907639972224029,0.16362810325155674,-0.5365333072769027,-0.47299294613239135,-0.5313262472754395,-0.8113193002819263,3,right
8.183,0.019621872595017752,1.024690853212286,-0.24220399731987033,0.9666525946854467,0.15979789641894698,-0.518351013685747,-0.47319045675639637,-0.5314778527674995,-0.8115469459510225,3,right
8.187999999999999,0.02691480369481246,1.030735282315622,-0.2393432013115363,0.9665460630366336,0.15976909572095677,-0.5182577524615083,-0.4739082350615737,-0.5316221980647942,-0.8127012705604681,3,right
8.189,0.03230773661184727,1.0381686493271767,-0.2428632854484445,0.978967301345249,0.16175353219523095,-0.527636783013664,-0.4729004702663479,-0.5313572412501336,-0.8111306141215346,3,right
8.192,0.04154180333003329,1.047448667771051,-0.25029232147578545,0.9637729388814785,0.15934232529349385,-0.5161815235067722,-0.4736562725761157,-0.531618046508168,-0.8122587860754014,3,right
8.193,0.05752595749945613,1.062234143120923,-0.260452421029188,0.976085359230168,0.16127196977712135,-0.5254377345002409,-0.4735197746792506,-0.5314192840223164,-0.8121767234426005,3,right
8.198,0.07473389104573391,1.0783953039227576,-0.26499357505075627,0.9686988924560518,0.1601506833062244,-0.5199241526262458,-0.4728934534426931,-0.5315506196746115,-0.8109628857736038,3,right
8.199,0.09967516154258602,1.093434403453684,-0.26762590983842155,0.971472576467451,0.16052421717815502,-0.5219431336586533,-0.4741581864589126,-0.5314684258325135,-0.8132673445923945,3,right
8.202,0.1323873762359636,1.1108980700935496,-0.2735496909441659,0.9720786083661825,0.16067544322859212,-0.5224594206446338,-0.47268914008856255,-0.5315143942796237,-0.810629937514026,3,right
8.203,0.16624413112329428,1.129498653881282,-0.27903835606785166,0.9691794229003741,0.1602137324011088,-0.5202724368502902,-0.47361886389275965,-0.5315158151081284,-0.812275349894838,3,right
8.207,0.20383433564109077,1.1470833418839317,-0.28522430801305576,0.9738634439682257,0.1608592126418505,-0.5236970608519949,-0.47416874902693373,-0.5314300380821433,-0.8133158819760125,3,right
8.207,0.24489488356562358,1.163435345873081,-0.2941616188091437,0.9675372277425724,0.1600821390685807,-0.5191741011341025,-0.4712982442088004,-0.5316448648777967,-0.8080645826752966,3,right
8.212,0.2839489580525968,1.1769847765140433,-0.29779580127775224,0.9750586404124549,0.16093574758873583,-0.5244760202095723,-0.4767310282378412,-0.531284501668772,-0.8179684634439321,3,right
8.213,0.3190479649233565,1.1903020170472465,-0.28964207391223484,0.9678852751695866,0.1601607458317393,-0.5194608485244632,-0.46971593561097935,-0.531733376772568,-0.8051910681350176,3,right
8.217,0.35130213202736915,1.202353634723734,-0.2776350920645031,0.9715978654376669,0.1605390359894765,-0.5220334902930752,-0.47558854613708085,-0.5313647114765141,-0.815884989736289,3,right
8.218,0.3776071684584793,1.2091333671214914,-0.2584885367335476,0.9757097238001842,0.16101238712110658,-0.5249358480709463,-0.4754053305044956,-0.5313650857799601,-0.8155530775040085,3,right
8.222000000000001,0.3953417883551848,1.2138991738463591,-0.23321831651386934,0.9596384407658776,0.15925161009729333,-0.5136790937590078,-0.4642724400013718,-0.5320933873936531,-0.7952737153088796,3,right
8.224,0.40548914216534354,1.2172337537511855,-0.20787526986494842,0.9888805979633947,0.16242564936359383,-0.5341333909035713,-0.4916698462750849,-0.5303176659378488,-0.8451818361662246,3,right
8.227,0.4043127568933183,1.220657074016864,-0.16869817374705975,0.9515839166725977,0.15839187616446737,-0.5080562268874185,-0.4462321870779399,-0.5332558160489638,-0.762404189320832,3,right
8.227,0.4012130811336826,1.2233353172249952,-0.14503818033850968,0.9826093420679247,0.1617391093015394,-0.5297465168773959,-0.5061664510730552,-0.5293835636353789,-0.8716026909382503,3,right
8.231,0.4001324567593266,1.2247224469844866,-0.1391952530734769,0.9818746829822863,0.1616712026036933,-0.5292293051462966,-0.7577355172610056,-0.5131154125578534,-1.3298917087507491,3,right
8.232000000000001,0.39026982803052995,1.2297623759081673,-0.10672420402711447,0.9225134549618224,0.1552422644700439,-0.48774048121262836,-0.8176633386379268,-0.509247069270584,-1.4391113407628884,3,right
8.232999999999999,0.3752097641377895,1.2358033699376871,-0.06607201183661161,1.0682245526928353,0.17100125430891175,-0.5895894931208165,-0.7722331827250273,-0.5121782237898485,-1.356296828796895,3,right
8.236,0.3488203232674566,1.246020437095714,-0.019540781429576614,0.8267281120934749,0.14489706787743856,-0.4207795589121984,-0.7996313529514323,-0.510410691599907,-1.406245855039388,3,right
8.237,0.3254208006047899,1.2550409202902895,0.017237315300788775,1.1452014806070974,0.179309732280417,-0.6434089077790235,-0.7884792311218659,-0.5111328234212831,-1.3859400714268517,3,right
8.243,0.3190599420539724,1.257401750740398,0.027349686468201018,2.482214097101454,0.32389754315949937,-1.5778952566602715,-0.7883399934224558,-0.5111329784291241,-1.3855966944935623,3,right
8.244,0.2946909178882994,1.2679337320194146,0.06905421434185295,2.8006319376166937,0.35828596238241006,-1.8005070869915716,-0.7941474670120781,-0.5107754315339503,-1.3963617480979071,3,right
8.244,0.2561670813834597,1.27918971016674,0.1273865397258027,2.559220040581065,0.3322119024310407,-1.6317345737823226,-0.7871998381352967,-0.5111997394022273,-1.3834451998050294,3,right
8.247,0.22656449316407468,1.2844581196537526,0.16987095150199727,2.704867328712206,0.3479670735634302,-1.733525383428466,-0.7925986810810814,-0.5108750382512297,-1.3935359956660083,3,right
8.247,0.19690702492223666,1.2938305961442698,0.2148783823893391,2.6454854740642273,0.34147956319616535,-1.6921085392236068,-0.7896813813427195,-0.5110532112860626,-1.388111833376911,3,right
8.251,0.16661252989603242,1.2994332021041994,0.2511108136664824,2.644914547140477,0.3415566818030813,-1.6915265416347935,-0.790401155788168,-0.5109861591494498,-1.38920626927441,3,right
8.252,0.13916522921645919,1.2993987759422814,0.2782098073505288,2.67560966271898,0.34468076713552853,-1.7132375984481674,-0.7910272951581092,-0.5110117109478929,-1.3910442936904976,3,right
8.256,0.11471575902354063,1.3025308823770994,0.2993170410473486,2.6387612473715594,0.34088820151612276,-1.6872298388072038,-0.7899423278763831,-0.5109681829741507,-1.3878673664245076,3,right
8.257,0.09162752237580181,1.3102449168793342,0.31074298277337015,2.6675883759631445,0.34392288569736945,-1.7074869156496577,-0.7908837178027402,-0.5110467852998575,-1.3910547413721543,3,right
8.262,0.06769892354407961,1.3257841098103031,0.3224231167205938,2.6516427824215247,0.342036267424945,-1.6965559847181355,-0.7902938665677128,-0.510973665949024,-1.3888065604617208,3,right
8.262,0.03971583531062089,1.3494760667615955,0.33903907789585497,2.6562282801095067,0.34305484072047804,-1.6990718915904788,-0.790667322824254,-0.5109488021604729,-1.3894767623552728,3,right
8.267000000000001,0.007836082620124465,1.3715917000703728,0.36356023443101265,2.658625932682245,0.3424142798239157,-1.7019338764899792,-0.790185962268378,-0.5111856759345563,-1.3907764373810585,3,right
8.267999999999999,-0.02491086306191697,1.386193476139264,0.39352475206504367,2.653596286228712,0.3429740287838722,-1.6969636283517122,-0.791082059841712,-0.5106570705774924,-1.3874343699105731,3,right
8.271,-0.06026591706903306,1.396169905148076,0.4206486406815969,2.6586164713388696,0.34263740603404935,-1.701631807502121,-0.7896975796420705,-0.5114491093724087,-1.3923336080256266,3,right
8.271,-0.08849368811069228,1.4016342735837655,0.43156566543894304,2.6540924396747023,0.3421401662083916,-1.6984803335008472,-0.7912366754453595,-0.5106002268540205,-1.3872256518957258,3,right
8.276,-0.10330370325715121,1.4024769011424933,0.41302550118044845,2.6592307410636273,0.34432781248725675,-1.6999203641593192,-0.7903476106831027,-0.5110915037251914,-1.39017823212419,3,right
8.277000000000001,-0.11141720209805003,1.4060039623837635,0.37694078793345553,2.6519878922114692,0.33981553663687525,-1.6997738207356874,-0.7894430230558769,-0.5115213894290657,-1.392469113512595,3,right
8.28,-0.11772089836818032,1.4200189735172575,0.3486778386223147,2.661715223458705,0.34643000937990664,-1.6992397578417138,-0.7932241764070423,-0.5096461459180885,-1.382113961985167,3,right
8.282,-0.12975357448635233,1.4465624639749963,0.33748853391218925,2.651546340980898,0.33940113460932486,-1.6999486560586528,-0.7862197262995085,-0.5131255571797295,-1.4013340225160276,3,right
8.285,-0.14461675988057046,1.4842424104563878,0.33219001593461106,2.6571051384407194,0.3434272005646204,-1.699318719121024,-0.7952266445990631,-0.5086546871313239,-1.3766756489111849,3,right
8.286,-0.15222314112084595,1.5301735308519144,0.32397655747059306,2.6634663247282977,0.34707043996525083,-1.699869281038894,-0.787699989629067,-0.5123911688675351,-1.3972520756401559,3,right
8.29,-0.15103256780290913,1.5799858284754875,0.3235752743438205,2.638195363805873,0.331409930209838,-1.6992480560555165,-0.7878936941302237,-0.5122823084601629,-1.3966683485513187,3,right
8.291,-0.14175013770328032,1.6268779702090592,0.3397183269465624,2.684597276415149,0.36039980295918983,-1.7000791796106645,-0.8022967255954225,-0.5051747791947867,-1.3575475041082332,3,right
8.295,-0.1368727392958034,1.6664510219593092,0.3725881109669367,2.625118519728865,0.32318907650792816,-1.6990815876583671,-0.7668979239441815,-0.5226602705003085,-1.4537220559038908,3,right
8.295,-0.1460304104199799,1.6951803703243131,0.4106178998182314,2.674732972908616,0.35424651057474166,-1.699889361903097,-0.8255979036764922,-0.49365719842817835,-1.294262235822833,3,right
8.3,-0.15587315210598887,1.7031152295316319,0.43032949530908016,2.6735499681662995,0.35343086522329703,-1.6999706978231734,-0.748164735908337,-0.5319208431086017,-1.504582312796117,3,right
8.302,-0.16093952060389474,1.70086491827616,0.4329324602063398,2.5784189778883624,0.29413586143776477,-1.698082483538672,-0.42323649208348796,-0.6922797112249086,-2.3873205842529917,3,right
8.302,-0.1788144164310241,1.6951951925415432,0.4256328533319963,2.8120526793241294,0.43983896708971343,-1.7026114880137444,-0.34580253175928954,-0.730534385878873,-2.5976298307447854,3,right
8.305,-0.21655758195779498,1.666262750741201,0.40761608062133003,2.4247230150652976,0.19827598022595092,-1.6951180161652324,-0.404489309459395,-0.7015730835352906,-2.438188525164614,3,right
8.306000000000001,-0.24200109552706006,1.641749574563475,0.39536986315343076,2.9356093824308696,0.5168781775344687,-1.705022464588155,-0.3691406331705377,-0.7189486917670749,-2.534343459828592,3,right
8.31,-0.24919001254808013,1.635252191282043,0.3962398570487631,5.080280272971147,1.854236691505751,-1.7467525688397094,-0.3834381542314723,-0.7120431143841628,-2.4952333764769516,3,right
8.312000000000001,-0.28031413468794614,1.6054800772994855,0.4099070963410166,5.591202161357986,2.1727820065169556,-1.7567492091427424,-0.38379029083435984,-0.7116561513588534,-2.4946596519631834,3,right
8.312000000000001,-0.32991482063163524,1.565644566351484,0.43629908394329875,5.203823853881966,1.9313212222981102,-1.7491025233271134,-0.37609138735457676,-0.7156661424938475,-2.515195190989825,3,right
8.314,-0.3764723492553457,1.535687374749147,0.4612985009185335,5.437479109003367,2.0769037172227,-1.7537829773701215,-0.3852012411540901,-0.7110793419589532,-2.4906106927905514,3,right
8.315,-0.4331691216079119,1.5052753111820683,0.47668797793672196,5.3424010309705725,2.0177014742773958,-1.7518351928823876,-0.3782797400982153,-0.7143182951247604,-2.5097372984592803,3,right
8.318999999999999,-0.49893309007096504,1.478979006708923,0.4848795857458449,5.34105436169898,2.0168845966890183,-1.751783861463446,-0.38167902808254306,-0.7132119364866081,-2.4994606067710445,3,right
8.321,-0.563584181795857,1.4518657667739605,0.48944739870143034,5.3909433626625525,2.0477849852493204,-1.7529906951790604,-0.38149964036810396,-0.7123165418351769,-2.5017428511816044,3,right
8.324,-0.6230396647925018,1.4202974032271274,0.490288595370654,5.3311413884034815,2.0109290301083167,-1.751334840596593,-0.37964767637465446,-0.7144375927479004,-2.504571749422902,3,right
8.325,-0.6735270413044028,1.386443066875263,0.48556395096785543,5.377775294511226,2.039397399250552,-1.7529344805400904,-0.38206402743431933,-0.7122828863086894,-2.4997627081854934,3,right
8.329,-0.7139853494904211,1.346822080900954,0.47882533829699875,5.352568656307129,2.024281242236304,-1.7517620621748553,-0.38043510928546614,-0.7130785808555742,-2.5042038849527017,3,right
8.329,-0.7491594140449777,1.3028635003913709,0.4750272454631713,5.358355848597319,2.0276314126443404,-1.7521676598121991,-0.38028146280531683,-0.7149385530723515,-2.5013635469359476,3,right
8.334,-0.7830779795149907,1.256374032930442,0.4748825766552541,5.36511184180995,2.0313335468567484,-1.7528775250623505,-0.38265743464327884,-0.7096882922136412,-2.5023530031381345,3,right
8.335,-0.8155096362017694,1.2078688579611638,0.4702520729717852,5.353252709354613,2.0255821271741583,-1.7507850513091263,-0.3783999203785454,-0.7178728106701657,-2.50281452753127,3,right
8.339,-0.8569238286429846,1.1612267741295281,0.45166590305549237,5.364657562883895,2.0298643080403127,-1.7542121070447427,-0.38319925607947575,-0.7090190498187066,-2.501613299387503,3,right
8.34,-0.9102835175565069,1.1227912336635553,0.42075306618406505,5.356670356359318,2.0283545540877457,-1.7501251558608404,-0.38025159326841407,-0.7142213308001382,-2.502783301366482,3,right
8.345,-0.9591446355371513,1.0884460998135403,0.3852035835051387,5.360436959913317,2.0279368831711384,-1.7533320004832234,-0.37825350608876457,-0.7184365621752936,-2.5023120970233466,3,right
8.346,-0.9989818797238239,1.0554079294809053,0.3605686912273538,5.360426021833057,2.0279057019320312,-1.7533595423608048,-0.38799928839377457,-0.6994918348463128,-2.5016438695675305,3,right
8.349,-1.0293295031191516,1.0263384233392456,0.3607759371770881,5.35760690646243,2.031279493348779,-1.7474915650588758,-0.3696895515741374,-0.734742641519256,-2.5035288682500045,3,right
8.349,-1.0419920789160617,0.9928062146881526,0.3769851353470779,5.362292842282919,2.022473976831136,-1.7608672077278626,-0.39328457125116173,-0.6894361161883611,-2.500874727650971,3,right
8.354,-1.0452152313654617,0.9566066453669846,0.4010907873228837,5.356749236416737,2.0365125295406683,-1.740941546208931,-0.37355167743775797,-0.7272789829746786,-2.5031908908924074,3,right
8.355,-1.037298348731207,0.9195745925183247,0.42112149860851056,5.361813762642571,2.021020094893813,-1.7621660391903369,-0.37413793679620144,-0.7262251025402519,-2.5029717753292213,3,right
8.359,-1.0222108226080282,0.884171121117396,0.4224585502884928,5.359155478557144,2.0301390198795217,-1.7499079875859098,-0.41162492439473314,-0.6541445902098664,-2.4989700345491332,3,right
8.36,-1.0103976966550028,0.8558919320021587,0.40612921960418413,5.356984660591177,2.03807397937068,-1.7393430027562422,-0.3194130862633072,-0.8313537063458515,-2.509035072788355,3,right
8.363999999999999,-0.9688143183056507,0.8185824688512675,0.3646179090758245,5.366176685352995,2.0031524053926835,-1.7855729873661326,-0.47232953098020813,-0.5375146374674253,-2.4922562220430295,3,right
8.366,-0.9275577534744273,0.7914349228287815,0.329615555218011,5.349433982043454,2.0681051888911384,-1.6998455879932073,-0.2706278788949427,-0.9250956421434897,-2.514425489851364,3,right
8.368,-0.9147149757059396,0.7840738564848133,0.32133978801140395,5.370724284946745,1.9845719663366852,-1.8099190968116297,0.5760304615682622,-2.551902406765379,-2.6072698799315805,3,right
8.369,-0.8608930689381387,0.7555078914765245,0.2955559624181436,5.353033423576556,2.0543630844793475,-1.718026672640437,0.7777252607512889,-2.939490392414155,-2.6294579450233817,3,right
8.37,-0.7779727757064252,0.7130513003686152,0.26886355716737237,5.353550670612428,2.0524944474773283,-1.7205128586246023,0.6248097910120995,-2.6456405896201924,-2.6126412600109647,3,right
8.373,-0.7122524199396952,0.6799315946022372,0.2652030929638962,5.38702276211499,1.9192630606653165,-1.8957323799451,0.7170472576436153,-2.822858100174674,-2.6227605375457372,3,right
8.373,-0.651993336691006,0.6491670884656916,0.263101644872928,5.3047555238800665,2.2467382947536834,-1.465067792557436,0.679488653732589,-2.750779413591057,-2.618698491955728,3,right
8.378,-0.6004492455349704,0.6167944780298629,0.26992832275053696,5.441134086695772,1.703749725756604,-2.1791264391597767,0.6790250723016653,-2.749706087089283,-2.6185237745466807,3,right
8.379,-0.5729016325309393,0.5962820635495891,0.2776752051517973,5.261270471878985,2.419964080284435,-1.237289030648408,0.6986072209199952,-2.7875892592553324,-2.620844616143528,3,right
8.38,-0.5670373982297903,0.5908094888364706,0.2798792735294058,4.507216509076514,5.42672811054936,2.7160891862756986,0.6751308972791168,-2.742227079886696,-2.6181004586085033,3,right
8.384,-0.5597099109203397,0.5759876428421926,0.2931284324669664,4.327422317424004,6.142981417175561,3.657926634490229,0.6934477548102179,-2.7775307170819854,-2.6201828047659568,3,right
8.385,-0.5546557455427195,0.5558254312658867,0.30571266932683105,4.463602669469871,5.599888862769571,2.9438655380578718,0.6834656272921056,-2.7585673797540307,-2.619226638853969,3,right
8.389,-0.5612744841609523,0.5409866439142383,0.3090097193513357,4.3817428852785945,5.927567113395354,3.374538634323777,0.6859937946681371,-2.762728324544853,-2.6190546170746174,3,right
8.39,-0.570295015743304,0.5216102217005805,0.31249506922934417,4.414565228960432,5.794023938855636,3.1993016799125025,0.6881593948692789,-2.768088997071659,-2.6200658416792217,3,right
8.392000000000001,-0.5867905272822505,0.5038517256583324,0.3190063067990759,4.4158799688392385,5.792524466660588,3.1968412619441686,0.6841804094384594,-2.7589719712801966,-2.618680605076539,3,right
8.392999999999999,-0.6081440948364593,0.49072108224405686,0.3259323306187538,4.3975264538395145,5.862027813606113,3.2887061402529687,0.6879922388064172,-2.767469291739477,-2.6198549117166348,3,right
8.398,-0.6312499611686131,0.4749674740631858,0.33236680899493,4.418876060580499,5.778479443324147,3.1786483198204856,0.6851326164686231,-2.761984867589649,-2.6195473696873135,3,right
8.4,-0.6556956488912646,0.45847698540793125,0.34348776294418487,4.403223007430954,5.843999035318166,3.26439075309803,0.6872139239304702,-2.7638080280526545,-2.6183747369911545,3,right
8.402000000000001,-0.6811855286081592,0.4422458498008048,0.36493817278480134,4.409794293556319,5.807799443262059,3.2180970578923365,0.6853071797737764,-2.7651174551198867,-2.621367699614034,3,right
8.402999999999999,-0.7104597358612803,0.4214898731063411,0.3938965751218071,4.411644653645202,5.81763026718763,3.2287808400495885,0.6874693086581651,-2.761852457289543,-2.616827614458796,3,right
8.408,-0.7344202276546282,0.397462636911459,0.4185001012802556,4.404567423463315,5.824743342558765,3.240883271471869,0.6852913643164513,-2.765577414656242,-2.6216817055418984,3,right
8.408999999999999,-0.7568400052632738,0.3733596525265679,0.4397641522560122,4.412389932975772,5.810373724356397,3.2197976389375835,0.68634933805017,-2.7630390837920995,-2.6188543109510505,3,right
8.412,-0.7797087346013181,0.34838577427363204,0.46167864057921265,4.408629051929925,5.825517178380396,3.2396904874985526,0.6882547591126396,-2.762762685198921,-2.616528401282289,3,right
8.413,-0.7977488926123721,0.32365156624700087,0.4734892248818696,4.404165000479952,5.812117300840505,3.226135186995733,0.6815413864817608,-2.7671020043460812,-2.6268909243409206,3,right
8.418,-0.8235642056729658,0.3064844304620421,0.4771359897817277,4.419065674177862,5.8240032235543495,3.2324756430186925,0.6936984530335517,-2.758489309955537,-2.6076394283610504,3,right
8.418,-0.8545569849755255,0.2996261718366249,0.4782705535294287,4.395182026905353,5.81286958703056,3.231693439424075,0.6781532929495748,-2.769675998709487,-2.6323683438875167,3,right
8.422,-0.8792722670552893,0.294342624155483,0.47438431170392265,4.421247631637657,5.822324906838519,3.2293523641581476,0.6911056454981042,-2.760284167160887,-2.6117178278553395,3,right
8.423,-0.8979183885637348,0.2879439998724649,0.4624646402871342,4.405781315405867,5.818478299241664,3.2328338957323566,0.6908547791855955,-2.760738176243751,-2.612294105875264,3,right
8.427999999999999,-0.9087606316303352,0.2810877836550254,0.4400748374164025,4.393710376817067,5.810136301348698,3.2292162907011646,0.6658276839833126,-2.7779938137049895,-2.6516191536661013,3,right
8.427999999999999,-0.9146498316639635,0.2745094170011071,0.4148415634888525,4.448865098081703,5.837374238613188,3.2328378958050834,0.7272261674044,-2.735343382437292,-2.5549370651149657,3,right
8.434,-0.9181201926123658,0.2726740657643407,0.39128460485775624,4.346031052532936,5.789048434043307,3.2290064056831476,0.6254512325034414,-2.8061246618253857,-2.7152540890520194,3,right
8.435,-0.9189552251729667,0.2715981353908937,0.3753469696568009,4.478272107089362,5.850317588419207,3.2328867822028684,0.7596945316998591,-2.712753896534826,-2.5037848100212905,3,right
8.437000000000001,-0.9175839138846241,0.27221854433966175,0.37291605419080104,4.367788573144049,5.799489995449381,3.2300860020742257,1.3232978000779019,-2.321142859485761,-1.6162232431272747,3,right
8.437999999999999,-0.913528811275468,0.28210972005834106,0.36744532384435347,4.370904305728677,5.8003775578868275,3.229486143557755,1.4575671284061746,-2.227780732402328,-1.4047247916211014,3,right
8.439,-0.9069049996961895,0.2990241468528324,0.35442144829947736,4.581239851187833,5.898599680134023,3.2366242221132233,1.355757808034385,-2.298560617645525,-1.565088106361182,3,right
8.441,-0.8995597673033138,0.3210439012264976,0.349585748610305,4.064081534159149,5.657874692461461,3.2200561541273824,1.4171676249384717,-2.255878466272114,-1.4683658548976402,3,right
8.442,-0.9009855398753799,0.34362352084755676,0.3484928109979306,4.921618978675793,6.056761402530963,3.2471591161571007,1.3921884987766182,-2.273223170977575,-1.50769375362305,3,right
8.446,-0.9079684750931272,0.3565621339191071,0.34497409839250476,3.790509903663267,5.530707599534292,3.2115430578952324,1.3918040597485217,-2.2735243327553247,-1.5083357466799787,3,right
8.448,-0.9091081934888393,0.35687600136539405,0.3408282273643424,-0.9573093565271354,3.3229891538165575,3.0615552558583645,1.4049722368484336,-2.264320594791365,-1.4875334834439053,3,right
8.448,-0.9099818878676742,0.34350707340384645,0.31986074815203513,-2.0884262095935267,2.7969815086776135,3.0259631649073797,1.3891817954581347,-2.2753587785954035,-1.512485365755794,3,right
8.452,-0.9186228699742311,0.3245492230161543,0.2811717432217825,-1.2308534981659314,3.1956589280910963,3.052957459705198,1.4015010863802813,-2.266738112679114,-1.4930042181352454,3,right
8.453,-0.9411824418656695,0.317052765499762,0.24761046030662495,-1.7481037235305594,2.9554793717646994,3.036672583024997,1.394868397482063,-2.2713709799017643,-1.503482781998423,3,right
8.456,-0.9666924240963706,0.3170321877246845,0.21631717050657517,-1.5376000162076089,3.052703531949373,3.043292518665022,1.3962903816267174,-2.2704345864208406,-1.5013120571400966,3,right
8.457,-0.9684250035486623,0.3101545555676739,0.17652967163909844,-1.5347151143515072,3.054960969877954,3.0434038958484937,1.398308217230563,-2.2688713410880297,-1.4979170139806457,3,right
8.461,-0.9435172346711854,0.29879701478759824,0.1450070716298959,-1.6449725564152975,3.0027916205534657,3.0399064857312244,1.3948175746722067,-2.271571738237528,-1.5037865338779146,3,right
8.462,-0.8996550273812571,0.29041640623147835,0.1324397666564407,-1.5128256468192656,3.0646194909344855,3.044076931899345,1.3982274269026251,-2.268866526637871,-1.4979608181497284,3,right
8.467,-0.8436095417368892,0.283904226967214,0.1286919899708334,-1.6158623236243912,3.0174961984783994,3.0408698036706214,1.3958687951824644,-2.2707725236033784,-1.5020380211671747,3,right
8.468,-0.7881822667860134,0.27594756412153354,0.12279245698630262,-1.5600662466763886,3.0409279938715077,3.04251524844918,1.3966966318256682,-2.2701999902155707,-1.5007380364047171,3,right
8.472000000000001,-0.7310286703893085,0.266206951091401,0.10494764710172513,-1.5732388741679237,3.0391240126124606,3.042292175657818,1.397541774808472,-2.2691170453097755,-1.4987332937533373,3,right
8.472999999999999,-0.6685906304388112,0.2509639871869791,0.0765282437229031,-1.5873543867129676,3.02726099019006,3.041611619372876,1.3951527810805844,-2.271909132023658,-1.5040343575004842,3,right
8.476,-0.6049843650609765,0.22661325492282397,0.04622489607739308,-1.562365124768844,3.043103947522109,3.0425869369756544,1.398610429561935,-2.2678181220760334,-1.4962942145306761,3,right
8.477,-0.5327815931623006,0.1923654828655799,0.019187207925732128,-1.5862594005642063,3.032033327947425,3.0418375452074575,1.3950656117021416,-2.272080929700298,-1.5043224885207502,3,right
8.48,-0.4557485287432268,0.1504316930967356,0.006200576433437387,-1.5693586264933548,3.032049640580718,3.0420152111030525,1.397115117688466,-2.2696171375777414,-1.4996826446100382,3,right
8.481,-0.39306208789662134,0.11832768318970568,0.0109627360131915,-1.5783922548660132,3.0457680536146703,3.0425397590238457,1.3985697378138129,-2.2677097945325473,-1.4961716090089596,3,right
8.486,-0.34478416265583134,0.10281400652418501,0.0300952131458,-1.5753365971549946,3.0204584784097634,3.0414294834862026,1.3918001259903292,-2.276336774822836,-1.512166889390437,3,right
8.488,-0.30212511483159293,0.09106136005951881,0.06310211795986231,-1.5747803900487296,3.049211111794664,3.0427326629964675,1.4043739887021318,-2.2603247158906576,-1.4824752436011859,3,right
8.491,-0.2700577905964895,0.08563809377863396,0.10032168929745644,-1.5776595388886805,3.0314103389723566,3.041900258446068,1.3882550698232945,-2.280866246617048,-1.5205564799291302,3,right
8.492,-0.24733907931574858,0.08583687532848708,0.13172665744294915,-1.572189059532284,3.0197575898396045,3.0414292561556824,1.4016992548304394,-2.263726347058485,-1.4887879766500296,3,right
8.496,-0.23024077068550958,0.08989683723669728,0.14935967753551296,-1.5814585532625909,3.0775657512432835,3.0439447616664688,1.4013044932548557,-2.2642109007202995,-1.489688098192016,3,right
8.497,-0.2219762901083912,0.10007520075786755,0.15324659518305528,-1.5677357131772007,2.968752405531135,3.039173626180599,1.3758046184877477,-2.2968010290879954,-1.550070906222344,3,right
8.501,-0.21451491121605987,0.10157439320549118,0.14674642709826713,-1.5841052437742156,3.1090513105744924,3.0453363892785044,1.438501018315431,-2.216685671401538,-1.4016414860344897,3,right
8.502,-0.210339720002808,0.10421966890513355,0.12188505766242028,-1.570970377059571,2.9916822958738765,3.0401791244033705,1.3345529969142889,-2.3495155321741716,-1.647722778872462,3,right
8.505,-0.21637563602495902,0.11607007675451458,0.09804733235147858,-1.5705044134753126,2.995226062107526,3.0403342052274294,1.471648899239448,-2.1743225244661017,-1.3231730595783422,3,right
8.506,-0.22380750163934837,0.12285758951694893,0.0914464960753072,-1.5977328771070494,3.2180460120965555,3.0501242753369877,2.0470558506939884,-1.4389735552615914,0.03918722708820871,3,right
8.507,-0.24747397146369482,0.14353554948061886,0.07276030595082342,-1.5320014925679823,2.6698574814136666,3.0260448722396482,2.1841351280098023,-1.2637940913701122,0.3636892809666437,3,right
8.511000000000001,-0.29608797409378207,0.1811815980249788,0.036724791101702695,-1.6405305465052162,3.578968459493117,3.0659681275491497,2.080211186803588,-1.396605060787764,0.11766916204246242,3,right
8.512,-0.326005420734218,0.20111384246206426,0.016284745614645373,-1.4975552094395546,2.379797788627388,3.0133200447627217,2.1428928461088783,-1.3164991403914634,0.2660841820386748,3,right
8.515,-0.3334252627680888,0.20529130828864028,0.008843617496300851,-0.8966359917813407,-2.6536051819510664,2.7921719354035055,2.1173777986480933,-1.3491069303911751,0.20560043203292505,3,right
8.516,-0.36708386039313734,0.22016185263274257,-0.012860031394484462,-0.753710017936509,-3.8527619123934995,2.739548949738059,2.1170454070779705,-1.3495328091045642,0.20496434708817962,3,right
8.517000000000001,-0.41609162273937705,0.2389339255749548,-0.03650638595139814,-0.8620915666969031,-2.9436222625757957,2.7794480226048,2.13037636796212,-1.3324935896768357,0.23631676782722627,3,right
8.52,-0.4539877931262525,0.25081204468257273,-0.049836042179486784,-0.7966731649943148,-3.4919715087671594,2.755347768843209,2.1143999244657072,-1.352914187681049,0.198696715972279,3,right
8.522,-0.4910319441926647,0.26414035029421035,-0.061252454040463214,-0.8233916661591666,-3.268782023832562,2.765249604357396,2.126857105185386,-1.3369927063072673,0.22810235983822225,3,right
8.525,-0.52712715578765,0.27704746094633365,-0.06479744893716435,-0.8235639132734978,-3.265819910431774,2.7651787014172893,2.120092363028327,-1.3456350521686495,0.21191155472208498,3,right
8.526,-0.5587628371632748,0.2887456153981442,-0.061461579787545934,-0.8098814924180661,-3.3825258418657604,2.76033384767113,2.1217501375614023,-1.343526003755266,0.2163973379537717,3,right
8.53,-0.5820216313361557,0.30385310189294956,-0.05755373283090349,-0.826337218537298,-3.2426737735957354,2.7662000085990064,2.1233253829612644,-1.3414961540361965,0.21916187652195612,3,right
8.53,-0.597989822534153,0.3202170759928387,-0.052483019530691746,-0.8134296315154115,-3.3516906961950523,2.7615299364850565,2.1204944817717792,-1.3451346801722583,0.21364292400810636,3,right
8.533999999999999,-0.6126866068780409,0.33624560304429174,-0.048477606750947345,-0.8206608745979109,-3.2925854810617188,2.764362156165302,2.123186006378899,-1.3416783639404821,0.21907210081348022,3,right
8.535,-0.6197426591704518,0.3491882063785259,-0.045936660294385125,-0.8183769333567541,-3.3068450881434117,2.7629776259057044,2.121243475394378,-1.3441608340269207,0.2144648571221262,3,right
8.54,-0.6211646570774396,0.35973494933398376,-0.04378851692955575,-0.8176840099813949,-3.321046204998142,2.763658694204109,2.122470654371429,-1.3426231895679805,0.21911952809779878,3,right
8.541,-0.6212684975176228,0.3694263214426896,-0.044342877252970994,-0.8194740886231193,-3.2957638129389344,2.7631687971803567,2.121602875801072,-1.3436618870010018,0.21306717532399672,3,right
8.544,-0.6188041777904996,0.37741333565932844,-0.048654660689505594,-0.8175922319851696,-3.319722351372185,2.763391924064676,2.1224335988583776,-1.3427053033280014,0.2209983104033017,3,right
8.545,-0.6175266825238418,0.3872241622210219,-0.05055840969467938,-0.8196269362581954,-3.302732594502463,2.7641496738965774,2.121634457159879,-1.3436143944801526,0.2127477086807741,3,right
8.551,-0.6157701633008623,0.39811133796590714,-0.05047002367621575,-0.8166304129140661,-3.312701682994021,2.761345095270295,2.1219596596372323,-1.3432639250991936,0.21719253831485025,3,right
8.551,-0.6103540261139593,0.4077234268694703,-0.05398168460711279,-0.8214572578334117,-3.3068616373553894,2.7670098628916833,2.1229161535154857,-1.3420967510137027,0.22262202282679366,3,right
8.552999999999999,-0.6043559844444899,0.41751643579336195,-0.05570829836960059,-0.8147408323054561,-3.311516447931054,2.758737487775151,2.119837036984611,-1.3457882058216732,0.20147471877376905,3,right
8.554,-0.6021416385713716,0.428443014284969,-0.05371346248094602,-0.8218104306230586,-3.307309747160086,2.767522633444977,2.1253473047462625,-1.339198766041592,0.24022163309987743,3,right
8.56,-0.6011092920831184,0.4412038297203121,-0.05249211837318993,-0.817867648799061,-3.3085472268805782,2.7624992444430347,2.1183169863533156,-1.347601443374202,0.1905730800416546,3,right
8.562000000000001,-0.5978588985042836,0.455157920531949,-0.05215933340472596,-0.8137652307826578,-3.315524789019637,2.75790857946585,2.124167613351519,-1.3406114342209299,0.23198166544672766,3,right
8.562999999999999,-0.5936395206927187,0.46893831576398187,-0.05442812272201382,-0.8305679590616082,-3.2946624116475283,2.777572929027484,2.1240799667174057,-1.340707642702184,0.23102000135046016,3,right
8.565,-0.5860628849335565,0.47895496117457886,-0.06065615074960182,-0.7996144357170873,-3.3316061520099907,2.7411825534029193,2.1126930515354427,-1.3543375247925358,0.15153499908592244,3,right
8.57,-0.5763249606964114,0.4847131381605294,-0.06667995768809484,-0.8393145312310608,-3.284559731777482,2.7878917701565813,2.140596368899125,-1.3209501693029198,0.3467170105435332,3,right
8.57,-0.5639209631627164,0.48918982235754777,-0.06867233505123307,-0.8061883291603975,-3.3236787595417074,2.7489043430428453,2.0943544170322577,-1.3762740822851072,0.023136830134375452,3,right
8.574,-0.5525998436222049,0.49142952545008955,-0.06827279441492617,-0.8070158370531177,-3.3232263641269038,2.749931156253263,2.155343507325033,-1.3033119892337814,0.44994429557305593,3,right
8.575,-0.5497402394350521,0.49121472384598025,-0.06789716703588355,-0.870410810786356,-3.246642583508047,2.8243639941961716,2.4114553360630473,-0.9968859003855469,2.2416414319019586,3,right
8.575,-0.5426232201181138,0.48980254406819507,-0.06611406667130115,-0.7146717413001806,-3.4341638790910167,2.6414523494696427,2.4724475149664875,-0.9239327823247285,2.668497744088979,3,right
8.578,-0.5289970027282256,0.48838957013812745,-0.06179160321661749,-0.9728787925461264,-3.1234255510628026,2.944716936597339,2.426205017620316,-0.9792371927779312,2.3448513474317707,3,right
8.579,-0.5239886672772944,0.487936587373641,-0.057989856536299275,-0.6322983209039708,-3.5332785027607416,2.5447170050471577,2.454097159861399,-0.9458808282203899,2.5400606058751825,3,right
8.583,-0.5239742907104308,0.4882973906852036,-0.05762919487637551,0.797387866826061,-5.2544935001453315,0.8656808253670193,2.442741747675652,-0.9594714161004406,2.460653298264903,3,right
8.584,-0.5191519173804527,0.48792008661133124,-0.056474963907721484,1.138006351776614,-5.664438593521939,0.46568975785167205,2.442599959295119,-0.9596044010726866,2.4594592538619504,3,right
8.585,-0.515777558684931,0.48451446900802075,-0.05147761571912398,0.8797384136242519,-5.353590750291062,0.7689363056505865,2.4485172931290506,-0.9525999083345223,2.5012532354275594,3,right
8.588,-0.5158847993850195,0.47998031128683305,-0.04611088320389285,1.035531827572794,-5.541108926713584,0.5860509400147904,2.4414341912956887,-0.960969232310353,2.451155689555824,3,right
8.588,-0.5132652424676019,0.4765190359816076,-0.04148578404097096,0.9721289952896692,-5.464784095131138,0.6604538936419775,2.4469418988184484,-0.9544829071153954,2.490217451434131,3,right
8.592,-0.5116983888097124,0.4721688255708131,-0.038292990361461304,0.9712220038038022,-5.463726613386177,0.661503788996781,2.443966489411145,-0.9579985537174552,2.469176610689593,3,right
8.593,-0.5096464072619498,0.46587155148538506,-0.03579094283292223,1.0045393455918166,-5.503751583101785,0.6225162677120456,2.4446893444771485,-0.9570460034077217,2.473783040795671,3,right
8.599,-0.5061765927380596,0.46144472950419124,-0.032141486073853615,0.9645525068289886,-5.4557551011592835,0.6691843537866693,2.4453601106065777,-0.9565253597933231,2.479918542416711,3,right
8.599,-0.5026065334612928,0.46048694111960364,-0.028902349529582642,0.9958087949664153,-5.493197791718471,0.6328882837002351,2.444197398214641,-0.9574313504975672,2.46930373604325,3,right
8.602,-0.49081598764702766,0.45915402490833457,-0.025913008322681088,0.9788397170763812,-5.472946115296479,0.6524115320089363,2.4452275904340848,-0.9567937689700381,2.479551820723079,3,right
8.603,-0.4768640760364235,0.45868806454584343,-0.023958268787502464,0.9827682775022087,-5.477603582488147,0.6479719156531598,2.4445696142183966,-0.9571068176592812,2.4725256613862787,3,right
8.607999999999999,-0.46417175791015697,0.4596341454800875,-0.023242403758298776,0.9874134358785426,-5.483038953731506,0.642860508115046,2.4449494957717244,-0.9566480918119408,2.4751616128363496,3,right
8.609,-0.4467964686285486,0.4609553791255637,-0.023037658816274127,0.9790542453113569,-5.473467793009502,0.6515708306915121,2.444565841471541,-0.9579867879986756,2.4769723422366052,3,right
8.612,-0.4319420910998264,0.4655250060259041,-0.022423189968792008,0.9874372696187266,-5.482716846524799,0.6436311227999042,2.445234559206053,-0.9551764629742328,2.4713794976562684,3,right
8.613,-0.42045222591141834,0.4703863853669623,-0.021594142369207443,0.9811560751627352,-5.476187284721441,0.6486706163845632,2.4441887205869324,-0.9594266137648464,2.4793852612316125,3,right
8.618,-0.40917482841842406,0.4751257333179256,-0.028141291237517935,0.9844291921147579,-5.479305853374687,0.64668945287811,2.4453676791411434,-0.9548192464621166,2.4712991857303415,3,right
8.619,-0.4034961318325311,0.4798138008002471,-0.039771022034564965,0.9844293020838529,-5.479297751939297,0.6467058148571573,2.444687105322333,-0.9574805997703861,2.4759761815980035,3,right
8.622,-0.40224181356930033,0.48386305471765845,-0.048881162875324485,0.9811345526028828,-5.476857965297418,0.6471194744907869,2.4439585476767123,-0.9599445727719012,2.4790134421519268,3,right
8.623,-0.40120008076081226,0.49120623574711836,-0.056243649086513005,0.9874918537563361,-5.481023885075258,0.6475506290185433,2.4469635474935094,-0.9493807798548107,2.4644334982898792,3,right
8.628,-0.4032796094614688,0.49899203577084594,-0.06156560233991056,0.9789733967350602,-5.475970778166231,0.6457736586846641,2.4413996994801863,-0.9689606508146541,2.4915362774807055,3,right
8.628,-0.4096192729847795,0.5106740604860897,-0.06753704121481438,0.9874898628711958,-5.480678343880353,0.6483306629296905,2.448555957168085,-0.9438048416605952,2.4568173436456013,3,right
8.632,-0.41551545072259566,0.5236660995243501,-0.07272274250742161,0.9827493958724735,-5.478175254024915,0.646641503027489,2.442575836136629,-0.9648129323312484,2.485765064804604,3,right
8.633,-0.4219961982608472,0.5345868118438157,-0.07479531258589739,0.9787382177799367,-5.476108460934252,0.6450969342767348,2.4427236004168553,-0.964261339937949,2.4848764489895454,3,right
8.637,-0.43135026993301073,0.5503322780877092,-0.08142808320175979,0.9960762835188548,-5.484893617992747,0.6521108764350558,2.4541881654859514,-0.924128975062153,2.430126432757277,3,right
8.639,-0.44127793803969223,0.5662741231726113,-0.08851563576770949,0.964130051256136,-5.468850797750179,0.6388601202566997,2.4260193353785144,-1.0227575342385684,2.5647753752684848,3,right
8.642000000000001,-0.4535444141784033,0.5900606210723527,-0.0860822781086123,1.0050069223404665,-5.489277921253503,0.6560432018020066,2.4727267576821164,-0.859224452412077,2.341528477120839,3,right
8.642000000000001,-0.4616794386074505,0.6086392190422286,-0.08222817018586459,0.9709440103021741,-5.472299847527742,0.6416241512650465,2.411115389739281,-1.0749289748189303,2.635964604096815,3,right
8.642999999999999,-0.4639814808858017,0.6138707075841272,-0.08041331972762195,0.9718732375609087,-5.4727695431905445,0.6420048758392447,2.1524861539851594,-1.9803691676854893,3.871546726702995,3,right
8.646,-0.473160408122635,0.6352911300162982,-0.07557578008179461,1.036695943890009,-5.504984750700421,0.6696526693381373,2.0908697847059083,-2.1960797821828697,4.165940434013842,3,right
8.647,-0.48299187177924685,0.6645944827350423,-0.07455464927293087,0.8774061604114385,-5.425845880323099,0.6016563557438264,2.137582806389447,-2.03253955163534,3.9427662814411977,3,right
8.651,-0.48653770394004736,0.6992660679212587,-0.0765901751364236,1.141478590815757,-5.557016120401143,0.7144412603153539,2.109415367492063,-2.1311675785345057,4.077337575123911,3,right
8.652000000000001,-0.4898389508772895,0.7275381575107482,-0.07619884137625946,0.793192642488702,-5.384037107681582,0.5656476180661938,2.120863357996946,-2.0910530067222055,4.0226313860665055,3,right
8.652999999999999,-0.4909480697763594,0.7344848405560337,-0.07542758564162433,-0.6687898244390134,-4.658056665888156,-0.058945288344284516,2.121047703076494,-2.090460410589427,4.0217794559215365,3,right
8.656,-0.48838585639297966,0.7599234663544967,-0.07223252979501299,-1.0170911651900885,-4.485100071975325,-0.2077448593415021,2.11501439684333,-2.1115294701804874,4.0505697064329755,3,right
8.657,-0.4828997174172573,0.7940835031756044,-0.06677899382673744,-0.7529738058990545,-4.616235277470587,-0.09496047733023032,2.122224535683075,-2.0863102274272287,4.016138579069856,3,right
8.662,-0.4747448273894625,0.8161550443792721,-0.0570955296964409,-0.9123574077745176,-4.537125360761475,-0.16292977958896876,2.1166357294749982,-2.105922523861093,4.042873905855313,3,right
8.663,-0.46352870700741355,0.8399886524689671,-0.04050110361651453,-0.8473834675271997,-4.56934231831696,-0.1353539220750884,2.1195984027545522,-2.095401550739737,4.028607388423082,3,right
8.668,-0.4520504837779473,0.8567519114377654,-0.023438145134944743,-0.846641706732356,-4.56975566321866,-0.13485225638296308,2.119012964226549,-2.097707553879139,4.031599353982406,3,right
8.669,-0.44830882015704965,0.868086159663958,-0.013215022489656532,-0.8805462508695687,-4.552900491232457,-0.14941762840916767,2.118081955508397,-2.1006524574576275,4.035806994300408,3,right
8.671,-0.4514402017710619,0.8755297098768712,-0.01828622360350517,-0.8396891739988863,-4.573152623849429,-0.13212265522975447,2.1195723118061003,-2.095685061614075,4.028878163414756,3,right
8.671,-0.46024410198837057,0.8753539297117592,-0.03731248974189706,-0.8718829175138674,-4.557283019815001,-0.14535892958130472,2.11827220050352,-2.100240185813552,4.035093173280754,3,right
8.677999999999999,-0.4745732367955412,0.8770698019804561,-0.06197311109734835,-0.8539379188642018,-4.565993250726843,-0.1385856280692628,2.118952410866169,-2.0973913684966368,4.031482613197282,3,right
8.679,-0.48832121482076857,0.8819384665655859,-0.09521236440304942,-0.8588890921459196,-4.563780519367491,-0.1396038818552582,2.119009211983248,-2.098258476191342,4.032032810877555,3,right
8.681000000000001,-0.5031100450772152,0.8870591553483722,-0.13181338982781832,-0.8625864713854517,-4.561748594075123,-0.14205839936381934,2.1183572450815316,-2.098952581019959,4.033924358020672,3,right
8.682,-0.5172160744044442,0.8962066071542846,-0.15897580067754236,-0.8547372621810627,-4.565644913605981,-0.1387128393067718,2.119259457717705,-2.0974849449493886,4.030914857640198,3,right
8.686,-0.5255382085355887,0.9104796219711717,-0.17305825283244072,-0.8636404954799763,-4.561586063179462,-0.14089240616794005,2.118599767540935,-2.098821438270824,4.033320630063534,3,right
8.687000000000001,-0.5301394274249243,0.9289020245563333,-0.1752843005559399,-0.8551738896250205,-4.564962061519589,-0.14098706118391352,2.118461321630954,-2.098454758521572,4.03332084127964,3,right
8.691,-0.5291922058819063,0.9546801042387829,-0.1686576687831523,-0.8626060501271691,-4.562507425115344,-0.1386247634656807,2.1198602232305754,-2.097256841471355,4.029493196046577,3,right
8.692,-0.5211865403871266,0.9885889156915555,-0.15078989897551326,-0.8569733212066706,-4.563986455244873,-0.1421214191888986,2.1170796435531427,-2.100141621435629,4.0374974801822,3,right
8.696,-0.5074274887263157,1.0328436608250469,-0.12068399857052453,-0.8590583381686858,-4.563713543198055,-0.13960159384896054,2.1207156374227862,-2.096196849224021,4.0268904784959645,3,right
8.697000000000001,-0.4904513047213942,1.082472801183151,-0.09291302369701003,-0.8633192981701621,-4.562252004878069,-0.13848112537105134,2.11765495963939,-2.0995943176805745,4.035889135249635,3,right
8.7,-0.46768557546108797,1.1362596595397476,-0.09901977524822245,-0.8498717382913161,-4.566059959692149,-0.14560490146752944,2.1177738062486817,-2.099339048530777,4.035419780360588,3,right
8.701,-0.43809170936026914,1.1963470832682246,-0.14137127852795417,-0.8732937219604564,-4.559753643471335,-0.13174650284937606,2.123511954621353,-2.093292993889321,4.018858063313571,3,right
8.706,-0.40080682429526626,1.2539817637584654,-0.19361301770386138,-0.8438927081633261,-4.56751423454506,-0.14982864643570545,2.1093610055306637,-2.1083944034414444,4.059899455199551,3,right
8.706,-0.3509475215008714,1.31631538975902,-0.2533293947567204,-0.8681483008473301,-4.561182560797393,-0.13460987599753088,2.132835372197513,-2.0832582857916506,3.9917137065864425,3,right
8.71,-0.31480572201308943,1.357875539509382,-0.28921990523217506,-0.8677460684219058,-4.561220220697801,-0.13512833649889447,2.1018768366811518,-2.1164561579568515,4.0817141851565495,3,right
8.71,-0.3035801045550829,1.3669553223877844,-0.29550461402412564,-0.8210217303882017,-4.5735460365879685,-0.16394993902542127,1.9718166191282782,-2.255536781117468,4.45907380825329,3,right
8.711,-0.2728516753759108,1.3949620441327937,-0.3113019140533335,-0.9354066929591569,-4.543494061852023,-0.09291890145986574,1.940877956781519,-2.2887613586587907,4.549118345591921,3,right
8.715,-0.21027933467351273,1.4262073150730692,-0.30266929367831463,-0.7459744048749342,-4.593196702429551,-0.2107830654281052,1.9643359495796602,-2.2635784065582616,4.4808604499988895,3,right
8.716000000000001,-0.16970592932359607,1.4314279961973813,-0.2793514560063977,-0.9957182207202098,-4.527714769466565,-0.05527595288464822,1.9501586607113743,-2.2787323744495263,4.521970414683232,3,right
8.719,-0.15618205329183837,1.433697530878867,-0.27523516843435614,-2.044004869977034,-4.25285793849325,0.5974702326348578,1.956005574365071,-2.272651152919753,4.505388073101939,3,right
8.72,-0.11018729001322616,1.4314422936369033,-0.24785973038895073,-2.293654444040635,-4.187482912501757,0.7530018655170754,1.9559154129433118,-2.2723840278588217,4.504843681585586,3,right
8.722000000000001,-0.04122245816387631,1.4190008139518715,-0.21270572505371677,-2.1044136077894837,-4.236984106476857,0.6350837676835124,1.9531343836372046,-2.2758685662297107,4.5140455288472285,3,right
8.725,0.02502114742951226,1.396771966231028,-0.1925592129805902,-2.2185203798361446,-4.207191975832266,0.7062017827910174,1.9565169210715057,-2.2717495655576716,4.503116774695451,3,right
8.726,0.10961340713105397,1.3603471361445325,-0.16405536341677968,-2.172111285561795,-4.219275082262668,0.6772680659867856,1.9537992511520943,-2.274872052229002,4.511481641793175,3,right
8.731,0.2116041015858845,1.3146031953450676,-0.13245759268204987,-2.17146731853955,-4.2194164957663745,0.6768571470089371,1.9555228351105776,-2.2734492390196053,4.50741931870177,3,right
8.731,0.3305013837477273,1.2646437170850648,-0.097932632530573,-2.195720004709141,-4.213271095143916,0.6920287520658128,1.9545226413532866,-2.2731627154330862,4.5072964287276385,3,right
8.735,0.4664406074762468,1.2134282432669716,-0.0525869669387095,-2.166758441950609,-4.220427695444321,0.6738598955004143,1.955243235933259,-2.2747268780129843,4.5104133737472125,3,right
8.736,0.6062314171439789,1.1649777851250733,0.0028314578010606196,-2.1891801553858086,-4.215159154856586,0.6880039336649318,1.9545625248469445,-2.2725913495491095,4.506001046125897,3,right
8.738999999999999,0.7445529539158531,1.1223264031164135,0.06655230923947038,-2.177223149533045,-4.217694946314306,0.6803826773415873,1.955006644038817,-2.2743983814763507,4.509802948889243,3,right
8.74,0.8715005035673729,1.0831851828304981,0.12822616684258695,-2.1798962174418985,-4.217250639055919,0.6821216380038702,1.9554551757306342,-2.2739389729422705,4.508546770811522,3,right
8.745,0.9776734511656662,1.0484631353205822,0.17970867749108663,-2.1828927131833735,-4.216973831466349,0.6841345314483959,1.9532249547591862,-2.2720912068428265,4.50557475293853,3,right
8.746,1.058875919668619,1.0220251185566152,0.21908385945262523,-2.1780793300162813,-4.216600614006193,0.6806663735938756,1.9578836271488675,-2.2767816254862696,4.513636406613986,3,right
8.749,1.1097962557718208,1.0001955355980283,0.24694781863330834,-2.181962319123289,-4.218396641950441,0.6838933122275064,1.951038786365212,-2.2696728357543776,4.501306398096463,3,right
8.75,1.124265694426579,0.983199168231267,0.2631443624486224,-2.1801324582407515,-4.215425094799798,0.6817625380521015,1.9583157638476953,-2.2772711020875613,4.514506191881934,3,right
8.755,1.1055977223842166,0.9705661866612172,0.2698073050158125,-2.1803205106073342,-4.218126349581013,0.6826693183082988,1.9541423268492504,-2.2728489440420088,4.506791189017157,3,right
8.756,1.0639078084022966,0.9641728562275971,0.26839116322578327,-2.1803010377474203,-4.218155977048528,0.68266418745068,1.9503908827504812,-2.2691970369713546,4.500580049215796,3,right
8.759,1.0069930416468234,0.9667344662071841,0.25943029321462774,-2.1819878219354183,-4.21261091044224,0.6822502345926221,1.9665566170633966,-2.2854398938147398,4.528480112493568,3,right
8.76,0.9433455832469365,0.9777878165323804,0.24707410391410156,-2.1772739243039556,-4.225507768973982,0.6826609520833318,1.9366232182386653,-2.2552721014529915,4.476611817784901,3,right
8.764,0.8745059060793969,1.0071361858934513,0.22112767640944714,-2.185013820081486,-4.206082793256326,0.682489117484421,1.9750480740343244,-2.294016852661703,4.543239051538867,3,right
8.765,0.8089761964029851,1.035525088728095,0.17320101235281254,-2.176349305143725,-4.226898423735694,0.682414592115134,1.9429745700307541,-2.2616707702635326,4.487608580141286,3,right
8.767999999999999,0.7361553263659442,1.067738780557649,0.08235212305884033,-2.1814878260984756,-4.214836670694586,0.6825399833385124,1.9438238020028284,-2.262553064497002,4.48914808607811,3,right
8.769,0.6522182888930768,1.107378210987314,-0.05341197324183426,-2.185972531043052,-4.204424394842084,0.6826824707388925,2.0050406669787635,-2.324199322510132,4.59510281181155,3,right
8.773,0.5663582039176281,1.1351472254119943,-0.19132701485344294,-2.1661864836564204,-4.2500342805122235,0.681960043579314,1.8546020345546745,-2.172680861227975,4.33464933218948,3,right
8.774,0.44787634740563126,1.2194422868896302,-0.3285861705489168,-2.2030321753537843,-4.165410913762261,0.6833943749005231,2.1040265291863616,-2.423895070196245,4.766488691375557,3,right
8.779,0.36523597780161027,1.3001206886711176,-0.41465102250185537,-2.1556142969362124,-4.274098518712477,0.6814872272703574,1.7750421191987973,-2.092559905979533,4.196912017379442,3,right
8.78,0.3454632954448268,1.3281849168565927,-0.4328944101967025,-2.195250012743223,-4.183349481348485,0.6831077841609037,0.39405608440019574,-0.7016314908995366,1.8059768773992277,3,right
8.781,0.28167211964242334,1.456578144489348,-0.4897286589787938,-2.194174044149365,-4.185801836489647,0.6830686097853016,0.06507744526155876,-0.37032396483068897,1.236435879141117,3,right
8.783999999999999,0.22844194802597756,1.637349230300544,-0.5733360520273412,-2.118527256431105,-4.358873565004773,0.6799159969777544,0.3144956961463089,-0.6215082661341058,1.6682366356860294,3,right
8.785,0.23490068194327346,1.7608606448362498,-0.6506542394028101,-2.3044940587091958,-3.9334807983773583,0.6876797316477916,0.16405468928881362,-0.4699784496326371,1.4077684892828461,3,right
8.789,0.23915483521546396,1.8385458584503866,-0.738521739934469,-1.9961323486367324,-4.638809277890767,0.6747892573868239,0.22529226464859403,-0.5317238610616887,1.5138512228985948,3,right
8.79,0.24545694350106656,1.858743531499841,-0.7835625086331105,-2.402843006536136,-3.7084729236966085,0.691807639424848,0.22609693531588895,-0.5323927899331439,1.5151152851870069,3,right
8.791,0.2463969144565786,1.8541948577909153,-0.7844921679659821,-4.10882656196503,0.19685817712171338,0.7633838339166669,0.19408732342096321,-0.5003526495999503,1.4598797589240697,3,right
8.794,0.23884393334772502,1.8258083865630526,-0.7569306832291298,-4.5152385697870745,1.1272566554552577,0.7804369640185065,0.23244855571099338,-0.5387927220906985,1.5261136912194748,3,right
8.794,0.24327923507108365,1.7611666879702335,-0.6598504784246795,-4.207535223927767,0.42179516807438366,0.7674760832246234,0.20254260980668098,-0.5087564380203322,1.4744151332087847,3,right
8.798,0.2650751441452825,1.6911329811213052,-0.49177094939530425,-4.392437472246316,0.847395414055258,0.7753417381953354,0.21876297708877349,-0.5252608222090961,1.5026528497956582,3,right
8.799,0.31580236272775,1.6204558849864457,-0.2931137332354582,-4.318166910869584,0.6740661993263207,0.7720742351430057,0.21483554300933616,-0.5207662851807228,1.4953538997037388,3,right
8.802,0.3946295712300172,1.552508502607327,-0.09760807486196749,-4.315765231394474,0.6718468982277942,0.7721221973885433,0.21096534523503796,-0.5177961146353784,1.4895133161459477,3,right
8.802999999999999,0.5150885886725429,1.4718559682508823,0.04432218039848396,-4.355992461321726,0.7625187408685536,0.7737459660403101,0.21787017099902292,-0.5236123213088717,1.5004126462180052,3,right
8.808,0.6827734041580571,1.3581525851728407,0.08431008322739536,-4.309620888466723,0.6535870556065032,0.7716755538648024,0.21132202920803353,-0.5179244351248924,1.489916799571557,3,right
8.809,0.8481444865272563,1.2326103895152347,0.05331932684795121,-4.342978545703126,0.7389117045253151,0.7734775631361775,0.21598334186278,-0.5226271491531438,1.4979945198686262,3,right
8.812000000000001,0.9557407965089462,1.1207351642171566,0.00040066450185086665,-4.329290678843809,0.6921382160547295,0.7722104481460943,0.21320253461875993,-0.5181434037852402,1.4916194216502991,3,right
8.812999999999999,0.979394749713718,1.032956099109901,-0.0722704536414271,-4.326169261894556,0.7039362217859075,0.772929239978764,0.2149093460338224,-0.5237087503413564,1.4981409191708197,3,right
8.818,0.9166196171628301,0.9781337491184534,-0.15761266942633706,-4.337578066432195,0.7149517686477267,0.7727306057201919,0.21347631050700486,-0.516527293091769,1.4903393890651633,3,right
8.818999999999999,0.7808462789979733,0.9548993269844618,-0.23810747248244687,-4.328480443672264,0.6939949993342223,0.7723431853180751,0.21479669854489208,-0.5239743608910363,1.4982970916153775,3,right
8.824,0.5933804744547282,0.9631571590706078,-0.3031189509007434,-4.325710214756681,0.7156625149463641,0.7734825974934569,0.21436105870822925,-0.5200006535546262,1.494265878551421,3,right
8.825,0.37682183379985,1.0070192153163777,-0.3420589059327732,-4.3459056901935265,0.6978800567250663,0.771460084249091,0.2123641454025214,-0.5149435537081484,1.4879833651032146,3,right
8.827,0.15033492740759172,1.0776391349552723,-0.35732401776389155,-4.30971035769229,0.7105218434507505,0.7742229535355092,0.21844981490138052,-0.5344058228541029,1.5108832908075898,3,right
8.828,-0.06544185761513857,1.1633173697433934,-0.35230539729377225,-4.350968670782402,0.7031624740823341,0.7713895709864205,0.20764263080043283,-0.49879387258814056,1.469244363079385,3,right
8.832,-0.25342554330044614,1.2481238426553634,-0.3130800289355281,-4.325763330363296,0.7042916385176216,0.7729699032271997,0.2214124754902695,-0.5444146563760038,1.522525013030131,3,right
8.833,-0.4014697643123567,1.3156892694900013,-0.24882283987008968,-4.306915285680493,0.7118420249583175,0.7744512669525176,0.20995965602437555,-0.5063696362422048,1.4781184671662646,3,right
8.837,-0.4912818344556824,1.341486329365865,-0.15883557980953023,-4.395481522434748,0.692681499228638,0.7682195458774614,0.21010405747118033,-0.5072367187032745,1.4790326599814319,3,right
8.838,-0.528403515188673,1.326800612433882,-0.044412130328113704,-4.229460787225534,0.7241667913468453,0.7797033765246111,0.23248676366463197,-0.5803194371590925,1.5646522006024293,3,right
8.843,-0.5300071003666225,1.2843581173720042,0.06940847746156452,-4.443429998484984,0.6855353047468922,0.7649892822167966,0.17766670342996776,-0.40087802713664766,1.3545476752282455,3,right
8.843,-0.498309475795369,1.1935803154580493,0.2037787442044237,-4.264453465739047,0.7170169935775654,0.7772610652124247,0.26851236200239054,-0.6983575370935567,1.7028249748197282,3,right
8.847000000000001,-0.4682821120530351,1.1193721228646658,0.2926544975636032,-4.269609144410474,0.7168342713659196,0.7769369001546824,0.14868915872408994,-0.3059789704622436,1.2434536416828132,3,right
8.847999999999999,-0.4593967658363305,1.0974089968511,0.31134879649136127,-4.610292823629251,0.6555622494827833,0.7535245771676193,-0.3544814835713376,1.3411678163113325,-0.6851410980527718,3,right
8.849,-0.43269504164115624,1.02690490476324,0.37215732723792816,-3.77237087339883,0.8049601029322502,0.811055836605282,-0.4743293427588614,1.7335822148457973,-1.1445527270523275,3,right
8.853,-0.37980302358836104,0.9169551552423416,0.4157385754967972,-5.161964971989984,0.557828786412115,0.7156703971691707,-0.38345700843689257,1.436063937828934,-0.7962318291799322,3,right
8.853,-0.34584750490680083,0.8639772970187751,0.4044249116366876,-3.3289428494260704,0.8835073733561645,0.8414846742614897,-0.4382669217515093,1.6154906007225527,-1.006319775879189,3,right
8.857000000000001,-0.33567783698534587,0.8466480408538656,0.401853911967535,4.364809613269327,2.250531868049282,1.3695125525559577,-0.41597270499487393,1.5425364837709394,-0.9208448463448462,3,right
8.857999999999999,-0.3044708924635654,0.8011793872392379,0.3634839636234647,6.197955877574362,2.576044627625669,1.4953350096662446,-0.4156379090646314,1.541392702565446,-0.919619500804131,3,right
8.859,-0.26398069889398734,0.7543593394126604,0.29535121373085893,4.808149982692552,2.329270088373117,1.399943969924065,-0.4273637142156944,1.579834449648212,-0.9644721795139715,3,right
8.862,-0.24389943648253443,0.7378396453820347,0.2279750592000129,5.646295296846762,2.478107953605532,1.4574603519517355,-0.41332203446706256,1.533818612243818,-0.9107472706401611,3,right
8.862,-0.2363996503834072,0.7369854096305211,0.15426308061246957,5.305491345243334,2.4175359487554076,1.4341011179523373,-0.42424650717920254,1.5696010140863708,-0.9525778947611115,3,right
8.867,-0.24394016654523504,0.7543846398900125,0.0963151882913612,5.300216464070873,2.416712277242251,1.4336785793838531,-0.41839427296988563,1.5504779976561398,-0.9300594435212611,3,right
8.868,-0.2641878459797072,0.7843989775380937,0.0587019945441906,5.479666517757751,2.4484202690973396,1.4460787174121021,-0.4196392398012614,1.5544422981903545,-0.9351130957640497,3,right
8.871,-0.29465398292241646,0.8185345045540471,0.04025030592489774,5.264847810803123,2.4104286208920285,1.4312526617535906,-0.42137050718542013,1.5602989285245945,-0.9412617027516342,3,right
8.872,-0.33718283433164997,0.8549420146753632,0.042713036320917275,5.431936923169966,2.440031294105391,1.4427553638636037,-0.41846006757906296,1.550541059201803,-0.9307054116044103,3,right
8.876,-0.3863175225391524,0.8891069577336209,0.05952249969865704,5.342483031431609,2.424023025110399,1.4366876140802418,-0.42116075641830186,1.5595647731730131,-0.9405786846259241,3,right
8.877,-0.4467485727777181,0.9283880925049014,0.08630481571292574,5.361408199791314,2.4277878678399123,1.4377574802653994,-0.419465270896085,1.554015903717732,-0.9340755978186672,3,right
8.881,-0.5158709964796779,0.9695872116460441,0.11387051959595809,5.388060463217034,2.431823406410804,1.4399805761286966,-0.4198935818304692,1.55508077053809,-0.936606207450922,3,right
8.883,-0.5878660477117084,1.0085176149866104,0.13316935579623485,5.343348035263198,2.4247390896004175,1.436428759712653,-0.42060845288518367,1.5581912228219303,-0.9373145162037951,3,right
8.885,-0.6618582792806004,1.0489325735987758,0.1385617569815447,5.384805888083706,2.4314189568691136,1.4396591721436378,-0.4191362441727615,1.5522232207916735,-0.9347029592972601,3,right
8.886000000000001,-0.7267957285221144,1.0836582457323294,0.12685347364993121,5.358879222373831,2.4268097425298163,1.4378831833548222,-0.4207812516117714,1.558832362777628,-0.9377765266043633,3,right
8.891,-0.7780939547282385,1.1073030896877767,0.10106206739884885,5.365144849456133,2.429185256568436,1.4375987250974467,-0.4197115039917786,1.554623435287483,-0.935543509594092,3,right
8.892000000000001,-0.8137453281467514,1.1208711902765598,0.06631281988134582,5.376722741260782,2.4283543172847186,1.4400262319061823,-0.4193800483150849,1.5529284687127296,-0.9358828937858156,3,right
8.896,-0.8321647109623401,1.1201610135618516,0.028512856687856792,5.353248951322336,2.4284929755655247,1.4359790397963867,-0.4217975043565059,1.5635103416565959,-0.9381037442327977,3,right
8.897,-0.8320033822147535,1.104941976879939,-0.004650053373210063,5.379426581685515,2.428549831072879,1.4403728800837474,-0.4171398716837162,1.543315692333993,-0.9333164904258517,3,right
8.901,-0.8043515518536963,1.0792703102848233,-0.02606648859376342,5.362478421645083,2.428193828988837,1.437708580163286,-0.42315952665708967,1.56937381357044,-0.9396132142576369,3,right
8.902000000000001,-0.7612490802455185,1.0463771891791054,-0.032526710226787395,5.3569004090715655,2.429488979432269,1.4360331530254198,-0.41811838766534043,1.5475687692360764,-0.934296341967384,3,right
8.906,-0.6970489980050462,1.0096043542015702,-0.02997545432116075,5.396093777199857,2.4264420037425816,1.4443830276522087,-0.41831512132493165,1.5483546697746717,-0.9346717018694671,3,right
8.907,-0.6139299264272409,0.9729424390774951,-0.01873243437509026,5.320743765113747,2.4316206896594528,1.4287139493185284,-0.42772929753170175,1.5892873508733718,-0.9440490516563844,3,right
8.911,-0.5278225381005807,0.9413685035453329,0.0008213364597017873,5.418091961394139,2.425075396545057,1.448875836979241,-0.40451983932773194,1.4884521858524709,-0.9207294700698042,3,right
8.912,-0.40850956157486085,0.9100305087436573,0.01240527609474865,5.3365836415523855,2.430499423183193,1.432025734943017,-0.44301979691798027,1.6556966045965162,-0.9594624695026086,3,right
8.916,-0.3159559260378818,0.8910861613494004,0.01050556287431504,5.339708361780694,2.430511657154103,1.432548597398946,-0.39223795755070245,1.4351026989464,-0.9083710343786647,3,right
8.917,-0.2884862986830142,0.8900560240308233,0.007703949963973716,5.4921033761817935,2.4196414623177347,1.4644620460806173,-0.1791592543441227,0.5093868598813367,-0.6942185093425337,3,right
8.918,-0.20225167432778998,0.8826753056379572,-0.005017983707954977,5.116464348313259,2.446177711970586,1.385941113662308,-0.12838637066320074,0.28882649519851833,-0.6431606628802411,3,right
8.92,-0.05306536555337494,0.8857841398807862,-0.04517520283467134,5.739551403485313,2.4022179472344654,1.5161573789500986,-0.16687664297901897,0.4560346279037131,-0.6818573283940776,3,right
8.922,0.024821616647662102,0.9009513680788515,-0.07473452176005421,4.917707751081411,2.460211310269492,1.3443941225428695,-0.14366348471887802,0.35518565003495295,-0.6585239011501358,3,right
8.925,0.04878727453981519,0.9062924520430811,-0.0837768585156786,1.4693332896357285,2.703869423127218,0.623509897964245,-0.1531098323928867,0.3962387281189948,-0.6680218462706917,3,right
8.926,0.1255936911443263,0.9293354459993818,-0.12081370223971177,0.6476918748485091,2.7619321111075967,0.45172988185099333,-0.1532373655655849,0.3967655945650406,-0.6681377634666072,3,right
8.927,0.21536875542534634,0.9684250043245142,-0.1699622814058796,1.2705028799898754,2.717864193566556,0.5819814248561606,-0.1482954296281005,0.37533194037099793,-0.6631928526478961,3,right
8.931000000000001,0.26909572445522234,1.0033235330729604,-0.20880919198777903,0.8949833853606343,2.744489326347476,0.5034066617318675,-0.1542163195518353,0.401020249759384,-0.6691192138649844,3,right
8.931000000000001,0.31258407248318465,1.0402361933651385,-0.24858055160633136,1.0476862133660112,2.733625879529094,0.5353851563108389,-0.1496012641187507,0.3809851391261291,-0.6644917026686471,3,right
8.935,0.33490387600176974,1.077098161551171,-0.28032137945884184,1.04986938402757,2.7334618863610807,0.5358517036023001,-0.15210361854789828,0.3918846389982904,-0.6670307307061878,3,right
8.936,0.34121385262233095,1.109064581320002,-0.30248210602358416,0.9699346362510236,2.739268058262451,0.5190153803607852,-0.15149883271301523,0.38916662105677213,-0.6663454233818156,3,right
8.94,0.33555279378348146,1.1284712473212082,-0.31481072207264327,1.065436587901453,2.7321804939170535,0.5392472001475593,-0.15089995858258717,0.38672038953429233,-0.6658778525021825,3,right
8.94,0.3116031191141754,1.1375464659911918,-0.31575491071248984,0.9914018786165019,2.7378935184879154,0.5233925945705021,-0.1519671773388041,0.39116633009011104,-0.6667849238048984,3,right
8.947000000000001,0.2816990281662568,1.1401230412921102,-0.30766356799464356,1.0309853906525508,2.734620053121178,0.5320404115831739,-0.1509554734531542,0.3869228341289694,-0.6659003792396447,3,right
8.948,0.24281389589346325,1.1312434544588508,-0.2930295295970987,1.0220945626095084,2.7354541685312763,0.5300210482400648,-0.15167476189316614,0.39004889077495686,-0.6666245916117407,3,right
8.949,0.19955700278715122,1.1173459585255456,-0.2796066838193799,1.0120214743314473,2.7365683086624726,0.5275998449719675,-0.15124777833234737,0.38791298802384355,-0.6659491455258564,3,right
8.95,0.15815744087251443,1.1014814035696672,-0.2654518721029914,1.0285229060370513,2.734103587916353,0.5320663728390629,-0.15150635628317133,0.3896785129544188,-0.6667720312191712,3,right
8.955,0.11505912315045111,1.0839756232652915,-0.25213735946496757,1.0146131137566419,2.737323673734323,0.5274072274043291,-0.15129235603614877,0.3877906822039911,-0.6657168898854483,3,right
8.955,0.07467217331333093,1.0675747807082365,-0.24867389202839493,1.0220199410754094,2.7340554575099896,0.531104107210802,-0.15148848536858728,0.38966435906674757,-0.6668096341699908,3,right
8.959,0.04146365584251846,1.0538054120109908,-0.2527911679799062,1.0202983992345174,2.7363651072558897,0.5290316764469609,-0.15142575489391877,0.3888010822309492,-0.6662290740453886,3,right
8.96,0.008631456012464265,1.0443990522108897,-0.25838049270418384,1.020351168687843,2.7363804513829635,0.5290277130283527,-0.1511211535194671,0.3869700489367014,-0.6654767525654535,3,right
8.964,-0.02304002109043235,1.0359522036842046,-0.26669779982210673,1.0168494656754468,2.732569494401325,0.531472284502329,-0.15204406033117607,0.3932047123017198,-0.6683569592577465,3,right
8.965,-0.044621139563664425,1.03045457250815,-0.27747439952884656,1.0276811556894372,2.7410790453777776,0.5264770346251462,-0.15040666751034942,0.38196330458580574,-0.6630900987849244,3,right
8.969,-0.06157614579273873,1.028983169497947,-0.28463394008989806,1.0091928081831023,2.728548858682778,0.5334420996704143,-0.15249235941891973,0.39632610014631753,-0.6698361278687333,3,right
8.97,-0.07260013534741855,1.0288493487509351,-0.29011738685221844,1.0302631955334283,2.7418100760982282,0.5263018241953995,-0.15075815053067526,0.38436402740812714,-0.6642112834398033,3,right
8.975,-0.07621895323934964,1.030193250840107,-0.2941297214711672,1.0176537264005074,2.7341785150230113,0.5303365224560199,-0.15077859819854872,0.3845769225048742,-0.6643368512603407,3,right
8.976,-0.0814403375062549,1.0307921433951677,-0.29230692494164784,1.0066027542842253,2.7276126996532195,0.5337766405012613,-0.1541716413763431,0.4077509436471074,-0.675149136519422,3,right
8.979,-0.08592370408356731,1.031546785361356,-0.2901318892638872,1.0554898648708009,2.756310732583613,0.5188303714309758,-0.14586381750747296,0.35092168832258835,-0.6486059782369761,3,right
8.98,-0.08653170638526633,1.0316661776994571,-0.2882372614214638,0.9643282002243234,2.703125352216426,0.5464439450478774,-0.1596295314125885,0.4451150311473512,-0.6926065945453492,3,right
8.985,-0.0852807799467275,1.0308885402201633,-0.2857967946891333,1.0817306416234502,2.7713935401730394,0.5110587603386949,-0.14147461439616607,0.3208750989517598,-0.6345720772076715,3,right
8.985,-0.08483442069640967,1.030347787434593,-0.28462376744965623,0.9835646522343644,2.714410314974898,0.5405694584804517,-0.06522539563708724,-0.20076926556283797,-0.39092789914773635,3,right
8.986,-0.07942573112237014,1.0272063915379679,-0.2816970195325271,0.9862056315247565,2.7159550123944247,0.5397631625378487,-0.04707084101597811,-0.3250284722057061,-0.3328938672261044,3,right
8.988999999999999,-0.06718072782221854,1.025427504444615,-0.28079077436229016,1.1736933218551198,2.8245852749235665,0.48356817743401476,-0.06083440276626593,-0.23081188944181313,-0.376892132124632,3,right
8.99,-0.05500686238520952,1.0272887359139686,-0.28479461231467135,0.7127826186592783,2.5575905505339414,0.6216745945272093,-0.052532663965510554,-0.2876416655942623,-0.3503552426090821,3,right
8.993,-0.03486691930768929,1.027816392979744,-0.2918602816670349,1.4770803865720792,3.0002721936103747,0.39270970271664213,-0.05591415539102545,-0.26451939322663204,-0.3611559345483687,3,right
8.994,-0.01877681987570659,1.0268701454234201,-0.29761608521668603,0.46892753153228095,2.416387219599726,0.6946856067380249,-0.055950871831699556,-0.2641835131479363,-0.36129753785218677,3,right
8.995,-0.015029160500409998,1.0268428849218467,-0.29874111742278986,-3.7623524668581294,-0.03429731771896949,1.9617432101888557,-0.05420021132572991,-0.27633124158807326,-0.3556568346831347,3,right
8.999,0.002186450943097485,1.0266558333227906,-0.2983476610605833,-4.770390978476339,-0.6181398819546629,2.2635981512155654,-0.056293698249047654,-0.2617719292674047,-0.362409745631059,3,right
9.001,0.02616665794813269,1.0243230865764228,-0.2909889203641973,-4.0063696370408035,-0.17554859128738956,2.034890756775624,-0.054668889337145615,-0.27311975109652903,-0.3571564624775916,3,right
9.003,0.04545822977052079,1.0194269020930307,-0.2734619854662582,-4.466786471887783,-0.44240326067289637,2.172598445623508,-0.055548354330806585,-0.26700401721897227,-0.35999263025201933,3,right
9.004,0.06778246155069553,1.0135927293411737,-0.2516628607843294,-4.280003582248783,-0.333945510124369,2.1168939754876046,-0.05532047513511361,-0.2683662403572049,-0.3593165783153742,3,right
9.009,0.08318212865465352,1.0086106368080068,-0.22751349158842576,-4.276591112943326,-0.33224655817094584,2.115649979756747,-0.05516143137994206,-0.27008594411207376,-0.3586418335006559,3,right
9.011000000000001,0.09149198287324262,1.0030812775314157,-0.20519826108587014,-4.3752668574532505,-0.3892772833772875,2.1452937211240464,-0.055437665412116637,-0.2671095682737187,-0.3598106382951729,3,right
9.014,0.09897080994195304,0.9974101348971484,-0.1895306184602976,-4.258101705574716,-0.3211787161864483,2.1103937417622487,-0.055216695753723906,-0.2699536576528768,-0.35875389018483206,3,right
9.015,0.10088333186975822,0.9946269398204026,-0.18166567332210862,-4.3477778614893285,-0.37388811130348143,2.1366509812274854,-0.055344270768889856,-0.2680191319609771,-0.3594408992197874,3,right
9.017999999999999,0.10055619140423648,0.9951107857236982,-0.1813476268205638,-4.301873788256869,-0.34597253115520715,2.1239308781363873,-0.05523055257604559,-0.2687876454205571,-0.35908005503811186,3,right
9.017999999999999,0.10201060646115231,0.9981608322760385,-0.1873969722182407,-4.308798743709647,-0.3516146347629188,2.1247467939099245,-0.05547152950226372,-0.26910865876234163,-0.3593318320782116,3,right
9.022,0.10293107317070746,1.003083529728782,-0.19472387537734293,-4.325403666484309,-0.35993113901919765,2.130721389941945,-0.05498280166046935,-0.2679512988963928,-0.35895433366666135,3,right
9.023,0.10568505553264011,1.0099240201045119,-0.1965887305876213,-4.302738793836061,-0.3467924856550889,2.1239429939614647,-0.055726228839699146,-0.2695796546740624,-0.3595633799089884,3,right
9.029,0.10957568516360991,1.0162480810208157,-0.19474025003851037,-4.317550753233071,-0.3577853983189592,2.1265203878595855,-0.054914668793777065,-0.2679742153557715,-0.35885320813298804,3,right
9.03,0.11037758526649774,1.0206844341753125,-0.19072185711762263,-4.318084659349939,-0.35257750664943777,2.13092653330564,-0.055383368905677965,-0.2689033257103477,-0.35926284313355106,3,right
9.033,0.1096236462555425,1.0245608092051324,-0.18150799907844226,-4.302242363233356,-0.3516326154000017,2.1198479312881933,-0.05582973500741391,-0.26941453757030875,-0.359751293107783,3,right
9.033999999999999,0.10608681104932133,1.0243739140010084,-0.17066623347561455,-4.3257582015107925,-0.35647853291365794,2.1336426323819815,-0.05393106159917039,-0.26680199324208065,-0.35778892008622826,3,right
9.037,0.09750810721460267,1.0206260869950494,-0.16196480519818812,-4.308787224604384,-0.35171859649432835,2.124658602747413,-0.05744941885621606,-0.27166582047301835,-0.3614193348057491,3,right
9.039,0.0826737310703846,1.0143250485398239,-0.15600315452973418,-4.301283007426255,-0.3517432414068053,2.1190487747337996,-0.05292818672459039,-0.26544425715426456,-0.35674660211916265,3,right
9.043,0.06460520349925275,1.0056158085186973,-0.1554030194459807,-4.349165658453776,-0.3603487968363997,2.148105905634604,-0.05670431627930633,-0.2706276418093499,-0.36065258803192635,3,right
9.045,0.04296635183453365,0.9962542018126199,-0.15705988193249354,-4.255981612261777,-0.3418489984217187,2.0929052750428956,-0.05660659443367758,-0.2704563242182461,-0.36056143209890723,3,right
9.048,0.013891827054927024,0.9829303257261229,-0.15827117664392487,-4.37758088473057,-0.3667318515016799,2.164369188201719,-0.04938721418158683,-0.26070390174190894,-0.35305202072543773,3,right
9.049,-0.0119702981863276,0.9702057630468817,-0.15980834351870826,-4.275230755479099,-0.3454746412712914,2.1044569439094043,-0.06712812412109381,-0.2846983932072813,-0.3714977615253236,3,right
9.052,-0.038266327174140524,0.9590843221481694,-0.15784251086725443,-4.27872392037882,-0.3464717243715115,2.1062978128828265,-0.037712619333296296,-0.24491573814350592,-0.34091338896044326,3,right
9.052,-0.05762064842434715,0.949084066663105,-0.15630078911678813,-4.472544087031096,-0.38622102635173317,2.220130152989707,-0.07651253792444555,-0.2973824433949402,-0.3812569026390066,3,right
9.052999999999999,-0.06149735138050407,0.9458260929897808,-0.15693454547945196,-3.9948610579534907,-0.28776490414956424,1.9399502682066947,-0.23938704366818478,-0.5175200144293043,-0.550641984856963,3,right
9.058,-0.0837821410439214,0.9417417664626231,-0.15192156000256113,-4.787503036468754,-0.45137437913377176,2.4046917258996716,-0.2781884911379613,-0.5699775596312935,-0.5909896629292848,3,right
9.059,-0.10624652530049665,0.937494845043213,-0.1457121853568136,-3.7417055577158234,-0.23539200654172907,1.7916039533378112,-0.24877050811774318,-0.5302104546098251,-0.560398150910328,3,right
9.062000000000001,-0.10803318333983064,0.9386807864228521,-0.1452000610780478,0.6480643578038159,0.6711658659378248,-0.7817892622539716,-0.26651370786168815,-0.5541887402687491,-0.5788515072466989,3,right
9.062000000000001,-0.12542180791569024,0.9394617872017115,-0.14421354270026077,1.6940372769337748,0.8872571678708431,-1.394937130979112,-0.25929379693462284,-0.5444446239786223,-0.5713378084746235,3,right
9.062999999999999,-0.1489125999108929,0.9419955756279017,-0.13867874896119797,0.9010133066549242,0.7234185405338929,-0.9300731094438877,-0.2591931967022062,-0.5442829460352481,-0.5712430284929746,3,right
9.067,-0.16491569191707972,0.949954154649165,-0.13536891148852248,1.379304839386644,0.8222240598685511,-1.2104320867679532,-0.2629766720045621,-0.5494304826786328,-0.5751644978943167,3,right
9.068999999999999,-0.1838056046618928,0.9598805165845588,-0.13330667576483604,1.184710980950778,0.7820529648174684,-1.0963952248248714,-0.258444104333697,-0.543272131421504,-0.5704634963365104,3,right
9.073,-0.19882488299341045,0.9700072435415913,-0.1286632496645026,1.1819450197766816,0.7814204804212393,-1.0947136960851134,-0.2619748193913506,-0.5480575867488575,-0.5741299728859566,3,right
9.073,-0.21227894410553816,0.9795693677880642,-0.1269882098684093,1.284003029944228,0.8025896025135395,-1.1546222149663117,-0.26006867401628575,-0.5455085068696846,-0.5721368829604008,3,right
9.077,-0.22236188655779043,0.9859146560355206,-0.12403181534336563,1.1617571951045589,0.7772515475575357,-1.08288130914706,-0.2605095109538142,-0.5460178333019597,-0.5726296812619609,3,right
9.078,-0.22166979022926142,0.989808065713592,-0.11676414408160377,1.2569609442902605,0.7969558858015258,-1.138722683824049,-0.2610045385207034,-0.5468352215572763,-0.5730855197680561,3,right
9.081,-0.21207075991546426,0.9929893866671216,-0.10720754055476173,1.205622634544663,0.7864183484817093,-1.1087024303080195,-0.2601428311836089,-0.5454889566393375,-0.5722616363365547,3,right
9.082,-0.19251995677226713,0.9933823154292151,-0.09313150818006016,1.2173578012299342,0.7886206657867099,-1.115348462956871,-0.26095287657431027,-0.5467283915723422,-0.5730464776445474,3,right
9.086,-0.16491744056568564,0.9911734927485856,-0.08257325697446036,1.2309569928860782,0.7918127214328061,-1.1237203351584917,-0.26040343444748093,-0.545987114881521,-0.5724746000942024,3,right
9.087,-0.1329754642242702,0.9878500034270392,-0.07896117041791008,1.207416391529227,0.7864801344718796,-1.1094304358671931,-0.2606614043894351,-0.5460675651180464,-0.5728495782303309,3,right
9.091000000000001,-0.09974286389735745,0.9836455568364014,-0.07768764329946251,1.2295007054351612,0.7914166127319718,-1.122766977228513,-0.260620100329505,-0.5466245355422188,-0.572562739998696,3,right
9.092,-0.06737097818157806,0.9814352232990609,-0.07902866913276774,1.2146913471614944,0.7883603240201464,-1.1140897812877295,-0.2605504103553865,-0.5456162593103616,-0.5728541410345795,3,right
9.097000000000001,-0.036068824950753475,0.9834110741232147,-0.08217225434507722,1.2211869991475401,0.7890087771450777,-1.117170885508881,-0.26064915678771594,-0.5467241024542213,-0.5725688599925775,3,right
9.097999999999999,-0.007013189736611636,0.9877207020427861,-0.08720432803302978,1.221121145454005,0.7905800661071729,-1.1187922379566697,-0.26055348495313124,-0.54603182240859,-0.5726936812166512,3,right
9.101,0.02275368867183692,0.9923568762800402,-0.09415845004369236,1.2176799318880223,0.7875047940569411,-1.1142988640886862,-0.26066229192839063,-0.5456935607520786,-0.5729997339459316,3,right
9.102,0.05073224309158476,0.9958712982835153,-0.09951922898081611,1.222007427801378,0.790919209468445,-1.1194751238932663,-0.2604991955378514,-0.5475970431238733,-0.5719849272664115,3,right
9.106,0.07548507118479786,0.996380006591197,-0.10108768080665861,1.2184660680149642,0.7887313699775905,-1.115874284822191,-0.26074515248831065,-0.5439906810878286,-0.573808544278047,3,right
9.107000000000001,0.10321399475246772,0.9943051584172405,-0.10118741156583257,1.2205697053939213,0.787910528414979,-1.115792269416656,-0.2604420058130112,-0.5486385294907771,-0.5714796856943669,3,right
9.111,0.13060981586892995,0.9914502400180095,-0.10189137650827763,1.2198033036656102,0.793246251408515,-1.1210974618857312,-0.2606899628484019,-0.5447513686867891,-0.5734192563823577,3,right
9.112,0.15587031598003018,0.9839824485595431,-0.10474878352595968,1.219701404795805,0.7830365797796315,-1.1103665170468657,-0.2607029240371963,-0.5448831367205115,-0.5733856543708913,3,right
9.115,0.1791152797958315,0.9717830349360668,-0.10869724850770981,1.2201738466648822,0.7962167105500875,-1.1243453980785534,-0.26016555941432773,-0.5522079808659568,-0.5696239724741873,3,right
9.116,0.19859972851990337,0.9606231054434934,-0.11000312509102339,1.2196413143331557,0.7851849583095881,-1.1125947357873125,-0.2614631786446231,-0.5341731806169534,-0.5788486642649517,3,right
9.121,0.21666128851498112,0.9484836576718736,-0.11327708545536277,1.2201860105621412,0.7855926479838502,-1.1132223786562654,-0.25931760705318685,-0.5640836813580826,-0.5635578552830056,3,right
9.122,0.22668077426755157,0.9409816950484011,-0.11714839878673013,1.219461108408011,0.8062694835257213,-1.134611278847868,-0.26214717520955877,-0.5246313445084496,-0.583727437193732,3,right
9.123,0.22927494432908446,0.9390697752102786,-0.11816946942526167,1.2206186739119287,0.7553203865940663,-1.0816767925903994,-0.2740520406100226,-0.35906759609770106,-0.6683718669521024,3,right
9.126,0.23263637347968652,0.9318615613819836,-0.12404731637392129,1.2188594108842197,0.8398285303396993,-1.1695360715187562,-0.27688412650705263,-0.3196186528669623,-0.6885423728906432,3,right
9.127,0.23328608239170934,0.9278187087038965,-0.12888910667586573,1.2211684158816132,0.7283613906008919,-1.0536463144504742,-0.274735837100062,-0.3495255248514948,-0.6732564129679137,3,right
9.131,0.23120039051131036,0.9280502308896281,-0.129122467168921,1.2316103340178115,0.26063336954197763,-0.5676387323325545,-0.2760323982822598,-0.3314891761370321,-0.6824600079341807,3,right
9.132,0.22608667080538805,0.9255968762377564,-0.13516775125045238,1.233987667585354,0.14918357332936327,-0.45179851166070556,-0.27550411490444415,-0.3388265129524344,-0.6787443515263327,3,right
9.133,0.21537845033635192,0.925291549413488,-0.14265178400043743,1.232154192723725,0.23367067435579714,-0.5395975050918749,-0.27549756697723166,-0.33893161080605994,-0.6786402522264087,3,right
9.134,0.2031498531003445,0.9242268154695363,-0.14548297324468615,1.2332846501991321,0.18272250995187206,-0.48666633228692435,-0.2757734718443658,-0.33508252199984034,-0.6806580584184878,3,right
9.135,0.19261266684249342,0.9229372055903095,-0.14775002732170223,1.2328028912624935,0.2034449537583649,-0.5081841583403458,-0.2754425252917837,-0.3396926680216605,-0.6782798269685493,3,right
9.14,0.18312401568593123,0.9223535668686176,-0.14924834730950343,1.2328230451026596,0.2037433977785082,-0.508501762853145,-0.2757004210514944,-0.3361021850495226,-0.6800717621536462,3,right
9.141,0.1712764745551385,0.9216805622714488,-0.1499165578177012,1.2330437122645521,0.1928771798217505,-0.49722176430700543,-0.27556132652363424,-0.33803893881870667,-0.679221443145338,3,right
9.146,0.15712845963185593,0.9225279654531761,-0.15004687027155536,1.2327647353579878,0.2058813574730771,-0.5106993190705511,-0.27559304018918995,-0.33759504219360975,-0.6792076781037206,3,right
9.147,0.14012210411736226,0.9203269483305407,-0.14469660827802386,1.2329896397803868,0.19576824910576607,-0.5002453096682848,-0.275630076542958,-0.33708390049019366,-0.6797643127797803,3,right
9.15,0.119329993928746,0.9172793680743534,-0.13539814768532815,1.2328625448603572,0.20120749612322658,-0.5058412989946158,-0.2755660914446578,-0.33797037094883664,-0.6790757357429189,3,right
9.151,0.09731965966528061,0.9150694035372067,-0.12581721829360776,1.2328965725054708,0.19997134750117468,-0.5045822400745824,-0.27562593764287,-0.33713719488527094,-0.6794994348911222,3,right
9.155,0.07346787909951702,0.9144057060457211,-0.11593982977898634,1.2329270401841268,0.19854554219006987,-0.5031458864369236,-0.2755862513462144,-0.3376989234464475,-0.6796494575595449,3,right
9.155,0.05053476018369556,0.9166872681560274,-0.10760624137164712,1.232864847903795,0.2009754498749256,-0.5055209968544341,-0.2756027731862687,-0.33744709700551256,-0.6787792853571466,3,right
9.158999999999999,0.030656615196766865,0.9177131913433063,-0.09710678000444259,1.2329325039946903,0.1987586887663627,-0.5034770181388994,-0.27560428008299714,-0.337459385610221,-0.6802630747855998,3,right
9.16,0.018592897072393658,0.9201756004948124,-0.0835438867388528,1.2328767530619993,0.20016823395474828,-0.5046227348244587,-0.27559307164908287,-0.3375792637612417,-0.6786134970752327,3,right
9.164,0.019225284178414695,0.9264986575394905,-0.07250573117854364,1.2329094145174873,0.19961199575751615,-0.5042992572001013,-0.27560601823171704,-0.33742080247477285,-0.6796119426039711,3,right
9.165,0.021958785836182073,0.9353018228816883,-0.06730726514139362,1.232908557887308,0.19961631324425685,-0.5043056669217925,-0.2755970782943262,-0.3375615471974437,-0.6803317390741364,3,right
9.169,0.024731018618297643,0.9473812042777197,-0.06672136534121569,1.232870157553505,0.19974002019945594,-0.5039627552788256,-0.2755990606480584,-0.33745725753544525,-0.6769218585555796,3,right
9.17,0.03232827719701192,0.9633019856547009,-0.062342552441931605,1.2329507469573078,0.1998410614705109,-0.5051456292497581,-0.2756042378213105,-0.33752974061636565,-0.6833065647810881,3,right
9.175,0.040178992128359264,0.9798856063490317,-0.04993929429269398,1.2328369650499118,0.19937436452275925,-0.5030524879157099,-0.27559428972459465,-0.33748030280448416,-0.6750867419488913,3,right
9.176,0.04989248109088952,0.9917435407783541,-0.032701853555708996,1.232954410059754,0.20005654131534029,-0.5054757843525455,-0.2756041658283694,-0.3375030488227996,-0.6819574218465294,3,right
9.179,0.0723367466365834,0.9991947995653034,-0.017670588907225403,1.2328877181229951,0.19960337221439878,-0.504014252296166,-0.27560128773190723,-0.33753108935166876,-0.6817593766060178,3,right
9.18,0.10521339717169564,1.003332008646996,-0.009285646363498622,1.23283109765863,0.19918814500586496,-0.5027289181350041,-0.27558924634580995,-0.3374115667189969,-0.6686911416491181,3,right
9.184,0.1415696347258501,1.0047422260655305,-0.005827524329758655,1.2330780186864083,0.20107630429599463,-0.5084280199083886,-0.27562295174294393,-0.3376637257082432,-0.700827337865163,3,right
9.185,0.1889693973595472,1.0043042305023366,-0.009748604031313033,1.2326213256474112,0.19750688682973172,-0.4977884847450129,-0.27556507170370625,-0.33726156705015775,-0.6475398552189767,3,right
9.19,0.22080622621671753,1.0024303783283002,-0.0169485581651839,1.2332070326008069,0.20213710178819055,-0.5114989146623128,-0.2756427076626907,-0.3377859364295962,-0.7178249174111146,3,right
9.191,0.2291345233749706,1.0032230661989763,-0.01723217955760538,1.2327178067982634,0.19825110979535998,-0.5000315207199779,-0.27595682393422405,-0.34001437749943697,-1.0128769601256677,3,right
9.192,0.256525187280229,1.004384311465969,-0.011729096129759375,1.2327332543564746,0.19835333442654995,-0.5003387917105422,-0.2760360176037624,-0.34053700288167543,-1.083156367028045,3,right
9.195,0.2879696580142689,1.0026099694510062,-0.005062000971146511,1.233658997901064,0.20580677640054737,-0.5222502485107354,-0.2759762158711006,-0.34014001159159024,-1.0298733252019756,3,right
9.195,0.3006200847705242,0.9999920895718242,0.0010979276501628574,1.2313813948802805,0.18747592602086868,-0.46838300539674577,-0.2760101174472791,-0.3403812686877169,-1.062017791463457,3,right
