time,gFx,gFy,gFz,ax,ay,az,wx,wy,wz,subject_number,foot
4.365,-0.10336474629154885,0.5291806506364107,0.07004922170023145,0.09123597803365525,0.11675963524388035,-0.6224152565247356,-0.20546883776895936,0.08465880187779289,-1.6957107235401159,3,right
4.368,-0.2004721318711712,0.4015930557988277,0.0832805966071263,0.08866382860422087,0.11560891736516962,-0.622480806769601,-0.20542398631589914,0.08387224249814308,-1.6960647469749142,3,right
4.369,-0.30747895316502577,0.28641171035478474,0.08996641448492615,0.08629554220187319,0.11693450261315769,-0.6238383346185163,-0.20567680384015208,0.0852783984010301,-1.6960814855935467,3,right
4.374,-0.4198445327945334,0.18439946228940615,0.09787535805096563,0.09057903093318395,0.11544156225245726,-0.6218746698206519,-0.20526365243330935,0.08327449106329524,-1.695858653805284,3,right
4.375,-0.5359383076257274,0.10102311798031763,0.11299284419372836,0.08649732300286009,0.11656695997454639,-0.6235842930268367,-0.20571077384357003,0.08539309749992033,-1.6961331757188702,3,right
4.379,-0.6522361170001256,0.04676162494158262,0.1267719375954911,0.08947899869282454,0.11686815354926262,-0.6229468625497501,-0.2054418527223261,0.08419676663005587,-1.6959161263477276,3,right
4.38,-0.7742547114867546,0.03217342736030588,0.13127234707236424,0.08750425748147563,0.11385940529337395,-0.6218394960371507,-0.20526244794455242,0.08302825408962156,-1.6960179716948218,3,right
4.3839999999999995,-0.8955123579161288,0.06872422796095401,0.1314171239520639,0.08904500100431498,0.12044811152023818,-0.6250128447375226,-0.20613337537805332,0.0879172043239422,-1.696045611060394,3,right
4.385,-1.0086999771841505,0.15094349922312622,0.12902886626826054,0.08745827787798899,0.11068808717978526,-0.620124908907129,-0.20450277539062894,0.07889158893934142,-1.6959084927627996,3,right
4.388,-1.0974816118994777,0.2768895704586288,0.12112829668369417,0.08901709914730538,0.12107910017050755,-0.6253641190687949,-0.2065999836294583,0.09047121592466337,-1.6961044043608986,3,right
4.388999999999999,-1.164630585861632,0.4252802611141114,0.11015910430754183,0.08832612861782357,0.11509629892869358,-0.622291788943198,-0.2048477761253375,0.08080858204001254,-1.6959320124168356,3,right
4.395,-1.1972689991101317,0.5888053912210132,0.09315594217802217,0.08669216867692722,0.10983612787017571,-0.6198671514918976,-0.20490048008310208,0.08105386659370692,-1.6959689015098598,3,right
4.396,-1.1904350955822536,0.7571418596259174,0.07102743264703783,0.09214305019832653,0.13268735826543726,-0.6308445680523759,-0.20822416146861839,0.0995299284775656,-1.6961941630252388,3,right
4.399,-1.1665014408639547,0.9007348729777573,0.05029053118777285,0.08234178062542223,0.09034166883407266,-0.6104210371326426,-0.20004884640489243,0.054139032145890054,-1.6956003703358242,3,right
4.4,-1.0757967177363095,1.050683287868356,0.022815394151117625,0.09485724487479566,0.14470634211898245,-0.6366602613508987,-0.2136053409506844,0.12939157475318008,-1.6965978361833725,3,right
4.4030000000000005,-0.9987508499776621,1.1433110923979486,0.0061502420544656405,0.08443825524722412,0.0993266299270908,-0.6147490945977854,-0.1957244554884146,0.030137571270945282,-1.695277526093213,3,right
4.404,-0.9756060690076914,1.1652998275063202,0.001954404579942741,0.0846093768137888,0.10053527736794052,-0.6153636913434197,-0.1206752425007388,-0.38653875163299833,-1.689823383063074,3,right
4.405,-0.8702053940130182,1.2445253596939476,-0.023940998514642906,0.10483668562693954,0.187121817454299,-0.6570719009521231,-0.1027953273744896,-0.4857889630394157,-1.688500152359187,3,right
4.407,-0.7292480976617076,1.3373533290992705,-0.06075794266516027,0.05525415189058843,-0.025667102982477027,-0.5545340443274586,-0.11635077143938197,-0.4105405242408807,-1.689500778127908,3,right
4.408,-0.578201755069502,1.4081813077156542,-0.09961214697583068,0.13742656256640395,0.32713134771034236,-0.7245514434188216,-0.10817505935841902,-0.45593297733605775,-1.6889081872231104,3,right
4.413,-0.4612544274096349,1.4640872758300818,-0.1280093307562822,0.02904806029478022,-0.138198524389071,-0.5003004025530068,-0.1115022184809828,-0.43744331368676853,-1.6891229670757222,3,right
4.415,-0.4325596695691126,1.4749649497865653,-0.1354777531130778,-0.4261434899801869,-2.091700373339478,0.441001214279592,-0.11154743652610755,-0.4372273000625103,-1.6891824088180862,3,right
4.416,-0.3262702784576544,1.503670201991264,-0.1516280102929518,-0.5345401484119492,-2.557041369516945,0.6652508252969033,-0.10980596480154828,-0.4468479613595536,-1.6889776809282453,3,right
4.419,-0.17754040918258546,1.526930203101342,-0.1581598439773267,-0.4523325983203441,-2.204197062024182,0.49522972022222106,-0.11189247932181602,-0.4353101353262566,-1.689205792408391,3,right
4.419,-0.0820742897019233,1.4976004307551256,-0.13745565166428225,-0.5019625468747576,-2.4171012008254324,0.5977867714349729,-0.11026649927471066,-0.444317705062796,-1.6890547804055354,3,right
4.423,0.0050522642966419375,1.4405006311166626,-0.10575565391910464,-0.48168724554862974,-2.3303076129129794,0.5560350717591984,-0.11114659616753711,-0.4393928813166551,-1.6890547694751694,3,right
4.423,0.050581374916652516,1.3538269119779445,-0.06694500426667177,-0.4815437931739489,-2.3293794637290075,0.5554884235821076,-0.11093763105964163,-0.44067698918840975,-1.6892456842170722,3,right
4.428,0.05709269069110337,1.2590559648827773,-0.03672147280236422,-0.4919836311384818,-2.374489092060042,0.577322682156894,-0.11071965665130049,-0.44167412359478825,-1.6888751644958035,3,right
4.428999999999999,0.036940193457560264,1.1761020736569394,-0.014499674623170141,-0.4793718108644835,-2.320228368823381,0.5511344157262126,-0.11110423984390896,-0.43980000330561386,-1.6893380330551584,3,right
4.4319999999999995,-0.018161956164489686,1.1108821911294937,0.00410103410284465,-0.48935503392431307,-2.3628355986660794,0.5715835470598772,-0.11074096756754669,-0.4416089614399078,-1.688965042178347,3,right
4.433,-0.09085464888069733,1.073584681800701,0.015083380279909648,-0.483663431299637,-2.339189103692455,0.5604527190551718,-0.11099418208535293,-0.440201144260556,-1.6889804427389943,3,right
4.437,-0.1845866294719129,1.062475441609365,0.02576296430290909,-0.48551634074094147,-2.3457964500162527,0.5631828914531789,-0.11085687712062652,-0.4413493034455286,-1.6896131215308405,3,right
4.437,-0.296875664886765,1.0791765275050254,0.027464491069808507,-0.486145978190469,-2.350147563339018,0.5658358705840731,-0.11091813909188394,-0.44012776346546234,-1.688148903262218,3,right
4.442,-0.4222930746694964,1.117383046533784,0.02767495390054963,-0.48432689303457127,-2.341026689849825,0.560997563309686,-0.11088717590710404,-0.4416142767160436,-1.6903376213941934,3,right
4.4430000000000005,-0.5524191482241414,1.1682992015904987,0.03671287051077459,-0.48662244694693896,-2.350868331730198,0.5657358322905113,-0.11090900077974372,-0.4400920511815316,-1.6880035972971212,3,right
4.447,-0.673383559679021,1.2316131536580301,0.02933337437267999,-0.4839337418574343,-2.341760981909703,0.5621698506895753,-0.11091404456264736,-0.4408730455204999,-1.6893535161522735,3,right
4.449,-0.7748539969784967,1.3032595661507935,0.010501658159203188,-0.48724148616083074,-2.3503987790540344,0.5644527660553059,-0.11083068697290427,-0.4420348392555362,-1.690510637432614,3,right
4.452,-0.8476895817777144,1.3798005161721374,-0.00634516661380423,-0.48330622790787503,-2.3418010993735012,0.5631131241283103,-0.11105214314284892,-0.4377496299484521,-1.6854357939044333,3,right
4.452,-0.8886683486730993,1.4647798290557266,-0.03464464498796866,-0.48713532531287385,-2.3493963587416458,0.5637850806608407,-0.11066710773695342,-0.4455526985361057,-1.6948491186209467,3,right
4.456,-0.8889857863533679,1.559728338260348,-0.06123607501522192,-0.48516861522161325,-2.3460617898274103,0.5639040211037118,-0.11115604924173017,-0.43556493971102367,-1.6827614367868107,3,right
4.457,-0.8610830567965677,1.6559515159540938,-0.0748449690647062,-0.4827093430253586,-2.339910437695458,0.5624296161730655,-0.11074966529495567,-0.44389108637319824,-1.6928531550545354,3,right
4.462,-0.8160384512785848,1.7410082427953077,-0.08274807711712465,-0.4920623615988252,-2.360784601842015,0.565972832870211,-0.11075288086800614,-0.44371377203673573,-1.6925789846665116,3,right
4.463,-0.7572101180234116,1.8089553708018484,-0.08462610854842464,-0.4750509658107137,-2.32350425130461,0.5600896299069658,-0.11155445196684705,-0.4276778007092185,-1.67333915710859,3,right
4.467,-0.6966417021642193,1.8509861797660756,-0.08541453692665704,-0.49677307242466523,-2.37085510868972,0.5673956394092983,-0.10959236575017475,-0.4670376287703088,-1.7206298040850059,3,right
4.468,-0.6146331963196439,1.8617833964610577,-0.08579767022851803,-0.4786912307475653,-2.331548488410891,0.5614018382672791,-0.11284482460113747,-0.40178893209853894,-1.6422190005715973,3,right
4.473,-0.5538703644406688,1.8571517050773543,-0.08195759757464136,-0.4790976641669509,-2.332261946582438,0.5614006072424987,-0.10855306520471103,-0.4878540637898913,-1.745643031466856,3,right
4.474,-0.5374731004110529,1.849233782172461,-0.07738775872775872,-0.513795089280271,-2.408138514285409,0.5732636207776507,-0.09054832941311915,-0.8491420578566126,-2.1797566606339016,3,right
4.475,-0.4854153965638298,1.824123458123148,-0.0666002251915128,-0.4286366653303999,-2.222161318177012,0.5443437937795146,-0.08625209003365739,-0.9352196485318004,-2.2831816811982506,3,right
4.476,-0.42348977936142274,1.771856652388057,-0.04197916842679557,-0.5697811748340815,-2.5303074287783964,0.5922019429132126,-0.08950939528229951,-0.8699574720637134,-2.2047698044272357,3,right
4.476,-0.40413297500398704,1.7338910141909483,-0.023929325716704884,-0.38363968740134385,-2.1239683474133897,0.5291146064824688,-0.08754915485505069,-0.909312173301416,-2.252060053017716,3,right
4.4830000000000005,-0.3987621163376567,1.7230845799408812,-0.01678502323785322,0.39775040279324075,-0.4180974193328988,0.26418019574452023,-0.08833464309425296,-0.8933209157972637,-2.2328237590015867,3,right
4.485,-0.4008451398059162,1.6851367774437715,0.005686098204398591,0.5838492767471883,-0.011896580025590742,0.20111656163014452,-0.08837245977768304,-0.8930473941176227,-2.2325419735584906,3,right
4.485,-0.41749457415567903,1.628364110748716,0.030222413980445763,0.442787404336476,-0.3197670365183913,0.24891782453166983,-0.08791646741561993,-0.9015114825136975,-2.2426446200321934,3,right
4.486000000000001,-0.4510526564849825,1.578737880062652,0.04401907692325922,0.5278339660620653,-0.13417955115514707,0.2200989036183041,-0.08845480535633306,-0.8913863626029541,-2.2305460437922884,3,right
4.486000000000001,-0.4966620880763134,1.520987676828097,0.06074143624942682,0.4932503706964428,-0.20963155385625967,0.23181884714727052,-0.08804846223177253,-0.8992486997805813,-2.2399640918844064,3,right
4.4910000000000005,-0.5500754185649416,1.4621174072885892,0.07317862049714,0.4927772357595135,-0.21064342567161637,0.2319730402603228,-0.08822748744183002,-0.8950814444529596,-2.23489855134161,3,right
4.492,-0.6103053997597534,1.4058510901228596,0.08304820080110797,0.5108120258644975,-0.17140140594411465,0.2258784150732125,-0.08828078810838479,-0.8958632767620252,-2.2360256153988365,3,right
4.495,-0.6726808398261728,1.3527193412312735,0.098157616356007,0.48931501378223946,-0.21807276695237132,0.23313240201851249,-0.08805037743895418,-0.8972989598767386,-2.2374273750503297,3,right
4.496,-0.7418071805116262,1.3026658766919645,0.10537199264969502,0.5058982787527435,-0.18222801284344184,0.2275546971196943,-0.08836114965881321,-0.8949732678229283,-2.2350296751818086,3,right
4.5,-0.8176482332867604,1.2462543548750404,0.09915817596247764,0.4971147254245387,-0.2010531708472545,0.23049035144426347,-0.08809984510921279,-0.8971003421479669,-2.2372692395937808,3,right
4.501,-0.8936046164278134,1.1860759597753143,0.08905776240217889,0.4990517162882438,-0.1969736787058302,0.22985102996119824,-0.08815900503116618,-0.8958845134833517,-2.2358052881717256,3,right
4.505,-0.9638957246098144,1.123856957932217,0.08318064647597156,0.5011735680837892,-0.19263969079480847,0.229168026677039,-0.08844926601621697,-0.8958439539390585,-2.2363440372159085,3,right
4.506,-1.0251868221830338,1.060491679399215,0.0843272370064082,0.4979447723091182,-0.1987324069070842,0.2301478318234334,-0.08772543953494867,-0.8971527491245503,-2.2365744359812707,3,right
4.511,-1.0761009581252132,0.9963467537853499,0.09061472088394454,0.5002206107885512,-0.19540839721119288,0.22957303306365512,-0.08881968227796302,-0.8949089671757757,-2.235880433014138,3,right
4.512,-1.1173122837791918,0.930272203475623,0.09550199805549216,0.4996156836551947,-0.19471275264390725,0.22953722530645532,-0.08765060676956499,-0.8973551591719744,-2.2366858368472275,3,right
4.516,-1.1526648874843861,0.8644742992561272,0.0960176630778474,0.49915073360862794,-0.19733445804205088,0.22988664748541748,-0.08833017756571038,-0.8958560566450333,-2.236116844265621,3,right
4.5169999999999995,-1.178912569623497,0.7950262787087159,0.09401122729475084,0.4991307401118936,-0.1973926074370774,0.22989527160769635,-0.08889542833490847,-0.8949881871918849,-2.236138407919001,3,right
4.52,-1.1974003831325084,0.7227994564338067,0.08765137111229196,0.5015112729864041,-0.18921468547623738,0.22873221733159532,-0.08638826010617479,-0.8994811158319441,-2.236883226434042,3,right
4.521,-1.21261913329245,0.6520533200451692,0.07924377202933101,0.495430734749467,-0.2093009374752497,0.23160694327783707,-0.0910435457879128,-0.8910234986566921,-2.2353493676558887,3,right
4.525,-1.220067506284211,0.5800576431723534,0.07594223759526794,0.505029268732776,-0.17818470330125272,0.22713969252044441,-0.0850650685344281,-0.9019117070141153,-2.2373547200598827,3,right
4.526,-1.2242456020659418,0.5126835890102692,0.07717054863437914,0.4944887153388869,-0.2120281215778531,0.23200632477864025,-0.09005595360302862,-0.8928101578040407,-2.235663810792122,3,right
4.53,-1.2241468314428676,0.45110961096114743,0.07773056777103304,0.5006775297957087,-0.19225854234497228,0.229161036705807,-0.08992062250844379,-0.8931005391331464,-2.2357693670480066,3,right
4.531000000000001,-1.217304820062084,0.39313000020081057,0.08205068609275784,0.5060536854874921,-0.17512638771221678,0.2266942812382272,-0.08040642806994014,-0.9103111783855211,-2.238803508814153,3,right
4.534,-1.2110372579754434,0.3397262224707238,0.09314907453614482,0.4824069431610588,-0.25036201615918674,0.23752985509693436,-0.10378997918271785,-0.867957404108478,-2.2312700184700756,3,right
4.535,-1.1955144004238933,0.2815237605006469,0.09687292022785185,0.5263733716182952,-0.11058991512218236,0.2173968497570768,-0.06502083917563346,-0.9381955761587819,-2.243786267993772,3,right
4.539,-1.1804896457841765,0.2452313339840115,0.09404496405388416,0.46983952162539727,-0.2902353934440296,0.24327521755838324,-0.11615528027468994,-0.8455504614258884,-2.227269039109173,3,right
4.54,-1.1754354743214566,0.23721884717702224,0.09249347075412363,0.5170723780605504,-0.1401824406029388,0.22165883114292817,-0.33084466295367654,-0.45674776526326905,-2.1582283161850393,3,right
4.541,-1.1585066907603854,0.20337790721876936,0.08491884208351347,0.5157942830444331,-0.14423793278331487,0.22224312500598004,-0.38198087080184623,-0.36410871741860773,-2.141725711425745,3,right
4.544,-1.1422042357237139,0.15937992926115774,0.07970897180042458,0.4256712450273021,-0.430503359725234,0.2634833037139095,-0.3432027528414381,-0.43433867423456585,-2.154198806460473,3,right
4.545,-1.1371765316061482,0.13151319051247914,0.08537849658558974,0.6472064681310701,0.27314780305750674,0.16211272303845414,-0.36661060648817745,-0.391988252272441,-2.14675610955328,3,right
4.551,-1.1305761962746987,0.09206288045671152,0.09787621084125242,0.2798740729947371,-0.8935780691509034,0.33019592326885905,-0.3570511518691792,-0.4092086069696407,-2.149643149880701,3,right
4.552,-1.1284826653683881,0.06571448776964836,0.10882205762107669,0.7643809685507075,0.6453403488336826,0.10849350273092932,-0.3569787313205893,-0.40947002893480644,-2.1499318783170893,3,right
4.553,-1.1280085374575828,0.06011391663503604,0.11101024279913438,2.7975510476693106,7.104391809773033,-0.8219994556710466,-0.3619070144273575,-0.40041645077887966,-2.1480850867941927,3,right
4.553999999999999,-1.127049083780397,0.03803519261509199,0.11624785526577774,3.281919793499241,8.643169281138036,-1.043675904676001,-0.3559564020008375,-0.4112488343357787,-2.1501123255540002,3,right
4.553999999999999,-1.1337173886948095,0.014234775718049392,0.12493817928827668,2.9148943063489368,7.47676377733525,-0.8756513469407936,-0.3606636807128222,-0.4028302635269865,-2.148816629867613,3,right
4.561,-1.1430764914185154,-0.0009029428943428755,0.12551674029295784,3.135928722943462,8.179878325472366,-0.9769244304083959,-0.3579850762690948,-0.40733666052415896,-2.1489721103204,3,right
4.562,-1.1527440353868712,-0.019621557682842995,0.12334222383717594,3.0464595450698853,7.894332916594778,-0.9358140764566264,-0.35884879980681783,-0.4063661059600707,-2.149910541554598,3,right
4.565,-1.1633526758464423,-0.034776981637279526,0.12317601233840819,3.0445426175885,7.88954714504409,-0.9350994450592354,-0.3591581609544622,-0.40507759997823667,-2.1483189979393993,3,right
4.565,-1.1727223160568192,-0.046082916262034535,0.12301906272485136,3.0920765586085,8.039991552548146,-0.956783425267493,-0.3582904117785126,-0.4072295818506553,-2.149787490404889,3,right
4.569,-1.184711743869744,-0.05638105659905618,0.12309074359454147,3.0360108781698285,7.8607751395494345,-0.9309867350570593,-0.3593730465638576,-0.4052737818821037,-2.149449129795411,3,right
4.569,-1.1979807721996663,-0.06622204914541478,0.12466543808272995,3.0783492634591405,7.998841597535781,-0.9508078535129985,-0.3581227313617923,-0.4064621409573867,-2.147646705936938,3,right
4.574,-1.2076772545501062,-0.07481400989410045,0.1286543949364729,3.057586261681122,7.926740938320447,-0.9405395615040162,-0.35964228589309405,-0.4061693830735748,-2.152196910403573,3,right
4.575,-1.2130020974790323,-0.07963530831220417,0.1381976670754746,3.0593262994641313,7.9398022420404475,-0.9422756450655047,-0.3578464670010681,-0.4057529218982587,-2.145256815740373,3,right
4.578,-1.211434726346913,-0.08195364038961225,0.1499244356213543,3.0685702219237014,7.9631632094668605,-0.9457571560379797,-0.35958855055420225,-0.4065089570485251,-2.152711076954408,3,right
4.579,-1.2086291656685484,-0.07935305465310666,0.15266415306389797,3.0576908273593313,7.928549076877684,-0.9407713914467601,-0.35869737313867145,-0.4058630094662342,-2.1483658571993764,3,right
4.584,-1.2061809270352304,-0.07286458379600087,0.1427153926745497,3.0624612756891256,7.954842882697035,-0.9443444710216071,-0.35757039764894694,-0.4059563617210195,-2.144738929115314,3,right
4.585,-1.1994184597806985,-0.06219413078850475,0.12268048401796013,3.0680805999866436,7.947237363253598,-0.9437402143346302,-0.3618408711849238,-0.4067470575184907,-2.1608318717710713,3,right
4.588,-1.192701888160757,-0.046581525708620966,0.09689220274459628,3.0524683848062697,7.935618344532622,-0.9413329196580169,-0.35407732707057726,-0.4049976963980999,-2.1309343434594314,3,right
4.5889999999999995,-1.1841092721204456,-0.029458707886948984,0.06672495710022312,3.0722954225066514,7.958118992336321,-0.9453567079560863,-0.3639902068556211,-0.40734548846279106,-2.169344942780522,3,right
4.595,-1.1788570341172206,-0.008984907860675797,0.03372649395107417,3.0592143715356643,7.939957151464883,-0.9422874882374094,-0.35573746007462115,-0.40534328544971704,-2.1372664857626424,3,right
4.596,-1.1780603088079111,0.01565455025193955,0.0009567459068696394,3.0513594255824024,7.935165500262935,-0.941209327669972,-0.3559259890912392,-0.4054616610768287,-2.1381550536685276,3,right
4.598,-1.1772887108703447,0.042478056993098305,-0.03482913807612935,3.0929582519042995,7.979069626636582,-0.9492368748341269,-0.3717555624606408,-0.4091080160564601,-2.199270648733348,3,right
4.598,-1.1777684303702847,0.07398611205828942,-0.06768686682759244,3.013707949124611,7.890965792703181,-0.9333847720952133,-0.33289757911905854,-0.4000544333507796,-2.049021230683393,3,right
4.604,-1.1606961405445322,0.11101305985228241,-0.08934230310157398,3.116402237951842,8.007055878071531,-0.9541682722391536,-0.3973090704326101,-0.41509796604734117,-2.298162405673846,3,right
4.604,-1.1451647587396492,0.13300274680089735,-0.10200253015852265,3.0302709028068024,7.908882259712751,-0.93663310838076,-0.3123542424890789,-0.39524701572457166,-1.969527879011261,3,right
4.6080000000000005,-1.139826144964607,0.13942407343394295,-0.10561276531116898,3.03294209262347,7.912606477649647,-0.9372687406305328,0.04425165884830734,-0.31194989020575714,-0.5901839750736463,3,right
4.609,-1.1119503787475884,0.15870036159675874,-0.10984741278347061,3.19655069806739,8.097844385945066,-0.9704049830782169,0.12921486986457814,-0.2921084146764136,-0.2615064663435139,3,right
4.609,-1.0755090294546723,0.17990028128522234,-0.11525225583736212,2.7938127454828097,7.640646651385078,-0.8886708470799465,0.06479393720119898,-0.3071437689943467,-0.5107160062427697,3,right
4.614,-1.0290738697404387,0.18842811981595864,-0.10365223175781245,3.4618579417524167,8.399594323472407,-1.0243296309436636,0.10364978648854292,-0.29807894577775174,-0.3604068424936473,3,right
4.615,-0.9919524901611116,0.1921178961761284,-0.09027817562127391,2.5805738300258376,7.398134460542866,-0.84532577714945,0.08784758697089345,-0.30177444038710605,-0.42152781437759074,3,right
4.619,-0.9830517233833534,0.19274836681454982,-0.08470473984351351,-1.118759878743639,3.193798779144913,-0.09398490695438577,0.08759834755813982,-0.30179719707574343,-0.42251146009558,3,right
4.62,-0.9489012312795383,0.193691014607855,-0.06609004036389013,-2.000109514015535,2.1921663652063357,0.08506274368599884,0.09593959213417083,-0.29992399786092605,-0.3902112955732914,3,right
4.62,-0.9032032541457014,0.18972565716232537,-0.048186354844489965,-1.3319010754697898,2.9515940685535353,-0.05068568391988484,0.08593677280450635,-0.30215343810703676,-0.42894932885241477,3,right
4.622,-0.8707577515220233,0.17719999698585887,-0.03817325149455686,-1.7349391725134646,2.4934283095662773,0.03118011064047964,0.09374249552244703,-0.30043637449849586,-0.3987124455845763,3,right
4.623,-0.8310149532173656,0.15862732492032633,-0.016096223916668706,-1.5708913581474595,2.6801890173227667,-0.0021075325259152025,0.0895414810455484,-0.3013719431230661,-0.4149806450482699,3,right
4.629,-0.7942536826216743,0.13153109996827866,0.013875925680569029,-1.5687146722112417,2.6820677462020015,-0.002623555357927354,0.09043135011007275,-0.3010730298713253,-0.4115743390480987,3,right
4.63,-0.7602523845199419,0.0985492905845161,0.04628031505663592,-1.6544976611076003,2.5853945401010927,0.014905152489282186,0.09173863819560875,-0.30106070583386835,-0.4064032982081309,3,right
4.632,-0.7250509474210078,0.06282903769358653,0.08199276336691244,-1.551699762004076,2.701421473450438,-0.006078058400962787,0.08947788216759055,-0.30108405919437986,-0.4153442336513361,3,right
4.633,-0.6955700794836095,0.02543126787930429,0.1137634017286146,-1.631831271348513,2.61068781366411,0.010242989528874502,0.0916990954899625,-0.30118450569461874,-0.4065121962871545,3,right
4.638,-0.6705753098220383,-0.010030918605740078,0.14146851409948102,-1.5883940021405727,2.6607684404859078,0.0015049723052435512,0.09015610777213445,-0.30105129254967067,-0.41267203107145844,3,right
4.638999999999999,-0.6491875970289525,-0.043129752970356296,0.16969778064320917,-1.5988549730966173,2.646613915345793,0.003354338358743895,0.09067919885466073,-0.30092458653842624,-0.4106498787455751,3,right
4.6419999999999995,-0.6304003973001269,-0.07633838371994878,0.19655796817205573,-1.6093286730374552,2.6386036974387554,0.005956351195569914,0.09130840001794738,-0.30169387899192823,-0.40786241274005175,3,right
4.643,-0.6158720570138447,-0.10598725921725227,0.21984771826504523,-1.5907010896160223,2.654999925657007,0.0015905728087775794,0.08958140355460796,-0.30000355561887193,-0.4153515304196722,3,right
4.648,-0.605500192933806,-0.12957774250663304,0.23708043094665787,-1.6083471427745302,2.638749834022012,0.005638756222264219,0.09209019917287391,-0.30254084043687846,-0.404439901108295,3,right
4.649,-0.5947762420164809,-0.15125427720651247,0.24179671495835983,-1.595859175169334,2.6529783025114524,0.0031063251750560942,0.08950539305511229,-0.299815318974481,-0.4157260723824807,3,right
4.652,-0.582003267959216,-0.1676547341007401,0.23865625746784672,-1.6031202280345833,2.637660419159646,0.0037207386680616506,0.09099917467109603,-0.30138967862514765,-0.40920233186690835,3,right
4.6530000000000005,-0.5681534065368474,-0.17575952900297442,0.23401289995437752,-1.5989807064996724,2.6585104604570504,0.004846057960412164,0.09209108073086188,-0.30279375362835803,-0.4043407875360978,3,right
4.657,-0.553065761573454,-0.1808082731816666,0.22449134569811036,-1.6021727135412567,2.6307962962167086,0.0025616107838598674,0.08706066623721104,-0.29671019338165866,-0.426600958433233,3,right
4.658,-0.5344254009069644,-0.17976610143234306,0.2129845139859001,-1.59932647528609,2.6597089497345197,0.005109492110077583,0.09640050133668081,-0.3079886182908846,-0.38527298060425635,3,right
4.662,-0.5125932604110873,-0.16939324636971648,0.20173318213021657,-1.6000920290873162,2.6439998187797915,0.003459480248844496,0.08442595656134344,-0.293503348220544,-0.43827366059970996,3,right
4.663,-0.4915426633902029,-0.15190508457805543,0.1914856786262007,-1.6051027277013636,2.6255208774377117,0.0029187243965935247,0.09441272306651388,-0.3055972284901023,-0.3940592821734029,3,right
4.666,-0.47131698772438463,-0.1216904742757891,0.1882029523551043,-1.5902977708542876,2.6983125649607236,0.006727863169861773,0.09412786136945783,-0.30527681026838205,-0.3953265993860329,3,right
4.667,-0.45608227516294597,-0.0859551874854324,0.1927848013770289,-1.6164651041445433,2.564777324087875,-0.0005960521881072855,0.0751588939646568,-0.28219054199989163,-0.47931483727816027,3,right
4.673,-0.44646269821497886,-0.051867075521828315,0.19984782324767397,-1.5831578001752147,2.7359172838494645,0.008865811743905647,0.12178539310231878,-0.3389259127690524,-0.2728411283759303,3,right
4.6739999999999995,-0.4311241298136477,-0.009653638047993403,0.2025202865521873,-1.6108408769117184,2.5931712372517044,0.0009441808577429801,0.044487637495861945,-0.2448588889228468,-0.6151629303191612,3,right
4.676,-0.4198139685227774,0.018835547987268136,0.20057729565405044,-1.6105546665876425,2.596532100443247,0.001246530745812188,0.14642832385789029,-0.3689308101080194,-0.16367683547591666,3,right
4.677,-0.4174521966850045,0.025418969645161816,0.19988982868589145,-1.5562637602866742,2.870374778344685,0.016060280782434055,0.5743786838679942,-0.8897703263831467,1.7313924137864811,3,right
4.678,-0.40525185518178525,0.046336350018988046,0.19785025157891836,-1.6891444166278609,2.1978901072480213,-0.02045105098781792,0.6762959938364432,-1.0138387988228659,2.18282511919334,3,right
4.6819999999999995,-0.39118773678078944,0.07611106446298727,0.18725082116738956,-1.4689844649045904,3.3127558829282515,0.04010902980492296,0.5990273856112537,-0.9197746046141658,1.8405760001747848,3,right
4.6819999999999995,-0.38764913230345205,0.08839053225848562,0.17753619176414326,-1.7593337658122865,1.842254391695548,-0.03976600103038298,0.6456498471851905,-0.9765145882861942,2.047018834923512,3,right
4.686,-0.38655817744403725,0.09216126902211408,0.17483550656200575,-2.97887036834255,-4.33082599773268,-0.37494144277143227,0.6266251394995326,-0.9534093586596856,1.9629479306632007,3,right
4.687,-0.38601486891104686,0.10235776601194921,0.16456063888717634,-3.269197861105564,-5.801421866938805,-0.45479107455927453,0.6264790193182479,-0.9531253394414431,1.9619312612147974,3,right
4.688,-0.38894315370168314,0.11502604609349915,0.14999195636749998,-3.0490995373240573,-4.686439868708265,-0.3942651027400791,0.6362517992333943,-0.9651705527333377,2.005727990674753,3,right
4.692,-0.39773452519468827,0.12203767013792476,0.1441755550130306,-3.1818544540934597,-5.358935688004465,-0.4307634064798809,0.6245091520783232,-0.9507293455094352,1.9532159916974963,3,right
4.6930000000000005,-0.4096939168665408,0.12615508760300362,0.1416302191087202,-3.1277630049664804,-5.085328674260547,-0.4159069076396258,0.6337139931747845,-0.9619969279263493,1.9941979371293517,3,right
4.696000000000001,-0.41934238441941196,0.12842630449437215,0.14254918764289864,-3.127233176636844,-5.081391907677151,-0.4157288752545283,0.6285649466310919,-0.9558567043176813,1.971829621592886,3,right
4.697,-0.42846084886279334,0.12797848924428018,0.15003006476657604,-3.155117002382988,-5.225018800548835,-0.4234463689972563,0.6301774808094455,-0.9574109220746156,1.9775753712731001,3,right
4.7,-0.4384082769475217,0.12936253543295356,0.16042361546478495,-3.121795356975697,-5.052932850866999,-0.41422012518521456,0.6306955945817325,-0.9587449620339545,1.9822714382888817,3,right
4.7010000000000005,-0.4465356785589515,0.1342245357653663,0.1734482675749006,-3.147624275895055,-5.187004129538934,-0.4213823133149408,0.6293916303654135,-0.9562948564802397,1.9735511943777595,3,right
4.707,-0.45332362258000736,0.13969010469217708,0.18263704061251207,-3.133625717882604,-5.114730139337304,-0.41750924734464445,0.6307546452161635,-0.9586417133877309,1.9819348900379137,3,right
4.708,-0.46268855276355225,0.14786345191454106,0.19013376812645894,-3.1374048034519335,-5.1310345904279755,-0.41849401663022323,0.629304276716353,-0.9568826115380535,1.9755331437111912,3,right
4.71,-0.47365898689487357,0.164328790699523,0.20297083211443703,-3.139517105880973,-5.1507781501334735,-0.419243833882445,0.6314018376219712,-0.9581591490575623,1.9804660698130907,3,right
4.711,-0.484714546671343,0.1854384505229901,0.20980891214423592,-3.1358412746839934,-5.116608802157812,-0.4179441948087563,0.6280487434777825,-0.9569949447465276,1.975571119373946,3,right
4.716,-0.4984805927078321,0.20713241314103062,0.21020165750878927,-3.1384652643773663,-5.148970012074235,-0.4190192073942488,0.6327058939387222,-0.9583118721965512,1.9813459585698903,3,right
4.717,-0.5115953531488859,0.2365392795198928,0.20641864064367477,-3.1371501535543693,-5.12711154603754,-0.4183762634607283,0.6278056402756853,-0.9569861661830688,1.9754743160900936,3,right
4.72,-0.5216083547721605,0.27397160244702834,0.19187893133850648,-3.13897548670539,-5.136213698901116,-0.4188751210685755,0.6305353536810492,-0.9576287373313834,1.9784176499929067,3,right
4.721,-0.5285407645819643,0.3127409437525027,0.17596401579794374,-3.1337756100844016,-5.138095261967219,-0.4179684866581219,0.633391586176258,-0.9587941063276508,1.9831804772636128,3,right
4.726,-0.530761181544517,0.3522646594621163,0.1647580955344614,-3.144667372994305,-5.128783758004281,-0.41976862263331205,0.6217152462174208,-0.9546946759964109,1.9659790970538078,3,right
4.727,-0.5280343866435941,0.38821670412124554,0.15933474254660418,-3.12818975462941,-5.141510594766977,-0.41701974078623827,0.6432201244189013,-0.9621165858591555,1.9972216805172118,3,right
4.73,-0.5173741648849545,0.4196888970966617,0.15794691728242855,-3.1460597932318484,-5.129488593195182,-0.42003413945881013,0.6156406475438927,-0.952626847774079,1.957252246674955,3,right
4.731,-0.50367602075402,0.4483303768101178,0.15327716921759738,-3.1357381658954484,-5.136450290966322,-0.41829307737618815,0.6386511323627097,-0.9605332241716943,1.9905609303478862,3,right
4.735,-0.48133886737180787,0.47826395753186784,0.15383232557909576,-3.126163089513322,-5.139029686809215,-0.4166069796615405,0.6380817710779819,-0.9603815265603798,1.989888639819231,3,right
4.735,-0.4490585657169371,0.510696955498846,0.15922217189207621,-3.1671900674149445,-5.123314461607182,-0.42374691212777504,0.5940315639226909,-0.9451006694243986,1.9256236382209717,3,right
4.74,-0.42026007342487404,0.540455290255372,0.15759446133913146,-3.091149593184595,-5.152675620724958,-0.4105171676986418,0.7022371611012148,-0.9825863231071991,2.083308962539914,3,right
4.7410000000000005,-0.37819893283592954,0.5807622712872215,0.15151382670334312,-3.1888446346466908,-5.115262167031474,-0.4275208871522546,0.5228456622312543,-0.9204514607656202,1.8219291784840086,3,right
4.745,-0.34565552563837404,0.611237042085593,0.1438147681046381,-3.1072593482317643,-5.146361911234234,-0.41331731223390744,0.7594582956347276,-1.002406600242631,2.166682240221484,3,right
4.745,-0.3361542678483207,0.6187787147823406,0.14073139207364493,-3.109394266296243,-5.145172692788025,-0.4136845653445761,1.7527409686277913,-1.3464903686546097,3.614108792557012,3,right
4.746,-0.303269236923394,0.6451595042286642,0.1386119996184872,-3.265269753117315,-5.087377468682051,-0.4408455673845264,1.9893559659546474,-1.4284552453711266,3.958890661987235,3,right
4.749,-0.26316088571279345,0.6790756223010463,0.1360953787453555,-2.882204925260017,-5.2296787513271354,-0.3740973635645686,1.8099619076484752,-1.3663098479844562,3.697479705373171,3,right
4.75,-0.22850228681637438,0.7005741547417492,0.1586354786710511,-3.517346342097767,-4.993780454453489,-0.4847734633825677,1.9181665385547373,-1.4037914948172192,3.8551531915204493,3,right
4.754,-0.20221252407801432,0.7155537270082588,0.18372629448731287,-2.6795827284407876,-5.30482737464974,-0.3387851168133865,1.8741248018968983,-1.3885455835138156,3.790991544179243,3,right
4.755,-0.19428032213862553,0.7178657861063942,0.19196743676675282,0.8371749225229985,-6.609810537852155,0.273983190912641,1.8735372063699833,-1.3883186956234956,3.790096851983498,3,right
4.756,-0.16471457001205841,0.7216288264925654,0.22206194467335028,1.6749687383673106,-6.920727417702888,0.41997670942999643,1.8965738425156686,-1.3963328795506165,3.823724432080308,3,right
4.7589999999999995,-0.12647665931603563,0.7244588610502578,0.25817718452359245,1.0397717817698033,-6.685006605497301,0.30929954043560615,1.8689683154786694,-1.3867357877572597,3.783437422015861,3,right
4.761,-0.10678593466415398,0.7193294794875558,0.2738405097569845,1.4229051627752352,-6.8272310898880235,0.37602958290814237,1.8904844503662521,-1.394204018585016,3.8148170744727983,3,right
4.763999999999999,-0.09514521251670444,0.7149904396871924,0.2787589236395581,1.2669711177222867,-6.769237809939064,0.34892019628944315,1.878830441912191,-1.3901967745398802,3.7978883068255946,3,right
4.766,-0.0978187714027311,0.7084006440881268,0.26501663671271575,1.2648506613887864,-6.76865420819687,0.34846396782514866,1.8816146730043593,-1.3910651869070212,3.8017728127899524,3,right
4.769,-0.11408080792383998,0.7023814992548106,0.2349053124079698,1.3465045094142054,-6.798741922787006,0.3627774369639758,1.8844684849727784,-1.3922194261574556,3.806229622091295,3,right
4.77,-0.1412997155800833,0.6980386749245752,0.1988722424395275,1.2486296514302413,-6.762515749823292,0.3456863667153151,1.879415891837327,-1.390265775769287,3.7985004693098174,3,right
4.774,-0.17754078454570857,0.6949493840726146,0.15933339489048282,1.3249548517919325,-6.791031240467233,0.358912799951926,1.8841945535500315,-1.392083329708584,3.8057563493137816,3,right
4.775,-0.21769700442810613,0.6960172999548732,0.12029651364124962,1.283604974936833,-6.775064734289677,0.35194234993651874,1.8808424067616833,-1.3909235893270169,3.800874266275325,3,right
4.779,-0.2600542116775264,0.6966466964865865,0.08892723552613932,1.2933990808766898,-6.779775071623259,0.3532450382021076,1.8827147857471782,-1.3912710905258647,3.803059531240264,3,right
4.78,-0.297686770432119,0.6966296026370788,0.0690793811117389,1.3038094263958084,-6.782315086777171,0.3555544386644659,1.8817792785900043,-1.3916351409994276,3.802937705128319,3,right
4.783,-0.32985878408416286,0.6968037080256342,0.056146772216528626,1.2853355635621035,-6.776515615216123,0.35194059485886375,1.8823740070513555,-1.3908146033006243,3.801952298097155,3,right
4.785,-0.35704273924214924,0.6964061226685496,0.04918394296227653,1.3030338972552935,-6.783093199782789,0.35502083015673136,1.8818892954566968,-1.3917410112488326,3.8032203320845843,3,right
4.789,-0.374789056256441,0.69556800889361,0.04836887945682476,1.2904511936157745,-6.776460986088125,0.35356117944426246,1.8819336394507669,-1.3911241335563704,3.8021442311763227,3,right
4.789,-0.3813412352584184,0.6922779191357566,0.05364287610292677,1.2972896798412004,-6.783484639991537,0.35307825583474933,1.883139039185246,-1.3909964843690363,3.8029171071785974,3,right
4.794,-0.3764950613374952,0.6876197021879692,0.06502756032083756,1.2948065764442085,-6.775870725185036,0.3551434497370279,1.8797744751819887,-1.3922166508372407,3.8023185256766747,3,right
4.794,-0.3640536455278247,0.68259923393128,0.07678750681351615,1.2946289925751289,-6.782938872360227,0.35244996272376106,1.885668860418355,-1.3898344195085803,3.8029257521910456,3,right
4.798,-0.3457664176043892,0.6795955448449518,0.08613752474661623,1.2966258054951425,-6.77955892542681,0.35433593033793814,1.8781781191404474,-1.392920145313094,3.802259382492872,3,right
4.7989999999999995,-0.323509676677753,0.6806575033821181,0.09516269527212096,1.292458008367288,-6.774455909797242,0.35493673127560976,1.8843995339929362,-1.3903331284506777,3.8027691038665137,3,right
4.803999999999999,-0.3032124310786519,0.684704782578079,0.10115765323416837,1.2998332253419609,-6.7927490567394955,0.3504166927531299,1.8843534284621617,-1.3904448779058103,3.802932612527016,3,right
4.805,-0.286220844405202,0.6913209724758584,0.10426266904866982,1.2887232610926447,-6.759780277405199,0.3592454550468779,1.8720910676782503,-1.3952410025460038,3.801380900671505,3,right
4.808,-0.2760998998401314,0.7013002603884089,0.10607919512050795,1.3020631129663405,-6.801766914156186,0.34774861044351746,1.902084744267397,-1.3834034665011001,3.804984214939302,3,right
4.809,-0.27362811905964274,0.7164522723347213,0.10006897642043913,1.2913184409884257,-6.766864824266573,0.35741354282696447,1.8523931015524562,-1.4030434095307016,3.7990657813252016,3,right
4.814,-0.2761100366769893,0.7278370929290083,0.09110063588611297,1.2910040367887676,-6.767573345292975,0.3570500198453709,1.917931218515522,-1.3771373552635695,3.8068658995390745,3,right
4.816,-0.2785252290392277,0.7324208053412118,0.08789709867562548,1.3131010403886108,-6.834749523347494,0.338892856497215,2.193263825690615,-1.2684609728566518,3.8399269444458795,3,right
4.816,-0.2861131555306429,0.746234690009274,0.08008863273785342,1.2596663059076612,-6.6699875054262225,0.38366660552741777,2.25881976422031,-1.2425604434944337,3.8477521185305723,3,right
4.819,-0.3169881370669626,0.7710766357387968,0.06158101745421954,1.3479303012683728,-6.943029083324598,0.309377044418671,2.2091003594752863,-1.262193721692224,3.841797354481553,3,right
4.82,-0.3429774081857254,0.7867635054211094,0.04933443867969048,1.2316343837844452,-6.582952394675676,0.407380727594448,2.239116739913463,-1.2503563464287537,3.845423021649275,3,right
4.823,-0.35092535901599786,0.7913451564206218,0.045409423269051036,0.7429617032750406,-5.07113698851962,0.8187213853266762,2.226856413708976,-1.2551672808411722,3.843893893809582,3,right
4.823,-0.3826401068871875,0.8052190129792203,0.028628660348130885,0.626693982871126,-4.711100200550731,0.9167210037317469,2.22676456108669,-1.2552438126101793,3.843963824097043,3,right
4.824,-0.4275312570175855,0.8234990982720515,0.001719040506656928,0.7148577730963179,-4.984072763156982,0.842423696215416,2.233084688782989,-1.252709974882419,3.844643734133144,3,right
4.829,-0.4615727505035051,0.8333464398803792,-0.024097533718474177,0.6616583069352949,-4.819385871336318,0.8872421330332336,2.2254542792183996,-1.255739392658691,3.8437629044489974,3,right
4.83,-0.4920663580203098,0.8397295319079326,-0.04980884190332834,0.6833475573690299,-4.886516519167971,0.8689817017957733,2.2314857527999985,-1.2533876830426056,3.8445462066052305,3,right
4.834,-0.5139502057058095,0.8418665747927554,-0.07474495637339997,0.6835704771596601,-4.887196922159992,0.8687811291765166,2.2280641028663193,-1.2546418560749544,3.843939288295534,3,right
4.835,-0.5240817468221146,0.8387172484766158,-0.09863268660889955,0.672327605858552,-4.852436090417788,0.8782598547928349,2.2291488492801648,-1.2543799821952708,3.844407853141004,3,right
4.838,-0.522394921724721,0.8320942475083856,-0.11932750809746523,0.6858235398667727,-4.894155977037688,0.866889187640324,2.229573979811075,-1.2540083907069612,3.8440441035839936,3,right
4.8389999999999995,-0.5108344072189372,0.8249178607178823,-0.13945722066175636,0.6752776331419144,-4.861536432923765,0.8757735234210684,2.228438320515727,-1.2546188898748647,3.8442382238942465,3,right
4.843,-0.4924109526403916,0.8209135983119744,-0.15284159457665408,0.6810639169621711,-4.879519133495126,0.8708916304249302,2.229826380477084,-1.2540724443633897,3.8444073424108747,3,right
4.843999999999999,-0.46471943121221637,0.8195722668231216,-0.14799318035180098,0.67951152361776,-4.874487992727444,0.8722219401711999,2.228266244457767,-1.2543877446365859,3.843608882630433,3,right
4.848,-0.4323887428539416,0.8213334613771732,-0.1304410369579881,0.678422890505386,-4.871511139084943,0.8730985315080668,2.230115796008675,-1.2543440614120431,3.845227746166559,3,right
4.848,-0.40046720370985717,0.8255841645768105,-0.10462055879350822,0.6805227187962122,-4.877524946874963,0.8713808362555728,2.2279611223037534,-1.2541711226387193,3.8428855066927916,3,right
4.852,-0.36891265593901934,0.8320463566859799,-0.07422445788036228,0.6784789140725511,-4.871587787096623,0.8730609899689867,2.2300365693868134,-1.2544422339544872,3.845355428771429,3,right
4.853,-0.33986460067155133,0.8412055822701578,-0.04392124736024404,0.6801294768944334,-4.876701146007987,0.8716700007460763,2.2289861832782925,-1.2542279327363934,3.8439466908291937,3,right
4.857,-0.3123049604911787,0.851635091747941,-0.016973415977827314,0.678643841156764,-4.87137463464059,0.8730004996565948,2.227618188335697,-1.2542224595122868,3.842675338431389,3,right
4.857,-0.28629943745513964,0.8631499379597325,0.0037922034400334655,0.6803947761300135,-4.878458816210523,0.871344467359741,2.232751332532066,-1.2545763909779406,3.848133649684844,3,right
4.862,-0.2679559940921864,0.8774255680286253,0.0189088069983934,0.6781769644525013,-4.869109506157599,0.8734834766482974,2.223434289009383,-1.253843110782685,3.8380369011888242,3,right
4.863,-0.2533363489341778,0.8940442688016523,0.023204334523522573,0.6804673344379377,-4.87884873618275,0.8712648516962217,2.235323904568073,-1.254810865067433,3.850991274996499,3,right
4.868,-0.23961063490020237,0.9124528366251838,0.023482472458699666,0.6792603339124221,-4.873580261537781,0.8724494703479999,2.225430656477961,-1.2539943778648308,3.8401823997753595,3,right
4.868,-0.2238706274541325,0.9339424115781643,0.020500688291930146,0.6776448215411464,-4.867262186308755,0.8739530763503444,2.2256462136016797,-1.2540269330547695,3.8404637554674346,3,right
4.873,-0.2039505988055725,0.951334899843929,0.010683405089400331,0.6837728628049555,-4.892004463315363,0.8681619169193142,2.2446481831163023,-1.255553845043031,3.8611024043160738,3,right
4.874,-0.18625190243838963,0.9673640808993342,0.0027472793146288417,0.6725792955531256,-4.846645308096901,0.8787595686300202,2.198022135151248,-1.2517904802463087,3.810394565241996,3,right
4.876,-0.15964352546971272,0.9912343773841699,-0.018983147148708003,0.6869129160746178,-4.904769910510398,0.8651830848896811,2.275296711080463,-1.25802793462679,3.894458839268371,3,right
4.877,-0.1403723196038263,1.004200610894559,-0.040581203110296726,0.6749638596621683,-4.856293702062491,0.8765052971058784,2.1733891308241793,-1.2498096951090472,3.7835882119877304,3,right
4.883,-0.13448470773655047,1.0064639347778583,-0.04714605837927562,0.6752239176516928,-4.857419836511447,0.8762466804879463,1.7455066915371964,-1.2151837828551755,3.3181073330277737,3,right
4.8839999999999995,-0.10809292372542746,1.0206555740920287,-0.06927396435929853,0.6982120374113405,-4.950461183441066,0.8544987274123969,1.6436137559143025,-1.2069860133041526,3.207251165081785,3,right
4.8839999999999995,-0.07374717288247117,1.0384934028300252,-0.09920780352401115,0.6417889637463402,-4.721999118218619,0.9078980548323929,1.7208670272170106,-1.2132034689235565,3.29129913516116,3,right
4.886,-0.03366266760336366,1.0509460285890608,-0.12869610804115492,0.7353148923128907,-5.100738231732057,0.8193710083536664,1.67425429286769,-1.2094240711652897,3.240587683522479,3,right
4.887,9.958300978388408e-05,1.0569890497169558,-0.15142408299915727,0.6119663932840822,-4.601195053128821,0.9361411367248711,1.693268949317273,-1.2110401354813847,3.2612734064502957,3,right
4.891,0.009088207680871974,1.058272807739688,-0.1546781234620419,0.0941267832627146,-2.5041056262366754,1.4263528259446145,1.6934305728316605,-1.2108913488829725,3.2614502571992947,3,right
4.8919999999999995,0.03955979780533188,1.0636199807661877,-0.16590554980913386,-0.029194422585832172,-2.0045641305219997,1.5431447249152108,1.683635979703419,-1.210326478052242,3.250793798120845,3,right
4.894,0.08632207451692565,1.0676701644876598,-0.1835145715741738,0.06427801150339887,-2.383284183667204,1.454583526812545,1.6954007185018765,-1.2110541560098071,3.2635931780263863,3,right
4.896,0.12430969874647713,1.067762820769362,-0.1912194629138962,0.007928591458874194,-2.1548824888793803,1.5080114314465538,1.6861870208262895,-1.2104050013890923,3.2535692845126265,3,right
4.897,0.16548658904046137,1.0666819135713173,-0.198572007462201,0.03083966614910818,-2.247803988965229,1.4862642273241178,1.691313421837006,-1.2110099363443236,3.259146916165439,3,right
4.902,0.20453683846032544,1.0611205066780576,-0.2036168743654585,0.031148585224643893,-2.24910388729472,1.4859523015838896,1.6897710660652612,-1.210273066120692,3.25746750236426,3,right
4.9030000000000005,0.2424997612814384,1.0539747207152308,-0.20215422919769135,0.01922307669761871,-2.200445872676445,1.497392339943703,1.6891324313431244,-1.2112751898564915,3.2567753247095608,3,right
4.906000000000001,0.27423679036503246,1.050703775852951,-0.1971966657777286,0.033416318277710404,-2.2586674006487915,1.483646819871765,1.6905843264388203,-1.2100999643607813,3.258351559287788,3,right
4.907,0.294789195120224,1.0488625742227207,-0.18763315249895277,0.022500474293451703,-2.2134226356151183,1.4944134315934121,1.6891034302222367,-1.2110106050734608,3.2567431593115916,3,right
4.9110000000000005,0.30994088629745986,1.0467340744292606,-0.171378936470372,0.02824865630450178,-2.2377217082428027,1.4885461487187133,1.6905522622296316,-1.2111366189935335,3.25831940935156,3,right
4.912,0.31463908826917153,1.0500534132646535,-0.153214604128023,0.026995983761009396,-2.2322120930942333,1.4899143306302018,1.6886749712872988,-1.209073880018487,3.2562719155815,3,right
4.916,0.3109275052263329,1.0547632473098818,-0.13795578092115612,0.025652354183190736,-2.2259020605378645,1.4915483294713607,1.691525249186903,-1.2136718830939892,3.259384609855357,3,right
4.917,0.2982399656681396,1.0559326253636618,-0.12764073956627564,0.027591778741672915,-2.236546463317019,1.4885488692776867,1.6876179220735459,-1.2068399644687218,3.2551160569859015,3,right
4.92,0.2734921357993617,1.0585991983901843,-0.12355282740442174,0.026428144214423042,-2.2270325729455744,1.4916528283352353,1.6917191715133855,-1.2141182907266779,3.259596813892659,3,right
4.921,0.24329101739687123,1.062751834920513,-0.12552729503973287,0.02640651921321973,-2.232833411036353,1.4892174233015032,1.6894505199360506,-1.2099200693091237,3.2571176823905854,3,right
4.926,0.20584890297458996,1.068268724793803,-0.13212677443131415,0.02705121689998462,-2.2307520821778555,1.4905643091522842,1.6869937079629476,-1.2062636962314885,3.254435609841644,3,right
4.927,0.16032727667234384,1.0761995802406004,-0.1412134633727654,0.02706789185332476,-2.2307760040593148,1.490566210353794,1.6969260718091974,-1.2222059468226183,3.265282269029403,3,right
4.93,0.11292928531046675,1.0875850750260465,-0.15418338217978933,0.024864843173518055,-2.230563450612405,1.489020130350136,1.678653773114951,-1.1926501226780934,3.2453271313070595,3,right
4.931,0.06505793434405249,1.100313701526515,-0.1657781675748154,0.030323029001328505,-2.232768465632323,1.4921516648658253,1.7020840543206304,-1.2306012805592617,3.2709156475631374,3,right
4.935,0.01801525937155162,1.111415378101709,-0.17171374494754293,0.02183142346983012,-2.228062730493063,1.4878108865994275,1.6825352170847396,-1.1989148886978018,3.2495657406519824,3,right
4.936,-0.02564379925355155,1.1297550580923565,-0.17478568843548448,0.031087299970231533,-2.2339072546936682,1.4922448892996685,1.6830161846829146,-1.1997774283278368,3.2500919394780947,3,right
4.94,-0.06568241959883514,1.1516790251436402,-0.17353753859496204,0.025675103765218216,-2.230265069212659,1.4897444891517133,1.7204531209758969,-1.2601892276118751,3.2909756406603865,3,right
4.941,-0.0988151679068193,1.1703164637180554,-0.16564558936310514,0.020978873414409873,-2.2270174343667746,1.4876157278830073,1.628491207426614,-1.1116904376489145,3.190545210552263,3,right
4.945,-0.1193095181391314,1.1940274853776958,-0.14958903677483817,0.041602754456497734,-2.2415533631916817,1.496859673767237,1.7809586108287516,-1.3579222868373013,3.357054164571611,3,right
4.946000000000001,-0.12716840276017966,1.209210316428767,-0.13799894537628649,0.0032836725420216494,-2.2142902171936063,1.4797870251950438,1.5798492439759138,-1.0331264343151831,3.1374221989964144,3,right
4.9510000000000005,-0.12704872232501466,1.2110453821839076,-0.13442498901164007,0.052536001271545105,-2.249510055436606,1.5016606994542459,0.7356577742085659,0.3301136254873093,2.2154864189471937,3,right
4.952,-0.1264245376532237,1.221231782468482,-0.12370639705482774,0.011399789779556314,-2.2200113781595077,1.483419810311259,0.5345239354450841,0.6549555374666223,1.9958242908344557,3,right
4.953,-0.11581658277746221,1.2307439288965634,-0.11121875953671823,0.012498737079312074,-2.220805481221702,1.4839192468062028,0.6870264077540318,0.4086519477503252,2.1623769303523908,3,right
4.954,-0.09120931487862347,1.2301189186588966,-0.10325845422642602,0.0910128455303515,-2.2772271487116984,1.5186488144566748,0.5950441315560043,0.5572093803108525,2.0619197669251736,3,right
4.955,-0.05853274251376357,1.226706447676051,-0.09629282839175543,-0.1019558936958695,-2.1384823598421936,1.4332944194075798,0.6324559808791699,0.4968029121141527,2.1027759194211013,3,right
4.959,0.0018436880994090535,1.210579199676098,-0.08687050048025594,0.21799414509976073,-2.3685943788362707,1.5748063600288578,0.6330328407562107,0.49582203037693534,2.1034153065876042,3,right
4.96,0.049016912659894725,1.1957433068329548,-0.07706546706611536,-0.20401772636117693,-2.065026686741075,1.3881602121562413,0.6133129551180998,0.527763666254627,2.08185994508354,3,right
4.961,0.0625584353661837,1.1923629006682992,-0.07489143648834709,-1.9757787552520854,-0.7908835120519864,0.6048370397441878,0.6369554846147178,0.4894514535317842,2.1077069718967296,3,right
4.965,0.11888008304145281,1.1747298374398047,-0.06706491819569617,-2.397812715486501,-0.48728394949444853,0.4182035394443884,0.6185137568534004,0.5193615589435778,2.087540157349927,3,right
4.966,0.20224292799347382,1.149884161948052,-0.045519918526029456,-2.07779067086834,-0.7174264692457819,0.559684761093328,0.6284432491006466,0.503271954079942,2.0983955746992997,3,right
4.968999999999999,0.2711899536408416,1.1277423118209577,-0.02066454842625281,-2.270920717667648,-0.5787088959304959,0.47438550045428746,0.6263042795788287,0.5066161617822881,2.0960822263769208,3,right
4.968999999999999,0.3451166987120876,1.100415213867965,0.005967061057795259,-2.1921345934906196,-0.634987112496807,0.5090360646288268,0.6233128111105055,0.5117988749211224,2.092742461066312,3,right
4.974,0.4142153408496424,1.074384725127455,0.034611551553093825,-2.1913862390721697,-0.6360704497723476,0.5096223836584561,0.6284871048541595,0.5028381607734712,2.09851863715562,3,right
4.975,0.4772259352689635,1.0466469174992188,0.06500114789647328,-2.232207662701028,-0.6061726106581207,0.49132345729710586,0.6234465646895958,0.5117195048134582,2.092860074009388,3,right
4.979,0.5360425780879029,1.020220173849145,0.0973350941349336,-2.183034101049863,-0.6417705292171996,0.5131718140317258,0.6269259374448115,0.5055099774822345,2.096782564357743,3,right
4.979,0.5795028271436017,0.9986897837644712,0.12993858115490198,-2.221755022436104,-0.6143802554143727,0.4962644272117423,0.6256855062849037,0.5075076821221042,2.0954287645500154,3,right
4.9830000000000005,0.6095552670515625,0.9756098164417372,0.16141333712394096,-2.2000592474959246,-0.6285085944239122,0.5051744736884018,0.6245190270136429,0.5104876911551708,2.0939277667452494,3,right
4.986000000000001,0.6261280604500954,0.9587044884464374,0.19128401845798193,-2.206480669115651,-0.6264311395231829,0.5035094846493411,0.6278701095909303,0.5025711806407962,2.0981068254514117,3,right
4.987,0.6265535926515633,0.9500094652027116,0.2166746870439367,-2.2099010907339802,-0.6208539006635411,0.5005572875399369,0.6230301178194285,0.5141237990552068,2.0920459936676066,3,right
4.992,0.6061297227730602,0.9459883404678548,0.22803330818877726,-2.2020480178886865,-0.6289866563942126,0.5051769717811523,0.627978388263893,0.5021498569399505,2.098276637832156,3,right
4.992,0.5654760133391978,0.9537510338729899,0.22055130609445148,-2.210977392550542,-0.6225865749595445,0.5012390369660693,0.6251170660873455,0.509071684121486,2.0946734811002314,3,right
4.996,0.508459792899046,0.9760266107133466,0.19590853512098172,-2.2019405054080936,-0.6244761287751678,0.5031060932580527,0.6231188580626197,0.5142830165295842,2.092081057806228,3,right
4.997,0.4339718305279563,1.0058407122717874,0.1570671013123522,-2.2115506160673135,-0.6280993072867159,0.503721390056307,0.6324700906777287,0.49049871793677274,2.1040931547502657,3,right
5.002,0.3485809663361022,1.038870301970224,0.11192190133975649,-2.2011029246083673,-0.6198973210863381,0.5010839703838753,0.6150981285168793,0.5346546541756433,2.081781984715193,3,right
5.002,0.2631498841950763,1.0718138184203274,0.06743604607240078,-2.2108171046684566,-0.6296643486501743,0.5045250215619946,0.6373655652019063,0.47801997546244196,2.1103898216363817,3,right
5.005,0.18396043246172722,1.1009548377803462,0.027748679867549305,-2.206158904587805,-0.623334501170128,0.5021141839198617,0.6187935166182592,0.5252715194231545,2.0865235340848596,3,right
5.007,0.1091638526103855,1.1206361699885092,-0.0011721321794535282,-2.199175445792455,-0.6200122460810057,0.5013499495124221,0.6193449870383763,0.5239159812151302,2.0872287443548707,3,right
5.011,0.04673274293885962,1.1285666709403517,-0.01817127973189855,-2.2242623057581232,-0.6384896056554366,0.5071193098774051,0.6545491171228134,0.4341491987105965,2.1324945982835013,3,right
5.011,-0.00010705302779896297,1.1306903534936215,-0.026394719055568925,-2.179032922445976,-0.6032925669595203,0.49584619931654966,0.5679853134073771,0.6548391305805198,2.0211845742175116,3,right
5.0169999999999995,-0.05021589751983477,1.119427303255127,-0.023577396261873704,-2.2366422571495645,-0.6488230900716514,0.5105295548304201,0.7115078002594865,0.28893569000086156,2.205747072906675,3,right
5.0169999999999995,-0.08042810424226624,1.1057253820934605,-0.015963191732772566,-2.188745992592003,-0.6106693570221866,0.4981810042421361,0.5222148381011678,0.7715362153800689,1.9623123430379903,3,right
5.02,-0.08743479860044186,1.1021014976099444,-0.013590288551424103,-2.1897344163403947,-0.6119225710709602,0.4986566129273298,-0.2722197702440294,2.79707461042557,0.9406904316907749,3,right
5.02,-0.11376396327750331,1.0870507959170044,-0.00651944706732961,-2.281880886696683,-0.6840880644318952,0.5218286414019893,-0.46149497212575485,3.2796361526612587,0.6972457101414518,3,right
5.02,-0.14283005600113013,1.0637577403468295,0.003770469443141569,-2.055844152584398,-0.506393863646968,0.4646660041415016,-0.3180002464864751,2.9137936478185287,0.8818238272564606,3,right
5.025,-0.16323939994194223,1.038532305152657,0.0016153192389635018,-2.4304508052664566,-0.8011415897883635,0.5595285692648451,-0.40454108920580845,3.134433177929439,0.7705008843840928,3,right
5.025,-0.17856282552293135,1.0193457362184097,-0.004000189623560891,-1.9364136110419934,-0.41232403092181247,0.43436758580815205,-0.36933562241895634,3.0446634680729696,0.8157659889301896,3,right
5.025,-0.1818931459255598,1.0145901553458705,-0.007019554981426982,0.13761785865298365,1.21952144372829,-0.09076136533728191,-0.3688287174917676,3.0434057395764853,0.8164962672189628,3,right
5.03,-0.19151323174679996,0.9962126236262165,-0.013915128854212963,0.6316335356042934,1.608352977814623,-0.21594581198393467,-0.387303490082884,3.0904437769720796,0.7925752577519112,3,right
5.03,-0.1947235453694604,0.9672982909435212,-0.01930528036760515,0.25708527332939946,1.3135648694108637,-0.12104233883231177,-0.36517461464852796,3.0341132289180353,0.8212610448647412,3,right
5.035,-0.18009253947624543,0.9422773651922453,-0.021156404342762843,0.483006500668546,1.4913427981154075,-0.17825030186388932,-0.38240936039209583,3.077967974618619,0.7988726765915548,3,right
5.035,-0.15950139696652688,0.9139343901352913,-0.0198816998659739,0.39103918972450197,1.4190429912120883,-0.15504913179168228,-0.37311756875496843,3.0543141710440986,0.8109182237733074,3,right
5.04,-0.13044213906946106,0.8866692964995684,-0.014710464271199989,0.3898365605562397,1.4179555334570315,-0.1545605016834374,-0.375231236138706,3.0597788869406024,0.8083907383369773,3,right
5.04,-0.09661830774713671,0.8605228696315569,-0.008904506083781514,0.43790282474859465,1.4559702698276271,-0.16698834716366556,-0.3777193964550972,3.0658816975715566,0.8045776696028641,3,right
5.044,-0.06395860109361175,0.8372986851841335,-0.0022741817034663326,0.38029549060520473,1.4104549178000934,-0.1521503045661684,-0.3734140574562512,3.055318912311966,0.8111699967503163,3,right
5.045,-0.03723196683745482,0.8191917631529196,0.0036763107942908557,0.42520594196261147,1.4458742632325667,-0.1636307796872793,-0.3774652339813849,3.0651401240488276,0.8046653939085278,3,right
5.05,-0.018632337938073694,0.8050858539312661,0.010460147969640857,0.40085026935676527,1.4268565453998776,-0.1576702294804158,-0.37474288381693455,3.0586037255646716,0.8091981953626699,3,right
5.05,-0.009929796871783345,0.7975541062231709,0.023385532562838804,0.4067392479927918,1.4310122340080702,-0.1584928990720358,-0.37591498224752096,3.061595888379827,0.8077002877824402,3,right
5.053999999999999,-0.012463271178162578,0.7962494837512253,0.03618959958965484,0.4125674549058415,1.436421084334056,-0.1611195217867821,-0.37598892403389955,3.0610334808670974,0.8056903513262099,3,right
5.055,-0.02147058113051009,0.8015951171576207,0.044915799061360374,0.4021776417092589,1.4272373395969058,-0.15707753405563535,-0.37517512775935313,3.0606744629474765,0.8111123266100444,3,right
5.061,-0.03641485943765601,0.8100579395188181,0.057159207484649005,0.4120280479005829,1.435791616337926,-0.16069625083560207,-0.376239344251057,3.0608281565843702,0.8032168312777399,3,right
5.061,-0.05088972615863463,0.8175269869605253,0.06935799105498258,0.4050279929467967,1.4302897935627306,-0.15893342712078457,-0.3753035579579176,3.0611708832947,0.8113775614980281,3,right
5.064,-0.06379196695441997,0.8241155701956747,0.0777702597120212,0.4091724909022463,1.4320640953011021,-0.15789832319540736,-0.3758465939841226,3.060978784532365,0.8066601082918483,3,right
5.064,-0.07882324331546363,0.8303550887148817,0.0864607917808437,0.40668202516501417,1.4335028277431883,-0.16203135541812075,-0.3758731668617854,3.0596875786011477,0.8031588360001015,3,right
5.069,-0.0921629443796531,0.8342078597994742,0.09512530166450991,0.4087249731863787,1.430040577787567,-0.15544252867253905,-0.37518472882207343,3.0638800505437134,0.8192124724036194,3,right
5.069,-0.10716050787799108,0.8393808453629397,0.1172258756353517,0.4068590805328695,1.433976888076415,-0.16254489131097216,-0.37649043364679347,3.0561788501579388,0.7894058142846354,3,right
5.074,-0.12116241160794788,0.8545311248681196,0.15593869491538775,0.40744467730034684,1.4313145953412953,-0.15831701454483577,-0.37484979700031396,3.066159388954036,0.8276305658166209,3,right
5.074,-0.11867630372002146,0.8603588495276228,0.17707867946803046,0.4103874426573827,1.4309394251114882,-0.15528821714559854,-0.37620373961494313,3.0577867420566034,0.795742104150652,3,right
5.078,-0.07663449046059315,0.8194494249908442,0.14709201508878283,0.4015003595548018,1.435725160947448,-0.16955092128848873,-0.37611859050037866,3.0578903188198936,0.7966601611130513,3,right
5.079,-0.0011287730384769712,0.7333388480894211,0.08781280875812975,0.41725976879616217,1.4262810109496393,-0.14291942569107674,-0.3737398086385154,3.074371126685688,0.8572218725532914,3,right
5.083,0.07862856619355496,0.653834915113668,0.03489500972176214,0.3971876301014977,1.438537598983892,-0.17715538975094136,-0.37962601177206357,3.033962638874696,0.7083329077512441,3,right
5.084,0.15457452608914424,0.6161769801121519,-0.027869102280628125,0.41387607409754124,1.4282494562500294,-0.14855850629828515,-0.3698664730519875,3.100962854310424,0.9551861280863829,3,right
5.0889999999999995,0.20103970827418183,0.613560506822602,-0.07276771635253623,0.41368322090630916,1.4287355441526985,-0.14939238103449987,-0.38273143482979327,3.01256899540654,0.6296095015661912,3,right
5.0889999999999995,0.2158813802284184,0.6216046009111669,-0.08035437135398998,0.3810192568687054,1.4476803158828169,-0.2037214122011504,-0.43657131578972486,2.6411385727508447,-0.7369188925129077,3,right
5.0889999999999995,0.2671106733288703,0.6479485183364315,-0.11619890069301601,0.4609922423579488,1.4008640597414326,-0.07011958354994137,-0.4494255145005772,2.5527154893022743,-1.0624628732654062,3,right
5.093,0.3728644766600116,0.7323684779266937,-0.16209410575145775,0.3284799027235996,1.4785606802631288,-0.2916519699438128,-0.4396862146734674,2.619769232944434,-0.8156560251323813,3,right
5.093999999999999,0.4415248627463866,0.801994440913915,-0.17539751944090734,0.5032492869522145,1.3760646559761112,0.0005459176594152931,-0.44554640676780655,2.5792951681627105,-0.9645192784096251,3,right
5.093999999999999,0.46313241893907,0.8220745474751747,-0.17586666340132034,1.2374401006756175,0.9464266822264656,1.2270563549988893,-0.443191752315119,2.595831077623841,-0.9039211063562678,3,right
5.099,0.523846706512307,0.8941888204787899,-0.12873790317618566,1.4122504679638501,0.8439672748303129,1.5192498003177286,-0.44309661462358785,2.5959229775385784,-0.9031354129135116,3,right
5.099,0.5726321018101279,0.9804971310552661,-0.007774644601636998,1.2796630509562175,0.9215850679886968,1.2977094710273036,-0.4444313124170691,2.5874814997457065,-0.9347909266356531,3,right
5.104,0.5420045525326772,1.0228826206732369,0.13767128788676242,1.3597280412662562,0.8748926280924636,1.4313582855029265,-0.4428517694710279,2.59763747441269,-0.896852063343466,3,right
5.105,0.4522376271584756,1.0587135860504493,0.2764184115523891,1.3269867161938358,0.8936824907763146,1.3769202142291417,-0.4440532468862757,2.589662066088435,-0.9264352315962756,3,right
5.109,0.2995898021537047,1.0864681895868749,0.41058663270732654,1.3268103729894483,0.8943106045157876,1.3762587584404922,-0.4434917786725552,2.594161326558517,-0.9103668439964582,3,right
5.11,0.09598976061674963,1.1187907680063132,0.5181065721113425,1.343595190159533,0.8839719667129414,1.404658221755729,-0.44341801348296395,2.592668775174649,-0.9143125709177868,3,right
5.113,-0.14020331332906716,1.1605616756018744,0.5488724191151233,1.3232771365684157,0.8960875500302334,1.3705566501410273,-0.44395873266724073,2.592376944892119,-0.9180389035313974,3,right
5.114,-0.3812320325927445,1.1861069765877716,0.4508402295188544,1.339421099605652,0.8870594536074441,1.3972456548425336,-0.4432118016380566,2.5933162798822798,-0.9113337326340836,3,right
5.119,-0.5584971577189223,1.1827086796774444,0.2219900794542823,1.3301035812429434,0.8911477783290787,1.3826014141443332,-0.4438476556979941,2.592286119742629,-0.9177115460245997,3,right
5.12,-0.6155925513395332,1.1447674514598298,-0.09329449402217307,1.333329092306424,0.8916110413710217,1.3864013972351774,-0.4436693912351065,2.5935464876719934,-0.9130982295805535,3,right
5.122999999999999,-0.5373971671725454,1.0975224117268227,-0.43182938955798866,1.334054161632238,0.8883035152363971,1.3895604201653406,-0.4430718193524765,2.5914425030380785,-0.916038783581018,3,right
5.122999999999999,-0.3603528260454567,1.086774691262979,-0.6832865404249018,1.3313515503964437,0.8921826474062775,1.3834937443275013,-0.4446183926460935,2.5950000155310966,-0.913917993370368,3,right
5.127999999999999,-0.13626694869472775,1.136294891514111,-0.7553250107091092,1.3350559968990714,0.89003456937902,1.3896693508945557,-0.4422679724029208,2.5899926116541963,-0.9159804062187868,3,right
5.129,0.09162625108637162,1.2307212150990459,-0.6531443043697922,1.3302907645242699,0.8885642100388722,1.3845829415392212,-0.44478150310401643,2.595274643325035,-0.913986856330578,3,right
5.132999999999999,0.27436822643325,1.3239359267898516,-0.47941678875616545,1.3366052182307446,0.8946013251013911,1.3885638763978752,-0.4433165763438468,2.592310856980448,-0.9148148786219763,3,right
5.1339999999999995,0.3862547159954509,1.392599227290134,-0.2917979655177847,1.3287972148124285,0.8846531317698108,1.3853163480127293,-0.442116592061723,2.589319632652817,-0.9171331206280382,3,right
5.138999999999999,0.4419276528827563,1.4317793665531227,-0.10071555787499485,1.336530112697883,0.895601739679761,1.3877939723789396,-0.44747087763148746,2.601696200647675,-0.9096134760869832,3,right
5.14,0.4631503596457822,1.4287288737982458,-0.054720924384053425,1.332458881470524,0.8890465229250328,1.3870217119401895,-0.43752301736773547,2.578872805118271,-0.9230849578292165,3,right
5.143,0.4745088112105734,1.411578783227534,-0.2530003956452029,1.327715861704918,0.8841083178281814,1.3843061572524227,-0.45030036171415694,2.608150085093609,-0.9058929459536473,3,right
5.144,0.5040881850692207,1.392958038577329,-0.6560736173116519,1.3461964446524366,0.9070327506285185,1.3924099906400798,-0.4396320548843998,2.5837198291981363,-0.9202031449759842,3,right
5.148,0.5489788285455943,1.4074812077493077,-1.05936991072429,1.312463937451789,0.8642119477754349,1.3782731278951754,-0.43992603081959625,2.5843358313667157,-0.9199798074621564,3,right
5.149,0.5928132240308635,1.4847821352789343,-1.2780117064604928,1.3555807681400625,0.9193024406185416,1.3961063730146317,-0.46025011829571083,2.631067518033425,-0.8921540733651363,3,right
5.152,0.586769559427341,1.5797435764004701,-1.3632990170772419,1.3196726924284925,0.873272254930078,1.3813493756511637,-0.41029083234459146,2.516260316710053,-0.9603540833955695,3,right
5.154,0.524992807760683,1.7503015203531103,-1.1755471656953418,1.320503666569817,0.8745683345913455,1.3815511934708433,-0.493125891854138,2.706601820830924,-0.8473238272955461,3,right
5.1579999999999995,0.4780655698371869,1.88952492273786,-0.946971823205159,1.3893447023323766,0.962200040355047,1.410218079855707,-0.3838680105290786,2.45554375387876,-0.9964075699106048,3,right
5.1579999999999995,0.44935534247378073,1.91451634538563,-0.8985994513302189,1.2203531454693382,0.7467508904423876,1.3400380862310866,0.0747681777999557,1.4016580509026828,-1.6223859344829528,3,right
5.159,0.4757142014271265,2.0640980191266487,-0.5229639636538803,1.5004604249718096,1.10398511314619,1.4563012497230128,0.18402654054689255,1.1505939833367156,-1.7714895990062927,3,right
5.162000000000001,0.5341222195815089,2.2063367536372507,-0.15356546360440987,1.131040264283628,0.6328035132325764,1.3029800995430878,0.10118641636641879,1.3409428844938032,-1.658442002824172,3,right
5.164,0.573584240470921,2.2175164887738767,-0.11505267762295548,-0.4201394240480787,-1.3456015930567367,0.6596184651172116,0.15116159848924393,1.2261349476837933,-1.7266188885963267,3,right
5.164,0.7448936960648787,2.316941169381492,0.08229504159988238,-0.7895715830084806,-1.816810541114172,0.5063177502140952,0.13080605886975571,1.272851705688317,-1.698895424245766,3,right
5.167000000000001,1.0404249746459402,2.4167182505275275,0.22752663082691044,-0.5094098475098805,-1.4594522662124854,0.6224882261538154,0.13055759002129783,1.2735042424746665,-1.6984725984006723,3,right
5.167000000000001,1.3348578233548678,2.4333191140086043,0.14317990840302583,-0.678543371469871,-1.6752247540298582,0.5525498124015538,0.14117839538685872,1.2490180696847824,-1.7130523643130617,3,right
5.172000000000001,1.5899864671566064,2.4340280154410916,-0.002028769170838874,-0.6094425385392432,-1.5870014045583756,0.5807746621879499,0.12842618563406605,1.2783554450863281,-1.6956124787369955,3,right
5.172999999999999,1.7011595666922559,2.3844575449298446,-0.2363097139510518,-0.6089682238426705,-1.586517498060743,0.5815832752929335,0.13840436391101857,1.2554979231222654,-1.7091527367872392,3,right
5.1770000000000005,1.655234639883245,2.282769982506231,-0.40784276754672616,-0.6445269073310915,-1.6317521318503805,0.5662319085567428,0.13293364544563177,1.2678417728309297,-1.701933912178982,3,right
5.178,1.523864662544451,2.1333303028817645,-0.4402198830797697,-0.6015556642833396,-1.5769930034448498,0.584312707120356,0.13434551487265767,1.2649884347958378,-1.7034344687789964,3,right
5.183,1.3314847333136441,1.9445928955111278,-0.38207728116352724,-0.6356010792916977,-1.620526588360229,0.5707084074875839,0.13553799422288026,1.2617686183789072,-1.7055854785477065,3,right
5.185,1.0903553087642592,1.744258374248201,-0.23358173000493254,-0.6161297169883565,-1.5953457373142002,0.5771263868057193,0.1332604352173159,1.2673844543154829,-1.7020595429737155,3,right
5.186,0.812513259290425,1.5332552583994459,-0.058460166326276174,-0.6225748707468985,-1.604160117609982,0.5773068354881233,0.13556973529577143,1.2620816535549717,-1.705207304713102,3,right
5.187,0.5303689759472878,1.307382557303614,0.05587587965510295,-0.6245588431762645,-1.6059624493400317,0.5729835896905902,0.1336843236077952,1.2657039298035433,-1.7034101038300518,3,right
5.192,0.27103301956626213,1.0693517659935972,0.0691394993566667,-0.618489461352919,-1.5988013565450256,0.5782909002971319,0.13513480273892817,1.2639934877205068,-1.7036162771754682,3,right
5.194,0.04341439173234853,0.8314715763484892,0.017488836912107335,-0.6263130775344605,-1.6087861732509496,0.5750708485058487,0.13397755868288796,1.2642322876776872,-1.7046827809724294,3,right
5.197,-0.15395224687178585,0.6136653971774961,-0.0587925460812127,-0.6169092830485603,-1.5957127391928303,0.5737946231586871,0.1348428453367585,1.2648239506305634,-1.7030428100120472,3,right
5.1979999999999995,-0.3371464888773115,0.4267530283469013,-0.1359018813392321,-0.6287341264424529,-1.6132601992358842,0.5807199529266943,0.13458990914656432,1.263914840335514,-1.7043279596857355,3,right
5.2010000000000005,-0.51061172955079,0.27866924242859675,-0.1796089519122055,-0.6144975196298441,-1.5914245856161953,0.5689767090308361,0.13360385205372444,1.2648947250726108,-1.7043863759794657,3,right
5.202000000000001,-0.6776135157273865,0.17640935023462556,-0.1831888730494472,-0.628428664787606,-1.6131129925533807,0.582012013695277,0.13650236232409554,1.26385963601063,-1.7021941951380524,3,right
5.206,-0.8510492651596703,0.1137657941472906,-0.15892455248637583,-0.6212138739159357,-1.6016466234446478,0.5741335353384955,0.13146186945857036,1.265010899667014,-1.7067177646146519,3,right
5.207000000000001,-1.0201187219242425,0.11008077766156706,-0.12784381420633228,-0.6123998735286662,-1.5884507527351586,0.568419958331104,0.13781337057183424,1.2638090218581408,-1.7007432940063425,3,right
5.212000000000001,-1.1934612296459657,0.15280602577348426,-0.12216821119421652,-0.6461876394110977,-1.6400927256254798,0.5954140223543978,0.1325619398080785,1.2646964612210352,-1.7058026133439568,3,right
5.212000000000001,-1.3705624845218214,0.25886735560699314,-0.15371371791332847,-0.5846580764954603,-1.5457654074340517,0.5448830803882796,0.13262518754297997,1.2648502086798539,-1.7055539225547034,3,right
5.2170000000000005,-1.5176056379360765,0.445370995252803,-0.18991673548433607,-0.6632587951590054,-1.6663665436434147,0.6099372062983242,0.14284836114444815,1.262684479119433,-1.6962028534161306,3,right
5.218,-1.6382260467616097,0.64986804523454,-0.18750402156604173,-0.5978088907837106,-1.5659016071332048,0.5555542185532333,0.1178353429838602,1.2677520545371823,-1.7193509041251525,3,right
5.222,-1.674129222974262,0.9337720198657473,-0.1727947452529353,-0.5993203703765924,-1.568284269540702,0.5571387843951531,0.15926467321296794,1.2594441157594312,-1.6809048575800971,3,right
5.223,-1.6552915119390712,1.1380555418346168,-0.17240161368081758,-0.7248136625462326,-1.7607466765235094,0.660537493888167,0.10463568202105653,1.270370694083614,-1.7316432993475153,3,right
5.226,-1.6557421753562154,1.173797470233902,-0.1679153774841335,-0.41673855477090466,-1.288182763606184,0.40623148400750336,-0.12473614324446568,1.3163275905260075,-1.9444527170384118,3,right
5.227,-1.5479658375060084,1.3766028055692554,-0.19428325143699843,-0.9274068352845306,-2.071534760885032,0.8279473199567374,-0.17936161480945606,1.3272549958556694,-1.9952067378127272,3,right
5.227,-1.4298331893696679,1.5668278661900432,-0.22842869424405782,-0.2538769624230984,-1.0383587981031943,0.271678295209815,-0.13794518212860252,1.3189670515239418,-1.9567314283811288,3,right
5.23,-1.4020314802311429,1.5799378895899916,-0.24126707873076192,2.5734651976200675,3.298653977168788,-2.06317216215248,-0.16292745319424679,1.3239602964939143,-1.9799170158402815,3,right
5.231,-1.2742017140148505,1.708126818344391,-0.31634539039003884,3.2470332298099214,4.331839927284511,-2.6194671874706597,-0.1527580220243201,1.3219500728088471,-1.9705312559849537,3,right
5.232,-1.103200738276543,1.850211034787669,-0.4325096117224393,2.7363220329461813,3.5485016532698475,-2.1976951288576263,-0.15262348243054358,1.3218711342046667,-1.970296679229587,3,right
5.235,-0.978719598092721,1.9106111975516016,-0.5165923252574398,3.044387213210441,4.0209745742931755,-2.452089941237314,-0.1579416307777854,1.3230106124054908,-1.975384220784664,3,right
5.236000000000001,-0.846043583479893,1.9665198095590928,-0.5643127307431153,2.9190189660415946,3.82872712718963,-2.3485794130224544,-0.1515680362070486,1.3216596645698206,-1.9693211171808025,3,right
5.2410000000000005,-0.7326571750924189,1.9719901119937484,-0.5639023521605445,2.9172304801097066,3.8260016104564336,-2.3470983974028705,-0.1565357182278631,1.322686010068764,-1.973995331074302,3,right
5.242000000000001,-0.6251469115108182,1.9427395565897505,-0.5272913876671268,2.983083931332425,3.9268623330526524,-2.401442635178417,-0.15384591927815,1.3222149806463768,-1.9716202622530155,3,right
5.247000000000001,-0.5163894901270936,1.887055043527075,-0.469913377641034,2.9040733875352522,3.8059867305686943,-2.3362900398839606,-0.15448608367256328,1.3221280483799007,-1.9718222358467101,3,right
5.247000000000001,-0.42050587678965945,1.8044785420603089,-0.3927499874073477,2.9657946188614934,3.9002102940480174,-2.3871179888718093,-0.15514968900235726,1.3226312168385617,-1.9731129935467382,3,right
5.251,-0.32697384107003735,1.7148659675518232,-0.30511560296044704,2.9323245417701473,3.8493159468596643,-2.3596219874083686,-0.15397722923706386,1.32194198572848,-1.9711974758532183,3,right
5.252000000000001,-0.24429406787917163,1.6188906955482092,-0.21805678285251667,2.94005641307999,3.860984295688014,-2.365943510355615,-0.15508528858016862,1.3225261377814823,-1.9728850807897613,3,right
5.256,-0.1669391737907358,1.531828596263272,-0.14698503216430464,2.949168941648402,3.8745825249348202,-2.3733471823468664,-0.15431145809748878,1.3223748282772048,-1.9721725525682747,3,right
5.257000000000001,-0.09466672892336028,1.4535255971311924,-0.09778509646463421,2.9328739039715686,3.850809116195162,-2.360286493276983,-0.15473461752638584,1.321785969044036,-1.9713433448694946,3,right
5.26,-0.031073869214733763,1.3778341952283437,-0.0730546232662167,2.9490465654702787,3.873512807568552,-2.372958221412096,-0.15453945371006297,1.3232857988438886,-1.9739546124358058,3,right
5.26,0.02799951126494422,1.3088121226531677,-0.06918905000355248,2.9371218762794498,3.8578022348415866,-2.3639506521703924,-0.154645716423354,1.3210115068934796,-1.969887701788973,3,right
5.265,0.07032935206799826,1.2451258957489704,-0.07281186887447824,2.943198897438708,3.865066695168651,-2.368299134020081,-0.1545668629262011,1.3234425991298262,-1.9742548274072425,3,right
5.266,0.09339775377388904,1.1864585427951782,-0.07377664812591374,2.9431955754415773,3.86504332054532,-2.3682907405936136,-0.15455810240491807,1.3220275181767391,-1.9716813486747211,3,right
5.27,0.09208537473536002,1.1336153310538815,-0.06384926838942906,2.9374140744498156,3.8599916992242442,-2.3647590110867958,-0.15481967927919338,1.3208599765453277,-1.9697120561476555,3,right
5.271,0.058065447851526585,1.0839938938800215,-0.04247704312362226,2.9483086328260084,3.867980829988371,-2.3709153908015494,-0.15411535546967747,1.3260545991879216,-1.9787378770024873,3,right
5.275,-0.0022700567142359563,1.0360510337826672,-0.011485768273816609,2.9339651128615767,3.8589909551370236,-2.3633080852144355,-0.15534211307418522,1.316406543344564,-1.9619263922567527,3,right
5.276,-0.10097091481427928,0.9877260177117108,0.02806306761987437,2.9481395685441445,3.866862535629498,-2.370495885412968,-0.15378459945465042,1.3287973658326706,-1.9835288966755547,3,right
5.279,-0.22593998110196647,0.939398727107644,0.06814697612227195,2.9403061807662367,3.862861252324138,-2.366637298263186,-0.15507788823102264,1.3184533894513562,-1.965488532354344,3,right
5.28,-0.37778044705204383,0.8886280867725016,0.10233455294785111,2.9337023950342616,3.85964048592489,-2.3634339541609974,-0.15507007570448544,1.3187343932472981,-1.965999836770828,3,right
5.284,-0.5476571087107036,0.8357988530270395,0.12561447508841594,2.962175170579106,3.873079346614887,-2.377099404314427,-0.15251435460367935,1.3384509169430985,-2.0003212393891996,3,right
5.285,-0.7049439205380752,0.7879184991128283,0.13640353529173735,2.909782171778571,3.848785411575001,-2.352095242378046,-0.15876442035433797,1.2899927185484756,-1.9159386378522931,3,right
5.289,-0.8983091220059168,0.7394293822747664,0.14267817570188432,2.976773319946389,3.8795450095250485,-2.383967469695315,-0.14840911618773622,1.37033337718178,-2.055852453571324,3,right
5.29,-1.0271388743025673,0.7074935737501558,0.14579894791507092,2.9209705560746615,3.8540553024427675,-2.357461445858818,-0.16206788477219397,1.2643712921908008,-1.8713104463679542,3,right
5.295,-1.0582962338608857,0.6990975721886192,0.14551647473752236,2.9224954706797486,3.8547719088016223,-2.3581925669781887,-0.21943059940797455,0.8195249019597746,-1.0966864283363238,3,right
5.296,-1.175195492028025,0.6770232894654371,0.1487834644404884,3.028645738416621,3.902972967235618,-2.408519306980008,-0.23309423719628017,0.7135750426945553,-0.9121544614063988,3,right
5.297000000000001,-1.3165304133285165,0.6524235958681313,0.15794054132751578,2.767813294420712,3.784605611345033,-2.284879688173838,-0.22273366611638237,0.7939024754310987,-1.052057412234913,3,right
5.3,-1.4149022492874337,0.6501094630445983,0.17183369875453414,3.200211641489977,3.9807484151101753,-2.4898178723350597,-0.22898172380529797,0.7454392407794532,-0.9676706861736386,3,right
5.3,-1.4862590415456742,0.651442735918085,0.1804938391690372,2.6299286951226226,3.7221264851932356,-2.2195513844373913,-0.2264434867805865,0.7651996523335648,-1.002028107699135,3,right
5.301,-1.5006978223179335,0.6540388198100328,0.1826978182454534,0.23607605855692815,2.6369495419547704,-1.0852402766737548,-0.22639806115778466,0.7653862334151845,-1.002461903311003,3,right
5.303999999999999,-1.5408955164743001,0.667970817367585,0.19069103993604064,-0.3342338416422682,2.3784193632422044,-0.8150037412492893,-0.22774527459765317,0.755177633999236,-0.9845326785566558,3,right
5.306,-1.5810204534861905,0.6926084834289872,0.1949304666515605,0.09824577472652038,2.5743971574773132,-1.0198954059311682,-0.22613406936816866,0.7674336568359648,-1.0060245015827856,3,right
5.309,-1.5691156407636135,0.7294313596939059,0.1905175036340636,-0.16276014324509896,2.456224901452946,-0.8962934496146138,-0.22738398257844386,0.7578437505192008,-0.9892607915940674,3,right
5.31,-1.538999923244187,0.7776998967824755,0.18793470296035528,-0.05632610675689982,2.504275192698913,-0.9466246323374135,-0.22672579049038094,0.7631541595235065,-0.9983816148776342,3,right
5.313,-1.4717834343856613,0.8288211039090834,0.18212452919203814,-0.05515756853524731,2.5049954849340357,-0.9472773440533937,-0.22683880935037637,0.7616136938708282,-0.9961062229660289,3,right
5.314,-1.377368857922332,0.8793787175378469,0.17344218899880842,-0.11065284881732726,2.4797572660697345,-0.9209388736559349,-0.2270859948997094,0.7608411447717619,-0.9940602060942242,3,right
5.319,-1.268657771790071,0.931406075958253,0.16732342901538177,-0.043713751353711125,2.509945680299725,-0.9525753736533367,-0.22669305861989714,0.7624837232092911,-0.997779961520818,3,right
5.32,-1.1430472442323536,0.9764465328870051,0.15856186465569566,-0.09655614732380356,2.4864938678448034,-0.9278008606738333,-0.22704968257897556,0.7608380217723829,-0.9942292286816917,3,right
5.3229999999999995,-1.011462037217247,1.0066398142523092,0.1482784055287892,-0.06695154069845578,2.499050575350908,-0.9413738755261765,-0.2268568436586017,0.762343570311082,-0.996844951137392,3,right
5.324,-0.8721653012922443,1.0268355273350065,0.13949312563831068,-0.07533061521614455,2.496310226549631,-0.9379611906137977,-0.22681518357996824,0.7605879446292876,-0.9950581867004518,3,right
5.327999999999999,-0.7307238995313293,1.040944101806038,0.1306964175177942,-0.081167631049332,2.492821394730655,-0.9347509663940112,-0.227103450277533,0.763102872600095,-0.9965342570959635,3,right
5.33,-0.5927801889955053,1.0482046965378187,0.12256122958985055,-0.0683137396294062,2.498641240811522,-0.9408380057728102,-0.22662716914333556,0.7597096006479042,-0.9949566179417415,3,right
5.332999999999999,-0.4608873332213693,1.0516315900249271,0.11564254196237217,-0.08329403260676874,2.493411855654935,-0.9345631797661664,-0.22714348807275708,0.7632601924412172,-0.9965221854856454,3,right
5.334,-0.3399062624631408,1.056027370759121,0.11107229629255422,-0.06851114100390607,2.496544729042845,-0.9396858281045248,-0.22683161152955195,0.7613139702342461,-0.9958011585357933,3,right
5.34,-0.2281195024575469,1.0606471950110987,0.10821650436057778,-0.08205308179528703,2.4957294128144287,-0.936076989234282,-0.2266299498276325,0.7591143827863872,-0.9942701925186707,3,right
5.341,-0.1256512142394688,1.0648191268973033,0.10618014319911148,-0.07136629075590094,2.49489882881768,-0.9381473412399293,-0.22762241199877142,0.7678867715068742,-0.9994819740879209,3,right
5.343,-0.03515079334219175,1.0695790773417686,0.10332138268596842,-0.0756270889164102,2.4962469807618772,-0.9378585131780015,-0.22576213079803198,0.7517721894828584,-0.9900851669583289,3,right
5.343,0.04507002783508035,1.0725820225652598,0.09333450540228061,-0.08333072234248198,2.4955798052520444,-0.9356980162317445,-0.22815513719074454,0.7724299176192015,-1.0020910955735718,3,right
5.348,0.1144676571925766,1.0767515923750146,0.08066822965825654,-0.05812437986964563,2.4946384295706823,-0.9411184626486293,-0.22615575170655017,0.7551971623612077,-0.9920919605667972,3,right
5.35,0.17896896695081038,1.0818610319379287,0.06583649008577427,-0.10238919988408102,2.49751036704977,-0.9322429044569385,-0.22621628346576866,0.7556113961443887,-0.9922698816009069,3,right
5.353,0.23823424457492398,1.0837803755544424,0.04376474128478659,-0.046651884236470785,2.4933220095077853,-0.9431166552060763,-0.2300072038778562,0.7886434342664921,-1.0116412506368733,3,right
5.354,0.2856273934961759,1.0865615967928761,0.024099430985331106,-0.09271332115438287,2.497034422280601,-0.9342636051408745,-0.2206824668024976,0.7075148769622959,-0.9641372287855409,3,right
5.357,0.33579088162046533,1.0845237485711474,0.0024929472323289206,-0.09187464519725262,2.496743713214176,-0.9343058548404264,-0.23614461256213665,0.8420158551373438,-1.0428741069149332,3,right
5.358,0.36794928109089875,1.0805616129762035,-0.014672328090388233,-0.003288249534306821,2.4900200774401666,-0.9515546619239581,-0.2157507593533699,0.6646085418524412,-0.9390212988451495,3,right
5.362,0.37422165290135445,1.0809911318340784,-0.018545962865721875,-0.22029121734511223,2.506888899101309,-0.909514523520865,-0.13014856045486245,-0.08010509349526687,-0.5029831512258109,3,right
5.3629999999999995,0.4012199968624133,1.0673597009211533,-0.03214532916904748,0.13915986302517858,2.478751141936555,-0.9790456581052711,-0.10975689224688441,-0.25752348451910434,-0.39911604761144204,3,right
5.364,0.42451110831105804,1.0533364840232469,-0.04392899127923852,-0.3347835568767083,2.515954720719782,-0.8874249942873504,-0.12521667431692,-0.1230105205479294,-0.47786839235952766,3,right
5.369,0.4243252415132487,1.0499267897887425,-0.044620542637348465,-2.324136571412505,2.672124783890912,-0.5028568179435072,-0.1158910369296135,-0.20413452087706646,-0.43037025383023375,3,right
5.369,0.43343788413792095,1.0256316306824265,-0.052791600501424535,-2.7979928332644075,2.7094110618393983,-0.41131030797394386,-0.11968980151049632,-0.1711422364198363,-0.4496903162739681,3,right
5.37,0.4329137382008191,0.9873168065947926,-0.05823765800224569,-2.4387363913610023,2.6811086373258224,-0.48069107047057524,-0.11973345720909778,-0.17064246566380553,-0.4499786287639565,3,right
5.374,0.4111283443099566,0.9477589624292778,-0.06024804409813154,-2.655419819495166,2.698209761834564,-0.4388688648587477,-0.11775826724329605,-0.1879978651406433,-0.43982121573394306,3,right
5.375,0.37714720258596446,0.8965850538980367,-0.06413832743889297,-2.5672533282684054,2.6912338516543026,-0.4558716036747241,-0.12012718160831655,-0.16721800701384817,-0.4519847550730104,3,right
5.377000000000001,0.3235265220942941,0.8436826999071904,-0.06835887042412428,-2.566000656297681,2.691119130831302,-0.4561011234845163,-0.11827729259011313,-0.18338528947584903,-0.44251994398163813,3,right
5.377999999999999,0.25698718775647467,0.7949003979242357,-0.0810105709086566,-2.612263809742368,2.6948728848620878,-0.4472535139742336,-0.11929044996844035,-0.17471776689584806,-0.4475963784254262,3,right
5.382000000000001,0.18233449783974878,0.7498651541870713,-0.09449950254349263,-2.556815078739762,2.690276537666093,-0.45777966608905085,-0.11902213554253067,-0.17657953743868401,-0.4465013941102095,3,right
5.382999999999999,0.09797655972042792,0.7101148553193164,-0.10021327097278071,-2.6000465423996513,2.694005686333054,-0.44968949695854027,-0.11882509745144637,-0.17910784019045262,-0.44502915758314404,3,right
5.3870000000000005,0.008590204754886258,0.6746009513392237,-0.09854988416772979,-2.576686457937832,2.69184508318905,-0.4539443219835486,-0.11920048822857075,-0.1748428813078286,-0.44751664210508046,3,right
5.388999999999999,-0.08782386816341567,0.6485969304781278,-0.09174122076593785,-2.5820456731604486,2.6924050972370814,-0.4530197398096953,-0.11883655071924103,-0.17880569352758346,-0.4452040145872733,3,right
5.391,-0.19468675846270417,0.6335221840296995,-0.08313175513840708,-2.5883001496767566,2.693171782302225,-0.45203147071453037,-0.11912584414519735,-0.17629581275037826,-0.44667351572727376,3,right
5.392,-0.3053607661879511,0.6299953257868969,-0.06887790510678923,-2.5773402583941074,2.6914265749306665,-0.4534412191117547,-0.11887564533569815,-0.17699458713779304,-0.4462507398480879,3,right
5.396,-0.41242801699079146,0.6420895334675039,-0.05803784239331011,-2.587850616360747,2.693773328929774,-0.45262890374059583,-0.1191593403850617,-0.17790434667608787,-0.44574932989199056,3,right
5.397,-0.511838965298421,0.6699009595612626,-0.05969959360880941,-2.5805250492498226,2.6913327140664567,-0.452549807316579,-0.11880509026053825,-0.17594675960182632,-0.4468488241458366,3,right
5.402,-0.5969643680967702,0.7130422855628012,-0.06199361514206141,-2.583952807779135,2.6930883074929497,-0.4530786109071435,-0.11916991713991792,-0.1781454231937657,-0.44561136098458787,3,right
5.403,-0.6669298663442423,0.7681742870756069,-0.06254775988634684,-2.5839427503043453,2.6931006345617874,-0.4530912875336582,-0.11897935032554728,-0.1766984431468973,-0.4464295315233071,3,right
5.406000000000001,-0.7178842826064763,0.8259629862188471,-0.06420965074966772,-2.581447838676647,2.6901478221153816,-0.4513632304592182,-0.1187147483060676,-0.17632577582195377,-0.4466234736985806,3,right
5.407,-0.7444575895759333,0.8798290208832616,-0.05733872764805782,-2.5855194137041986,2.69676766843617,-0.45562693593014525,-0.11970864399528948,-0.1793884840679623,-0.4449380064401357,3,right
5.412000000000001,-0.7501761060680221,0.9272570111691247,-0.04157449458878539,-2.5807879289322235,2.686997608088236,-0.44900711272824567,-0.11789497642203374,-0.17345021683316658,-0.4482143880058558,3,right
5.412000000000001,-0.7295874103349176,0.964886599342875,-0.023973613828714983,-2.585047319443638,2.6973511145323075,-0.45621527413886465,-0.12021732852506424,-0.18113327600822743,-0.443974027963566,3,right
5.417000000000001,-0.6907218131813802,0.9901196848801426,-0.004226205964586913,-2.5828360740360754,2.6913882034423104,-0.45200254195063955,-0.11828094879265144,-0.17469551117779503,-0.44752691904007,3,right
5.417999999999999,-0.6258756305000736,1.0030555453707484,0.012905882712612927,-2.581037774716464,2.68625756105257,-0.44834898707843085,-0.11832361977026101,-0.1749600202388538,-0.44738016822276694,3,right
5.422000000000001,-0.5423699731419992,1.007145682193753,0.0200069861129997,-2.588613325117901,2.7086906578991297,-0.4643929516902594,-0.12204840081424176,-0.18693960093480444,-0.4407733632858013,3,right
5.422999999999999,-0.46074574203432306,1.0066251576128915,0.017493357747578236,-2.5748498900402907,2.6671098264858513,-0.4345852310728316,-0.11290430274506268,-0.15738874363415334,-0.4570698726035433,3,right
5.425,-0.3341428343589535,1.0055829621775523,0.00850832956323694,-2.592326149963509,2.720487118456052,-0.47289666868470626,-0.12806343327480638,-0.20641305515499953,-0.4300368004275904,3,right
5.426,-0.2437294746271098,1.0045704327690133,0.0018620088743851494,-2.577818904744137,2.675930111078408,-0.4408980404575651,-0.10806791481270558,-0.14174778444286878,-0.4656912297649297,3,right
5.431,-0.22060107919173294,1.0051009138761962,0.0008052979604349308,-2.578234037372368,2.6771415266385885,-0.44175586713645687,-0.02413298834328522,0.12955109109108448,-0.6153125269333428,3,right
5.432,-0.1272832530416609,1.0112683888962952,-0.006374534374211486,-2.6056867588322525,2.7620773141411092,-0.5028208912336972,-0.004134568449529669,0.19420573977949243,-0.6509548883540017,3,right
5.432,-0.010262106294340306,1.0202131191263262,-0.015216812595784321,-2.5382396010201527,2.5533107521025857,-0.3527326826919849,-0.019296838563853967,0.14519291884475088,-0.6239348717199485,3,right
5.435,0.09483193333021955,1.0329216790197515,-0.012606021319149044,-2.6500304900340694,2.899456801357256,-0.6015882918347883,-0.01015393290841906,0.17474815323311532,-0.6402363509963003,3,right
5.436,0.17572640119407235,1.0432604820360702,-0.009310288169815543,-2.502609405257618,2.442890844494902,-0.27334703583004877,-0.013868304177875991,0.1627304386346472,-0.6335862273642401,3,right
5.436,0.19371616571059824,1.046270454586196,-0.008011575059590733,-1.884279520113811,0.5266079907490211,1.1046446124713603,-0.013933375163327379,0.1625479709073263,-0.6335326765096845,3,right
5.441,0.2586650202857642,1.0571409934352003,0.0038090501775504965,-1.73690865073791,0.07005015309136901,1.4328995954775818,-0.011964876712636907,0.16886811197552132,-0.6369519422976575,3,right
5.442,0.34918107734669,1.070545115477653,0.018340638096643252,-1.8485799196934725,0.4161678938940777,1.1840026323260207,-0.014319214419949917,0.16130217294666394,-0.632844639476247,3,right
5.445,0.40522764104240644,1.0752198958016854,0.02472132286626781,-1.781343358215265,0.20746714537247948,1.3341790640626712,-0.01249174181814966,0.1671899209296322,-0.636063619862935,3,right
5.446000000000001,0.46493677384579757,1.077453113997438,0.02532169254274575,-1.8084995333489684,0.29228950302993056,1.272969778916011,-0.01345817992532709,0.16402660354867238,-0.634263870502394,3,right
5.45,0.5105021757439776,1.0763256906387664,0.018441705366870346,-1.8092342134651878,0.29364973256919147,1.2722930608435101,-0.013282041500861161,0.16472329737399116,-0.6348259048594336,3,right
5.4510000000000005,0.5456325406148292,1.0742996730058223,0.004172882860428062,-1.7945238089605953,0.24895561039269395,1.3041355257698886,-0.012939039649833945,0.16561200225655803,-0.6350098611631829,3,right
5.455,0.5730529323169362,1.0754296359002629,-0.009268896528441282,-1.8118838357621128,0.3023741907556681,1.2658502991590916,-0.013490951613650898,0.16409844393878914,-0.6345507123433983,3,right
5.456,0.5866695046867685,1.0741409767943586,-0.01632807619678424,-1.798762084044626,0.2609524198689892,1.295886809734324,-0.012987534698975987,0.16550988933470254,-0.6350297350786938,3,right
5.461,0.5995994562482816,1.066318453131995,-0.015621900368761479,-1.805074380367674,0.2829424956208778,1.2792670842105442,-0.013269931548725678,0.16459513080847996,-0.6345227075929796,3,right
5.462000000000001,0.6002794801588538,1.0529708228622345,-0.01443820465634538,-1.8050004863329008,0.27853778551429187,1.2838235380536702,-0.013296475527917895,0.1649101538179868,-0.6352515651201659,3,right
5.465,0.5873424619652894,1.0331978751804107,-0.01710732228558666,-1.8011491151325205,0.2717221162689391,1.2870208595894728,-0.012953263172358651,0.16510340989523217,-0.6340893607477518,3,right
5.465,0.5694299368546942,1.0026957197472124,-0.015285599144868506,-1.8060079270559792,0.2826994335833289,1.2804850589841137,-0.01353296686041584,0.16459643327985773,-0.6357026823579847,3,right
5.47,0.5394019160985153,0.9645032067423771,-0.016992218499173546,-1.8029098358447766,0.2730636246281406,1.2874260745528563,-0.012902357998065887,0.1651776245875206,-0.6340051680093446,3,right
5.471,0.4907814632638485,0.9231538949459918,-0.03453533397534934,-1.802136060150533,0.2782305934555059,1.281191754168923,-0.013286674663460625,0.16477737390080047,-0.6349507275458373,3,right
5.474,0.42485948528033224,0.8802042355901789,-0.057313976886161716,-1.8077585042242938,0.27836473854731936,1.2868513367273005,-0.013519233191654583,0.164751414827221,-0.6359409068758859,3,right
5.475,0.344884315627065,0.8392192856995766,-0.07163095014147444,-1.7980131941770017,0.2739589980158831,1.281432676747237,-0.012339764217554552,0.16538744100376596,-0.6318936922223476,3,right
5.48,0.2526245297055569,0.8005104997656517,-0.07478704268674452,-1.8088993163256744,0.2801944073416367,1.286102327651358,-0.014556358780879306,0.16411345422378917,-0.6393479396299819,3,right
5.481,0.1445345319422674,0.765350771352997,-0.0763499430633774,-1.8022746830285779,0.275559910801374,1.284146353713908,-0.011703475590753801,0.16577076991040338,-0.6297874188278836,3,right
5.485,0.02878012073289799,0.7350560107200684,-0.07763618668425297,-1.7976047476200612,0.2747724621220019,1.2801529260218334,-0.014088043583483327,0.16437811100404287,-0.6377650946430986,3,right
5.486000000000001,-0.09824006714799216,0.7085219584069035,-0.07083254201556413,-1.8199637327886937,0.2841360924027987,1.2933732086842609,-0.014012910101695709,0.1644497651691184,-0.6375654496719438,3,right
5.4910000000000005,-0.22933119524119397,0.6873441383097926,-0.06278679618493861,-1.7780429554979187,0.26537343027449134,1.269861901424814,-0.009500362487832467,0.16699491275476558,-0.6222985473106943,3,right
5.4910000000000005,-0.3487929541495141,0.6723315983397704,-0.05581442846348197,-1.8320384135095522,0.28996885590913235,1.2996889617728304,-0.020604530641199933,0.16069820749764852,-0.6598051799764232,3,right
5.496,-0.485966848149384,0.6661611038040562,-0.05085744601560481,-1.786885052486765,0.26922350947757834,1.2749411858973945,-0.0021894845782094293,0.17115032746571687,-0.5976199002634545,3,right
5.497999999999999,-0.5799727744688146,0.6718555105263285,-0.05244990573391655,-1.7882281090054344,0.2701107256802472,1.2753745973505877,-0.026479928993850314,0.1573610554667063,-0.6796450075528405,3,right
5.499,-0.6032778984679044,0.6750495001847996,-0.05369340278463691,-1.8740092431015016,0.308800801896863,1.3231923587585577,-0.12841983783106817,0.09953927076070859,-1.023951766664001,3,right
5.499,-0.6761717779527785,0.682854099882104,-0.05661396327931521,-1.6629853132622427,0.21323585062953293,1.2060043530278097,-0.15271127893127845,0.08574831664217825,-1.1059882100592207,3,right
5.5,-0.7762772124949961,0.7246275782155787,-0.061145089879913406,-2.0129557752584537,0.3718618646015123,1.400177894773512,-0.1342940501013184,0.09620508483803991,-1.0437863236905263,3,right
5.506,-0.8141471903683852,0.7582910065644162,-0.06085219769222076,-1.5512967995825824,0.1625745844636325,1.1441115113617149,-0.14540172000104867,0.08989905392250466,-1.08130367011865,3,right
5.507000000000001,-0.8260890775997136,0.7680468389975974,-0.06059909651285912,0.38627564696719086,-0.715676897937352,0.06908740934627322,-0.14088468468305682,0.09245881726297142,-1.0660457474947287,3,right
5.507999999999999,-0.8521261035883361,0.8167849753003515,-0.05805834232355977,0.8480134437721414,-0.9249640618565012,-0.18696918032742926,-0.1408138192847086,0.09251282123818733,-1.0658056008981889,3,right
5.51,-0.8665585462063906,0.8885326091733228,-0.05359940530667223,0.4979092232443151,-0.7663055450295811,0.007165548150310376,-0.1431965813712777,0.0911344223603625,-1.0738583058053317,3,right
5.511,-0.8463949365889861,0.9515679173095315,-0.05627444326023495,0.7090724331603228,-0.8619861155050439,-0.10992654198882616,-0.1403401080291358,0.09279133722580832,-1.0642018884296585,3,right
5.513999999999999,-0.8069950158168773,1.017623048349968,-0.06291905573262452,0.623220173305751,-0.8230573604276689,-0.062279679697905654,-0.1425682584062635,0.09149189736257018,-1.0717368521693418,3,right
5.515,-0.7463542231916735,1.0725929009126076,-0.07149929563214058,0.621793653522482,-0.8225245191790019,-0.06161620946193764,-0.14136881335835805,0.09218731900022628,-1.0676813349222845,3,right
5.519,-0.6601100161461759,1.1157203361064623,-0.0840770791959804,0.6672560325861286,-0.842889198457156,-0.08658363702308405,-0.14162605319473826,0.09207161353482451,-1.068542318750291,3,right
5.52,-0.5585271378254968,1.1526698544352083,-0.09507825864477032,0.6127163333999264,-0.8185136618696299,-0.056675506938783184,-0.14199035855468328,0.09176833982447918,-1.0697990014253569,3,right
5.523,-0.4408989566179627,1.177418817152701,-0.1057873068691514,0.6553111746801199,-0.8374770264619822,-0.07996616943020946,-0.1413604039577229,0.09229173294826748,-1.0676256866546407,3,right
5.524,-0.3102679330979097,1.1944802945128026,-0.11895908734299776,0.6324074005712033,-0.8272434932223154,-0.06740452305942421,-0.14197528619434957,0.09173941199806701,-1.0697586844428248,3,right
5.528,-0.17247626019272236,1.2074137232408373,-0.12859399140332645,0.6370910953921026,-0.8296614043640813,-0.07028963906113946,-0.14155022374961418,0.09214267508251683,-1.0682781083005986,3,right
5.529,-0.0361239903811668,1.219888936959497,-0.13730041488294129,0.6446803726292186,-0.8321517878946123,-0.07357998889565132,-0.1416999398827173,0.09205923649171424,-1.0687834387467001,3,right
5.5329999999999995,0.09100785907376892,1.2331286579951204,-0.14882043386781899,0.6315609722784158,-0.8278411689321263,-0.06788371620666102,-0.14184994066421475,0.0916732851872287,-1.0693733630191344,3,right
5.534,0.2121856056676485,1.2405290372585993,-0.15729910378337764,0.6446541893382192,-0.8317681748967125,-0.07320795480513276,-0.14142444649001473,0.09260209369992273,-1.067745774944116,3,right
5.539,0.32506711179276604,1.234224789386663,-0.16066724336212918,0.6354537926261593,-0.8291987214069855,-0.06964935657501811,-0.14203994268614994,0.09122747984469301,-1.0701088433313308,3,right
5.54,0.4132510674222211,1.201333712546552,-0.16165749510861738,0.6382904398532334,-0.8304983146487016,-0.07123646656396013,-0.14140935241892028,0.09267830135719493,-1.0676759968515261,3,right
5.542999999999999,0.4746204163148078,1.1323822569498887,-0.1570474616344611,0.6432194405522179,-0.8297628824988966,-0.07110504114703317,-0.14177393678655933,0.09183994986756094,-1.0690824854471026,3,right
5.544,0.5043086117005109,1.026404624389703,-0.1444189722594435,0.6303818615081689,-0.8307313008332056,-0.07053269004826801,-0.1420317742411351,0.09114911470688711,-1.070104252140862,3,right
5.5489999999999995,0.4940118004916239,0.881572400286667,-0.12659790352167888,0.6491681458648844,-0.8291203485222267,-0.07118382808357432,-0.14083039571899178,0.0942135454439177,-1.0653860369435644,3,right
5.551,0.4438521761251887,0.7099960740972361,-0.1060018965862936,0.6296257867370847,-0.8310579993031489,-0.07075877068739227,-0.14306189104728503,0.08852868682702014,-1.0741479476800273,3,right
5.553,0.34081861316582307,0.5255524046158319,-0.084723232349532,0.6409238616862791,-0.8299399906436538,-0.07100692900937007,-0.14020134623293196,0.095825447049815,-1.0629134385494057,3,right
5.553999999999999,0.20744958075330755,0.33640535782743175,-0.04892878417765882,0.6495834932103172,-0.8284911652959037,-0.07062545489005387,-0.14258717444421753,0.08973526093568923,-1.0722848204510707,3,right
5.559,0.027385817421727653,0.15338295150148562,-0.000867047968529211,0.6102839162641727,-0.834205923061062,-0.07152504787572798,-0.14251701333862343,0.08990279371698327,-1.072012282991344,3,right
5.56,-0.19123073553848755,-0.015822988118846578,0.05198397089856498,0.6832382641029748,-0.8236371325948306,-0.06989420306434663,-0.13799222803153882,0.10150278392978818,-1.0542257753866462,3,right
5.563,-0.40706288772040866,-0.14962154449212395,0.10383071204255834,0.5896468136155529,-0.8372504815838704,-0.07203873075157777,-0.14911736462020214,0.07299025453344883,-1.0979556087028803,3,right
5.565,-0.691367331825153,-0.24233093003715067,0.09759971974045409,0.6677465242529279,-0.8258639343543903,-0.0702243806013552,-0.1306723690968397,0.12026403802476952,-1.0254528527634537,3,right
5.568,-0.9019861894370387,-0.27098618303174415,0.06599153614083864,0.6655065730162477,-0.8261278635560241,-0.0702141451411124,-0.15499923452127184,0.057912017767728634,-1.1210769344291296,3,right
5.568,-0.9572244540571038,-0.2606622269487574,0.05535670709038183,0.5170997313099068,-0.8480416398153203,-0.07393321685950796,-0.25710162378987134,-0.2038128667769986,-1.5224259409637808,3,right
5.569,-1.1387059842957499,-0.23129771252310788,0.003941170104036339,0.8819774886766805,-0.7942049196925611,-0.06483285790451436,-0.2814254846542227,-0.2661620194374337,-1.6180399509688383,3,right
5.5729999999999995,-1.4148029894873648,-0.06554753084088459,-0.03608787142871698,0.2769817424017816,-0.883483107224778,-0.079931390996197,-0.262984842780876,-0.21889196381723963,-1.545551814414421,3,right
5.574,-1.536852816149826,0.08966729412108726,-0.029141344784791204,1.0749610219973456,-0.7657024922976795,-0.05999620103973078,-0.2741073091884071,-0.2474034583180277,-1.5892726069598972,3,right
5.575,-1.575184808739103,0.13658617516479743,-0.023882880532997437,4.423939126326741,-0.2713081495695179,0.02378739865196214,-0.26957979456413117,-0.23579774285492794,-1.5714771358658501,3,right
5.577999999999999,-1.6714943332793424,0.34475493978943217,0.01650490551109166,5.221913230780039,-0.1534912146963367,0.04375347174049257,-0.2695208863485838,-0.23564557920861515,-1.5712420442657047,3,right
5.577999999999999,-1.7551579145374323,0.6513957252119253,0.07669335084097523,4.616944040078196,-0.24281821390606156,0.028609902274174842,-0.27188627243136765,-0.24171128672700937,-1.580545196995292,3,right
5.585,-1.752405107139179,0.9054619442191978,0.11692470923556875,4.98174969897199,-0.1889627337991339,0.03773872137137869,-0.2690514648085309,-0.23444195299780407,-1.5693967919504055,3,right
5.586,-1.693101477679648,1.1592007001494031,0.13777611212976154,4.833477312014384,-0.21081564896673655,0.034045613161066,-0.2712618619536252,-0.24010931182459153,-1.5780878221795402,3,right
5.587000000000001,-1.5648822823929436,1.362941481385429,0.10971161681499289,4.831050297798072,-0.21125695042839548,0.033943284267263424,-0.2700614100868359,-0.23703438552817802,-1.5733733898508864,3,right
5.587000000000001,-1.365495699256359,1.5072764671486147,0.03099866038854744,4.909336366871182,-0.19957892020945533,0.035964425497748205,-0.27035587545386286,-0.23778148910236035,-1.5745166708693228,3,right
5.5920000000000005,-1.1173991715932732,1.6006528525592598,-0.06778695413809266,4.81566158854845,-0.21352895321151355,0.03355726931559132,-0.27063486357207023,-0.2385101395679359,-1.5756378953038022,3,right
5.5920000000000005,-0.8327547469463081,1.640821127397726,-0.1470064586646782,4.888462012567963,-0.20272867029761837,0.035406743551462255,-0.2701331932797557,-0.2372074833391622,-1.5736357110283885,3,right
5.596,-0.5412957292369434,1.656645531713586,-0.1778818694490415,4.849671535596761,-0.2083529932807543,0.03449000171925252,-0.27061025695351154,-0.238443759534855,-1.5755351058574107,3,right
5.597,-0.26612906495704325,1.6517407333243557,-0.17040793893330175,4.85744390192025,-0.2075372610779374,0.03450926327014361,-0.27026558022744285,-0.23756023853991748,-1.574180321397411,3,right
5.602,-0.030787451689270696,1.6416670917043699,-0.14282565542694664,4.86984353651745,-0.20513440894854185,0.035122164667477265,-0.2704842789555665,-0.23809620682121896,-1.574995508656945,3,right
5.603,0.15311001967886395,1.628391504195912,-0.11059259148663081,4.849402879392956,-0.20885485001625664,0.034238915964419386,-0.27032810825647,-0.23775239131961406,-1.5744835133333193,3,right
5.608,0.2894862983119747,1.605603646869287,-0.08736122261707127,4.868227917197455,-0.20551497438877286,0.035006527539830565,-0.27047880629690113,-0.23805423334140435,-1.5749237073461924,3,right
5.609,0.3776180208566873,1.5707663280702877,-0.07480079659457498,4.85694974343015,-0.2071759163767986,0.03472684099951284,-0.2703334630121642,-0.23777186201337808,-1.5745148224175618,3,right
5.611000000000001,0.426119110174712,1.5188994437960024,-0.06792896693012987,4.858230895306514,-0.20802516501249407,0.03420871460724441,-0.2703932682754612,-0.2378727785570226,-1.5746556902718765,3,right
5.612,0.4419631685650979,1.4488343058606103,-0.05903739892855638,4.8665750346584815,-0.20441863076384847,0.035675088648428985,-0.2705646316119106,-0.2382677256202556,-1.5752492090819215,3,right
5.617000000000001,0.43532539221394173,1.3661011649386843,-0.04112504767267021,4.851427596764559,-0.21019872922690727,0.033419824304595,-0.27001072735104326,-0.23704359923449042,-1.573424766639183,3,right
5.617000000000001,0.42061531018613274,1.280675190151216,-0.018746240134069045,4.8680777729394435,-0.20396134693535978,0.035836650855490516,-0.2710026111779946,-0.23922243666779858,-1.5766683179398964,3,right
5.621,0.39826015806776105,1.1909357731438157,-0.0014779078007693554,4.857663085390664,-0.2076849873586128,0.03442026818722868,-0.26973684575384893,-0.23644558370247973,-1.5725353273816798,3,right
5.622000000000001,0.37746956579627966,1.112309209116574,0.008003927525471525,4.852619400313564,-0.2103064719819854,0.033297908212291366,-0.27079047740369677,-0.23875484659677998,-1.575972153402129,3,right
5.627999999999999,0.3458324645527085,1.0308933202661543,0.009179316913007496,4.8811326267933755,-0.19786692953108556,0.03837137443293617,-0.2707740135798118,-0.2387257111528994,-1.575929865716625,3,right
5.629,0.3027885492852632,0.9391138556921665,0.005312127080883397,4.827091957197466,-0.2211144600587008,0.028933347085549607,-0.2687251441439566,-0.23421445849717487,-1.5692120249722339,3,right
5.632000000000001,0.25232281456747163,0.8491177800914089,0.005430453777175026,4.896744222931881,-0.19121831165508563,0.041058907517570256,-0.273747060427695,-0.24526179913519797,-1.5856620208527596,3,right
5.632000000000001,0.15531836766074822,0.7205904177416009,0.013088252719907514,4.838488330693631,-0.21620253841364895,0.030933033123516585,-0.26542379085543155,-0.2269570462895846,-1.5584052827716417,3,right
5.636,0.06843154466393132,0.6182931527522018,0.022644570123570087,4.840472866438665,-0.215443647823074,0.031217725004832622,-0.2764023021808805,-0.2510975191265551,-1.5943522340805552,3,right
5.636,0.03589561080359912,0.5863189185698097,0.026951401938766596,4.950219769498133,-0.16805473157706813,0.05049132134328274,-0.3224969780026451,-0.3525026250337846,-1.745347638093885,3,right
5.6370000000000005,-0.06737747308090487,0.4853942044657356,0.03686300605848169,4.6799926194959784,-0.2846476010838817,0.003106257288922675,-0.33347780180078496,-0.37664263490870376,-1.781295000451946,3,right
5.641,-0.28261864184345864,0.3021665103497482,0.06660071460152092,5.128168673286197,-0.09127805113749518,0.08167667810547004,-0.32515202982061253,-0.3583383823124286,-1.7540378157829408,3,right
5.642,-0.4232730105840247,0.19754487217575745,0.08855810204330045,4.537012857727023,-0.3463682770188881,-0.02195830516596231,-0.3301729961794063,-0.3693859157420507,-1.7704876491061503,3,right
5.642,-0.4655034976686889,0.1639557303565427,0.09548018926276955,2.0562738717962192,-1.4166155306029564,-0.4569416558749353,-0.3281324225365895,-0.3648729968603979,-1.7637712699873083,3,right
5.646,-0.614973217210205,0.057083243257270815,0.11928395004930803,1.4651606890171078,-1.671757773347056,-0.5605767647326414,-0.3280981070133143,-0.36484744336207575,-1.7637258283596422,3,right
5.646,-0.8238522579137035,-0.07316256534511484,0.14476758090373407,1.913290607372987,-1.4783319455120731,-0.48200620611135886,-0.3291773361818383,-0.3671515729951859,-1.7671671837551934,3,right
5.652,-0.9804251900127599,-0.14143049264392865,0.15975319195215562,1.6430459481035347,-1.594903407038358,-0.5293912253189177,-0.327886078717621,-0.36437982853643724,-1.7630296738131639,3,right
5.654,-1.1391390619167439,-0.1738011116303544,0.1742995734980137,1.752945785178642,-1.5477011798645446,-0.5101180656111721,-0.32888896607264395,-0.3665564675940778,-1.7662751919907023,3,right
5.656000000000001,-1.2828999742537028,-0.1507549399096699,0.17397698577924786,1.7546012176322452,-1.5465406090208222,-0.5098324248556825,-0.32835694248235786,-0.36532794099263743,-1.764454591575735,3,right
5.656000000000001,-1.3950481465286213,-0.07152103556850348,0.15928440229923796,1.6968172299223894,-1.5721007598695196,-0.5199596672755045,-0.3284578055888941,-0.3657370391664493,-1.7650356673809338,3,right
5.662000000000001,-1.4774021948360823,0.04800024470501694,0.1413085256241423,1.7659995307798164,-1.5416311161198855,-0.5078327351651544,-0.328639095064373,-0.365813585928048,-1.7651980129488163,3,right
5.662999999999999,-1.5081049873083368,0.20921259283243393,0.12374671586260597,1.71216172858199,-1.5651260902518824,-0.5172713718427084,-0.3283446502593287,-0.3655611084440433,-1.7647627292505814,3,right
5.665,-1.490922658289971,0.390515337088047,0.10872635550123413,1.7410783206571379,-1.5531790357583257,-0.5121990432246714,-0.32861423404450596,-0.3658391385456502,-1.7652240297121733,3,right
5.666,-1.421486507380675,0.5781441948876802,0.08502238228705192,1.7347349424381207,-1.5542141173495796,-0.5133176693946441,-0.3284590887294265,-0.36549506274697413,-1.7647120842266886,3,right
5.67,-1.3056809181089424,0.7620893077889457,0.040553340476430624,1.7265598737429029,-1.5606711751426339,-0.5147405248759908,-0.3284572450851722,-0.3660753299751584,-1.7654884205890464,3,right
5.671,-1.1563020214126665,0.9344280043900959,-0.017410106117407394,1.7404612711083467,-1.551079227442103,-0.5123157128406748,-0.32861664287407844,-0.3650906584221172,-1.7642226742461777,3,right
5.675,-0.9763562387317339,1.087202065078389,-0.07380865478663468,1.7275055981938046,-1.5595337124828514,-0.5145774058728327,-0.3283416596277033,-0.3664777648276588,-1.7659890373768072,3,right
5.676,-0.7808205934529926,1.2154198795525017,-0.12210946333066386,1.735868566001241,-1.5559510921769002,-0.5131109458578089,-0.32864175018528763,-0.36501440581084904,-1.7641289149880566,3,right
5.681,-0.5879010649782548,1.3210707263968307,-0.1621502979462548,1.7330839954249642,-1.551837200063082,-0.5136174707820469,-0.3284573822665273,-0.3658357624678277,-1.7651676345304,3,right
5.681,-0.40975696816241375,1.3990147128478698,-0.19336856953161036,1.73109862597935,-1.5648404232314943,-0.5139239307314782,-0.3283527269863028,-0.36666324721670684,-1.7662411187058997,3,right
5.685,-0.25250463845050897,1.4474938967147555,-0.2081078201092626,1.7360592865167792,-1.5445798223074858,-0.5131161684187822,-0.32889965703201973,-0.3632375143304398,-1.7618349344460464,3,right
5.686,-0.12666027518578027,1.4679502285200912,-0.20133390150951924,1.7303996384937141,-1.5663380209918283,-0.5140424761400425,-0.3278692510865467,-0.3695550408387276,-1.7699531613666604,3,right
5.69,-0.0452190867112008,1.4578054013132151,-0.17818544637494865,1.7342567715138193,-1.5535133114435191,-0.5134042535598488,-0.3291960562376187,-0.3614512628361159,-1.759541404028836,3,right
5.691,-0.0012830125154351312,1.421492776119217,-0.15046959510779778,1.734671559496798,-1.5437124172199295,-0.513364556189184,-0.32808673677162603,-0.3682130171897341,-1.7682279060475021,3,right
5.695,0.0017404711489941056,1.371078048319346,-0.11782564590440353,1.7280945751120718,-1.5886574497357242,-0.5143736537537986,-0.3281227609694727,-0.36804337499055095,-1.7680133301908683,3,right
5.696000000000001,-0.026864383842523386,1.3175895894083194,-0.07309774377925979,1.741149219940195,-1.5049376353522566,-0.5123517070065261,-0.3302187056112538,-0.35510718430200994,-1.7513845689532515,3,right
5.7010000000000005,-0.07184289270081375,1.2772774950656043,-0.027867743768657145,1.7241965025362147,-1.612518746547329,-0.5149814855055884,-0.3250597030595992,-0.3868860542580986,-1.7922298987800755,3,right
5.702000000000001,-0.15190540821577247,1.2597346013528892,0.013937142828233414,1.738422904454566,-1.5226746530987187,-0.5127728475551212,-0.3336159089873174,-0.3342006707289511,-1.724515522638506,3,right
5.705,-0.2157570586109181,1.2630136270746752,0.03558074653927357,1.7377491174223827,-1.5252271543466884,-0.5128839391651586,-0.3223295269786506,-0.40369041546167983,-1.813826488121037,3,right
5.706,-0.23574525955868814,1.2704464115982623,0.038463372622043586,1.711578959980392,-1.6961382981596698,-0.5169259446510124,-0.27497060346913893,-0.6954099765278381,-2.1887746020930625,3,right
5.707000000000001,-0.30948456347726483,1.290798077567286,0.06007869144089639,1.7762335761894417,-1.275924042294577,-0.5069317213691741,-0.2636838022746331,-0.764898462334218,-2.2780820657181753,3,right
5.71,-0.4409925791987528,1.3689345428523576,0.06846406822274459,1.6689570138896381,-1.9726862729537267,-0.5235168658051544,-0.27224046231325316,-0.7122144394659997,-2.2103714766079747,3,right
5.711,-0.5144663353555904,1.4361151290970384,0.05363323936447379,1.8104500303109634,-1.0536662008834594,-0.5016412079753438,-0.26708163020214953,-0.7439938324741431,-2.2512182536223433,3,right
5.711,-0.5364111405378085,1.4564655012659444,0.04640807263463098,2.4042610978219425,2.8039707385454506,-0.40985679009205456,-0.26917607466741045,-0.7310531133214608,-2.234576911876845,3,right
5.715,-0.596258227357142,1.5344800831178125,0.024397464332860556,2.5457273976892862,3.7229829640389056,-0.38798654955584877,-0.26921532950860405,-0.7308932077766226,-2.234389396023923,3,right
5.7170000000000005,-0.6588176171173319,1.6366273053350555,0.003751389414860263,2.4384394577529447,3.026199204684711,-0.40457035446739636,-0.26810137569444803,-0.7376410072745653,-2.243037106331629,3,right
5.72,-0.6830469747860153,1.6980457512906084,0.0021550461220077293,2.503247751810229,3.4465230145443613,-0.39455788626133426,-0.2694327985136682,-0.7295511184864465,-2.2326639688930046,3,right
5.72,-0.6926749964521843,1.745825929329326,-0.0019394256911737082,2.476687554708664,3.2753645106601392,-0.39865235175441927,-0.26840039488451917,-0.7358626648879569,-2.2407655479200512,3,right
5.724,-0.6799901581955112,1.7720081619158776,-0.008340850870631149,2.4766564724219275,3.2731977972428785,-0.39867262707155937,-0.26894337177167027,-0.7324249755993746,-2.2363261637098675,3,right
5.725,-0.6502352941348333,1.7822982453211609,-0.01892789127883353,2.490118697941525,3.3626059894708993,-0.39657654136639514,-0.26885147149222705,-0.7332909243337751,-2.237506531092661,3,right
5.731,-0.6122040785317591,1.790976014841232,-0.029725529413100398,2.4737304189944385,3.2553125011571735,-0.39911630013293176,-0.26864511438044625,-0.7340460348284726,-2.238361122189813,3,right
5.732,-0.5700199315879899,1.7976949314311572,-0.028107749569970888,2.486906451981576,3.3391801517088178,-0.3970922329112817,-0.26897220370901054,-0.7326639457895354,-2.2367269335648006,3,right
5.734,-0.538291530014949,1.8020459626374308,-0.013946641860454955,2.479003886382217,3.293361520008358,-0.3982730183084703,-0.2686756770488937,-0.733986305644434,-2.2383132281504885,3,right
5.734,-0.5138738566649044,1.7958051161712367,0.011948071588080842,2.482242083231138,3.3048985031560187,-0.3978426484677167,-0.26883492586123237,-0.7330009517183638,-2.2370457465063236,3,right
5.74,-0.49848201418108085,1.7742658349908125,0.050847278093491745,2.4820556639826377,3.3153438730459497,-0.39778538314689643,-0.2688729624568914,-0.7337016130643772,-2.238156541968515,3,right
5.7410000000000005,-0.495280102624951,1.7358168576442887,0.09811245299500762,2.4804861920102397,3.295855719682228,-0.39809662038318516,-0.2686265994752166,-0.7330825880262328,-2.236880483391844,3,right
5.742999999999999,-0.5003093474310683,1.6899839220439183,0.14403672491757824,2.4834892701921456,3.31527772332727,-0.3976329310709227,-0.26903232783086906,-0.7337706439579561,-2.2384815258304482,3,right
5.744,-0.5197555352133645,1.6373463593404278,0.1812215108474509,2.4784857207621274,3.3000309473523153,-0.3982792783566976,-0.26859267282536947,-0.733081258270317,-2.2368314845067263,3,right
5.749,-0.5583256469721387,1.572088309461202,0.20881635118940955,2.4862188709092,3.3108315734512326,-0.3973744835957189,-0.26885799525228515,-0.7334099229826189,-2.2376953059316786,3,right
5.751,-0.6102617634297556,1.4991605133562347,0.23252121052879127,2.475985847711097,3.3031869210226823,-0.39852268288065373,-0.26903088759581634,-0.7340373886542797,-2.2388823763840113,3,right
5.752999999999999,-0.6654489298479891,1.4250281990587577,0.25511323257958785,2.4864174296099972,3.308236493148784,-0.3973725553593854,-0.2681827694406284,-0.7318553537956392,-2.2344123901228095,3,right
5.754,-0.7176002588434917,1.3576520003369295,0.27432861216662785,2.4807102007703756,3.307399196436333,-0.3979873659824277,-0.2697722139198372,-0.7357993908825412,-2.2425700983236085,3,right
5.757999999999999,-0.7719013311005559,1.2933525913749073,0.28519981237687814,2.4747948955761983,3.300209314709405,-0.39867202181054473,-0.26772743641321883,-0.7307590875079593,-2.2321261833970274,3,right
5.7589999999999995,-0.827043529410586,1.234793164633547,0.2843718444438389,2.4988462581639133,3.319740426909128,-0.39596121875835966,-0.2694362537025212,-0.7349558908561858,-2.240830898853204,3,right
5.763,-0.8810114557044184,1.1788022712893065,0.2743573292611854,2.454677090250798,3.2863430402786644,-0.40092061779679034,-0.2693837191468844,-0.7348818918664134,-2.240646467406195,3,right
5.763999999999999,-0.9353907364126373,1.120546601051944,0.26424815229687837,2.5112354096332554,3.3282045318089,-0.39457744602427525,-0.2661454538082152,-0.7267534944505107,-2.2238857876031597,3,right
5.768,-0.9819218176431692,1.0718105590780587,0.2623226308501115,2.464084903156496,3.293696271204362,-0.3998616983409744,-0.2741126175958164,-0.7466815494218813,-2.265015920578781,3,right
5.769,-1.0270624711267906,1.0019361822935058,0.2557750393479131,2.465256665396706,3.2939443392626515,-0.39973700077625535,-0.2609000196945621,-0.7136579165299288,-2.196843886464772,3,right
5.773,-1.0546760313528551,0.9501485153620941,0.246822775380924,2.5554402128102547,3.3615617899277233,-0.3896130040419882,-0.278328569832173,-0.7572068524372095,-2.2867502633055814,3,right
5.775,-1.0599809336252464,0.9441211915631872,0.24739830380625646,2.333932831567539,3.196374464760771,-0.41446839075509,-0.35147087711278047,-0.940097674388193,-2.6642559201957905,3,right
