time,gFx,gFy,gFz,ax,ay,az,wx,wy,wz,subject_number,foot
12.908,1.0086531683988733,0.6476629571021106,0.22328010613821772,-5.739068755303111,3.572408913720044,-2.6130186140215796,-0.519922142881583,-0.6128052660972716,1.9327450165067768,3,left
12.91,1.2500254227567256,0.5488904194765802,0.15114061645712862,-5.699405792711286,3.551615419404957,-2.585693214409724,-0.5183284104682493,-0.6092810177708319,1.9334886608904205,3,left
12.91,1.4790957808938208,0.4583012723180508,0.11194561871577396,-5.708934746481273,3.555667505528633,-2.591993155526423,-0.519362531724519,-0.6116224491670708,1.9330458904239711,3,left
12.919,1.702027991674935,0.3765018165418924,0.08186300215550377,-5.718158940717575,3.5631074865135455,-2.599082696693255,-0.5188139172074238,-0.6105388712065452,1.9333969715172106,3,left
12.92,1.9060900732199826,0.3049276310913387,0.04121242657163416,-5.7021824529112966,3.550252498787584,-2.586809871322309,-0.5192158088818519,-0.6107891220988513,1.9327421167421839,3,left
12.921,2.0842123796711722,0.2508613693274243,-0.007974014662654797,-5.716501433507594,3.563308575553916,-2.598244383557826,-0.518598066783357,-0.610812551670809,1.9340470075437433,3,left
12.921,2.247958737786192,0.21243287380566583,-0.052143094344860516,-5.7072621694959285,3.554019078491113,-2.5906216045839967,-0.5195894851310379,-0.6109159251468359,1.9320560986459616,3,left
12.925999999999998,2.3822719179334335,0.18953478801125467,-0.0900551603555947,-5.712317882610558,3.5565757246042438,-2.594076763496437,-0.5184399230635943,-0.610622198262007,1.9342373101204486,3,left
12.925999999999998,2.4821213752281293,0.1774237669503927,-0.131122358606504,-5.708089534002213,3.5628330589543307,-2.5935645530036973,-0.5191031691077141,-0.6107900054951731,1.932977676311677,3,left
12.93,2.5470145169419482,0.1794124225893781,-0.172779225705737,-5.71498023947345,3.5471091090410187,-2.5928356815687192,-0.5198803772627069,-0.6113414436948417,1.9317610515710508,3,left
12.931,2.575508493834308,0.19655717752058427,-0.21084680560737143,-5.7040604649734306,3.570238093724205,-2.5934821677544546,-0.5167448805350741,-0.6094545276044022,1.9369161893421045,3,left
12.934000000000001,2.575979332506282,0.21671408099535378,-0.2371085750392189,-5.716550641605311,3.5460174554990593,-2.5933780684668823,-0.5225465372076562,-0.6129278453017699,1.927364425623909,3,left
12.935,2.534645086706937,0.24596114489343512,-0.24676413888044338,-5.709349556237294,3.560022326398932,-2.5934447561714657,-0.5150797590753664,-0.6084338617160895,1.9396401091271944,3,left
12.94,2.466449191509522,0.2777413542676761,-0.24316953862858168,-5.7012288463501335,3.5711052423493124,-2.5922034053537137,-0.5213214076515015,-0.6122017040779357,1.92938701753955,3,left
12.940999999999999,2.3559766202548977,0.3222680249389418,-0.22542920926307516,-5.7342754077748275,3.521305986537426,-2.595954084659038,-0.5211733989446051,-0.6121406230692811,1.9296501509701691,3,left
12.944,2.208474761530444,0.38632356503757365,-0.21745900037709193,-5.673130219187841,3.6137370662792203,-2.5890826566320015,-0.5091814779476938,-0.6047787439511987,1.9492612515526162,3,left
12.945,2.0522002338140157,0.46066125972389416,-0.22717452744907138,-5.751782612289398,3.4951163611607177,-2.598012952099102,-0.5386407801899773,-0.622843571932169,1.901070614708679,3,left
12.949000000000002,1.829926622187177,0.583406629680781,-0.2169604305898678,-5.686074516599723,3.594132772038871,-2.5905093199779285,-0.4897943115755156,-0.5928883903729041,1.9809746152622705,3,left
12.95,1.659185868847516,0.6844827172269548,-0.19596333439089553,-5.68759289577312,3.591297739644941,-2.5905738925660167,-0.5542264077447252,-0.6324048996539304,1.8755752593525268,3,left
12.95,1.6091817223125533,0.7171138753515971,-0.18524358216179695,-5.813880438373239,3.4030560666260516,-2.605468972642955,-0.8246746745715017,-0.7982010239581422,1.4330319246254584,3,left
12.953,1.4555344075902759,0.8191501739986372,-0.14223087005567545,-5.503755507215242,3.865915282727803,-2.5689661637459595,-0.8891006465328224,-0.8376893130471359,1.3276029508076372,3,left
12.954,1.1912646929848256,0.9876732033795408,-0.05327953402611498,-6.017877350873059,3.0983999055824203,-2.6294962434700664,-0.840272611261935,-0.807805656332561,1.4075681640958764,3,left
12.958,1.0486377236432145,1.075968186617597,0.0055363965266046365,-5.339799821926549,4.110805901304837,-2.549627693031474,-0.8696926115090972,-0.8257369000915841,1.3592864005285774,3,left
12.959000000000001,1.002237018519631,1.1045478228809302,0.02113743257789373,-2.491970517578856,8.359161054307718,-2.213983921036757,-0.8577649321960313,-0.8185730804738895,1.3790041990797817,3,left
12.96,0.8486042880865705,1.1894572811475284,0.059246921667992516,-1.8139799945626005,9.371668952214275,-2.134072390609279,-0.8575362985611606,-0.8182858212506705,1.3791800487166732,3,left
12.963,0.6349166615098919,1.2990604458265929,0.0831189642808082,-2.328044618211922,8.604062283362012,-2.1946742626203086,-0.863847434797214,-0.822217864486364,1.3689381879745453,3,left
12.964,0.45666443829875925,1.3743371907176518,0.06864460471981998,-2.017753132022982,9.066812411424802,-2.1580995593709416,-0.856369054883023,-0.8177603278896994,1.381344974305129,3,left
12.968,0.26714527728602666,1.4414157422754723,0.05883781006780803,-2.1446224864960315,8.879074900791705,-2.1730250674648746,-0.8620687781312517,-0.8208466340839097,1.3714724327811543,3,left
12.969000000000001,0.08837671413576954,1.497357620092053,0.030338771799291425,-2.1450691084730837,8.875247592908025,-2.1731475481639935,-0.8591896397029163,-0.8197838987589228,1.377123771046967,3,left
12.972999999999999,-0.06848269347086162,1.5375427510687119,-0.010324952884918442,-2.080753512665262,8.975612671669644,-2.165462106599415,-0.8595649904603733,-0.8191523105445926,1.3753561373646,3,left
12.974,-0.21354954662506798,1.5682691321663969,-0.019222263094970733,-2.158199373682154,8.855741479991865,-2.1746968397151125,-0.860679902552986,-0.8205227027525064,1.3744512087311027,3,left
12.979000000000001,-0.33311372482469326,1.5860326082163247,0.001771937619727393,-2.097240310145211,8.948540333136066,-2.1674649026287023,-0.8592318622787074,-0.8196411834170698,1.3768288827622404,3,left
12.98,-0.4314096176597024,1.59115682003976,0.04028779642461479,-2.132093672569863,8.9002107448951,-2.171482198579369,-0.8600787319296426,-0.8188855034013119,1.3737370785991305,3,left
12.985,-0.497021968700327,1.576355087384612,0.07890813193321936,-2.119478619297535,8.90724043505719,-2.1702903622215293,-0.860340914519008,-0.8219595885855463,1.3772068419395316,3,left
12.985999999999999,-0.5284563978939869,1.5410442033790517,0.11856151753454215,-2.119268896661218,8.927842648872394,-2.1697561367699563,-0.8589881547211564,-0.8167840563308085,1.3736041327692528,3,left
12.987,-0.5238116427641353,1.4830988558169744,0.1904189268992137,-2.1239779251704105,8.895935797674593,-2.170936913628452,-0.8608538182938918,-0.822560999094518,1.3767515324793482,3,left
12.988,-0.48598692030580476,1.4048417354250002,0.3072034368372928,-2.118068385987338,8.924579721366902,-2.1697415173453782,-0.8595596083243913,-0.8190904831162229,1.3752868417810455,3,left
12.993,-0.4296770211139893,1.317681252065443,0.4516881880951602,-2.127750046023844,8.910315459482305,-2.170877739522875,-0.8588992632721167,-0.8163780324435715,1.3732790568394,3,left
12.994000000000002,-0.3647860676252761,1.227936808744278,0.5875076853738957,-2.1079249678946397,8.903103240457778,-2.169468062648382,-0.86275035759283,-0.8288384377849551,1.3804930137729643,3,left
12.998,-0.30518469484752453,1.141644847323523,0.6854193688906042,-2.1436409794616056,8.93388274239027,-2.1715600634569117,-0.8553282574822196,-0.8055586071321819,1.3675733248406363,3,left
12.999,-0.24519235817978713,1.0609805082392543,0.7471753005390294,-2.092658819722194,8.884542395347154,-2.1687094688291144,-0.8649829391524859,-0.8355273904642317,1.3839592344876912,3,left
13.003,-0.1873259180994229,0.9915528110689028,0.7840882766791603,-2.146574941140366,8.937776003244847,-2.171698454574791,-0.8568695738495258,-0.8104751935196424,1.3703666142808077,3,left
13.004000000000001,-0.12126776167478827,0.930274327051334,0.7936032609223287,-2.11610403921011,8.9060131524351,-2.1700497626219226,-0.8571351871131438,-0.8111818811942042,1.3706588613938524,3,left
13.007,-0.041939659996211257,0.8748022750268144,0.7778748672361093,-2.086472882493061,8.883614142914539,-2.1682384098748333,-0.872520485772239,-0.8588981800537476,1.3967176094158686,3,left
13.008,0.03525568920654753,0.8287967845853887,0.7515702641932873,-2.210635650397589,8.989792248389406,-2.1755289665037862,-0.834622830038646,-0.7415659076798243,1.3328041245193192,3,left
13.013,0.15295393955585107,0.7737392153469738,0.7124510685368954,-1.9813808863243396,8.791417478920586,-2.162121461593923,-0.8974982557258898,-0.9361331231333248,1.438710518318829,3,left
13.013,0.24490971505128745,0.7356668438192786,0.6795679648586412,-2.2755150525314436,9.046463481910882,-2.1793148950620096,-0.8145467270049662,-0.6794871276216663,1.2990526078647777,3,left
13.017000000000001,0.26799795261819126,0.7271953707887877,0.672720936934772,-2.0300746146603537,8.833415674986533,-2.1649658921280865,-0.46635552093627247,0.3977846601771492,0.7128432417263997,3,left
13.019,0.37130178973914074,0.6913031380034496,0.644170923018019,-2.036308003625658,8.839669532055655,-2.165327213428836,-0.3833942445126115,0.6544407689355052,0.5732030746046505,3,left
13.019,0.5137732525266229,0.6438763980214579,0.5917520796642046,-2.505603237107679,9.244287548912668,-2.1927878782809183,-0.44629148421324616,0.4598528586221953,0.6790706005473748,3,left
13.022,0.6102712620367696,0.6155161883961581,0.5460606189074122,-1.3526654429014222,8.249231920021206,-2.125314593172736,-0.40835792924964165,0.5772155148257436,0.6152194887556565,3,left
13.023,0.7278154135652972,0.5903197391491095,0.4821749174165643,-3.264099199633435,9.899200770045606,-2.237193619225006,-0.4237905239719013,0.5294642924517494,0.6411982744639604,3,left
13.027999999999999,0.7985806221218334,0.5799838700241781,0.4365836498555611,-0.7430005151967571,7.722914813006984,-2.089613439161874,-0.4240093403367794,0.5287851690578387,0.64156661132281,3,left
13.029000000000002,0.8125167063927222,0.5797777542951313,0.4241990567995442,9.841681927855408,-1.4120334105754202,-1.4704871538040867,-0.415919067108492,0.5538359354634576,0.6279417174443551,3,left
13.03,0.8737115936939933,0.576837854960136,0.3793881396987079,12.362894088872183,-3.588280140481699,-1.3229163592652706,-0.42560571709133854,0.5238209983733058,0.6442638101695526,3,left
13.032,0.9415644953057941,0.5831886338727017,0.3258420263174754,10.451097757568316,-1.9382622263351654,-1.4347348746403648,-0.4180677651323795,0.5472090926846936,0.6315498317375321,3,left
13.033,0.9770085308814189,0.6008727277668877,0.2951840867537019,11.60483823602421,-2.933658111174366,-1.367436090277426,-0.4221265616930697,0.5345847462108946,0.6384080506647736,3,left
13.036,0.9992945287006861,0.6233304059788356,0.2648623134943743,11.134199178499255,-2.528231120022996,-1.394562726341078,-0.4212017377851106,0.5374750626745459,0.6368398641240571,3,left
13.037,0.9979898277987654,0.650752191833815,0.2360889952827297,11.129687372022996,-2.5232714800662848,-1.3953970988791629,-0.4201334957164737,0.5408379571837612,0.6350187974070753,3,left
13.040999999999999,0.9754723373275977,0.6829153176382623,0.20726832440768572,11.373595983562488,-2.7348210292726955,-1.3805665094821875,-0.42196593189028553,0.5349818764064606,0.638177458426032,3,left
13.042,0.9310327481083474,0.7178633979510238,0.1780432844336941,11.079817330833789,-2.4808205693259815,-1.3979938400187266,-0.42027477463944407,0.5405361385446158,0.6352026954696952,3,left
13.046,0.8650118591589369,0.7579736135803393,0.15095145885159256,11.311091090699467,-2.679573169609518,-1.384941598204846,-0.42137441560596456,0.5367386048903815,0.6372110689572177,3,left
13.047,0.7860714439575632,0.8014458016732475,0.12317093454066316,11.181617333808585,-2.5705871175634076,-1.3909801462514377,-0.42092016285000533,0.5384592980958357,0.6363208865303622,3,left
13.050999999999998,0.6938910155855962,0.8461942996797881,0.09203186770209323,11.219744931869474,-2.598745151470694,-1.3913934656105897,-0.42092315812267483,0.5384528335243352,0.63632481566322,3,left
13.052,0.5953694148154262,0.8909765868980309,0.05526119303692585,11.24046518120355,-2.6224505841896537,-1.3869382369730214,-0.42108937755612297,0.5373533801879007,0.6368377043899129,3,left
13.057,0.5000182003409317,0.9337067283300601,0.018644949768413435,11.193323026633156,-2.5771240298694296,-1.3922811568601023,-0.42099504293136936,0.5389826578054977,0.6361461483649175,3,left
13.058,0.4074443933330073,0.9762403432978647,-0.018567194040451634,11.246663017380456,-2.62312100944036,-1.3891830875211708,-0.42090060363238724,0.5372795819468259,0.6367820287551647,3,left
13.061,0.31388900433865274,1.0139444552468866,-0.05271997540010654,11.193105109227998,-2.585495397744948,-1.387521813545007,-0.4211387406551048,0.5386698424032359,0.6363355227775782,3,left
13.062000000000001,0.22798815944642647,1.0465582016328332,-0.07846733823444449,11.249539803108402,-2.614551555853834,-1.395177935805048,-0.4209572265713477,0.5380024216242217,0.6365195943961552,3,left
13.065999999999999,0.15342864750874757,1.0753061733473932,-0.09723249152742239,11.188579444244427,-2.5912535109156307,-1.3823966911853174,-0.42078241563488494,0.5374838078133902,0.6366474084688046,3,left
13.067,0.08499687930422141,1.0946724415076277,-0.10979977866893204,11.245064162638835,-2.6087539792440984,-1.3965199907175352,-0.4216002131003933,0.5395903051666062,0.6361768207806575,3,left
13.071,0.024829968511689858,1.1083215143357847,-0.12382690130649467,11.218126289209088,-2.6035606911905536,-1.3880243877879614,-0.42003311657415177,0.5358399618991584,0.6369645561988035,3,left
13.072000000000001,-0.029640069848099384,1.1139441598426554,-0.13196037119766196,11.177187527192169,-2.5837917914754156,-1.3817431521676025,-0.4220803055455588,0.5405474644042864,0.6360119119812246,3,left
13.075999999999999,-0.078671928916619,1.112806297964461,-0.12887310079632872,11.323668202574918,-2.6420985253555767,-1.411156868514705,-0.4203558707028665,0.5366647459338018,0.6367814052817784,3,left
13.077,-0.12008808738058374,1.1055715120481318,-0.11964865152960429,11.059740133012621,-2.540632277546138,-1.3561522204629939,-0.420400687921435,0.5367759735320169,0.6367574546637544,3,left
13.081,-0.15425660731420976,1.0869283175499138,-0.10584320573911327,11.395855512842175,-2.668519865695536,-1.4269484827105479,-0.42372033882315496,0.5440809333433786,0.6353432060479907,3,left
13.083,-0.18306904510764227,1.066298218116801,-0.09400865163404326,11.116421441499838,-2.562764082357277,-1.3677683827683285,-0.4155523032658004,0.5261528670246287,0.6388045259062034,3,left
13.085999999999999,-0.20938603800495822,1.026701976596234,-0.06369365186834383,11.122182828920792,-2.5640714370800968,-1.3694926419619269,-0.4291043108785948,0.5558500752545404,0.633080742886913,3,left
13.085999999999999,-0.22320737405699076,0.9940237916882522,-0.03603381117501823,11.65980295829462,-2.769865389347426,-1.482015719404578,-0.41122330922365946,0.5166998590848195,0.6406202393705447,3,left
13.087,-0.2268806562241223,0.9898661292156146,-0.03237683319205874,10.340998341306111,-2.266292568352681,-1.2052611910093576,-0.33617628239752395,0.35239803566217776,0.67227920189118,3,left
13.09,-0.22998560192335107,0.9420422817661321,0.0061247931203396765,12.526663731671473,-3.1003999378482465,-1.6642159136230272,-0.3182978464061675,0.31325422186601987,0.6798224692846012,3,left
13.091,-0.22844906061657025,0.894083104476314,0.04428022687367268,9.644124467076459,-2.0005117674358974,-1.0588105414900904,-0.33184148618921894,0.34294611163820066,0.6740857932348525,3,left
13.095999999999998,-0.22426037234933585,0.8860908919800047,0.05018066679997872,-2.456519426816267,2.617307841946458,1.4819967900405246,-0.32369220181390834,0.325009713235912,0.6775767779776114,3,left
13.097000000000001,-0.21010841673783348,0.8358260546215439,0.09186498004513638,-5.339027850037208,3.7171680311275144,2.0874490892259887,-0.32698022623917816,0.3323493973285102,0.6761117059935593,3,left
13.097999999999999,-0.17921701199795184,0.765570275834935,0.15358855812987815,-3.1536055990031198,2.8832719777996054,1.6284313234910965,-0.32706581329768747,0.3323937561480938,0.6761541162158937,3,left
13.100999999999999,-0.13953918191273362,0.7028195030902725,0.21191100802908244,-4.471679892654786,3.386215056257827,1.9052100063410697,-0.3253047601628142,0.32860063785103943,0.676862877991569,3,left
13.102,-0.08991108184707075,0.6255559181141701,0.27875095366361,-3.935480873605239,3.1816426955776893,1.7927657377455029,-0.3273611406738103,0.3332267472368027,0.6759277274183821,3,left
13.106,-0.030107886050635163,0.5517168253761847,0.33388898311923,-3.9276851197446883,3.1785901162322485,1.7908120489823665,-0.3258407141862528,0.3294970018360187,0.6767877175334418,3,left
13.107000000000001,0.03587120212654116,0.4793932144499759,0.3748207996870916,-4.209216769746837,3.286141111414393,1.8503690308152554,-0.3265339571226755,0.33170681913611233,0.67611824906268,3,left
13.110999999999999,0.10932600327583541,0.4062229006057457,0.40328541971750864,-3.872036007268415,3.1573490819895826,1.7791376083630441,-0.32655962512174164,0.3309129859607283,0.6765703347439455,3,left
13.110999999999999,0.18592793709028102,0.3392906358000612,0.41558136998675155,-4.134523417106628,3.257565485023698,1.8344411859105691,-0.32614670574895044,0.3306869427872795,0.6763753877453202,3,left
13.116,0.2601603323617452,0.27620708160629087,0.4130867871862123,-3.9933364579811164,3.2038145690903255,1.8051449942827549,-0.3265476102139462,0.33157066199675533,0.6762029667207643,3,left
13.117,0.33399423401145445,0.21782209740812275,0.39313036439450566,-4.024756006582294,3.2154095236267386,1.810606971221563,-0.32650476523905764,0.33021840219259213,0.6769061978220399,3,left
13.119000000000002,0.4068394599228675,0.16541058354947252,0.3555119436351387,-4.063819050317338,3.2309957518501156,1.8207643743091557,-0.32599286771371705,0.3319739042215345,0.6755563111262641,3,left
13.12,0.4749078800394124,0.11847397478996982,0.30257567422443216,-3.9969959974052682,3.2046607512419563,1.8043359178463438,-0.32702335995631393,0.3299389964429076,0.6774575614964518,3,left
13.125,0.5362842453744525,0.07628691721591008,0.24098606856049895,-4.059411758976639,3.229144767716262,1.819351954683989,-0.3258073386424185,0.3318510970276436,0.6754803898758993,3,left
13.126,0.5906774278488429,0.04049385270502541,0.17394079069633844,-4.018616046174614,3.2135851654201284,1.8108016702317848,-0.32656984553031126,0.3308774473675721,0.6765974027103181,3,left
13.13,0.6381953674500145,0.014551499081518256,0.10241323997239819,-4.0336203810832405,3.21806732559103,1.8104130444262974,-0.3271011743776583,0.32976207182303763,0.6776139036640537,3,left
13.130999999999998,0.6794338218558382,-0.0013556767495632146,0.036061563175793246,-4.040057297789948,3.223363307481485,1.8198530903211987,-0.32450989790772855,0.33406077051591354,0.6732783534425324,3,left
13.134,0.7150669932334899,-0.008665746348178816,-0.021971531977190276,-4.020699934851463,3.211741216673165,1.8037223774979203,-0.3293928832478331,0.3262585187349691,0.6812856192439043,3,left
13.135,0.742405024736256,0.0028100280329566153,-0.07794851586826697,-4.043152093987425,3.224822730235003,1.8212990551981587,-0.32308869727174705,0.3362019357256276,0.6710186997585923,3,left
13.139000000000001,0.7647242210805185,0.022563417628611828,-0.12807029467812497,-4.027310735429602,3.2161720405165015,1.8105413790018763,-0.3283660581005201,0.3279322989834897,0.6795834656998994,3,left
13.14,0.7744517126149528,0.054896119343898625,-0.17210247221523467,-4.027863709733461,3.2141287948298327,1.8042505683621468,-0.3282114291318332,0.32812965701684554,0.6793578116296293,3,left
13.144,0.7732661544360104,0.10328003258412244,-0.21075094680250617,-4.048700854344611,3.2319292385448524,1.8366632885393708,-0.31816994648653507,0.3439465628914301,0.6630147325305691,3,left
13.144,0.7714073459217156,0.14930302499332815,-0.23835046055459336,-4.005860980978808,3.1973232151797926,1.7756734699730665,-0.34287145664914565,0.3051174334211968,0.7031726956823094,3,left
13.149000000000001,0.7423163363070728,0.23523521571107175,-0.2675041388773567,-4.06181051043801,3.2421115373356537,1.8541837388893287,-0.30190614139439065,0.36947681180423064,0.6365950185629816,3,left
13.15,0.7171072004867063,0.2993193920555333,-0.2903173473704343,-4.014721024837488,3.204584722954128,1.7885613739871054,-0.3559421786310202,0.28459514297790023,0.7244065887991145,3,left
13.154000000000002,0.7069355112118283,0.3194171238742881,-0.2963420212679757,-4.017455399609005,3.206134862786482,1.7906402427121044,-0.5827592394419483,-0.07169321573258125,1.0929952147409954,3,left
13.155,0.6559293333614581,0.4081232660557297,-0.31476835418144333,-4.102453403251314,3.2759166424605413,1.9147717020115742,-0.6367902262638065,-0.15658146967970304,1.1807997931257868,3,left
13.155999999999999,0.5889212647129236,0.5186312667460448,-0.33365212620187834,-3.8918216179658285,3.103792102863771,1.6093190392283043,-0.5958325826765849,-0.09221320957297977,1.114235024283306,3,left
13.159,0.5087140986741978,0.6418938256724726,-0.32551116214346654,-4.241497610357568,3.3893152255588,2.115859691371743,-0.6205283522808733,-0.13104585271091904,1.1543769375656954,3,left
13.16,0.44589706495637604,0.7431876610391548,-0.31549560387120323,-3.780247231597977,3.0127353149308678,1.4477349092087732,-0.6104848631909523,-0.11523975038415944,1.1380477852492912,3,left
13.164000000000001,0.42952745204717596,0.7693533491545717,-0.313061020193823,-1.8461934347527977,1.432423930928179,-1.3563502584097042,-0.6103453205780174,-0.11501057463246886,1.137818233756907,3,left
13.165,0.36445700913343204,0.867611711300996,-0.29470262079863785,-1.385133659350795,1.0559749406237784,-2.0244257308551843,-0.6155924272173374,-0.12333269737748931,1.1463677170806967,3,left
13.165999999999999,0.2659568875855961,1.0135628229078364,-0.25969425417787495,-1.7346034427635326,1.3413564160616822,-1.5179384343933608,-0.6093291425099645,-0.11332843388284933,1.1361420865113598,3,left
13.169,0.18372717229833466,1.1303492138101832,-0.22895468127863933,-1.5238931851074482,1.1691780037133865,-1.823411367286238,-0.6141744663534734,-0.1211728853374952,1.1440831225798327,3,left
13.17,0.09610012835112602,1.261971838442721,-0.21176776994720986,-1.6095753238319643,1.2394296400538236,-1.6991029837935154,-0.611594193936517,-0.11688967436564776,1.1398236794178178,3,left
13.173,0.01898966579988061,1.3855660521065372,-0.2029228351666686,-1.6108377518789259,1.2399688243004356,-1.697404817876486,-0.6121694004930871,-0.1178919693639986,1.140786936260057,3,left
13.175,-0.048198030255046154,1.5027041973515327,-0.19067498819059575,-1.5658586941502293,1.2038915148143297,-1.7624813097288206,-0.6128113121219743,-0.11909626033028746,1.141886751564945,3,left
13.177999999999999,-0.10728366548302452,1.6124813067806212,-0.16005831115636027,-1.6197067341619955,1.2472364329437653,-1.6845146445189343,-0.6117909927648519,-0.11686323343470889,1.1400463537972514,3,left
13.179,-0.15375179724665536,1.699910489011982,-0.1032379983821654,-1.57777351006966,1.2132532110504677,-1.74526985603055,-0.6125943530855571,-0.11921029196540084,1.141665801540353,3,left
13.186,-0.19087207390800226,1.7671128463449408,-0.017479178956122908,-1.6004154691206356,1.2322931241826665,-1.7123904570747326,-0.6122438325406113,-0.11732853604481984,1.1407110407038854,3,left
13.187000000000001,-0.2126482779974214,1.7971290574348155,0.09453811575438394,-1.5951550554201614,1.2262572101092668,-1.7201847746713776,-0.612248200375026,-0.11839646632561028,1.1410251213483444,3,left
13.187999999999999,-0.21987874178421024,1.791499143170273,0.22506716946702626,-1.5893301682507865,1.224486050720151,-1.7283517292387982,-0.6122437166016721,-0.11839869463919997,1.1410206128627545,3,left
13.187999999999999,-0.21195637274522733,1.749294087250267,0.36300526003930045,-1.5994898608980477,1.2291246611354643,-1.7139546397357956,-0.6126761170623563,-0.1171096904745121,1.1411535975624199,3,left
13.193,-0.19475845165439645,1.6656531961216312,0.4874629887460835,-1.5899322624110974,1.2242336507426153,-1.727550247703312,-0.6115019043844445,-0.11976341878513604,1.1405472537214507,3,left
13.193,-0.1694980505843515,1.5468827097034166,0.595080822871853,-1.5964573950563599,1.2295896410193516,-1.718088032384789,-0.6134068604615592,-0.11604504973616298,1.1417009049507274,3,left
13.197000000000001,-0.1333784864451153,1.4003200237880693,0.6958709377479436,-1.5932739259919826,1.2215806384574217,-1.7231801739558912,-0.6112865077518086,-0.11986838170979774,1.1403253499680894,3,left
13.199000000000002,-0.0959414359214906,1.2369550751014327,0.7918619870161522,-1.5940417932278184,1.2345674573957164,-1.720980594417545,-0.6125404342736964,-0.11770399071667999,1.141167069982159,3,left
13.203,-0.05727444396819115,1.066644674318659,0.8781303349251047,-1.5944527215440212,1.216464876406703,-1.7220022223750542,-0.6136327101516755,-0.11585764829442491,1.141910665988839,3,left
13.204,-0.01972365175661442,0.9048650189524504,0.9352638135277118,-1.5937267497034147,1.2355281849158746,-1.721333393906276,-0.6088168201604602,-0.12388551985672977,1.1385975784751587,3,left
13.208,0.008921374888937803,0.7592646900640492,0.9524463932765471,-1.5946019849692887,1.2248835979054697,-1.7210559657789655,-0.6177813213863481,-0.10904882213925969,1.1447963878563956,3,left
13.209000000000001,0.034432023924063054,0.6325333082177416,0.9240903583524351,-1.5930925247933942,1.213865591139299,-1.7241072555354953,-0.6062471841711744,-0.1280647225935615,1.1367985775362128,3,left
13.212,0.054356034409041895,0.526510290702424,0.8682133831256711,-1.5959972278212362,1.2590769287715995,-1.7161379009981437,-0.615887209185948,-0.1122039868508857,1.1434936281763466,3,left
13.213,0.07023882688998581,0.44594601693588587,0.7900708441941502,-1.5912742320834994,1.1757681536609321,-1.7299467744271444,-0.6156257123485542,-0.1126376820616638,1.1433100471918642,3,left
13.217,0.08866862445984208,0.39428885153183857,0.6896094690980428,-1.5971953983141458,1.2826298258254476,-1.7124312802047215,-0.5972279021647882,-0.14284242265442854,1.1305210758402107,3,left
13.218,0.10347803256352597,0.3526983027455936,0.6060590108694037,-1.59230278384251,1.1934483200034558,-1.726969354618967,-0.6424567512217523,-0.06860721610967882,1.161972668289659,3,left
13.222000000000001,0.1287316239345278,0.3484433491456287,0.48739165052754474,-1.5922249356748885,1.195712541466651,-1.7269064970642172,-0.5674566827246397,-0.19168595676651273,1.1098086876130653,3,left
13.222999999999999,0.14941981212794328,0.36551736718001543,0.3922334195288354,-1.6022651130913197,1.366291235306619,-1.6980930682320299,-0.6663879274184643,-0.029350853217069567,1.1786247621829344,3,left
13.222999999999999,0.15272255874194124,0.3629871074038442,0.37679339129985234,-1.5778152227581599,0.9471708344989993,-1.7685305896438517,-1.0816110514561954,0.6519528692156835,1.467373681764412,3,left
13.229000000000001,0.18214083273062498,0.42455058780090604,0.2567453867433752,-1.6183196861573004,1.6420973520388378,-1.6518318383122448,-1.1805445838936675,0.8142785052190915,1.5361919884732238,3,left
13.23,0.20979524307346875,0.4959286278255586,0.13832524334579327,-1.564863403225199,0.725433092323073,-1.805761988566036,-1.1055464671300195,0.6912233491348914,1.4840379320155368,3,left
13.232999999999999,0.21364103747227403,0.5137690454862771,0.12341776077348923,-1.3405647784173036,-3.121791861167921,-2.452217950058018,-1.15075869449037,0.7654151962959201,1.5154448999679193,3,left
13.234000000000002,0.23729914136365907,0.6090780846664956,0.02342434512789239,-1.2870179535805788,-4.0385885779734485,-2.606212549569657,-1.1324014213202585,0.7352738988863186,1.5027540438043623,3,left
13.235,0.2641985777180736,0.7555712755969175,-0.09691533228780738,-1.3276204220472883,-3.3435187309350747,-2.4894440538618516,-1.1320742997387874,0.7347687812833369,1.5024195501433901,3,left
13.237,0.28523216464488355,0.8877528325537678,-0.1706081064965243,-1.3032076309694947,-3.762584695907068,-2.5598551061652484,-1.141791128113867,0.7506798147106053,1.5092827875150114,3,left
13.238,0.3148570021443635,1.0377161690012056,-0.24951860123066255,-1.3129231906978174,-3.5924812311594545,-2.5312728719237123,-1.130202105388604,0.7316789171854007,1.5011776918647652,3,left
13.242,0.34299983799458755,1.179426616863715,-0.29917317689533973,-1.3135440159370564,-3.5891943992399082,-2.5307124995547445,-1.1391501906675543,0.7463882703487674,1.5073110196032018,3,left
13.243,0.37028614040004104,1.3117153105541581,-0.3383593493962246,-1.3076494714585882,-3.6798421970678463,-2.545963965675819,-1.134473822426279,0.7386260378582543,1.504347604086831,3,left
13.247,0.3970180449419728,1.4386665426860492,-0.3692384819054477,-1.3145685683658999,-3.571520309002023,-2.5277380117256403,-1.1352756199328826,0.7400958289185359,1.504407904989578,3,left
13.248,0.42837535595256204,1.5462034690550999,-0.3737503439201947,-1.3094145801433301,-3.655459316775072,-2.5418535662300936,-1.136939790830143,0.7426370383783257,1.506175388360584,3,left
13.252,0.46446480606064056,1.6394973042109346,-0.3724898620783079,-1.3114632790525587,-3.611501476865918,-2.534493990256742,-1.1344118631319238,0.738640081024811,1.5039309417522428,3,left
13.253,0.48997132108573066,1.710845941857114,-0.37295795641265844,-1.312712843913702,-3.6184809238512408,-2.535580497281747,-1.1364984077651061,0.7420654296500329,1.5053778971812266,3,left
13.257,0.502951566713458,1.7582384248434426,-0.3819664385206365,-1.308833256755662,-3.636084512748112,-2.5386887650814143,-1.1356559909342772,0.7404022462858155,1.5056939978234851,3,left
13.257,0.5078578236305192,1.7778369457982244,-0.39856646405717544,-1.3139436066209738,-3.6084803459714863,-2.5338645279548437,-1.134993592412815,0.7399566886149462,1.503171796897961,3,left
13.262,0.5028040892099809,1.7547341658473679,-0.41436572713497377,-1.3097001007550721,-3.6333927349945774,-2.538199512111069,-1.1368929511195114,0.7421170887282442,1.5075683674329072,3,left
13.262,0.49047058210964795,1.676622859238928,-0.41372089654014177,-1.3104297958823947,-3.62046516813186,-2.5360283927739258,-1.1345349217350997,0.7392663618009027,1.5026494906958026,3,left
13.267000000000001,0.4825849051246101,1.5375504460297635,-0.3754270156658147,-1.3158761428106995,-3.6158402559948986,-2.5349742683863257,-1.1361206519556393,0.7412813636333538,1.5056473498016767,3,left
13.267999999999999,0.48598029982294394,1.3391374562726392,-0.3000865834274845,-1.3026732771525298,-3.639359564645101,-2.5395602509345014,-1.1367934610509765,0.7418745940727829,1.5077473645631123,3,left
13.273,0.5010877659618374,1.095493150143862,-0.20096323702982544,-1.3225514572561434,-3.601171233164286,-2.532196677346117,-1.132568637087818,0.7371674957163996,1.4976632287193565,3,left
13.274000000000001,0.5265369018318034,0.8306767335801795,-0.07718647104310447,-1.3013260132510962,-3.6424587859906534,-2.5401444778749025,-1.1407056780968508,0.7463967037333885,1.516575706197274,3,left
13.276,0.5616524683381323,0.5559414201776144,0.07995645878210057,-1.3136453137523938,-3.617689758493316,-2.5353974593170325,-1.1301490731885542,0.7343641308698933,1.492214605606745,3,left
13.276,0.6060884648398792,0.2929041323621487,0.25877896789466454,-1.3239949209891275,-3.6008597310953148,-2.5320691604771595,-1.1390069810943517,0.7444890997546489,1.5125854596423054,3,left
13.280999999999999,0.6513514120019885,0.04128156840863717,0.4431558150758109,-1.2782553255423292,-3.681918150107035,-2.54788775514391,-1.1386993916061647,0.7440893871249534,1.5119825185974491,3,left
13.282,0.6911769497657076,-0.1942575998490377,0.6083908439030326,-1.3631633052681222,-3.53025711857768,-2.518323656625763,-1.1219904538689993,0.725115023827797,1.4732760384501677,3,left
13.285,0.7183857130686613,-0.39075132637379295,0.7331924876980116,-1.2541142293157275,-3.7252993885538848,-2.5563397744504304,-1.1631551885576998,0.7719386101523353,1.5684876326436705,3,left
13.287,0.7300343112383478,-0.5874570882034706,0.8338554431064753,-1.3451692329660907,-3.5623431100534226,-2.524575718863662,-1.0948684017552481,0.6942254945935895,1.4105922242348752,3,left
13.290999999999999,0.7289107023624926,-0.7104241599439491,0.8858631865533899,-1.3426581454238904,-3.5672284924050626,-2.5255273696689207,-1.1849473519913265,0.7967657008813458,1.6188685463980552,3,left
13.292,0.7220521691111241,-0.736501139589712,0.8943381083787845,-1.169170167043307,-3.876404135751129,-2.5858056631042508,-1.563055062745124,1.2269267160041162,2.493029533124958,3,left
13.293,0.7000187739718877,-0.8241159749993763,0.9177715209658486,-1.5956536331499098,-3.1159209837271353,-2.437529082135309,-1.6531281012004855,1.3294943098127165,2.7013133087048082,3,left
13.296,0.6266972664101678,-0.9122562210669483,0.9217580713356772,-0.8884865302160538,-4.376992458904807,-2.683423253415925,-1.5848394798203222,1.2517380611464874,2.5434041094524806,3,left
13.297,0.5641982545610702,-0.9228540128211558,0.9068662141144185,-1.8212670708049479,-2.713619831576084,-2.3590669678727467,-1.6260358006588786,1.2985982007135335,2.6386329208575354,3,left
13.300999999999998,0.5452978770897614,-0.9263506397551924,0.9034384575498884,-5.736217962321598,4.26752959019999,-0.9979411974922803,-1.6092455435200494,1.2796235360348502,2.599911372165934,3,left
13.302,0.4702169014562231,-0.8849940545779669,0.8661319920518015,-6.669046581670081,5.930870874850062,-0.6735586796076596,-1.6090727707180084,1.2791586067113188,2.5993129161287065,3,left
13.302,0.36997287164971504,-0.7612851753554624,0.7978385025111034,-5.961827467149302,4.669833282144742,-0.9194812396099596,-1.6177695251758935,1.2894298154225394,2.619699706118401,3,left
13.306,0.31275547024036404,-0.5606244154811708,0.7153205444266932,-6.388291126185802,5.430329431559384,-0.7712154281281456,-1.6073332417788073,1.2771857507352933,2.5952947987876565,3,left
13.307,0.2797451692709516,-0.29546252705067977,0.616028524653746,-6.214975743904493,5.121041096876997,-0.8313996283639578,-1.615492930055159,1.2866285267765976,2.6142780575257545,3,left
13.31,0.28608892880454806,-0.0003463150286888428,0.5135545585058869,-6.212093325890491,5.116398046200101,-0.8325537668304298,-1.6109929721177032,1.2818212004897522,2.6041119965454183,3,left
13.31,0.32818274247642953,0.3113653381515028,0.4018421118676808,-6.303680716608386,5.279006980708779,-0.8004993575928033,-1.6122564806149107,1.2822524236205606,2.6062702562436826,3,left
13.315,0.3948552334115357,0.6245466349608662,0.28196090353942693,-6.194101526074741,5.084310454880551,-0.8388046413241614,-1.6129922204586316,1.2848218419259922,2.609284513885669,3,left
13.317,0.48867756951596153,0.9362794464359849,0.16979963825670563,-6.279238181309381,5.2358225604481845,-0.8091157094409418,-1.611499117269304,1.28099835030147,2.604221508168101,3,left
13.32,0.5983332276551365,1.252691172816764,0.07500247332051503,-6.233953937698113,5.15446665642866,-0.8246861405767312,-1.6129752083551963,1.2843711070404726,2.6089182642898257,3,left
13.321,0.7260773663754414,1.5710715904555328,0.0024114439144471214,-6.242836966125331,5.17225394889239,-0.8221574967711325,-1.611695922430091,1.2829306125004891,2.605972151108678,3,left
13.325,0.8681167145506402,1.8970099053759784,-0.04882205399169748,-6.25768310922829,5.195374145867899,-0.8160324965133352,-1.6130457264476763,1.281325214020324,2.606709959610149,3,left
13.325,1.0169227866563157,2.2293685644618852,-0.08819334097643969,-6.23335673835979,5.156109508457972,-0.8256715773878203,-1.6112339300439875,1.286441969097297,2.6079665996765504,3,left
13.33,1.168351824910817,2.5627378868802886,-0.12231681282413671,-6.25570691376784,5.192685989976974,-0.8169594076800871,-1.613631883207309,1.278462084067438,2.6053869677301407,3,left
13.331,1.3073503308146885,2.885540645509262,-0.15095295483954174,-6.242526568794043,5.169150208930459,-0.8215338915723079,-1.6111325031583539,1.2870331869445861,2.6082684585669753,3,left
13.335,1.4238522899424289,3.181651373999731,-0.18132510708167798,-6.243384418732328,5.17677112459628,-0.822981213655553,-1.6124867724610692,1.2819790139863274,2.6063956844898195,3,left
13.335999999999999,1.5152595591380966,3.4191497070660657,-0.2096592158853398,-6.25459946424691,5.182855651935478,-0.815092514694234,-1.6140989779015436,1.278126944430374,2.605809869689686,3,left
13.339,1.5770068510435284,3.56415815828123,-0.23821647302475346,-6.234714233441144,5.168148899483982,-0.8279579545968917,-1.6077715820400709,1.2958112724789914,2.610058117126103,3,left
13.341,1.604544444420633,3.5983767459302176,-0.27890645103948913,-6.256498159613712,5.184877372486273,-0.8140391219740621,-1.6193740007142041,1.2628667944365553,2.601874785993068,3,left
13.344000000000001,1.596903087852098,3.486862092903402,-0.3270836481857748,-6.242986193237248,5.173551259646825,-0.8224037665411384,-1.604505947205472,1.3052020737402024,2.6124522109957873,3,left
13.345,1.5653262908306473,3.2448351168904077,-0.3875414685635328,-6.235927205522069,5.172003664698426,-0.828016698776717,-1.6169057908265123,1.2698456247979868,2.6035918119389354,3,left
13.35,1.5355872072208352,2.895773072989927,-0.4194445641391882,-6.274327178798778,5.192232250582283,-0.8008374233637499,-1.6166177757483289,1.2708530627336017,2.603942562088446,3,left
13.350999999999999,1.5261248526987021,2.5062333932553797,-0.38640652518895746,-6.201763907806473,5.152281461788277,-0.8517129383476685,-1.5928193105349515,1.338103674098722,2.6204783955855766,3,left
13.355,1.5310027980164012,2.151169391968795,-0.3085554525487041,-6.295235348503748,5.204138126190249,-0.7862812808837059,-1.6512552435811862,1.1727518712925598,2.5796999341995157,3,left
13.356,1.5398524618355505,1.777325305433706,-0.17828736046960736,-6.217089126901626,5.160604193187515,-0.8409484846224528,-1.5543828379772267,1.4469258731141266,2.6473533795815456,3,left
13.357999999999999,1.5436606068573657,1.537424503842764,-0.07614810959599684,-6.2196504386307465,5.162676378156021,-0.839307176828213,-1.682152404657504,1.0852934130183167,2.558106325701154,3,left
13.359000000000002,1.5403709276047821,1.4797526122213838,-0.048705092655410606,-6.3671716327827195,5.242798015744219,-0.7356008386921176,-2.2185483254577205,-0.43259729664408425,2.1836968293568937,3,left
13.36,1.5300254929577042,1.3026727522534138,0.034539574087500864,-6.004080045412109,5.044773796451343,-0.9906862612179219,-2.3463145556365874,-0.794216576962146,2.094436778289227,3,left
13.364,1.495825854738669,1.05576877246095,0.17522244224784872,-6.6062042242114245,5.3734393305640396,-0.5676975870268437,-2.2494501800667104,-0.5200599740488978,2.162117049399925,3,left
13.365,1.4665129389301101,0.9543117251333618,0.2475364918046024,-5.812036404730179,4.93983447053263,-1.1256168613715254,-2.3078718297751992,-0.6854060809589471,2.1212987272694948,3,left
13.368,1.4576021211545642,0.9171560723038573,0.2706241912253959,-2.4787235634604112,3.1218728702539646,-3.467291683772358,-2.284093667107312,-0.6181310924079075,2.1378811178749246,3,left
13.369000000000002,1.414309517505441,0.8314359859047681,0.33493651550780884,-1.6846843435890626,2.6882444268959995,-4.025183505684104,-2.283783531754369,-0.6171914194865789,2.138193960330514,3,left
13.37,1.348969445357564,0.7404974582486806,0.4141845966951405,-2.2866693871752712,3.0169354832036683,-3.6022245406035713,-2.2961978270345673,-0.6524384458437575,2.1293380608565764,3,left
13.373,1.292504637512587,0.6957973504050746,0.4698835437173378,-1.9235248778193081,2.8189209449958907,-3.85732123350855,-2.2813369486230815,-0.6102274449492292,2.139973278864728,3,left
13.374,1.232288827068118,0.6634183630719299,0.5267609328659055,-2.0715076085248567,2.898957992969164,-3.7535164258221014,-2.2928962219796247,-0.6430898556644074,2.131649364745539,3,left
13.379000000000001,1.182095561770554,0.6383369104716965,0.5798619031046652,-2.073075872208539,2.9012122151756836,-3.752087023564434,-2.286654952492928,-0.6253643519739546,2.136114474049232,3,left
13.38,1.1443738703371449,0.6198588613377383,0.6240755292966089,-1.9963534751010648,2.8574172520860617,-3.8064503690447555,-2.2881484787748367,-0.6294618107976746,2.1352885148686997,3,left
13.384,1.1171035133638787,0.5922510356983537,0.6625775603240607,-2.0884070898734697,2.909533879995151,-3.7413213268659993,-2.2896171241672896,-0.6340291687683318,2.1335693097583786,3,left
13.385,1.1096405315445232,0.5596795510203396,0.6921365602887692,-2.016455573122217,2.8694708622940217,-3.7920662023372866,-2.2870730481655883,-0.6261234570517196,2.136538595310379,3,left
13.388,1.1160056011013895,0.5163424905667062,0.7182640766881261,-2.0560730764118924,2.8894763515233937,-3.764627221151806,-2.2893637542937975,-0.6334713851354624,2.1334763875173723,3,left
13.389000000000001,1.133671437754184,0.4628627645347605,0.7399148083858236,-2.04509213574278,2.8886476477937757,-3.7710770009905943,-2.287879840943942,-0.6285825420292844,2.1356782798723355,3,left
13.394,1.162662075302797,0.40021298240788483,0.7554653477918488,-2.03833783004165,2.876082722118378,-3.7779995728403977,-2.288674427174074,-0.6308250187467391,2.1351336829352037,3,left
13.394,1.2020379601114233,0.3271766464620735,0.7615065020503482,-2.0518284429212894,2.8943316701721917,-3.7658506833194276,-2.288067290576876,-0.6303857915809317,2.1333952430312246,3,left
13.398,1.248884581399961,0.24753583900733053,0.7566324103261965,-2.038554995089192,2.8784125114491115,-3.7773048030198675,-2.2890192758066643,-0.6301572012115557,2.137672439493156,3,left
13.399000000000001,1.296935469177165,0.1648850984808961,0.7426548755620439,-2.049829070500886,2.8844867170794792,-3.7694040699733162,-2.2874979444057635,-0.6302120913350011,2.1313618606684095,3,left
13.402999999999999,1.344705094597517,0.08371245527482288,0.7163102196446178,-2.038416949927427,2.8943564326130273,-3.7734691843200343,-2.2892539608881535,-0.6305331629503766,2.1379959953451975,3,left
13.402999999999999,1.3908174089542276,0.0037337163497499354,0.6787838819645309,-2.0532773712105596,2.865680517052115,-3.77206015612052,-2.288240656326391,-0.6303521106358486,2.1341605902959397,3,left
13.408,1.4340567434779605,-0.07498885340763384,0.6338419814236154,-2.0337954373502725,2.9099259549320484,-3.7722752069952046,-2.2870699159267263,-0.6293524718065522,2.1310660319973485,3,left
13.409,1.475721736612841,-0.1477909035494501,0.5826575023089906,-2.0540628961760836,2.862485144574806,-3.7723966829615954,-2.2918091380782193,-0.6326343081910569,2.1448863724130893,3,left
13.414000000000001,1.5187926840800994,-0.213343711188325,0.5258411446763378,-2.0431433764900007,2.8903310083938023,-3.7717725614398745,-2.283039017262353,-0.6266034552504234,2.1192396318363276,3,left
13.415,1.5605480975446706,-0.2693482801069772,0.46517619766852203,-2.0298133502449676,2.9121873311402102,-3.773980825454548,-2.2943253433894304,-0.6344160916181356,2.1521575805740625,3,left
13.418,1.5996427372246635,-0.31392523489813706,0.41674576997068147,-2.0817390408749343,2.8130137864498055,-3.768809813776909,-2.284891122243788,-0.6278636308810353,2.124678478840724,3,left
13.419,1.6377781500061062,-0.3449848311568865,0.3772060846630383,-1.9866008896716478,2.99757271981005,-3.777590408680026,-2.2851165769174377,-0.6279481984355708,2.1254570661022343,3,left
13.424000000000001,1.667334146943078,-0.3623601963401078,0.3367037083825877,-2.10850150794575,2.7604389781685392,-3.7664947454248985,-2.3032358400257342,-0.6408306512176246,2.177729163946462,3,left
13.424000000000001,1.6905058913323006,-0.37218692758954075,0.30624074549810476,-2.0068405334954322,2.9584810497895058,-3.7756886778388132,-2.2587218720616535,-0.6092422802910156,2.0492091609138217,3,left
13.429,1.7008228557355554,-0.356225700266328,0.25698972123475905,-2.009183183494865,2.9528699416848774,-3.7757128941625133,-2.332532227043712,-0.6616184348071026,2.2623163513783653,3,left
13.43,1.6994557198288138,-0.33577710514267917,0.21451651133171515,-2.204366257079151,2.5760369203729585,-3.7572763709045303,-2.2351676439567316,-0.5925167814649533,1.9812217892181128,3,left
13.431,1.7004681686898775,-0.3333558424901527,0.20743100871236336,-1.725117700241834,3.502572211565261,-3.8022792713000575,-1.8264356216168953,-0.30209309177418686,0.8017748589588578,3,left
13.432,1.6783587682910903,-0.291293758832077,0.1626695385800324,-2.519600333936846,1.966208917396331,-3.727729311332326,-1.7290601309854965,-0.23295163189455975,0.5207031283245055,3,left
13.433,1.6522589320554861,-0.24769325847583998,0.11916805352390838,-1.4717051640586132,3.9927444352593175,-3.8260775479659594,-1.8028841474148805,-0.28540693357915886,0.7337318101191845,3,left
13.437000000000001,1.644374712278537,-0.2388977101369565,0.11491736008947408,2.9274014038409284,12.498796143735316,-4.239290362466287,-1.7583680790032832,-0.25370714977132225,0.6053929959113151,3,left
13.439,1.6089780208914117,-0.19230235083678443,0.08344143299750523,3.9753014553443684,14.525562480732109,-4.337753876174396,-1.776461779642322,-0.26671019906564,0.657354126292215,3,left
13.44,1.555915176548731,-0.12810004651887807,0.04833500654994061,3.1808456430597474,12.988771352811007,-4.2630248202461924,-1.7767513101288057,-0.26671129447397746,0.6585393135764179,3,left
13.442,1.5051407943771973,-0.07475613537294207,0.034418772145397444,3.659978481732372,13.915842505696762,-4.308172877472428,-1.767217951004969,-0.26013760105276806,0.6306873792432706,3,left
13.443,1.4407335131670496,-0.015232693554031403,0.03546190918458854,3.465047349489924,13.538537329823303,-4.289753023098044,-1.7786120756905575,-0.26814740069753473,0.6637140946531335,3,left
13.448,1.3711309406807821,0.03640048145851474,0.05423823579361915,3.4623192274340777,13.533073266135268,-4.289476117617205,-1.7697785815843106,-0.2617046048945014,0.6385078712616983,3,left
13.449000000000002,1.3026232186633502,0.08967725860505937,0.07239285806236309,3.5644074997036626,13.731600154439999,-4.299314175045698,-1.7744640916162446,-0.2655703381989024,0.6511116134585513,3,left
13.452,1.230566168799156,0.1493299569531466,0.10099301556379024,3.442238019063029,13.493114639166773,-4.287311797861149,-1.7735332031474225,-0.2639855566945134,0.650003734948303,3,left
13.453,1.1507970251838393,0.2081039809537889,0.14330476102186385,3.5372012868385596,13.679870662977882,-4.296976314445059,-1.772068705348388,-0.2640771668794828,0.6438422034926147,3,left
13.457,1.0664495466203299,0.26525688490348637,0.1860888328058985,3.4861768021956268,13.578139015132471,-4.29144855414058,-1.774418676186663,-0.26484470475303423,0.6521660141989867,3,left
13.458,0.9830427311856514,0.3092286040725579,0.22939638346641744,3.497756893628673,13.601838493798512,-4.292852976701727,-1.7723637984889726,-0.2633768387243772,0.6462490519195434,3,left
13.462,0.9083026946479276,0.33762600234404994,0.2685471033090111,3.511037160259731,13.630139378246543,-4.294722385688685,-1.7734490411776411,-0.2658206667533004,0.6465220590583263,3,left
13.463,0.8552802006135574,0.350729356092331,0.30360496099516676,3.4885672105998164,13.578285857914995,-4.290606984760691,-1.773515703146057,-0.2620454221429622,0.6532483012678796,3,left
13.466,0.8284121642933759,0.3440535182725247,0.3375686621819074,3.508767724098637,13.631804373707972,-4.295956860445335,-1.772519549269761,-0.26704008615469543,0.6406257315624777,3,left
13.467,0.8282568121964051,0.31516092040577204,0.36998264741400466,3.4963007757192144,13.589968047966458,-4.290550570982412,-1.7739092496677915,-0.2619487459222462,0.6550283809017634,3,left
13.470999999999998,0.845513688452113,0.26702197454592924,0.3970088818915726,3.500905068852646,13.613000040037878,-4.294358782107645,-1.7728870332289546,-0.2647345815516271,0.6460721255407122,3,left
13.472000000000001,0.8691771226767149,0.20985723519162625,0.41538490841998704,3.500856093352793,13.61303307699578,-4.29438411902542,-1.772687445649237,-0.2676206670880139,0.6403241566964486,3,left
13.475999999999999,0.8973324401466986,0.1466844755530866,0.42239287703694756,3.500862062355646,13.586827990297174,-4.288122158738792,-1.774817696487624,-0.25588358958326163,0.669118381365764,3,left
13.477,0.9255430123269333,0.07865414054680399,0.4145333042391149,3.497243493630034,13.639738980854073,-4.302093574732311,-1.770571226140158,-0.27743946334383185,0.6148605353225097,3,left
13.482000000000001,0.9534759670103385,0.010314578066165685,0.39822522671997707,3.5056113650854135,13.566550040149362,-4.2815301621567645,-1.7761290257334506,-0.24983576166550894,0.684838402635184,3,left
13.482000000000001,0.981342442076455,-0.054451359975039235,0.38135944061091454,3.4949554440631925,13.641213280906527,-4.3032875147513,-1.7714471776925391,-0.27285038161864383,0.6262893123564184,3,left
13.485999999999999,1.004280147902331,-0.11522435214861218,0.36648930967198723,3.501666145576169,13.599144968046135,-4.290769136856099,-1.7716357697820508,-0.2722726095981538,0.6280691741948167,3,left
13.487,1.0227650538282456,-0.17054265110058608,0.35734193790557894,3.507685749051211,13.563331674772673,-4.279997041866984,-1.7803964059669837,-0.22826709381839616,0.7391895789686285,3,left
13.491,1.0411145852909232,-0.2176846476843945,0.35143245989429833,3.4806815874440966,13.718784548392312,-4.3270723943629115,-1.758779050149999,-0.3363645897775127,0.46579099445889466,3,left
13.492,1.0553857985921593,-0.26755428486448407,0.34242517374631987,3.5313958616653744,13.431726423252154,-4.239833136880904,-1.794647336499728,-0.1571541355430125,0.9191980207833219,3,left
13.495,1.0598543780886225,-0.30072345045733295,0.33651828675403184,3.4658377507572835,13.79947230124325,-4.351808566354935,-1.7473359428330166,-0.39352904314699977,0.3211270219325152,3,left
13.495999999999999,1.0603039233457934,-0.30791418938244447,0.33419835958623945,3.5207576058050316,13.49282814448736,-4.258347840144184,-1.5486577164365012,-1.3856673087109728,-2.1892317730748614,3,left
13.497,1.0520140284966164,-0.33553338064250593,0.3251196744852123,3.5193074929939376,13.50119048518184,-4.2608710005900114,-1.5013648753335247,-1.622052645084366,-2.7872927503406975,3,left
13.5,1.0299677843683002,-0.37216591605966015,0.31256132408909665,3.4141553219568026,14.085084276448459,-4.439065470574474,-1.5372211915122946,-1.4428366641306045,-2.333873190568135,3,left
13.501,1.0039651238310232,-0.394044956850202,0.300167562467479,3.6726947366115215,12.650130790244233,-4.001112804875876,-1.515567502204445,-1.5509094789480344,-2.6073586978271557,3,left
13.505,0.9706903533477117,-0.42238002962233884,0.2916862806480711,3.2439198452241422,15.029135999597573,-4.727235467222046,-1.5244538875031284,-1.5069834262267112,-2.4960316287870232,3,left
13.505999999999998,0.9473093898866068,-0.4390511949418457,0.29153981515258276,3.8095521773133747,11.891404279625945,-3.769500878506061,-1.52441144118277,-1.5062627616794382,-2.494582394621723,3,left
13.505999999999998,0.9423071761312134,-0.4413536519380522,0.2919635768806441,6.18442436534123,-1.2781492209004752,0.25080236909140585,-1.5200292098698727,-1.5294597775616654,-2.552748730772878,3,left
13.51,0.9215057650055417,-0.4543564676778835,0.2945351087642665,6.75015294030308,-4.41570080193865,1.2085380406616806,-1.5253281818109037,-1.501702530870698,-2.483037966081418,3,left
13.511,0.8952987748723282,-0.46640598085015017,0.3044464102433311,6.321180760403632,-2.037050017966947,0.48238802032686073,-1.5211199887639189,-1.523272506974409,-2.537392331062939,3,left
13.515,0.8813827612760803,-0.47097613794963733,0.3161307228359114,6.580010546436602,-3.4715125829669207,0.9204329934505371,-1.5236416335191842,-1.5117874450663324,-2.5078807771434946,3,left
13.517000000000001,0.8653496576872819,-0.47329067558827165,0.32466884338111635,6.474523506544364,-2.88813719067642,0.7420511901532857,-1.522472236084046,-1.5140684480634479,-2.5150999753051164,3,left
13.52,0.8523533801505037,-0.46984224701790167,0.32894027076610644,6.473339436874928,-2.8794376817808427,0.7398033554749338,-1.5229558474575362,-1.5177795011251793,-2.5219978368433136,3,left
13.520999999999999,0.8451696277893492,-0.46432430026354726,0.3299351907351994,6.528241704241086,-3.1859421864843753,0.8329715937136415,-1.5226729682288238,-1.511677336949548,-2.509615175287452,3,left
13.525,0.8399693871382781,-0.4579424123283765,0.3268308831655511,6.462246584400768,-2.8191137046054093,0.721159674689504,-1.522748130597987,-1.5172916342540654,-2.5213836134366274,3,left
13.525,0.8346462211965768,-0.4461206642260023,0.31872468260131337,6.5139934940544375,-3.104330574303991,0.8085655963911431,-1.5234279041026761,-1.513950721812715,-2.512908448870606,3,left
13.53,0.8260948996302342,-0.4294166466286701,0.3057362554818872,6.48541956673571,-2.951420664662815,0.7608032421424975,-1.5211402329958932,-1.514260800770361,-2.5182157932002704,3,left
13.530999999999999,0.8191489047721943,-0.4102165163742428,0.2915579396697584,6.493149860151792,-2.9847720618136693,0.7728479883868428,-1.5256992889712957,-1.5168918039332313,-2.5145368898055533,3,left
13.535,0.8109177526179976,-0.385208717142655,0.2828965573432132,6.498812220779459,-3.0278300811723446,0.7837074360460273,-1.5190582943849398,-1.5121668245553512,-2.5180014002591555,3,left
13.536,0.7944053390216563,-0.35399727235142464,0.2792243194664763,6.4874263891087995,-2.955405079908092,0.7634189065917856,-1.5261077668027028,-1.5173529574831643,-2.514685064129024,3,left
13.54,0.7733665962147723,-0.3241349715333598,0.2806454349383538,6.499387829546173,-3.0216529839319666,0.7836587484481625,-1.5220818948348689,-1.5141207157070427,-2.516005928316774,3,left
13.540999999999999,0.7478816384906497,-0.29165962815989305,0.2910145539252436,6.488869724488358,-2.9805479414927047,0.7677330508389276,-1.5183775381358422,-1.5125011135105833,-2.520093268317833,3,left
13.544,0.7158685824952203,-0.2536634014777842,0.30709608405030175,6.498106077514381,-2.992413349579983,0.7790732680892047,-1.534206292723522,-1.5214996064992654,-2.5070319071464615,3,left
13.545,0.6797025058296735,-0.2161923387569989,0.32471440507817795,6.4895394733729725,-3.0036157641784222,0.7709795204183894,-1.5049212042944462,-1.5044662937789552,-2.530382998754291,3,left
13.550999999999998,0.636355337316582,-0.17685569949469054,0.34425647002396986,6.496764627435088,-2.9810968876860837,0.7763784908769154,-1.542508686650558,-1.5264164275401109,-2.500594779009745,3,left
13.552,0.5931593957670733,-0.14065025137153506,0.36429420557658254,6.493867994704663,-3.001201667710416,0.775424653373137,-1.511135796669362,-1.5080581662659243,-2.5253839158351523,3,left
13.557,0.547335647347619,-0.10423533838855677,0.38353539528385083,6.487397777040025,-2.996478062374072,0.7678691782631162,-1.5119592246355829,-1.5086795144244962,-2.525017493620095,3,left
13.557,0.4979959234409655,-0.06532464498840286,0.4000347859443708,6.508384970957043,-2.976462080973565,0.7885128750908804,-1.571863894751902,-1.5432806680568723,-2.4767513400824157,3,left
13.559000000000001,0.45528479087920587,-0.032264319654784324,0.40934543167045534,6.47119459779692,-3.0231969098072575,0.7531648146977828,-1.4246573005970151,-1.4580848601727543,-2.5950240590793365,3,left
13.56,0.3998555493714716,0.009393268953749992,0.41724856043524083,6.5183269543606235,-2.9597191619725005,0.7974941285960424,-1.6687226517604064,-1.59938667634531,-2.399016052634245,3,left
13.564,0.36327224014801224,0.03647494433416951,0.4249464085879372,6.479238125802076,-3.0141834739807285,0.7609354277281946,-1.3468048652701148,-1.413000527290858,-2.6575410009030866,3,left
13.565,0.35374337531461797,0.04310535894301588,0.4264705157064347,6.479899797784073,-3.0104383870684455,0.7612296840305396,0.004505167084016881,-0.6308984929389037,-3.7431478553412214,3,left
13.565999999999999,0.3144004018307657,0.07390074227903774,0.43121354443428506,6.555490680001856,-2.912623374853667,0.8327876828700849,0.3264219836581884,-0.4445154925269731,-4.001708603124347,3,left
13.569,0.27048653300324604,0.11035505940495696,0.43804006776355253,6.370265677328815,-3.1563323541193453,0.6579156640808068,0.08235768347037001,-0.5858138967783943,-3.805661860178787,3,left
13.569,0.23301902748704856,0.14455229326102834,0.43974890355733376,6.677168680758591,-2.7510009762812757,0.9474769384134916,0.22956467110841514,-0.5006168120065158,-3.9239198612541295,3,left
13.574000000000002,0.2018571515377358,0.17382916909941273,0.4422672605000557,6.272435550732114,-3.286092368885315,0.5656900307328934,0.16965653169159992,-0.5352292270569,-3.875782160243992,3,left
13.575,0.19463293098314088,0.1803033578106066,0.44364155280514905,4.5735626943310645,-5.529903568761562,-1.037591139997222,0.16884057611524916,-0.5358263190296213,-3.875139337956196,3,left
13.575999999999999,0.17089751285753702,0.20447143719020455,0.4427458737586086,4.1688544776813075,-6.0650527418801286,-1.4193622723050419,0.20020274599907506,-0.5175028568790798,-3.9003247910056724,3,left
13.58,0.14038956685093862,0.24161363139463804,0.44035977214996813,4.475644554941319,-5.6594593475762895,-1.1298725321632617,0.16262594637589853,-0.5394183121491922,-3.8701419047696444,3,left
13.581,0.12310893843995185,0.2666242573206488,0.43477336847158754,4.290713813992156,-5.903851190931508,-1.304558121449936,0.19190641100495023,-0.5224000105164215,-3.893663321530828,3,left
13.585,0.10469117864765883,0.2949860959598589,0.427481845019844,4.365766323287362,-5.80478673810506,-1.2333412320363766,0.17606851620937203,-0.5314281718141309,-3.8809407870618906,3,left
13.585999999999999,0.0942306327725605,0.32028078584475983,0.41629346592307276,4.367166975251571,-5.802756745478536,-1.2325787400840387,0.17980237310057431,-0.5297128097382723,-3.883936539055933,3,left
13.589,0.0894992789262361,0.3417081584489724,0.40304797377904356,4.327354373173554,-5.855541142207283,-1.269596070226351,0.18377738263023247,-0.5266456740886927,-3.8871383305158544,3,left
13.59,0.08990844915674105,0.36426808975790015,0.3873517806732476,4.374788044982001,-5.792762970147864,-1.2250757710027318,0.17679036553508776,-0.5316290659152509,-3.8815135450415066,3,left
13.595,0.09542005565439934,0.3839851533568377,0.3660795176614884,4.33824649113677,-5.84100326635235,-1.260012818470304,0.1833815164319077,-0.527065892489527,-3.886818581990005,3,left
13.595999999999998,0.10314913171309048,0.4035877787904605,0.34673659080354224,4.357180331567523,-5.816222057267136,-1.2406700777705697,0.17882213428281934,-0.5296979441582661,-3.8831558063298925,3,left
13.599,0.11988996947960001,0.42110918173116313,0.3280512693835278,4.354237118257753,-5.8196840492554,-1.2459908096092223,0.18120203147912506,-0.5297086564517646,-3.885048249165457,3,left
13.599,0.14142997061561446,0.4374964441119246,0.3027212182827411,4.347016105421549,-5.829752163652323,-1.2496847395714696,0.18031127643942213,-0.527052610320027,-3.8843777675009026,3,left
13.604000000000001,0.16227297321398526,0.45632474653923216,0.2758388596128185,4.357686768785388,-5.815230869724042,-1.2421023772112652,0.18055103630099706,-0.5316446257308665,-3.884502488611731,3,left
13.604000000000001,0.18344519697675385,0.4753158890241554,0.2479037621854033,4.349154713120741,-5.826511795006441,-1.250174658688917,0.18049798954141594,-0.526632940548271,-3.884532793415755,3,left
13.607999999999999,0.20735518626376365,0.4936736447203786,0.21442158077003043,4.351987288683468,-5.823516858704082,-1.2428914856082887,0.1802088361895545,-0.5297127216607972,-3.8842577016552804,3,left
13.61,0.23099099914176552,0.512226871748947,0.17748851204484323,4.356098771591041,-5.816363692861598,-1.2495479910885603,0.18154473069566796,-0.5314532947402864,-3.885295860349286,3,left
13.613,0.25057135785570717,0.5314547817147589,0.13968768611109134,4.346237703509851,-5.831964165081871,-1.2431353419938447,0.17829204112417835,-0.5223412810649843,-3.8828401932167087,3,left
13.614,0.27276510466863535,0.5517146719422572,0.10461157518295493,4.358113301922794,-5.813529187968572,-1.2486841823391042,0.18385694382499285,-0.5395071473247965,-3.8870171486813585,3,left
13.619000000000002,0.2978140116878278,0.5736282427592245,0.07405595556596896,4.350338101944338,-5.825393280279327,-1.2463408081182934,0.1768149318775532,-0.5174082319821018,-3.8817386780483067,3,left
13.62,0.31999129952487093,0.594949856826958,0.04717830065510092,4.346475595789994,-5.8318496061230505,-1.2416388723265137,0.1826537170148218,-0.5358766543239804,-3.886110604027496,3,left
13.623,0.34348653703530785,0.6135343550601737,0.022294518687506863,4.3686180857422885,-5.796635208409517,-1.2572690641286168,0.18265360314430346,-0.5352949246652585,-3.886124835830544,3,left
13.624,0.36549674724188164,0.6314068175089486,-0.0016493722195585893,4.326318454423905,-5.863588062015236,-1.2294513381084409,0.1709972712692812,-0.5003591814757581,-3.8773547283040135,3,left
13.63,0.38415253206263145,0.6501699849967679,-0.01917882195655095,4.381076600216007,-5.777018273472943,-1.2647501290487204,0.19946569560674554,-0.5863126160956624,-3.8987532870868686,3,left
13.630999999999998,0.40988824314135797,0.6700630417419773,-0.031421067751854784,4.335177997377426,-5.849553171856613,-1.2354574654733699,0.15230490311454734,-0.44378875880683993,-3.863315333986934,3,left
13.633,0.4298324712289765,0.6830859318608933,-0.03972440140699126,4.336699661427682,-5.847175798509263,-1.2359796259086337,0.21451437204746282,-0.6317595673526077,-3.910052699613149,3,left
13.634,0.43544357269168543,0.6876061107743072,-0.04016701237692097,4.423472970336832,-5.709960392121747,-1.2925557677443735,0.4757748331275263,-1.4208542840275822,-4.1064432264991595,3,left
13.634,0.45263456033277455,0.7000850984809979,-0.0405529656497582,4.209797464883675,-6.047834829926758,-1.1538878731861248,0.5380189798880199,-1.6087805949205625,-4.1531936778245075,3,left
13.638,0.48355007959872176,0.7213532747512387,-0.04160854756770063,4.5642222485859945,-5.487368570676402,-1.3836615334046007,0.49082066790836537,-1.4663048851796003,-4.1177415732277325,3,left
13.639000000000001,0.5002016244896514,0.7328797398491766,-0.03876695851303895,4.096697942845374,-6.226742358062781,-1.0806397885970338,0.5192748237724465,-1.5522766161320354,-4.139134724754978,3,left
13.642000000000001,0.5056907205523962,0.7369017839644658,-0.037754300190759135,2.13429372259566,-9.329432658569646,0.19143736374634904,0.5077429438133921,-1.517181205551936,-4.1304116267300595,3,left
13.642999999999999,0.5237330385506513,0.7492729949706411,-0.03753950738642236,1.6667886451798117,-10.068896675032942,0.4944597739861073,0.5074750543772577,-1.5169430397758434,-4.130324742798869,3,left
13.642999999999999,0.547458422967614,0.7646921519799701,-0.03392054492917812,2.0212262807563164,-9.508288320245855,0.2647171686451476,0.513697776586238,-1.5349188457447827,-4.134841623288637,3,left
13.647,0.5672730980412701,0.776780177841059,-0.02909653054642874,1.8074236537219064,-9.846283155959796,0.40327224208893653,0.5062734418863675,-1.5133104928365173,-4.12941883936202,3,left
13.648,0.58698985664066,0.78790621859014,-0.026179972970144114,1.8945117321564056,-9.70906681425556,0.3469305155753482,0.5120033126591652,-1.5302646545907752,-4.133658005496319,3,left
13.652000000000001,0.6033112825808356,0.7965051277651034,-0.023876131592828524,1.8955203133213596,-9.706474496939617,0.3460589890773422,0.5090789214768104,-1.5207314719185656,-4.131326395175062,3,left
13.652999999999999,0.6190969504438875,0.8035729304822428,-0.020124031463958622,1.850225920239978,-9.779491278916218,0.37572847161846407,0.509357265396231,-1.5238288881582973,-4.131965162152177,3,left
13.658,0.636748484032766,0.8076189716388773,-0.01800631244163127,1.9045465884794803,-9.692224670773296,0.34020946118475415,0.5108903217044081,-1.5245706919041655,-4.1323781085962015,3,left
13.659,0.6531861994798529,0.8102356531957468,-0.01716264119075535,1.862130827845398,-9.759881082688509,0.3678343539870027,0.5086009608673916,-1.5224283757026202,-4.131564156560215,3,left
13.663,0.6687514431596837,0.8132385718466746,-0.014641600705097855,1.885351529600249,-9.724336690482293,0.3530565502464489,0.5106236268970694,-1.5247326656760936,-4.132361752961258,3,left
13.664000000000001,0.6836021429916737,0.8116184676578285,-0.011794403847407754,1.879224450773705,-9.730258885354504,0.3561538085651823,0.5097487407642785,-1.5220565219057156,-4.131697744249337,3,left
13.667,0.6980759278570392,0.8067941548381727,-0.009227684948153125,1.8746650281225468,-9.743950036354768,0.3606142803939315,0.5088200802655675,-1.5263119837043604,-4.1323404152448475,3,left
13.667,0.7129024004534561,0.8022443265940911,-0.005388568529713528,1.8833228278935208,-9.722309793157994,0.353155269301121,0.5118218883561614,-1.519242845629441,-4.131532919185901,3,left
13.671,0.7274641953389405,0.7964377172394999,0.0001353846368492217,1.8749382645638484,-9.741904523596483,0.36006277196791836,0.5071329432952094,-1.529152692520893,-4.1325790362615304,3,left
13.671,0.7392346451952113,0.787695642266254,0.007002559827595169,1.8815699501084215,-9.731474103019194,0.3557776127162221,0.5121708121058517,-1.518706983708805,-4.131493510810571,3,left
13.677,0.7472827566083646,0.7809143439471107,0.015549771007090037,1.8759102924118731,-9.728667963892548,0.35671170612780456,0.5091978682031613,-1.5245555552581926,-4.132074003346522,3,left
13.677999999999999,0.7522019506433799,0.7786582716173618,0.0235388114732925,1.882240405389744,-9.745523816169207,0.35885779850251676,0.5069422387708191,-1.5305234505532364,-4.1328054249157935,3,left
13.682,0.7550996774027864,0.7761010202090717,0.03040652527499165,1.8743775750096705,-9.717877694789987,0.354631117165765,0.5173168404909665,-1.5059211400624273,-4.129982793729519,3,left
13.683,0.7571109097851603,0.7782538867831157,0.03941865282873503,1.8824666952667741,-9.747813643025445,0.3593274204301542,0.4979860955600108,-1.551272935994751,-4.135148841838955,3,left
13.686,0.7565842131240536,0.7863328998114152,0.050105230283121735,1.8782550911835312,-9.729782575938998,0.3563130837836596,0.5228283638909201,-1.4931000652143405,-4.128531085605061,3,left
13.687000000000001,0.7543866351328432,0.79332894403913,0.060886953846437136,1.872329148267097,-9.717878975571093,0.35520597385447805,0.5020800926427307,-1.5416414253359951,-4.1340491281237846,3,left
13.690999999999999,0.7516002225519302,0.8047053930343415,0.06924335463999698,1.8945110048740408,-9.775929802700638,0.3624912012669159,0.5026743996926233,-1.540421453186908,-4.133924916553432,3,left
13.690999999999999,0.7468507806468506,0.8187553228300175,0.07507696388612992,1.8540471929162492,-9.667201684121707,0.34854147034058736,0.5421307604336183,-1.4475536172330956,-4.123321820144808,3,left
13.697000000000001,0.7418405956000054,0.8323202909428423,0.08265024427107578,1.9058601608239711,-9.807051223901237,0.3665505375974164,0.4451124564781253,-1.675701944387511,-4.149352246376893,3,left
13.698,0.7351607590467013,0.8522618740900403,0.08770520590488234,1.8626538585486814,-9.690206071694025,0.3514786413610639,0.605984259329991,-1.2974485824736341,-4.106201639611224,3,left
13.702,0.7276170843289643,0.8667832317166848,0.08642424982923103,1.8636141268130662,-9.693730139453983,0.3520332766650087,0.39379337331305153,-1.7963620625859662,-4.163115134291809,3,left
13.703,0.7258224763590959,0.8707390615450075,0.08577161156794666,1.9467109697798324,-9.915332121192453,0.3802848118640096,-0.4967947275744349,-3.890634266996934,-4.402083816845495,3,left
13.703,0.7210507463242164,0.8870333756611564,0.08741257267458213,1.7426917239583086,-9.370247405265587,0.3106791886214279,-0.7089801976451571,-4.38955813020149,-4.459001843316143,3,left
13.706,0.7056551515845595,0.9180616937570816,0.08652640082899761,2.080936175830685,-10.274115418107707,0.42612423549690137,-0.54811900653879,-4.011299813864617,-4.415841149134822,3,left
13.707,0.6960046228272458,0.9350525555577625,0.0852928123647865,1.6347555172772785,-9.081930456008312,0.27386015131766306,-0.6451227072485088,-4.2394216266306906,-4.441888073546413,3,left
13.71,0.6929561527897459,0.9409310709937884,0.08504567978275956,-0.2379234364151464,-4.078044356405907,-0.36517179327356725,-0.6056816098830144,-4.14663690797089,-4.431263384104556,3,left
13.710999999999999,0.6825248713953752,0.963591243423808,0.08226772949015265,-0.6842071543552406,-2.885940310465157,-0.5173984792691053,-0.6050776437785788,-4.145268731509722,-4.431160341891347,3,left
13.712,0.6723038609606704,0.9932047907177823,0.07982705362095265,-0.3458511923856781,-3.7897207661723966,-0.4019938906559267,-0.625821204383179,-4.193998061414796,-4.436668279905894,3,left
13.716,0.6651558987654668,1.0173043614985728,0.07922263093738517,-0.5498280532547453,-3.2446027932459285,-0.4716149176225889,-0.6010068097123975,-4.13566864608028,-4.430035293979341,3,left
13.717,0.657312804494364,1.0424181851743008,0.07904265895391319,-0.46710102964901096,-3.46649509171899,-0.4432291348255075,-0.6202824780817126,-4.181031101769526,-4.435254879018114,3,left
13.72,0.654213734803483,1.0658633722119788,0.07798604573531728,-0.46534501662602545,-3.4693944523179896,-0.44296332990502935,-0.6099831373171529,-4.1566942973952195,-4.4323371059585455,3,left
13.720999999999998,0.6521039641297841,1.0853538623594279,0.07182623359195928,-0.5096922808080123,-3.3534450466948744,-0.4576211182094737,-0.6121669859734024,-4.1620324310409345,-4.433188826522738,3,left
13.725,0.6509644507670713,1.1002673142601778,0.06644813087519574,-0.4567431212432376,-3.492402555759369,-0.44002439575607866,-0.6151667261245857,-4.168838082699946,-4.433667737081004,3,left
13.725999999999999,0.6544325091825626,1.1108145294505316,0.06396239342105647,-0.49769723773978625,-3.384059432290261,-0.45379624518692824,-0.6101988701285646,-4.1573537685869955,-4.4325946194076185,3,left
13.73,0.6563043642656345,1.1186635181209637,0.058020560223709536,-0.4764909065713069,-3.4428760253703246,-0.44615684569562275,-0.6146782528060257,-4.167888480564329,-4.43379857477929,3,left
13.731,0.6581791293742498,1.1250453473535083,0.05355442195743078,-0.47927418109241193,-3.428505284955313,-0.4484046917717206,-0.6120285601750604,-4.16129267071916,-4.432606301686934,3,left
13.735,0.6594727835213079,1.131191037667058,0.048907533870186974,-0.4889008646090232,-3.4147254275363546,-0.44945357784851503,-0.6125339251623027,-4.163315308050402,-4.433842136628625,3,left
13.735,0.6547193411265508,1.1348228689225779,0.04120368511137534,-0.47416594629273284,-3.439443837992238,-0.44716928419205293,-0.6137343914918014,-4.164893836119523,-4.432522722946712,3,left
13.742,0.6519093972260621,1.138496956694877,0.035349823943621406,-0.48732733292563085,-3.415957743943042,-0.4494731313437836,-0.611739745456897,-4.161529703862403,-4.433737613012415,3,left
13.743,0.6517061594771538,1.1457642904702876,0.029265043958470124,-0.48104396682153483,-3.4328498536240923,-0.44730958930885056,-0.6133713363177762,-4.164600339601123,-4.433163830761759,3,left
13.745,0.6488905252282058,1.1515946102856955,0.026961347313707165,-0.4768719863491929,-3.422325672735182,-0.4499444889068698,-0.613288277136788,-4.163743985128226,-4.432270746173791,3,left
13.745999999999999,0.6482876044956399,1.1549202681548645,0.026975872723593655,-0.49270971924224627,-3.429535022914518,-0.44607388161088535,-0.6109042202914323,-4.161029324467212,-4.435444560896119,3,left
13.749,0.647624605375789,1.1612791756040193,0.02165944544467078,-0.46757287514236917,-3.4228128959944457,-0.45133300216889405,-0.6159740070105734,-4.167589434282999,-4.4297317054077645,3,left
13.75,0.6460899210471455,1.1694409055838433,0.020227963169711156,-0.49465053341694765,-3.4292285013580126,-0.4458226591433959,-0.6092313114944865,-4.158617676990749,-4.437005787112124,3,left
13.755,0.6473285240016766,1.1752800098908476,0.02210429556964702,-0.47856082906532454,-3.426706701939623,-0.44885484190036107,-0.6149574060928231,-4.166336765545204,-4.43095762891671,3,left
13.755999999999998,0.6483079287484479,1.1774890350351561,0.014122729890714067,-0.4668912612752162,-3.4186598696520285,-0.45221979701883613,-0.614654479130861,-4.1657776534957325,-4.43108486122431,3,left
13.76,0.650767486926981,1.1794391434609297,0.0027728884340132536,-0.521564423537582,-3.4442652514269128,-0.43872293021180353,-0.6041308489670892,-4.151992865823607,-4.442715796506667,3,left
13.762,0.655501415617047,1.1833114154628928,-0.004275863633496463,-0.4195221503734581,-3.3985126502517664,-0.46353074944255046,-0.6302076837574417,-4.186375253841421,-4.414178298309243,3,left
13.765,0.659231683158751,1.1831376139288268,-0.013781024669574298,-0.5506958233012536,-3.4568749449034835,-0.4317265621115447,-0.58689558735904,-4.129186211045577,-4.461479949871773,3,left
13.765999999999998,0.6604695086380441,1.1826929675377267,-0.021880515716836205,-0.4411254807698589,-3.408304245428595,-0.4582574003609227,-0.6440455213616956,-4.20467322332434,-4.399088923617468,3,left
13.77,0.6598845253623723,1.1816109121657405,-0.02415958137284639,-0.4443199961376945,-3.4090244720807465,-0.4576182518797727,-0.8838602808615976,-4.521337295484477,-4.137217091001956,3,left
13.770999999999999,0.6630853079033476,1.1747081518612108,-0.027838884565381417,-0.6524999952441173,-3.503598940330468,-0.40677180000324475,-0.9409931388579289,-4.596795407110322,-4.074805430392859,3,left
13.770999999999999,0.6674601154406874,1.1688768812470318,-0.03202741696018399,-0.14054728294094315,-3.27183711344618,-0.5316516386716027,-0.8976925451097078,-4.539615821234907,-4.122135261891264,3,left
13.775,0.6678572054543774,1.1571161459125565,-0.031418439706737925,-0.9894610715539156,-3.655943205985775,-0.32462141880606343,-0.9238011033154158,-4.574087359416271,-4.09358551640774,3,left
13.776,0.6690402342437467,1.1449894555727327,-0.02825230390998766,0.1302621452022104,-3.1493032425352263,-0.5976882582714881,-0.9131652744442033,-4.560039576034358,-4.105185151046494,3,left
13.779000000000002,0.6680064628863089,1.1419614085229988,-0.026619189137866817,4.829942486392957,-1.0219348627181963,-1.7440108813928876,-0.91306974367106,-4.559939928787626,-4.10540829333871,3,left
13.78,0.6624462553296442,1.1298268002985767,-0.02182155611346987,5.949652528802418,-0.5151670438285993,-2.0170796235034594,-0.918525704338226,-4.567085423274573,-4.099199750673106,3,left
13.780999999999999,0.6595171276136342,1.1116120205425302,-0.009980586701431836,5.100745392276328,-0.8994357505962722,-1.8100511858249972,-0.9120179958739678,-4.558578447263824,-4.106662110233522,3,left
13.785,0.6568345930447981,1.0953054264309405,0.003214266799573813,5.612730451089433,-0.6676405245038888,-1.9349166376445437,-0.9170495395207272,-4.565135580225692,-4.100814960398255,3,left
13.786,0.6503464998343238,1.0757749871195208,0.01690165744097843,5.404447661851584,-0.7619334545111816,-1.8841050598326055,-0.9143181960700866,-4.561566583988956,-4.103949362817971,3,left
13.789000000000001,0.6427873940439586,1.057616520751064,0.03235846287114807,5.401437228392387,-0.7633779075778082,-1.88340961193648,-0.9151034965468048,-4.562679068617776,-4.10339354711741,3,left
13.79,0.6364268874175039,1.0408212721069723,0.04619150549316777,5.5107733257026394,-0.7136739697465728,-1.9100061709412894,-0.915381036762666,-4.5628020369217825,-4.102119279723157,3,left
13.794,0.6299346954453575,1.0256671136255828,0.058149152317906724,5.379795823417842,-0.7732832095680495,-1.8781552783544093,-0.9148970744216558,-4.56258295168318,-4.104320524065443,3,left
13.795,0.6208250168559595,1.0130730975419684,0.0695222973305889,5.481822328824939,-0.7267725562235814,-1.9029484506320924,-0.9151190408781229,-4.562360345569751,-4.102025618633032,3,left
13.798,0.6107705928017451,1.0007211270891885,0.07919490116657138,5.426821997752588,-0.7518141703729293,-1.8895718800929686,-0.9150952788499134,-4.562740276050619,-4.103687883623756,3,left
13.799000000000001,0.6003206378917335,0.9921565805922178,0.08709677965348586,5.439272437640318,-0.7464555506535473,-1.892687274269818,-0.9154560781600021,-4.563220279506735,-4.103308121497207,3,left
13.802999999999999,0.5909564273054924,0.9846057581270723,0.09530230737892605,5.454171641970887,-0.7388067987796669,-1.8960711605376015,-0.9139977933107377,-4.56053137364382,-4.101865107023537,3,left
13.804,0.5853275580733333,0.9724922561039984,0.10491059440157141,5.428390489821966,-0.7520400494286876,-1.8902123199620533,-0.917136067040426,-4.566419988418881,-4.105375659947105,3,left
13.808,0.5809240716830328,0.9620188949612115,0.11406111209064812,5.45273942155485,-0.7390976306231573,-1.8956251285345393,-0.9124088006992357,-4.557574865568927,-4.100187725467909,3,left
13.81,0.5776718938576237,0.9567048809442457,0.12089067909269059,5.436329133385167,-0.7480580701095232,-1.892041623296636,-0.9175084877329518,-4.567083847521731,-4.105652915096243,3,left
13.814,0.5773058953463499,0.9538079934165279,0.12661731556394445,5.443260405630875,-0.7449335838957488,-1.8937359493875956,-0.9145620485296817,-4.561589442488575,-4.1024939438933945,3,left
13.815,0.5771256037826372,0.9543419522959998,0.1294333239163564,5.44426408448491,-0.741636832561771,-1.8932034429042484,-0.9118905374888095,-4.556680299259677,-4.099917696394516,3,left
13.818,0.5770528710333083,0.9579702514496133,0.1294571986797134,5.438155988379359,-0.750898666997396,-1.8934899399338394,-0.9234131806295524,-4.577943722315678,-4.111383930027657,3,left
13.82,0.5807233938868577,0.965519464132993,0.12916786873872554,5.446381337620455,-0.7374825893038821,-1.8928461906436176,-0.9020515692371871,-4.538519181655573,-4.090108978063039,3,left
13.823,0.5852973565841808,0.9761159892047202,0.12028746326631644,5.43878923273229,-0.7512519797218598,-1.8938195446240633,-0.9294933218876815,-4.589159489691189,-4.117416397346917,3,left
13.824000000000002,0.5893374682880983,0.9859268353312317,0.10405807836432501,5.443188187694009,-0.7432909376168852,-1.8932596527542935,-0.9065764695705696,-4.546871687874143,-4.0946221419307465,3,left
13.828,0.5942868493369364,0.9982096956955839,0.08677785505697978,5.444373168763992,-0.7376067118481705,-1.892142715392409,-0.9071877262823838,-4.548007599826171,-4.095259559108168,3,left
13.828,0.5983670907013073,1.010637348060005,0.0665074922700456,5.435813069889376,-0.7640073771897584,-1.8962112745759123,-0.9509330855610224,-4.628696762570215,-4.138645729233918,3,left
13.833,0.6004034478619348,1.0189861504723632,0.04467859447811135,5.451854864713278,-0.7149729732208361,-1.8887054741663734,-0.8434133255705338,-4.430367700311756,-4.031986288213757,3,left
13.834000000000001,0.5951564136318727,1.0265177320600594,0.016069669912075184,5.431473623040339,-0.7778356852838915,-1.898397619746509,-1.0216934791969188,-4.759220421711294,-4.208838047454212,3,left
13.837,0.5909693386042753,1.030304823492211,-0.0037064025746095216,5.448389097005535,-0.725402221427055,-1.8902798059110344,-0.7865345670686642,-4.3254512382400545,-3.9755702306814324,3,left
13.838,0.5884580409422029,1.0314649700824585,-0.008283855449389185,5.447659814292848,-0.7269390329434762,-1.8904378822841093,0.2004334403468341,-2.5049500011879138,-2.9966277194982425,3,left
13.838,0.5749608360508635,1.0347446136334937,-0.027392148156258327,5.416568659142818,-0.8264049864170011,-1.9061898402821718,0.4355924611867704,-2.0711842248000907,-2.763371691928864,3,left
13.843,0.5586903311677545,1.035826619817965,-0.05176538701595362,5.493188957122186,-0.5818493020424155,-1.8675132403174926,0.25732784849989376,-2.4000003058125197,-2.9401874845017373,3,left
13.843,0.5331205543871027,1.0325348988178538,-0.06647650251873917,5.366173025991456,-0.9873140905642617,-1.9316543734462879,0.3647921007111966,-2.2017865660392024,-2.833605408101885,3,left
13.847000000000001,0.5099426085674167,1.0293699655920463,-0.07758276887567532,5.533636434851736,-0.4525496712457792,-1.847026749462557,0.3211614741032748,-2.282247317456867,-2.876864392446944,3,left
13.847999999999999,0.5044433017573685,1.0272430628618723,-0.07828517854464057,6.235891867512381,1.7918693646455568,-1.4916864856675356,0.3203797430304386,-2.283713924236005,-2.87766223233453,3,left
13.847999999999999,0.483668157779067,1.0198700498126048,-0.07707273164615969,6.403253359257613,2.3265628697171126,-1.4070112024813914,0.3434798647468629,-2.241080679574467,-2.854728619634665,3,left
13.852,0.4528408995773367,1.007527060692989,-0.07854286163733493,6.276396745129467,1.9212089269204935,-1.4712268339988746,0.3159320030329003,-2.291904211459018,-2.8820615708871964,3,left
13.853,0.4271785626957104,0.9946210902517525,-0.07239196287537318,6.352885247567706,2.1656729342623295,-1.4324886119215035,0.33719754860821266,-2.252699145595951,-2.8609858836924866,3,left
13.857999999999999,0.3972186081693205,0.9796569695730987,-0.06354828248075575,6.321786492202705,2.06620163745752,-1.4482369971944378,0.32609287552078037,-2.273117346526606,-2.8719456521526627,3,left
13.859000000000002,0.3713579865148692,0.9623416900484091,-0.0571356650321324,6.321312843495883,2.0648427785913412,-1.4485146426312743,0.3279803086096107,-2.269747461927006,-2.870167282323994,3,left
13.862,0.34625107576325564,0.9443968354388056,-0.050766646362776335,6.337670212595469,2.1168878236449413,-1.4401358141410547,0.3319584953021949,-2.2622727267355645,-2.8661067695996376,3,left
13.863,0.32021018864594897,0.9288036331356868,-0.04601271740670656,6.3180840382388475,2.0545783724250373,-1.4501997718410182,0.32593168253005933,-2.2734984646064214,-2.8721757904546585,3,left
13.866,0.29691019418825676,0.9159801129256901,-0.041370049561535116,6.333338358918039,2.103064895977261,-1.4423257429689662,0.33089141539360767,-2.264350939739799,-2.8672573439698033,3,left
13.867,0.2727852914576192,0.9027431351018861,-0.034149882452764894,6.325119618218945,2.076901547824312,-1.4465538624241807,0.32892188012064394,-2.2677817511129543,-2.8690415250674377,3,left
13.872,0.25263209143914234,0.8908184262382484,-0.02603796288893368,6.326966680237273,2.083046827784157,-1.4457466594770327,0.32727178704663396,-2.2712872878027817,-2.871064790955029,3,left
13.873,0.23427051608385002,0.8813464795069841,-0.01578154366661373,6.329224883016124,2.0895178333909277,-1.4441855264375865,0.33189972943929247,-2.262061787020709,-2.8658981112893525,3,left
13.876,0.21745311478176213,0.8718646128394215,-0.0020619364636837254,6.32532166458257,2.0783156252975807,-1.4468840538540335,0.3261734583452024,-2.2733587499472963,-2.8721918328114633,3,left
13.877,0.2080254276583714,0.8632269620873457,0.012333754414781812,6.3290205484703606,2.088582064218743,-1.4441235695863825,0.3300138478971698,-2.265850415682404,-2.8680285394407865,3,left
13.880999999999998,0.1997107473321854,0.8556112863676457,0.02620779152968105,6.326521143311698,2.081830606737639,-1.4460973978879688,0.3316710764505257,-2.2624279699966596,-2.8660775410144126,3,left
13.882,0.19209882439237647,0.8480889011999202,0.04058051710231633,6.327555162601421,2.0851499584378637,-1.4455795841913388,0.3213679764146764,-2.2830333649534174,-2.8776373232652097,3,left
13.887,0.18896223289193823,0.8414954436712885,0.050170443040742405,6.327795602717636,2.0836165568403304,-1.4441442873225023,0.34119612212777317,-2.2434903263181294,-2.8554862697540755,3,left
13.888,0.18464463498048034,0.8378254143846801,0.05348249659080767,6.326678183051175,2.0852996844748004,-1.4477130710084285,0.31547557127974263,-2.2947458655945807,-2.884185683175706,3,left
13.892000000000001,0.179789842734823,0.8385408760621609,0.0560725405257679,6.3282114870630926,2.082365001805638,-1.4424560234496036,0.33705901765088314,-2.251750620096601,-2.8601187901545027,3,left
13.892999999999999,0.17184480063120527,0.8416349909900355,0.057010417177293354,6.326753740769392,2.086055433600821,-1.4479712594205885,0.3363035303986941,-2.2532314183003384,-2.860934186268894,3,left
13.895999999999999,0.1601708577128944,0.8472022864446264,0.05717760970963687,6.327596384985222,2.0839284930007205,-1.4447835732777063,0.295603307965154,-2.3343726702292527,-2.906387713875784,3,left
13.897,0.14866130879800094,0.8578950989391958,0.06027807513572144,6.327937704613124,2.080851491011603,-1.4422330199863684,0.39588851107406176,-2.134475820610554,-2.794433473911133,3,left
13.902000000000001,0.1320764258881107,0.8702234446787929,0.06909994133734454,6.325949231225582,2.092709654629034,-1.4536509349084414,0.22951533819677858,-2.466092183258767,-2.9801445727372684,3,left
13.902999999999999,0.12229592740517174,0.8756030537513666,0.07829894055960607,6.3296579099892885,2.070797084001468,-1.4324635466916804,0.44899770421040885,-2.028621944637273,-2.7351650304366837,3,left
13.907,0.1182641036731345,0.8786632190328943,0.08186382053797583,6.3249321515568635,2.0990388913148426,-1.4596528829987434,1.3700999359693882,-0.19268330634490555,-1.7069325548583123,3,left
13.908,0.10399138353325198,0.8890996633160179,0.0918001395431523,6.328856671213233,2.0754116121438138,-1.436961225767541,1.5895942684839477,0.24481189056509708,-1.4619564194158587,3,left
13.909,0.08773495110337315,0.9000522534565913,0.11566944909137722,6.328723826418907,2.075926172628845,-1.4375964140414765,1.4231885879567336,-0.0868675565993289,-1.6476832347082517,3,left
13.912,0.07219752256266106,0.9063925364376342,0.14225252935426905,6.321380285874335,2.121522698734329,-1.4807756851237597,1.5235381513692432,0.11314682369563031,-1.535658868803793,3,left
13.912,0.055085104622736365,0.9141672539927028,0.16853803041493987,6.339433037414514,2.0095394296069107,-1.3746301414293742,1.4827380386329208,0.03183167013179779,-1.581266304481626,3,left
13.915999999999999,0.03328046382709231,0.9278599417708115,0.20228219355416527,6.309522469148515,2.195230440061752,-1.5506230512882428,1.4821020545897174,0.030549026973137793,-1.5818451995746001,3,left
13.915999999999999,0.01566369984411324,0.9379361436767016,0.2239315847028197,6.348950131928765,1.95026668375526,-1.3184942197047178,1.503590554555947,0.07340107879018885,-1.5580416219629658,3,left
13.918,0.010014324857716226,0.9410761634852741,0.2312094739459681,6.514753213239743,0.9218469854645943,-0.3442035169444347,1.4778691237581363,0.02211210804960587,-1.5865734831541016,3,left
13.921,-0.008268773597685113,0.9533774741262269,0.2545361142592042,6.554179904171894,0.6768376040153569,-0.11208334984341914,1.497874852749736,0.06199643833266967,-1.5643189549095196,3,left
13.921,-0.037785833450775436,0.9729150532518798,0.28489287098055427,6.524226793073318,0.8625856205099967,-0.2880606697294645,1.487164189545852,0.04066657381252603,-1.5764276326420426,3,left
13.925999999999998,-0.061844573981353845,0.9911126737130767,0.3111354049046706,6.542434356766409,0.7505940556319511,-0.18193357634276905,1.48943182773771,0.045126983757772715,-1.5734052730823265,3,left
13.925999999999998,-0.08647925395278197,1.010236624414544,0.33743502705127015,6.534768992354126,0.7960826459340665,-0.22509855581244084,1.4926192607613906,0.05158249035110833,-1.570692400075566,3,left
13.931,-0.11097782659145516,1.0280952582400298,0.3601234332489516,6.535115925253811,0.7968667282976178,-0.22573417252180222,1.4872707730135817,0.04079632348046326,-1.5756262249201525,3,left
13.932,-0.1324069374269973,1.045886040125521,0.381349988812261,6.538522803411746,0.7728231559273238,-0.20306617744356084,1.492230383240242,0.05078194572578466,-1.5709159833365463,3,left
13.935,-0.1522560069603493,1.0621481487853492,0.39569178788192505,6.534099836753647,0.801516800828695,-0.23020162663389965,1.4891261564863507,0.04459546247062214,-1.574388623024246,3,left
13.936,-0.16894464411927268,1.0724816642487438,0.4051334513072879,6.538072784093758,0.7793399998553584,-0.20909380320190635,1.4898843175489642,0.04592084294610014,-1.572009627255845,3,left
13.940999999999999,-0.18498302753850313,1.0828216360945007,0.41570404814621587,6.534914324405976,0.790969806057427,-0.22042822817692878,1.4912521412391446,0.049071874667161265,-1.57398500346372,3,left
13.942,-0.20054577196490755,1.0930485638788605,0.4250020032743347,6.537458966892059,0.7889029808989904,-0.21792338734534486,1.4884692105156092,0.04289126110236287,-1.5718671240373991,3,left
13.945,-0.20742796688106557,1.0944333382139835,0.4333858947054542,6.535394008628936,0.7848796765605637,-0.21478365533734603,1.4915739484483206,0.04975529390176128,-1.573970333481519,3,left
13.945,-0.20800184508801184,1.0907667631101243,0.4368495824402563,6.53656057862022,0.7910626911121832,-0.2201054854405293,1.4895618798759696,0.045354173751433496,-1.5729991752943429,3,left
13.95,-0.20585137634938167,1.0860260197392784,0.4352388533371643,6.537412295188993,0.7858942335055265,-0.21520361474258243,1.4889086063794505,0.043716124871823976,-1.5709534228856725,3,left
13.950999999999999,-0.19547424174926276,1.0781429114427108,0.4304056197436026,6.533040700279136,0.7881244342904445,-0.21831293010603176,1.4935369707879125,0.05441335865736905,-1.5779279377580635,3,left
13.954,-0.17860115991074457,1.0686225312579074,0.4198820727479454,6.541998955626502,0.7894368442948381,-0.2172797736846386,1.4846346750360815,0.03393879101827223,-1.5653511634870168,3,left
13.955,-0.15858483282467128,1.0562319618298006,0.4078053907875292,6.528997989452527,0.7852218309175939,-0.21668215601599944,1.4961367273673019,0.060371483889868516,-1.5814195924684167,3,left
13.959000000000001,-0.1387837874464705,1.043703131756582,0.3974363217649661,6.542724943980758,0.7905409130059206,-0.21810240959589222,1.486506080437489,0.038247053056026006,-1.5680382790561747,3,left
13.96,-0.11717341595497646,1.0309687574981183,0.38469394973924864,6.534881427424667,0.7869141670946138,-0.21675584869595066,1.4868762141428469,0.03906623913479023,-1.5682738959516072,3,left
13.964,-0.09280575267627236,1.015488127236506,0.3705021315281215,6.527846873598488,0.7855081458004252,-0.21723033022177235,1.5048789256729767,0.08052851169057135,-1.5942024825358407,3,left
13.965,-0.07203452590954346,1.0006291921895218,0.3579547480900277,6.5581303676705565,0.7948350356755038,-0.2181716432161621,1.4605033839180925,-0.021638659952769732,-1.5306244827952646,3,left
13.969000000000001,-0.045336668354734266,0.9856448521306657,0.3426933129610926,6.502086552634304,0.7767890088359308,-0.21571141357250795,1.534110254976324,0.14782346836390056,-1.6359977730190778,3,left
13.97,-0.022927431792121596,0.9775741432689465,0.3307760513588054,6.574009802618448,0.8002301295823313,-0.21913031883016815,1.437025002488332,-0.0756977519673312,-1.4970192112711476,3,left
13.975999999999999,-0.018623397048544467,0.976029024526197,0.3278833147133541,6.51397719006738,0.7805481070434004,-0.2161623078796726,1.0296668421123223,-1.0136138753509458,-0.9134808928242857,3,left
13.977,0.0034547724385240557,0.9692945696280625,0.31895386210551924,6.515587874789851,0.7812519816725698,-0.2164225467231497,0.9326099671082788,-1.237096111544811,-0.7745048357310919,3,left
13.977,0.04016678760854232,0.9642180451364569,0.30344121170718374,6.630098693462433,0.8183253372969519,-0.22160616484665613,1.0061764182495505,-1.0676834405918862,-0.8798627536706585,3,left
13.979000000000001,0.06643613254676278,0.963119902281449,0.2911767546620635,6.348658757785532,0.7269584751975969,-0.20859893851869146,0.9618236183132504,-1.1698408713383377,-0.8163285737591526,3,left
13.98,0.10750307331323772,0.959615689057883,0.2765191625370962,6.815301881061611,0.8785385405239508,-0.23027349449202,0.9798572154482911,-1.12829184261768,-0.8421736860954782,3,left
13.985999999999999,0.14034903761320616,0.9578070917063939,0.2661887692054377,6.199793790327943,0.6785752702190082,-0.2016390550087669,0.9801134898721762,-1.1276948335273058,-0.8425271359925623,3,left
13.987,0.14730904773208042,0.9570164047643535,0.2634688485674899,3.6166050512935186,-0.16077449087158363,-0.08196034797563546,0.9706840488197683,-1.1494722764774492,-0.8290263319663824,3,left
13.988,0.17726011128755753,0.9523987228973556,0.25061756203327046,3.0011134867885896,-0.3607488387054758,-0.05333441569143751,0.9819383293583008,-1.1234206270550935,-0.8451519662073643,3,left
13.989,0.22087439627038274,0.9454586166800284,0.23056709915385498,3.4676816183100243,-0.20911854777215977,-0.07497037847609701,0.9732309932739605,-1.1436648244587904,-0.8326652458437451,3,left
13.99,0.2532778434576008,0.9380995723760244,0.2161720177580802,3.1864371724845784,-0.3006163002080465,-0.06206374794906387,0.9778692187742815,-1.132792375117254,-0.8393262389617546,3,left
13.995999999999999,0.2883955059441096,0.928246397703266,0.2041075972627394,3.3005902606958157,-0.2633034598960432,-0.06706329241059042,0.9768351472900587,-1.135256294800344,-0.8378356094713917,3,left
13.995999999999999,0.32203547531002846,0.9149805243668243,0.19181753091228612,3.3026920392347705,-0.2629283173596092,-0.06757622000155233,0.9756773096973141,-1.1380860125188481,-0.836166091758154,3,left
14.0,0.35010043104902666,0.9008381099198361,0.18134435760674594,3.2421783545842047,-0.2822883581926121,-0.0643606873405716,0.9775234015720724,-1.1333080084548028,-0.8388523378405207,3,left
14.0,0.37596827994693505,0.8874837175088144,0.17350716397477634,3.3143020337174276,-0.2589813079973556,-0.06788269853065006,0.9760579208288784,-1.1375903313575144,-0.8366787966923694,3,left
14.003,0.39857759804379933,0.8727651675172636,0.16743417011446105,3.2586891199906596,-0.27731591283689094,-0.06564422033330292,0.9767149422524795,-1.134963623599599,-0.8377121444561034,3,left
14.004000000000001,0.41763873410401975,0.8566156200778077,0.16252265873021138,3.2876083315122973,-0.26707564574876863,-0.06588351601243779,0.9766852926038921,-1.1359197257368878,-0.8375956850325735,3,left
14.008,0.43441799319809166,0.84244791975736,0.1606303418953272,3.2829175187428574,-0.27005061425791005,-0.06756397135482732,0.9766930470976829,-1.1359097937008964,-0.8376067629918207,3,left
14.009,0.44889253708304616,0.8291988814524491,0.16009391247027838,3.2722000323084814,-0.27175364845095173,-0.06473865204988566,0.9759571661313652,-1.1359569346905567,-0.8366885645855189,3,left
14.014000000000001,0.457727083051384,0.8189759445412702,0.15723714172766765,3.2882174022255573,-0.26796740131372176,-0.06733733750983736,0.9779731159321168,-1.1350794512815408,-0.8392647533761214,3,left
14.014000000000001,0.4625868641261992,0.8143815460772423,0.15431713467261898,3.275238158762953,-0.27219757470760425,-0.06675105101724517,0.9746904862080837,-1.1370222750034378,-0.8350278344159379,3,left
14.02,0.4623229501950361,0.8140140964792038,0.15081696983833692,3.279942330519436,-0.26803673954884755,-0.06352878934355821,0.9783506971989531,-1.1345806367739633,-0.8397745340716385,3,left
14.020999999999999,0.4556953258773335,0.8200011366895412,0.1485011234843222,3.2852915491720434,-0.2723142168574913,-0.07164004917123276,0.9761843688368296,-1.136110160048423,-0.8369586568590501,3,left
14.023,0.4466700767061882,0.8294515124610831,0.152640568389538,3.2716412158111514,-0.26777506506625093,-0.05927622510009485,0.9742957660969876,-1.1374766172232924,-0.8344995265781001,3,left
14.023,0.4338139381949974,0.8414324732258239,0.1547047502586672,3.2882682858472805,-0.27194012955832503,-0.07255289735030912,0.9826234379184441,-1.1313513366868704,-0.8453479926255398,3,left
14.027999999999999,0.41558488641833835,0.8563241023477126,0.1544924122551289,3.27726837107768,-0.2699849612258458,-0.0648163643156173,0.9671204412645809,-1.1428478627219436,-0.825145750257438,3,left
14.03,0.3924218545989795,0.8711501285206282,0.16020113989240542,3.2721166473753502,-0.26689607364901036,-0.058350454035058855,0.9870681015977756,-1.1279905303791051,-0.8511440695004971,3,left
14.032,0.3662677359934482,0.8877096881601454,0.16325002770771274,3.302653527513418,-0.27782581176478793,-0.08702364128612211,0.9703966634478957,-1.140436935182096,-0.8294150567202931,3,left
14.033,0.33263440203018957,0.900687026989671,0.16588080561534319,3.2441327506763837,-0.25816731972524865,-0.03375943667628618,0.9708461047483509,-1.1401018998210652,-0.8299967798882006,3,left
14.039000000000001,0.2930374222889265,0.9080482828489918,0.17534738453062984,3.3199603198290664,-0.2831908237533507,-0.10218682932047682,1.0026712825735724,-1.116291463415689,-0.8714905281939929,3,left
14.04,0.25343717433488544,0.9149745140034029,0.18821509458673688,3.256361806557705,-0.26239053064259943,-0.04504385792207265,0.9244376184742572,-1.1748451993716782,-0.7694955773755378,3,left
14.043,0.2052750452324792,0.9211984091180258,0.2122771482059887,3.2585414840993776,-0.2628160621392105,-0.04661823404256925,1.0541645110162543,-1.0777294965603987,-0.9386190442135417,3,left
14.044,0.175180169639517,0.9242312135419763,0.23338479234084314,3.3785961470873054,-0.30284533445318884,-0.15550648581219575,0.8830459967110471,-1.2058497879778933,-0.7155384887849003,3,left
14.044,0.16919021186655642,0.9244924480434389,0.2381522481920266,3.082844543029173,-0.20465342798152616,0.11217171488745553,0.16475674443575516,-1.7436421646293876,0.2209376449278272,3,left
14.048,0.1477749736616214,0.9309150515336857,0.24639157897054476,3.5734800265870987,-0.36739132619348003,-0.33167317549512426,-0.006371811129234184,-1.8717911523031447,0.4440226803411574,3,left
14.049000000000001,0.1327626468953677,0.9380937112698651,0.2514674330315767,2.9262221038665635,-0.15275956104130328,0.25377117380738906,0.12337145575783397,-1.774631715442784,0.27488647593590526,3,left
14.052999999999999,0.13439363480039865,0.9402731753222177,0.24953146690278502,0.20999211601851908,0.7481547633546651,2.7110227533262283,0.045122405786600525,-1.8332185791480278,0.3769075316152394,3,left
14.054,0.12965010830132123,0.9579967342179829,0.252479345343642,-0.4373229679012606,0.962798212435878,3.296487143685338,0.07695178437301592,-1.8094184904628756,0.3353722434873819,3,left
14.054,0.13280435599083038,1.0019621783103583,0.24396429382802232,0.05342556501719382,0.8000643017988887,2.852618195972938,0.07741906893691282,-1.8089993005068061,0.33484140535997065,3,left
14.058,0.14322535918057008,1.0672597338206893,0.21717771452664444,-0.24248388591629677,0.8981925006831486,3.1202965594494243,0.06070052433414297,-1.821615918229912,0.356528278806959,3,left
14.059000000000001,0.15710016888634687,1.1462211883812214,0.1812773261954416,-0.1222604589947186,0.8583265880517296,3.0114628954746756,0.08072197897863459,-1.80652718908033,0.33053342213907233,3,left
14.062999999999999,0.18035681274845833,1.230737127119653,0.13910425020798464,-0.12019410527396816,0.857630688489978,3.0097594846833005,0.06513721092832775,-1.8182385142480118,0.3508056681646663,3,left
14.064,0.1984390107685084,1.3228882628445158,0.09442310786829775,-0.18383012210397004,0.8787536883043925,3.067096738397123,0.07351657423449667,-1.8120470337867083,0.339789469994842,3,left
14.067,0.19901602188302897,1.425500313679462,0.05071030451962778,-0.1077154053266224,0.8534899595224845,2.998464298563326,0.07165938339879244,-1.8131710552018796,0.34250549489171367,3,left
14.067,0.17520047208034942,1.535796871235161,0.009916045869940188,-0.16682395302362438,0.8731014605479943,3.05183848556269,0.06932659518972628,-1.8153769375714532,0.34503959074814033,3,left
14.073,0.12008784860515867,1.6526210055865125,-0.028117653309774757,-0.13546477969177442,0.8627251244280878,3.0232918144918224,0.07331034269723448,-1.8118306897866083,0.34046794991687096,3,left
14.074000000000002,0.030630165877542713,1.7727338777939865,-0.0705954301963365,-0.14142647337370903,0.8646285272675494,3.0292649190616485,0.06959171731967366,-1.815064103655954,0.3448202713943621,3,left
14.077,-0.09344520177895038,1.8843695868383241,-0.12216388924203436,-0.15207474048731862,0.8682873047027044,3.037898981996875,0.07201351094932176,-1.8132547970606763,0.34165840008210724,3,left
14.077,-0.24397253719697726,1.9749276222371683,-0.17235429416671635,-0.13477046877331061,0.8623915586667492,3.023469406194325,0.0711470790881881,-1.8130702961661238,0.3437079629287772,3,left
14.083,-0.41684802332655346,2.037414811797472,-0.2135850314297723,-0.15061734433757146,0.8677724922007848,3.03682919312058,0.07070943794346055,-1.8153020822296582,0.34217634859294455,3,left
14.085,-0.6088814050998079,2.0689646649028557,-0.24105497864122874,-0.14147343246849908,0.8647412141346295,3.0285499556725854,0.07194132286754683,-1.8115392485527089,0.3437062201745261,3,left
14.087,-0.7969104218091438,2.06396296726739,-0.22512783107352818,-0.14144461426364818,0.8644978240533698,3.030329749776893,0.0705203507573732,-1.8156310194403145,0.3422159951426743,3,left
14.089,-0.9595770223854099,2.0166013481739187,-0.13367331016983877,-0.15065460230563937,0.8680869429635572,3.034533199938874,0.0715115483379996,-1.8131396833987128,0.34285496079559796,3,left
14.092,-1.0766262131566593,1.9339089359612243,0.0028717582669536834,-0.13472472409114877,0.8620057871124616,3.0262816259407423,0.07152284756101476,-1.8116224722658734,0.34450572176191663,3,left
14.092,-1.1240923563119523,1.8275553705147205,0.12242783039990485,-0.15211476457881878,0.8686244239942289,3.0354467697808927,0.0700935223021261,-1.8192937357244217,0.3390817599121735,3,left
14.095999999999998,-1.0974523439085597,1.700553462335205,0.2307358642502867,-0.14142123261744943,0.8645853068906042,3.0295686391285517,0.07299303068570098,-1.8048818408586143,0.3488155038585232,3,left
14.097000000000001,-1.0043412419441613,1.560438412213282,0.350176551896862,-0.13539861508539033,0.8621655075880714,3.0273872369514843,0.06921442472786327,-1.823428117212925,0.3363899182136806,3,left
14.100999999999999,-0.8687680418758358,1.4252466131227184,0.46953855161843694,-0.16698903341799953,0.8744959202006545,3.041657379037657,0.07239099626422914,-1.8079295725201885,0.34673374088938624,3,left
14.102,-0.7069732270619739,1.294548249403152,0.5690169528743243,-0.10745761587470708,0.8513130280383492,3.014340917324122,0.07221967681583338,-1.8084099139960896,0.34656736522001175,3,left
14.106,-0.5398927347518329,1.1759652565894145,0.625989647978308,-0.18411435282961475,0.8811544600948464,3.0496076637208653,0.06644385110865066,-1.8377593794742926,0.32647139560965277,3,left
14.107000000000001,-0.3906416722481715,1.080763739950117,0.6491788924111354,-0.1200261213617726,0.8562082541636267,3.020088039710998,0.08073950465701496,-1.7655534792855714,0.3757307396618226,3,left
14.110999999999999,-0.25273955258380876,0.9919582463463573,0.6221627528156473,-0.12210217085534346,0.8570028754450418,3.021183600858058,0.057012308640033725,-1.8852884123379916,0.29409129399914,3,left
14.112,-0.1749722500281672,0.9403744908133215,0.5821441367574376,-0.2431977932827896,0.904188556297624,3.076498066549485,0.08830885350709675,-1.7273612981113384,0.4017703412619736,3,left
14.113,-0.15681843669755452,0.9290110999063903,0.5771880471544063,0.05485534565481723,0.7880609347699056,2.940193003556419,0.21959449887551902,-1.0644364159915338,0.8539251173638016,3,left
14.115,-0.12885985670952985,0.9060124226323751,0.5085812089470758,-0.43945462104136546,0.9806587739443766,3.1662822420636556,0.2508814434600757,-0.9065132879201925,0.9616191088108477,3,left
14.116,-0.1148970598444264,0.892830364777996,0.4310437518748546,0.21257687867754618,0.7265953808124579,2.868065620766224,0.22715942024341268,-1.0262588814300149,0.8799619099263494,3,left
14.12,-0.12757474580002395,0.8991279579917912,0.41682778775036067,2.9490073802727816,-0.33967697801019925,1.6167223725779443,0.2414774926453674,-0.9539983054351044,0.9292207172108846,3,left
14.120999999999999,-0.16526804125386907,0.9152479066178416,0.3416125157492747,3.6011063284767997,-0.593812808529657,1.3185444244025846,0.2356291383100665,-0.9834714146231733,0.9091668093766727,3,left
14.122,-0.24138679317480283,0.9611248810191362,0.23570768161711916,3.106648095106566,-0.40107719103038897,1.544591364249421,0.23558843733765078,-0.9837587653467081,0.9089022023812219,3,left
14.127,-0.32552650373904346,1.0227995913260186,0.15441304336973619,3.4049401643613786,-0.5173854214370274,1.4082720057668885,0.2385980928269384,-0.9684784502130898,0.9193930576470141,3,left
14.127,-0.40355480046566256,1.0874730729476738,0.060209586201727755,3.283536812148912,-0.4700259178172504,1.463721928363455,0.2349602634948964,-0.9868804623485204,0.9068133278517118,3,left
14.130999999999998,-0.4594795866929767,1.1494190695196969,-0.02308500138534337,3.281755578272029,-0.469315492757713,1.464523808218749,0.23784626470248454,-0.9723951697391262,0.9166279371354129,3,left
14.132,-0.47500632147326693,1.1928819686542083,-0.09439308032877498,3.34571518546944,-0.49437301082101276,1.435427047963577,0.23618721158140746,-0.9805028727751202,0.9113032634010194,3,left
14.137,-0.4455052141874415,1.2130143839732566,-0.1556903815261509,3.26881916769025,-0.4641308824591898,1.4702704812876002,0.2367512789272737,-0.978117488636054,0.9125772846583737,3,left
14.137,-0.3608730287155839,1.2076499352931525,-0.19879883733945883,3.3291360659790348,-0.4880249563798839,1.4431408108690915,0.23689633944909136,-0.9768167752733087,0.9138976948665221,3,left
14.140999999999998,-0.23586629022497926,1.1794333709678613,-0.23683773459016436,3.296178982341461,-0.47479819775863585,1.4577649177213652,0.2364008858429796,-0.9797715773714977,0.9115368550866808,3,left
14.142000000000001,-0.09241890273996209,1.138646864621879,-0.2677067985288894,3.303899625082405,-0.4779715992144268,1.454426888825442,0.23706359690837128,-0.976430754419283,0.9138120887584367,3,left
14.145999999999999,0.059165396420770136,1.095480480069003,-0.2930825579805002,3.313202312885938,-0.4819232942685813,1.4505509868965707,0.23623248091337912,-0.9797816690783776,0.9121690817008405,3,left
14.145999999999999,0.2038085713413436,1.0509278112884965,-0.31770686308722684,3.295889808543864,-0.47412635526618924,1.4572490087421768,0.23731344640735547,-0.9762548988307497,0.9131062723592394,3,left
14.15,0.32821043274661205,1.0074973952549833,-0.3359200478786313,3.314190788718352,-0.4830664994008927,1.450979103499906,0.2359889851368211,-0.9800615647720794,0.9127005454400658,3,left
14.151,0.42815610491719247,0.9753303219248011,-0.34583090351812285,3.2994035033323192,-0.4750856597871513,1.455166249404205,0.23729547721328204,-0.9765355865073737,0.9127698442790964,3,left
14.155,0.5001157299048803,0.9533497748392601,-0.3505444747707427,3.307871216220545,-0.48015361160213654,1.4533464804532095,0.23661128528349723,-0.9782165516692748,0.91297337877924,3,left
14.155999999999999,0.5408627812667238,0.9404870928959101,-0.35045303258067884,3.307891810101795,-0.4801773360258278,1.4533550944380158,0.23580161692652496,-0.9807734909589698,0.9123916446340848,3,left
14.16,0.5526985464486076,0.9398077504319486,-0.34408222456613513,3.2974971604309635,-0.4728462457103489,1.4543012579027939,0.23893950625932492,-0.9716265236400934,0.9135405315974765,3,left
14.161,0.5416313726829832,0.9460650953645107,-0.33123366751134864,3.319007007853311,-0.488724992465138,1.4531656795865497,0.23321606003836381,-0.9881076667714421,0.9117401233764623,3,left
14.165,0.5180979221322368,0.9555516009317997,-0.31302773681953583,3.28876682413264,-0.46575722602642927,1.4540144368148926,0.2405307470639042,-0.9671176254352826,0.9139327524726516,3,left
14.165999999999999,0.49037013810727764,0.9646102475712541,-0.2923913578593397,3.319922920806008,-0.489820195452514,1.4536036983397944,0.23443861801626653,-0.9845701650987382,0.912152856046047,3,left
14.169,0.46582151932378413,0.9730798102105234,-0.2674580716331656,3.3022662847507025,-0.47605124488939393,1.4536831660773601,0.23458114484014175,-0.9842050936421187,0.9121227538090205,3,left
14.17,0.4497328243112232,0.9834202975230598,-0.24339675779813005,3.287189462017853,-0.4642379339067389,1.4536858776248134,0.2462571447120005,-0.9506395423345699,0.9157246294549376,3,left
14.175999999999998,0.44231979549671185,0.9902925413274557,-0.22399711990404889,3.3527572342844163,-0.515776398899439,1.4538636798009583,0.21759123291071825,-1.0329879690788601,0.9069853697570899,3,left
14.177,0.4464000175849702,0.9936433288206001,-0.1961256354817149,3.231558074535471,-0.42035252554384284,1.4533526939541552,0.26510854912421566,-0.8965029137374985,0.9214318844437033,3,left
14.18,0.4516774217694799,0.9958169214474617,-0.1756796373777245,3.3869094185025554,-0.542774699975296,1.4541339053908393,0.2024376985396962,-1.076513165747624,0.9023936683150753,3,left
14.181,0.45458952270613573,0.9962012398820382,-0.17060650344936962,3.2573331022484617,-0.44061623486869844,1.4534280941351618,-0.06063762721604077,-1.8320820410636491,0.8224054440133735,3,left
14.182,0.4615662687530886,0.9981969473596884,-0.1556721170847914,3.2608611424992837,-0.4433915087738653,1.453435755805107,-0.12330812384270079,-2.012104745573472,0.8033720890363751,3,left
14.185,0.4641261120169248,1.0008177267874983,-0.1409232359526119,3.5076710317338966,-0.6380773276978802,1.454908554563198,-0.07579379118125201,-1.8756193539255577,0.8178043814672428,3,left
14.186,0.4618339327398591,1.005025633659479,-0.13648128142217894,2.9011046691066573,-0.15958548124182603,1.4512626660805013,-0.1044506372654811,-1.9579161267753422,0.8090948679387473,3,left
14.189,0.44983027142317866,1.012669189136138,-0.1373439616950462,3.906741993822566,-0.9529144827053231,1.457343804382698,-0.09279235721238384,-1.9244911915933807,0.8126487411643214,3,left
14.19,0.4360134425026108,1.0145544664796522,-0.14279259473312272,2.580386738511174,0.0934436537924368,1.4492826663422118,-0.09262439050841731,-1.9238876509322287,0.8126781986852157,3,left
14.19,0.4307755081963026,1.0154172856196977,-0.146336964760574,-2.9861373914366975,4.4848940077577435,1.4148526924070592,-0.09874283820154621,-1.9416308006215122,0.8108479111435676,3,left
14.195,0.4074735178088097,1.0238664757468947,-0.15371231062546692,-4.312283515105048,5.531094350299167,1.4066440020988944,-0.09141463029279626,-1.920415458752637,0.8130469942220716,3,left
14.196,0.37060036771166227,1.0315304616733094,-0.16150309080865197,-3.3070794591623036,4.7381002404987225,1.41303626637958,-0.09712035129047643,-1.9368748090467927,0.8113249968679324,3,left
14.199000000000002,0.33576389087276615,1.0422755337498888,-0.16305563809773116,-3.9129986708693534,5.2160755267555805,1.4089145334840865,-0.0940483585197821,-1.9281955274156455,0.8122812478553518,3,left
14.2,0.2927773611663871,1.0560516965962015,-0.16383070294557112,-3.666949814280331,5.022022208544737,1.4109639607626012,-0.09473914850864668,-1.9297176808404044,0.8119981746497051,3,left
14.205,0.2488951616110449,1.0649065821543755,-0.15927625055852465,-3.662794134317837,5.018686893083492,1.4104699170333126,-0.09557515168305851,-1.9329137968002632,0.8118698383808691,3,left
14.205,0.2084938816345328,1.07533230322393,-0.14384865137839475,-3.7924619003436932,5.1210071790126435,1.4098918238665215,-0.09413866124335105,-1.9278128009580837,0.8121523492787042,3,left
14.209000000000001,0.17104950406586325,1.0836359885597504,-0.12158667464031121,-3.6380293038178477,4.999224708840343,1.411284823991974,-0.09548262534098648,-1.9324501352125507,0.8118666169892639,3,left
14.21,0.1388588542437007,1.0872510546169334,-0.09780549113504192,-3.7569569100546394,5.0928854839161914,1.4091376751194753,-0.0945955538325835,-1.9299093174349928,0.8121372307261816,3,left
14.215,0.10875236181308963,1.0886145865133314,-0.07271255329161727,-3.6949208470124,5.044224165083446,1.4119518775820565,-0.09494600111147042,-1.929473520635958,0.8118034105086794,3,left
14.215,0.08618270792510219,1.0829321933964382,-0.04870694443094807,-3.706054479674683,5.05266452372454,1.408901685007713,-0.09503055231335239,-1.9330124271881703,0.8122971966746328,3,left
14.218,0.07160762721957403,1.0768631027359392,-0.029482288366579307,-3.7262849095754147,5.068897990598587,1.4111528527318464,-0.0946923570313786,-1.9271239529857187,0.811625037155612,3,left
14.22,0.06040858917904296,1.0716909097213536,-0.014894988430454635,-3.6964532888994968,5.045366251460811,1.4113578826359674,-0.0950923613979387,-1.933514615695664,0.8123295547834046,3,left
14.225,0.053704661485246816,1.0634229382031561,-0.005159909836730162,-3.7189376468481976,5.062595987598209,1.4068120826507575,-0.09479889743724317,-1.9296429598010576,0.8119414180526874,3,left
14.225999999999999,0.04995439877777677,1.0569317185952294,0.0031246444172465045,-3.712787318201314,5.0589054581209085,1.416921300885803,-0.09485477217053924,-1.9271928112595866,0.8115130593662512,3,left
14.228,0.0466807953646454,1.049657316061015,0.010326592439449212,-3.702169443362758,5.048796264922183,1.401962377285774,-0.09511573625457188,-1.9393682223137543,0.8132342823940435,3,left
14.228,0.04194841590656434,1.0406769540519485,0.011499618859189053,-3.7222071538876498,5.066451086746849,1.4178552378556453,-0.0945405854833516,-1.9165266650993111,0.8100699252878089,3,left
14.232999999999999,0.03598067887701864,1.0346855405476059,0.006776291072277526,-3.706177783333803,5.052738556244009,1.4086992741344626,-0.09529950572140529,-1.9459151684500129,0.8141269603197606,3,left
14.235,0.0289166986075246,1.0280607261769896,-0.0032167210227442952,-3.701735335774158,5.048313188175374,1.4007507150742224,-0.09465774529358098,-1.9213563268290268,0.8107423548263539,3,left
14.239,0.02258304669873146,1.019869811425579,-0.016116403884214255,-3.74096762728821,5.083291050699348,1.4354192038042504,-0.09470665901309609,-1.922112519928466,0.8108245628407701,3,left
14.24,0.018567902707112907,1.0151203754863887,-0.02675526961212344,-3.6624407510120376,5.013872973972269,1.37116016900075,-0.09582663787092813,-1.9686412912645745,0.8173094017298741,3,left
14.243,0.018934542807449724,1.0107936444649999,-0.03236395389253709,-3.7658349412444254,5.10502937456045,1.4536577386703247,-0.09303694367718501,-1.8541713934675754,0.8013813022277567,3,left
14.244000000000002,0.03073477158748008,1.005462934359171,-0.030657330948395022,-3.67841856714693,5.0280627096274015,1.3847889027324638,-0.0976715909018837,-2.0439956482509114,0.8277883290615579,3,left
14.249,0.04425769827539136,1.00390725908882,-0.026331116756257406,-3.6817401259565656,5.030896790236435,1.3866530438385496,-0.09155825738850226,-1.7936159499082636,0.7929573176135658,3,left
14.25,0.04985325087873377,1.0022313761813464,-0.024014131599688213,-3.846650666445801,5.176263565807778,1.5179685551038191,-0.06594016602853936,-0.7427808852316213,0.6467434361719977,3,left
14.25,0.06592412540338738,0.9970757841018837,-0.0157881179275807,-3.4396057246143963,4.817622780255727,1.195209571695694,-0.05983201762975687,-0.4924111699737669,0.6119098599781201,3,left
14.253,0.10142872629980236,0.9914992979369468,-0.000775759946404136,-4.115329545628035,5.412911699404205,1.7303628035330525,-0.06446051775773282,-0.6822254436759783,0.6383203006212702,3,left
14.254000000000001,0.12590094197839324,0.9878444733241816,0.006947390470865632,-3.2236428859615716,4.627409423582369,1.0244916294287534,-0.06167059249031393,-0.5677485335772672,0.6223909934207987,3,left
14.259,0.13291117105300004,0.9867581198857657,0.010117106268626615,0.5191852957922096,1.3302336804527417,-1.9382868627371606,-0.06280525777197045,-0.614319120504307,0.6288712932843543,3,left
14.259,0.15755113438637403,0.9801588219782643,0.022294960403031833,1.4111136404863407,0.5445482190035208,-2.6441729989281977,-0.06281995143186123,-0.6149893422163728,0.6289663844828051,3,left
14.26,0.1916575624957377,0.9679381803705427,0.036274940387380564,0.7348755341812617,1.1402347724322266,-2.1090051429516348,-0.062229353588953575,-0.5905505634603219,0.6255608116113283,3,left
14.263,0.21428919088580264,0.9594696422823668,0.04297505118401871,1.1427164424818326,0.7809629457625641,-2.431752430316386,-0.06293470587492275,-0.6198235098934934,0.629641843067072,3,left
14.264000000000001,0.2301861782675419,0.9512670009453119,0.04135063760533697,0.9768272823639125,0.9271286502588798,-2.300502035854862,-0.06238753549025031,-0.5970243838918682,0.626461342927749,3,left
14.267000000000001,0.23397145554672275,0.9463633217185844,0.03458101288549884,0.9743781285719619,0.9292166555349582,-2.298505416733102,-0.06268328418947436,-0.6093161450739923,0.6281752998597938,3,left
14.267999999999999,0.2255736312671533,0.9498103541398699,0.030046820887521024,1.061530949368719,0.8525408035264668,-2.367558091580094,-0.06260781590560849,-0.6065206515476202,0.627793295184034,3,left
14.274000000000001,0.20610544374359185,0.9542037556687057,0.024303103631613435,0.957166036943714,0.9443804949227905,-2.2848850854113145,-0.06255161190574009,-0.6032273226374925,0.6273122630296248,3,left
14.275,0.17845391991675252,0.9598354160895887,0.01330370821556598,1.0384015870812977,0.8728610829209589,-2.3492056523552023,-0.06264881285185117,-0.6089259813507761,0.628144615688196,3,left
14.277000000000001,0.15064737274491102,0.9645669836207126,-0.0015041510984079866,0.9947267893082257,0.9114146419947629,-2.3147204522095497,-0.06256938972616732,-0.6035627001019999,0.6273498870653171,3,left
14.277000000000001,0.12035651034826461,0.9664044452056886,-0.019045891189291064,1.0044023117000231,0.9026324369002469,-2.3221347439917874,-0.06261628706645296,-0.6071672905029365,0.6278901132152594,3,left
14.282,0.09141472524130126,0.9698829544951715,-0.0357347465297405,1.016569205580331,0.8923605217216564,-2.3321793862228497,-0.06257817554594353,-0.6056169536464528,0.6276747267245687,3,left
14.283,0.06737442485225649,0.9713069125548689,-0.04864832918659512,0.9957958035588453,0.9101129533551473,-2.3152297701496716,-0.06265160109189946,-0.6055125343730625,0.6275884282120514,3,left
14.287,0.042860218501714314,0.973739301791259,-0.053828351148320915,1.015185267110008,0.8934685153512565,-2.3309805547361586,-0.06250449701083721,-0.6066039489735422,0.6279043356715122,3,left
14.287,0.020371945941620638,0.9798713875260847,-0.04720354515208652,1.0025620207960144,0.9045924206648344,-2.3209950163585287,-0.06272884468144574,-0.6051741061872717,0.62746064374063,3,left
14.293,0.002039763057306909,0.9850060583105866,-0.029891334311245982,1.0070664051080365,0.8998156839087856,-2.3238036711374614,-0.06248322634106668,-0.6064352977359586,0.6278970246846476,3,left
14.293,-0.0172817965439762,0.9910256328006878,-0.00974807150697444,1.0093743119381076,0.8996305712602131,-2.327357303786438,-0.06262513444949462,-0.6057038755421906,0.627644528816127,3,left
14.296,-0.03538379649614526,0.9953842333741519,0.00689087898593572,1.0029134770216288,0.9025655580133372,-2.3196676571928063,-0.06276151103634886,-0.6056562183964909,0.6275078914370447,3,left
14.297,-0.05050685648648123,0.9977962278461231,0.01616550201028393,1.01036248731913,0.8989415771440952,-2.32830962697307,-0.0621827063588574,-0.6066190509637337,0.6282106699619365,3,left
14.302,-0.06504950357478004,1.0011812165157297,0.009214950016988702,1.005171454937421,0.9018176700851634,-2.3226140161160576,-0.06325534042378057,-0.6047961938835802,0.6269022424142293,3,left
14.302999999999999,-0.07499096801242133,1.001479290265907,-0.012990937454503361,1.0050916881892542,0.900422860578631,-2.3211833532232706,-0.06187669751691255,-0.6070882030013619,0.6285754882694896,3,left
14.309000000000001,-0.08269405565835095,1.001986950849731,-0.0402902905266775,1.0126337529455003,0.9001856578950227,-2.3331391037297227,-0.0630284164751482,-0.6051971193672594,0.6271818094357524,3,left
14.31,-0.08516477214289735,1.0059645925678502,-0.0646855391348353,0.9973497904084104,0.9017703966637135,-2.3099395436379804,-0.06299821300262334,-0.6053088074414281,0.6272276777589686,3,left
14.311,-0.07833253399354453,1.010343822493605,-0.07610344774477168,1.0172647074725967,0.8994782537803159,-2.3399591081531104,-0.06079702247063532,-0.6086550738878107,0.6298496818646246,3,left
14.312000000000001,-0.06989377893765122,1.015274917276935,-0.0797069156765165,1.0005234854185396,0.9014965714655789,-2.314804506180102,-0.06620716478923556,-0.6003855763363484,0.6233994118328501,3,left
14.317,-0.04939741466286578,1.0169203728299152,-0.0897834127935761,1.0014229849740584,0.9010413465008082,-2.3158422306298165,-0.05723610837388606,-0.6140910994476687,0.634093108946119,3,left
14.319,-0.033119266266384145,1.0162264710327382,-0.09818111649504876,1.0318750183628111,0.8985055327252078,-2.362634904876094,-0.0690697692085944,-0.596029565061012,0.6199906699630373,3,left
14.32,-0.030784946341984646,1.0168926815264752,-0.09953537780354604,0.9565071802656314,0.9052116865480312,-2.2472049906818032,-0.11873010929287534,-0.5203638780099495,0.5608084379782875,3,left
14.322000000000001,-0.0010731727683525472,1.0115742563698913,-0.10427839394452536,1.0815980439575892,0.8939688744357308,-2.4386995982741504,-0.130563796860088,-0.5023259310231313,0.5467089935855214,3,left
14.323,0.02685963167097103,1.0055800192528908,-0.10923059316634212,0.9166030049805911,0.9088102243319789,-2.1861128745666134,-0.12159433309675251,-0.51599467844641,0.5573988758292463,3,left
14.325999999999999,0.03154095486734791,1.0045157643863851,-0.1092571561862424,0.22457431747869422,0.9705038569680895,-1.1263721728760014,-0.12699872075233742,-0.5077553426183856,0.5509494099097924,3,left
