time,gFx,gFy,gFz,ax,ay,az,wx,wy,wz,subject_number,foot
12.911,0.3052349555810426,1.0782014999115714,-0.07070223485128475,4.564121227921147,1.337803023275232,-0.2573538270323944,-0.07110355270339518,0.2333898315384454,-0.5634463401067094,3,right
12.915,0.30212900600247583,1.0613135139966632,-0.08548644590388828,4.5802322409743645,1.3394390367554732,-0.25883414601411847,-0.07093220820318336,0.23535981346332724,-0.5625108545030812,3,right
12.915,0.30394051619551726,1.0343151856169883,-0.10524591822983498,4.552321723236966,1.3365968879211754,-0.25627087285780253,-0.07104523115087552,0.23412500516892504,-0.5645071326832254,3,right
12.92,0.3063186091683825,0.9945710789444329,-0.12069891240736674,4.5775409243552,1.3388129517335408,-0.25854528860830767,-0.07097690886967428,0.23481774840893935,-0.5621591750840574,3,right
12.921,0.312686878731644,0.9450635956204272,-0.13303156570042118,4.56115406175376,1.3375698430264897,-0.25709075128521064,-0.07098142915821459,0.23483556846385895,-0.5636633613631892,3,right
12.925,0.3148312324562131,0.8869634471045277,-0.14453530563383432,4.5697877983232065,1.3387961113403257,-0.25792346235412905,-0.07109400788758195,0.23355120990520592,-0.564501315146182,3,right
12.925999999999998,0.29875023212078855,0.8209437243968476,-0.15213014456291385,4.5636725500366655,1.3359561833412736,-0.2571038246832425,-0.07080178622236055,0.2367742799318473,-0.5599876613174588,3,right
12.93,0.2691632592793307,0.746440806875933,-0.151925580379554,4.57291252128069,1.3417787273504869,-0.25852117942690134,-0.0712963908104742,0.23136360906189615,-0.5685584390279215,3,right
12.931,0.21431671144036785,0.6655401991446128,-0.14077181700887595,4.558030954417408,1.3329379892589097,-0.2563008042492184,-0.07067828886686037,0.2381070212076984,-0.5574807210625718,3,right
12.935,0.1460263598008511,0.577556905323765,-0.12156903187466112,4.575351877068261,1.3425677582078088,-0.25880820426595763,-0.07118722884646643,0.23256346513541246,-0.5667600056059924,3,right
12.935,0.06330831741129407,0.484452049901005,-0.10089233615463802,4.565361263075663,1.337005913363769,-0.25736116552002475,-0.07118426547241247,0.232580805910252,-0.5664605117065213,3,right
12.939,-0.03560411023929044,0.40129818187601307,-0.08317023065732534,4.553509568545655,1.331755720054045,-0.25580136792248065,-0.07018496674157987,0.24350428621137502,-0.5488949207673784,3,right
12.94,-0.12909345842470163,0.3342622798486419,-0.06154815370316299,4.601180133864183,1.3541430397722234,-0.26222273016552144,-0.07262568567686772,0.21684747991835146,-0.5921398359665743,3,right
12.945,-0.2714481376909075,0.29842388611634074,-0.038153530263635715,4.5129872827489566,1.3126548515662186,-0.25033499142412174,-0.06858440169484428,0.2609735297744442,-0.520409722841926,3,right
12.946,-0.3834634977654795,0.2986530018236654,-0.028362023775772894,4.626495418529881,1.365965623777858,-0.2656246071412588,-0.073913233996142,0.2027973608022311,-0.6150334948330269,3,right
12.949000000000002,-0.41247709392348375,0.3019260929159454,-0.027841522185387345,4.531616492549796,1.321441660966562,-0.2528492667192778,-0.09628636082793868,-0.04149735678121323,-1.0121642945189089,3,right
12.95,-0.5259434608369301,0.34845869584732747,-0.027269975923933643,4.533832017013234,1.3225994949060533,-0.25316006987495976,-0.10161637364628615,-0.09967021190324686,-1.1067972001161321,3,right
12.950999999999999,-0.6818927399721284,0.45392041402976335,-0.028456380373209328,4.716227110179311,1.407700603568891,-0.2776650937907204,-0.09757435248241483,-0.05556258509483257,-1.0350481420106976,3,right
12.954,-0.787206687637576,0.5731469578755249,-0.018933077545168854,4.268205921523121,1.1985674579039542,-0.2174641836642171,-0.10001267272951639,-0.0821681995623664,-1.0783214002099037,3,right
12.955,-0.8766384333537991,0.7437164762275712,0.011542881736657313,5.011048610911235,1.5453242783337386,-0.31727862615198665,-0.09902155440439919,-0.0713411744435794,-1.060722408560494,3,right
12.959000000000001,-0.9105877114119552,0.8663711821042761,0.03330234691545116,4.031186011488262,1.0879411105030115,-0.1856203405364099,-0.09900362441075397,-0.07118868120714,-1.0604505679623875,3,right
12.96,-0.9104317129325903,0.8965859139955206,0.03892882012886552,-0.08277172403958277,-0.8320355793946793,0.36712033696360746,-0.09953191433364042,-0.07686806795229442,-1.069725600789463,3,right
12.96,-0.9062043641503005,1.0103713943854968,0.055880366318249,-1.0626857703316257,-1.2894386638981499,0.498778635927714,-0.09889717820277298,-0.07006178214942493,-1.058607900932971,3,right
12.964,-0.8621084432386853,1.1563878642245886,0.06824325910070722,-0.3197626686062725,-0.9426507133028258,0.39896417065241063,-0.09939406870805395,-0.07536516549378096,-1.0672780387883352,3,right
12.965,-0.7859130338534113,1.248123219540724,0.06134369535792926,-0.7678503528739398,-1.1518096017040111,0.45916510484528483,-0.09912740125519096,-0.07250581213923815,-1.0626095164261353,3,right
12.969000000000001,-0.6876901908167883,1.3368599475668927,0.04396599994916392,-0.5854591655527004,-1.06671000463965,0.4346600678968255,-0.09917705402979951,-0.07315138779408939,-1.0636208561565823,3,right
12.969000000000001,-0.5646817779618241,1.4008255281220747,0.015738105206457298,-0.5831144964336223,-1.0655021755175178,0.4343492520710751,-0.09927898659102266,-0.07393170461742515,-1.0650110641248296,3,right
12.972999999999999,-0.4278603067493535,1.445617251847895,-0.00838525677821593,-0.6782752592479697,-1.110135245320872,0.4471246432547007,-0.09910281605689346,-0.0725807409544047,-1.0626067730107818,3,right
12.974,-0.2833039733903341,1.4792201798847686,-0.01812773602435993,-0.5643657168460138,-1.0566690766366258,0.4318349362724758,-0.09928432655464337,-0.0738602481869148,-1.0649410783979487,3,right
12.98,-0.13452114124200265,1.48948608132822,-0.016098384202261555,-0.652956019435023,-1.0983111309940752,0.4437227900079057,-0.09915389348029258,-0.07299598866654891,-1.0633338420068186,3,right
12.98,0.009867126796397407,1.488248358876176,-0.0023719910980727274,-0.6051133923477217,-1.0758571991101515,0.43730133189154663,-0.099186451079609,-0.07335610978189218,-1.0639175863153596,3,right
12.984000000000002,0.14670076712265925,1.4688412401400592,0.016017335824491497,-0.6166304007013059,-1.08097782831448,0.4388611385838219,-0.09928824705045064,-0.07342969406659969,-1.0644114344296343,3,right
12.985,0.27199470108155793,1.430953042238468,0.030250270476614157,-0.6277022700169401,-1.0869582562193947,0.4403083317920845,-0.09903739963425745,-0.07306320265972613,-1.0629606111152188,3,right
12.988,0.3758804609969787,1.3799363599859804,0.03250278122183302,-0.6085186713671096,-1.0766073917028203,0.43780056158957464,-0.0994074422495535,-0.07356390076662761,-1.0650499507899132,3,right
12.989,0.45182209040814747,1.31748919912285,0.02578875654466565,-0.6256852969140276,-1.086332745585111,0.4400215016320036,-0.09901851817627019,-0.07309130279207413,-1.0629221618264202,3,right
12.995,0.5007674351941289,1.2533884958174606,0.019273530277910057,-0.6146243966587577,-1.0798052590161182,0.4386035311561057,-0.09924337801719778,-0.07336487574587525,-1.0641525096346773,3,right
12.995999999999999,0.5206453239036175,1.1883784638692811,0.008067502857209818,-0.6207224548509078,-1.0826385447077775,0.4394235443545507,-0.09942455043824158,-0.07346568801218434,-1.0649931512497814,3,right
12.997,0.5177245561622624,1.118037588737304,-0.002891901609606086,-0.6154691946841342,-1.0827209433499005,0.4385911016166847,-0.09861506107870854,-0.07285009794250553,-1.0610297528838286,3,right
12.998,0.503398127655847,1.0373191967692053,-0.0012609944638486423,-0.6241329007740162,-1.0809742018735617,0.44004433482065797,-0.10011728332411002,-0.07400000045127186,-1.068393698497386,3,right
13.003,0.4653817761925513,0.9287334702659611,0.00762949577819916,-0.6104332405694803,-1.0832176943107485,0.43777241800369093,-0.09818917036237093,-0.07253516116579777,-1.0589567098168104,3,right
13.004000000000001,0.41603048734797754,0.8035246781561963,0.02519173642374285,-0.626066296423184,-1.081306847969713,0.4403323500731925,-0.09979870386914733,-0.0737522855932278,-1.066826282831821,3,right
13.008,0.3386000734579472,0.6504340900544918,0.04948640175527866,-0.6170447346378927,-1.0824154321789639,0.43885511696939944,-0.09975309531440191,-0.07370666513663426,-1.0665913998564345,3,right
13.009,0.21734079246518673,0.4751706676810902,0.06591537745870993,-0.6069847434071777,-1.0823076625158787,0.4372737255184846,-0.09669137895555172,-0.07144287181149732,-1.0516814841239668,3,right
13.013,0.0847245920893844,0.3139857855095096,0.08034233594446838,-0.6480559987336731,-1.0814043682436232,0.4437949067139735,-0.1042191866394464,-0.07701460728637519,-1.0883431597536042,3,right
13.014000000000001,-0.11322103295950764,0.12110485059656449,0.09733068181087925,-0.5720361613526616,-1.0831462914286387,0.43172218014760166,-0.09173669777958432,-0.06777986192388694,-1.0275600930634066,3,right
13.017000000000001,-0.27157719650259265,-0.007526397056575493,0.10510529185924143,-0.6698386546137982,-1.0809998485213685,0.4472484703312018,-0.1082018665475062,-0.07995458635850215,-1.107725083372762,3,right
13.017999999999999,-0.3092596728426472,-0.040024736370415315,0.10517304279922429,-0.5881018841934704,-1.0827486669976256,0.4342764406683891,-0.17729765813861675,-0.13104805652957374,-1.4441781688687438,3,right
13.017999999999999,-0.48273119394026176,-0.14451534127621687,0.10951686803214274,-0.5900744786225347,-1.0825961012180696,0.43459129484413195,-0.19376429956715158,-0.14321369886438068,-1.5243317481208503,3,right
13.024000000000001,-0.7449231868574016,-0.2575993682802252,0.11704328043393789,-0.746953434314015,-1.0797228363962832,0.45947373838219274,-0.18128045937853088,-0.13399141999678568,-1.4635653243796518,3,right
13.024000000000001,-0.9423262111769468,-0.2989581693041977,0.12796527381274642,-0.36154511315862964,-1.0868565261804068,0.3983478691548804,-0.18880680392571864,-0.13955754085414962,-1.5002164757687564,3,right
13.027000000000001,-1.2110258406287593,-0.28290780122075043,0.1514557966729564,-1.0005881012594775,-1.075045818440202,0.49969457034701026,-0.1857521398483824,-0.13728043265454754,-1.4852969841748838,3,right
13.027999999999999,-1.3936328203175266,-0.23846303114976367,0.16957248046892565,-0.15763408902308934,-1.0905896706365643,0.3660147567468116,-0.18569253796346125,-0.13727634098426517,-1.4851036669127764,3,right
13.027999999999999,-1.4339470799824494,-0.21643651251506757,0.17368454477707074,3.3813082475462233,-1.1557219060901753,-0.19531097883720897,-0.18732118987821772,-0.13842360922100067,-1.4928968601279173,3,right
13.032,-1.5926343101288996,-0.12068842511546546,0.18221194361389192,4.224357112186633,-1.1712283968764714,-0.32900787877654014,-0.18537521966464804,-0.13704121389886825,-1.4835568944678634,3,right
13.033,-1.7741176595525712,0.05042158937280059,0.18505241942970285,3.585158700826916,-1.1594588781562498,-0.2276206137488915,-0.18688295435767388,-0.13813162103689972,-1.4908400436197633,3,right
13.037,-1.8462323899483306,0.23109348462933849,0.177533514495269,3.970715006567759,-1.166605227381885,-0.28881765122887654,-0.1860938518008251,-0.13750036071588634,-1.4868830451924322,3,right
13.038,-1.8559032547950376,0.44476995510692097,0.17058691960020453,3.813790914541954,-1.1636034728010745,-0.2638353134334862,-0.18621804440193346,-0.1377464802877015,-1.4878574022336817,3,right
13.042,-1.7767607233225111,0.660401200876815,0.153913157976245,3.811657862857408,-1.1637311087924762,-0.2636276926176886,-0.18653614930598655,-0.1377158564348671,-1.488769752203497,3,right
13.043,-1.627257162870599,0.8641705253676227,0.1171727485893248,3.8938309186218123,-1.165075177847966,-0.2765321993319515,-0.186038028075807,-0.13767373099489466,-1.4871252309872423,3,right
13.046,-1.4298679691268275,1.0570290534482147,0.061587284789964135,3.795336373645386,-1.1633355300500585,-0.260965439722789,-0.18648730539908404,-0.1377458902815029,-1.4886903892826475,3,right
13.047,-1.1921852149234824,1.2206748268203316,-0.00555551396275405,3.8721331994883643,-1.164894955689693,-0.2732556409754671,-0.1862551676067368,-0.13757200135629016,-1.4875545648020214,3,right
13.052,-0.9392234075553375,1.355658370937455,-0.07938708024360902,3.8305538696791706,-1.1636584301252832,-0.26630832855099534,-0.18616863117181137,-0.13799031903825837,-1.488287944645593,3,right
13.052999999999999,-0.6762151197177341,1.458239192023512,-0.1522314668608648,3.840354176886228,-1.1646517101488518,-0.26846952910685096,-0.18659892197578387,-0.1372061851964104,-1.4877442089998882,3,right
13.056,-0.4171079414947772,1.5284693366635869,-0.20695195834176774,3.8508996015973898,-1.1638475409613491,-0.2693978380234514,-0.18590133994426739,-0.13833486338201917,-1.4882842753079686,3,right
13.057,-0.17026384385656262,1.5671483378023203,-0.22996152799180647,3.8322534988263532,-1.1643005294706659,-0.26703357071817113,-0.1866553109691852,-0.13713926380673175,-1.4877589343162567,3,right
13.062000000000001,0.05370890911442339,1.5783390476822052,-0.2159603825420585,3.8500622627853125,-1.1646352584831066,-0.26986360695697176,-0.18620334181274834,-0.13781808470926693,-1.487982895070353,3,right
13.062999999999999,0.237919955861147,1.5647325665179361,-0.17322627012016048,3.8375063833386927,-1.16292661075645,-0.2667713463690202,-0.18589471080605574,-0.13846288368345955,-1.488570516475018,3,right
13.065999999999999,0.37908490413336493,1.527223510778565,-0.11813815595830933,3.844145976127162,-1.1664259420224128,-0.2703397598869197,-0.18737788697108643,-0.1357383896699303,-1.4866443709149884,3,right
13.067,0.47589639628645786,1.4689144165245764,-0.06659957674985251,3.8420078861670697,-1.1613481235352938,-0.2662484912751021,-0.18460350637187056,-0.14077358137330276,-1.490100201845228,3,right
13.071,0.5195087980218149,1.383045515505605,-0.03268643411065855,3.8414453393461834,-1.1667092185035113,-0.27015883819283126,-0.18817116626670838,-0.1343118038579457,-1.485688422231992,3,right
13.073,0.5285666496539121,1.2811166148732132,-0.02059887096263738,3.843675145944132,-1.1636462367591989,-0.2682020349909326,-0.18519076509323767,-0.13970530002259096,-1.4893617692298338,3,right
13.075999999999999,0.4931308019942652,1.1633743220053758,-0.024237356138698256,3.8396756575786313,-1.1608979950883804,-0.2655745148785068,-0.18527923007550828,-0.1395643150399044,-1.4893011738156972,3,right
13.077,0.4197832121499679,1.035759324047215,-0.033523195389818114,3.84625528347303,-1.1727269636585085,-0.27533798774055035,-0.19093620828087632,-0.129262625384173,-1.482167901322883,3,right
13.081,0.34837708774166365,0.9168924645712878,-0.0356850148001762,3.836633008271173,-1.1508364632686354,-0.25764203358366744,-0.17702329000605393,-0.15457791775282995,-1.499656271706764,3,right
13.081,0.22305284052699179,0.7818578097483115,-0.022500619260525746,3.848060755871328,-1.1789289207556803,-0.28021600140654324,-0.20009334514753835,-0.1126043555531054,-1.4706696820982255,3,right
13.085999999999999,0.13162512460584408,0.6922388163907036,-0.009230910415615294,3.838908792175046,-1.15548148645556,-0.26143378595358646,-0.16966442433875956,-0.16796827443072032,-1.5089037260604137,3,right
13.087,0.10469718824659718,0.6728001408537216,-0.004876736903079614,3.838561942876596,-1.1561089952857135,-0.26184301505849195,-0.04193528303271861,-0.40033157009794607,-1.669394791440792,3,right
13.088,-0.019325658336543452,0.6090680700623841,0.014384471774107685,3.857596789014973,-1.2008383649108527,-0.2979199624751728,-0.01150685757510696,-0.45569498950024206,-1.7076320774393454,3,right
13.09,-0.18310210643553623,0.535591585127117,0.04069785139439182,3.8116657366154287,-1.0909074051134078,-0.20939210152006793,-0.03457836018492306,-0.41372642296281453,-1.6786487613010985,3,right
13.091,-0.37110784327906493,0.5242344190952655,0.04261835222931284,3.887505698050031,-1.2731770715342634,-0.35611894108396547,-0.020658212800231408,-0.43902614020418096,-1.6961117786254736,3,right
13.095999999999998,-0.519857127645789,0.5246091731705318,0.0372451782025178,3.787581848922621,-1.0327626112025656,-0.16260900716903254,-0.02633145204826754,-0.4287551913513248,-1.689039658864917,3,right
13.097000000000001,-0.555771033807225,0.5297189228197949,0.03156697834639141,3.368015860642278,-0.023737049272559096,0.6498090097909052,-0.026394605053506198,-0.4285697978873255,-1.6888805662817121,3,right
13.097999999999999,-0.6919763355867098,0.5674732564203201,0.0018002532760821154,3.268124543294788,0.21667257947240967,0.8433188960651956,-0.023442749646541763,-0.43400956614903113,-1.692668653520653,3,right
13.1,-0.8766796608296361,0.6365938531219812,-0.038952699159737814,3.3438170296918397,0.03442482518088778,0.696592282961237,-0.026991659965624033,-0.4275234462852973,-1.688175698394345,3,right
13.100999999999999,-0.9900309723599725,0.7242200155397458,-0.0727301048233495,3.298270281539236,0.14429867560789875,0.7851195439635037,-0.024207401429881724,-0.4325287802448806,-1.6916051234604372,3,right
13.105,-1.1008468608956268,0.8188281671732215,-0.09911672585710465,3.3166020019162037,0.09967380132157645,0.7490437028465293,-0.025748080647927316,-0.4299181905717028,-1.689890237117127,3,right
13.106,-1.1661770763572321,0.9132204596084555,-0.11709721947301469,3.3172202885896023,0.09890285086825777,0.7486329466953788,-0.025325444657006133,-0.4303560698836869,-1.690040859211039,3,right
13.110999999999999,-1.1880291475788254,0.998878004761675,-0.12956837155857404,3.3071230323294314,0.122490787043211,0.7674166684638833,-0.025029472941240867,-0.4313005876540082,-1.6908795332762259,3,right
13.112,-1.1825922379803402,1.069335741114258,-0.14002023272820335,3.3189443468438697,0.09433981517067419,0.7448420539935627,-0.025634943843127304,-0.42987538373805856,-1.6897466210227985,3,right
13.116,-1.125371076874582,1.123569850529384,-0.15783456460209208,3.3101693990657264,0.1161044140823364,0.7625367025692444,-0.024991583161281396,-0.43104297039927186,-1.6905516787203438,3,right
13.116,-1.0376049808991277,1.15957723141616,-0.18180731500836586,3.3140673246551335,0.10467397617714842,0.7527774362793613,-0.02557010288775559,-0.43059105954183696,-1.6905154382669703,3,right
13.12,-0.9264405849213463,1.1754618681992433,-0.20683462621225435,3.3146742076405324,0.10673762123464403,0.7553976874621586,-0.025043954245813058,-0.43017570774523584,-1.689598071975053,3,right
13.120999999999999,-0.794706606875699,1.174152977500043,-0.2368876857304555,3.311256174152784,0.11064002290489285,0.7573634491347063,-0.025548605393198864,-0.4313053207896632,-1.6913189160794555,3,right
13.125,-0.657611384210212,1.1574567233858288,-0.26476085828411466,3.315193729815036,0.10461003171903877,0.7534458954556402,-0.02511313540378696,-0.429914516246075,-1.6893554851984462,3,right
13.125,-0.5272896494907682,1.1192132649341802,-0.2839274748789246,3.313100513851462,0.10968131985250991,0.7575372505867249,-0.02529610278766907,-0.43084325853320476,-1.6905765117441844,3,right
13.13,-0.4137687866779771,1.060274423351704,-0.28625407402500214,3.3113768472266574,0.10742478504744082,0.7539818672179313,-0.025667252015145664,-0.43125479657794463,-1.6913599736721379,3,right
13.130999999999998,-0.32837012504965657,0.9920634799361782,-0.2640209758959693,3.3179274925264375,0.10629391268020559,0.7570440724500844,-0.024436562176625855,-0.4287359428288359,-1.6874346127527615,3,right
13.134,-0.2769915640114342,0.9203836465593704,-0.22315311263313833,3.3072352749006484,0.11019506730445322,0.7542590994137939,-0.026626048660743862,-0.4335767653268989,-1.6948317102424344,3,right
13.135,-0.26191338113832396,0.8596009034736867,-0.16798675366460394,3.318969884754696,0.10522657275936259,0.7565750499890485,-0.023847865318609572,-0.4272997909695592,-1.6852909106637841,3,right
13.14,-0.27124813180228324,0.8148800277909705,-0.10855294750257602,3.311964343550327,0.10863978874513994,0.7556751340382509,-0.02615357308583279,-0.432565955732633,-1.693274393695713,3,right
13.142000000000001,-0.302264825566805,0.802866584246321,-0.06194523900380159,3.306625577229627,0.10989564121382657,0.7535369164366987,-0.026111815878376264,-0.4323835928621387,-1.693029650076856,3,right
13.145,-0.3542225722305955,0.8268184087177713,-0.038404678480187304,3.3312820601877093,0.10128898781790872,0.760380501978484,-0.02166000494339885,-0.42244800531580706,-1.6778826362714727,3,right
13.145,-0.40869460112051365,0.8657277792624936,-0.024189654131026757,3.2852517030315083,0.11798384560379349,0.7482839768495978,-0.032572925724478646,-0.4469260813962389,-1.7151543398362117,3,right
13.149000000000001,-0.48349007122794563,0.9555443971129116,-0.004566479833323283,3.344466009683424,0.09628407214187581,0.7636007286427781,-0.01448867542875213,-0.40631853713266,-1.6533391611635482,3,right
13.149000000000001,-0.5390409552173936,1.027783441391012,0.010316891807060202,3.294986066149977,0.11450840397225162,0.7509069000113403,-0.03833971603505262,-0.4598876415109475,-1.7348807792505054,3,right
13.155,-0.5536341850673463,1.0490762571072807,0.015249019184319321,3.296393184090909,0.11385124130957855,0.7511042299541703,-0.13845865346011277,-0.6847121658104534,-2.0771174762936395,3,right
13.155999999999999,-0.6091722495757028,1.1338775827352197,0.014770806726323254,3.390559947196708,0.07953941595100354,0.7756959273594395,-0.16231501788953398,-0.7382829602841525,-2.158666064423577,3,right
13.155999999999999,-0.6751382597985008,1.2429834122323247,0.023036005688309685,3.1590136536673477,0.1641055517242775,0.7154681778072685,-0.14422462435535102,-0.6976688101287012,-2.0968372517885188,3,right
13.158,-0.7089258978736019,1.3488140912356528,0.010814441524034598,3.5429611827471534,0.023810418880567986,0.8152416547747815,-0.1551367117387476,-0.7221631121355456,-2.134127668177899,3,right
13.159,-0.7259415774655991,1.4310240620738024,-0.005946459770903943,3.0365280929815626,0.20887944634509784,0.6836795177933965,-0.15070120917609903,-0.7121987050507673,-2.118961177846739,3,right
13.163,-0.7241958431168967,1.4520476806062699,0.0042298194922567684,0.9107691762907622,0.9857271996336563,0.13121442582490164,-0.15062249288262258,-0.7120550457159132,-2.1187286174586166,3,right
13.165,-0.7261797485523388,1.5291093980884298,-0.03739787207130532,0.40434299467600054,1.1707793630145074,-0.00032464519210798765,-0.1529826896635343,-0.7172843759807176,-2.126718429119932,3,right
13.165,-0.7039245810068973,1.639408434703665,-0.02684166247039864,0.7882913638788525,1.0304824692171612,0.0994077741476389,-0.15014837571504014,-0.711020774858069,-2.1171416022356713,3,right
13.168,-0.7106652194772336,1.6991658317883724,-0.001229855327745175,0.5567127782540611,1.1151264090265651,0.039227565971778094,-0.1523655572778725,-0.7158991058800305,-2.124609445071507,3,right
13.169,-0.7637392731262623,1.7450373053710837,-0.10319850502851999,0.6509650467325307,1.0806079663528383,0.06378446548053318,-0.1511750555240732,-0.7132690435989624,-2.120587823947081,3,right
13.175,-0.7072577822134306,1.8099092683961504,-0.02387874369101879,0.6522287489418312,1.0802977671558582,0.06397811787475127,-0.15140297249047557,-0.7138672508858541,-2.121462546992393,3,right
13.175999999999998,-0.6159535605149556,1.9164761738391425,0.1547829351325294,0.6029219618177015,1.0981027631651457,0.05135244973353621,-0.151840544174841,-0.7145717544903182,-2.1226505442725756,3,right
13.177999999999999,-0.6079253774161764,2.00102822079988,0.12273191190277276,0.6620044021163283,1.0767229574471615,0.06652277551765069,-0.15108433952037237,-0.7133527026427486,-2.1205957435844844,3,right
13.179,-0.5614708323845667,1.972999439425626,0.041069097377884084,0.615955622190742,1.0934610002892091,0.05463529907948045,-0.15185701030571835,-0.7144999439354238,-2.1225864725899317,3,right
13.184000000000001,-0.44697926799358484,1.854922497222666,-0.07900350883715684,0.6408988968353992,1.0841619552022164,0.06126850681798719,-0.1513049835138448,-0.7137288994850897,-2.1212179303670977,3,right
13.185,-0.3285763891682944,1.7266431633364667,-0.1629450153545867,0.6349348788738782,1.0869297065042374,0.05922972768038795,-0.1514508163056707,-0.7140607362604894,-2.121721394192101,3,right
13.187999999999999,-0.23352057768108264,1.6224697695243555,-0.06629994248736526,0.6288371594498102,1.0881457587879928,0.05848675874440136,-0.15184787092787122,-0.714082394069643,-2.122115748390744,3,right
13.189,-0.19448045063639885,1.5247603740877465,0.022352317081859745,0.6396376789687063,1.0854405158631977,0.06026143631824476,-0.150859271658136,-0.7138502333882845,-2.1209363443376885,3,right
13.193,-0.20824312213662544,1.4272476888117538,0.046913579295071825,0.6294211659200246,1.088184587128755,0.05842893848613044,-0.15231515445561572,-0.7141542924844779,-2.1226315452650426,3,right
13.194,-0.2590066707107911,1.3403627439290027,0.08120903321144546,0.6365953924855341,1.0855530784210217,0.060300201838679665,-0.1507882646247412,-0.7138862467980727,-2.1209096826737204,3,right
13.198,-0.3473645603132216,1.2696410292321034,0.10020231235929908,0.6325679079733604,1.0888632247562378,0.057729279885212946,-0.15167066655938774,-0.7140420429364889,-2.1219061722017063,3,right
13.199000000000002,-0.46818338401687565,1.2100101850484581,0.08893634903754877,0.6346167832560248,1.0839148380262438,0.061745446393889764,-0.1523760829464355,-0.7140505594515107,-2.1225730831977527,3,right
13.202,-0.6016632751404065,1.1582426005983821,0.06935227594345067,0.6332738507293446,1.0906696741172093,0.056199338549112625,-0.14921760527182026,-0.7138496444056251,-2.1194039656356596,3,right
13.203,-0.724162394400331,1.1192761549490544,0.07025867704877413,0.6343863646831197,1.0835867122342058,0.06202874355799197,-0.1550783249731143,-0.7142311559781095,-2.1252952322264784,3,right
13.208,-0.8370785223846741,1.0877315840032344,0.07931318824744116,0.6342474892231651,1.0874929734535475,0.05879123432492924,-0.14755776422755507,-0.713750749522285,-2.1177444397190097,3,right
13.209000000000001,-0.942119571260018,1.0578879506444179,0.08583393010430926,0.6316314153862999,1.0917792236479382,0.05535260041613448,-0.1538337960129621,-0.7141483932472797,-2.1240438004783875,3,right
13.213,-1.0420728608808028,1.0245235401869364,0.08277245535872466,0.6389945259324734,1.0745278012482844,0.06934162269457024,-0.15365902123901914,-0.714121507222294,-2.123846908665203,3,right
13.214,-1.136794242575243,0.990808003293841,0.05464586942544017,0.6260769285260068,1.1062454716587635,0.04358979184277264,-0.14171457041636437,-0.713426455060572,-2.111935889748928,3,right
13.217,-1.2165315922447837,0.957945100607196,0.010410070088078368,0.6424984731469149,1.065584565663083,0.07661411182695722,-0.17107509415667566,-0.7151508208582127,-2.1412398293708987,3,right
13.218,-1.2967613399970208,0.9129514312360535,-0.04882099218921292,0.6288556507859149,1.0994975541181324,0.049060083683897866,-0.12239586778918436,-0.7122880817091172,-2.09264414847547,3,right
13.222999999999999,-1.3475602640508635,0.8791162020887473,-0.08896007579722873,0.6289685799914156,1.0986927533496607,0.049741671536153664,-0.1866006716515015,-0.7160655082665153,-2.1567467304128183,3,right
13.224,-1.3590762397995786,0.8676638135120349,-0.0980956864671005,0.655824309843305,1.0336733750680132,0.10249454978707843,-0.45610062179614214,-0.7318333418172489,-2.4256500065427096,3,right
13.225,-1.3924825193399628,0.8329014945856167,-0.12087919366918075,0.590117587654138,1.1933335921918684,-0.02709210557628601,-0.5203010281909218,-0.7356139169985318,-2.4897622415158533,3,right
13.227,-1.4260109846652227,0.763219566835927,-0.13799714790219,0.6989854634880439,0.9286675814334919,0.1877521859752283,-0.47162764046049643,-0.7327502038417508,-2.44115981543772,3,right
13.228,-1.4313389640225127,0.7173227453795326,-0.1373240035894937,0.5553942185120406,1.2777289036814348,-0.0956287807692873,-0.5009861452854467,-0.734464657693063,-2.470446681779732,3,right
13.232000000000001,-1.434366170050469,0.7036497707769437,-0.1383431545966045,-0.047683576778770304,2.743382728731685,-1.2851664232484665,-0.48903380517591527,-0.7337986688454442,-2.458597315548139,3,right
13.232999999999999,-1.4339762272374665,0.6559605137658486,-0.13401882745062432,-0.19130900937000841,3.092406677450109,-1.5685627964135254,-0.48888127805584564,-0.7337211165876132,-2.4582858142614716,3,right
13.234000000000002,-1.428561481824409,0.5874792670540796,-0.13625346391513005,-0.08240413735262699,2.827781125046839,-1.3537018378824994,-0.49512118957061635,-0.7341819041148862,-2.4647350549909515,3,right
13.237,-1.421106182000691,0.5339127737042602,-0.13961540866965572,-0.14809681784282702,2.987456640940371,-1.4832821473710487,-0.48764187059924047,-0.7336504882623203,-2.4570530596507654,3,right
13.238,-1.4119643369691586,0.47669821297999754,-0.1334975392947174,-0.12136372894162807,2.9223032989996387,-1.4305845737130252,-0.4934750019498102,-0.7340319685556413,-2.4629674245621014,3,right
13.242,-1.3915120711208226,0.42599266261962765,-0.14228196697664197,-0.12098688618089118,2.9217868482636016,-1.4297839996907489,-0.4903036766200444,-0.7339256457382943,-2.459988198631849,3,right
13.243,-1.351715375142032,0.3869761944766916,-0.16425972490507906,-0.13500813590416824,2.955286312966577,-1.457508622937489,-0.4910892998411512,-0.7337168257694469,-2.460176264639408,3,right
13.247,-1.3057115242333568,0.34858730814461547,-0.1749664156363125,-0.1182097205380044,2.915037300646306,-1.424314434476719,-0.49181146676050375,-0.7341975085900047,-2.4619224173932395,3,right
13.248,-1.2552338052542291,0.30939457483027377,-0.16950316071863897,-0.13128999766937946,2.9465770416977453,-1.4501395443776657,-0.4905046200871611,-0.7335833981215274,-2.459360588699031,3,right
13.251,-1.1990918405670596,0.2661631524540656,-0.14388841314358064,-0.12425035611907274,2.9289723934448846,-1.43629642714227,-0.49175013542469564,-0.7340847230839544,-2.4616058882253693,3,right
13.252,-1.1472505901127206,0.22448515605034494,-0.09683261393572326,-0.12582418209986554,2.934397293088111,-1.439265124527585,-0.49084007181991873,-0.7340352950965672,-2.460706559340155,3,right
13.257,-1.1024273395120145,0.1888666557761817,-0.04809786907290362,-0.1277590442064494,2.9363411535010684,-1.4433123175910905,-0.49144308001695336,-0.7332757874251725,-2.4594489267022626,3,right
13.258,-1.0659772803000287,0.1628528213358401,-0.01009465937574347,-0.12444224524092641,2.931667037821188,-1.4364892663179107,-0.49097232819124553,-0.7350644521153282,-2.4632284031514926,3,right
13.261,-1.0412194471346634,0.15067986694489777,0.015670606818775627,-0.1275427775666194,2.9365006963193805,-1.4428274988197234,-0.4914571851593829,-0.7323834691634246,-2.457373103243616,3,right
13.262,-1.0246193333706293,0.14663006297535758,0.02826013826071136,-0.12550901914837204,2.9315368666546853,-1.4388185253435588,-0.4909809885153606,-0.7352437335163668,-2.463655669794317,3,right
13.265999999999998,-1.0134606151406649,0.14511565703165427,0.04075337462108328,-0.12627611566776414,2.938408362569651,-1.439919165863347,-0.49119187384997365,-0.7335874336858732,-2.459961204067464,3,right
13.267000000000001,-1.0057744238750668,0.14337166658657277,0.05896439368181029,-0.12655395075522435,2.927634941232609,-1.4414077418488662,-0.49169131052763027,-0.7321779160750919,-2.4570943986276674,3,right
13.270999999999999,-0.9978720138716938,0.13564228829211264,0.07423353719438891,-0.1256524042111823,2.942527865241318,-1.4382280992341347,-0.49002602558447217,-0.7383763534834864,-2.4701622068241185,3,right
13.272,-0.9907657508210465,0.11948942696553198,0.08546874110976647,-0.12670497416299742,2.9268686618526223,-1.4417962461928386,-0.4930197880224549,-0.7268760810956756,-2.445832709422626,3,right
13.276,-0.9816745843257029,0.09419137450530032,0.09643544172793259,-0.1259523997871952,2.9355745413409484,-1.4394525710562278,-0.48919767206823556,-0.7416439620939523,-2.47709578147854,3,right
13.277000000000001,-0.97024388596991,0.060967727567123736,0.11013577292767363,-0.12601615839112887,2.9447830056730107,-1.4388291652440213,-0.492378487781072,-0.729314872387131,-2.450984439154432,3,right
13.282,-0.9611112367805198,0.022653849066755407,0.1292432450208597,-0.1269054858298838,2.907263289964988,-1.4438439604034148,-0.4923287527713103,-0.7296496273057382,-2.4517306564984054,3,right
13.282,-0.9515723014898027,-0.016733426806578338,0.15209313843073952,-0.12504316041470082,2.9763505842338533,-1.4341313512724838,-0.4861474347352545,-0.7531545462389111,-2.501395986906155,3,right
13.286,-0.9442640735664178,-0.05161022946089895,0.17400570074937016,-0.1274852145466225,2.8877381483004654,-1.446695321781124,-0.5012946773454432,-0.695381755048808,-2.3792729499877865,3,right
13.287,-0.9437157718019423,-0.0847799566333296,0.19269063558377808,-0.12542192848419248,2.961692262140285,-1.4361689327847982,-0.4761946334509872,-0.7911711259368389,-2.581777367177607,3,right
13.29,-0.9448823501909777,-0.10506572577340353,0.20129461189614106,-0.12556347639620435,2.9598160961865005,-1.436597377556065,-0.50929700994292,-0.6648262596779263,-2.3146675606983953,3,right
13.290999999999999,-0.9466213717093448,-0.10884278245747055,0.20159016021544618,-0.12922790652230107,2.818343079643147,-1.456197911294157,-0.648401405320304,-0.13447372427894333,-1.193730604155009,3,right
13.292,-0.9537014370013625,-0.1207571748015271,0.201421036735738,-0.12010939257307285,3.1659622810406596,-1.4078533652300218,-0.6815120293112301,-0.008128250562843158,-0.9266326295208764,3,right
13.295,-0.9667162474867106,-0.13190942898497598,0.19081716278708688,-0.135270070891862,2.5895681557430548,-1.488053991936526,-0.6563889833399501,-0.10392121785508712,-1.1290977679205694,3,right
13.297,-0.9757639991971976,-0.1297622283244243,0.1796820259654156,-0.1152517202293124,3.3499048660682207,-1.3822668497795996,-0.6715826997189788,-0.046138265993185164,-1.007063646306917,3,right
13.300999999999998,-0.9774405366008238,-0.13032833421423884,0.17664973334153253,-0.03155575122282121,6.540746293527533,-0.9384273516141235,-0.6653281741231825,-0.06966246737481041,-1.0565780948642751,3,right
13.302,-0.9847313514896027,-0.1302336667751739,0.16206992090287392,-0.011513396376304977,7.301239899824375,-0.8326588360340701,-0.6653672733183844,-0.06997007193413227,-1.0575197875979607,3,right
13.302999999999999,-0.9964024955044994,-0.12517928347579022,0.14491888653725157,-0.02670005714502334,6.724676027796183,-0.9128393149527524,-0.6684757056055665,-0.05766843097215653,-1.0312315848293034,3,right
13.306,-1.004289706583466,-0.12019578201250466,0.13448851869411785,-0.017591380052585683,7.0722306517686215,-0.8644870866406977,-0.6646569849106378,-0.07242331751820436,-1.0625416024577514,3,right
13.306,-1.0142050298117424,-0.11142140080920539,0.12424617425840542,-0.021169746048121812,6.931320747991734,-0.8841545050109002,-0.6677768248712493,-0.06090202548471395,-1.0384317133123488,3,right
13.31,-1.0257484657474496,-0.10004981345281458,0.11863873504208347,-0.021496527777702105,6.928232996129413,-0.8844390632713132,-0.6658147364049583,-0.06717297513118495,-1.0509065047523096,3,right
13.311,-1.0376035348304895,-0.08542033730968879,0.11229603473881733,-0.01916760919191813,7.003924260459273,-0.8741189589442213,-0.6667646599231228,-0.06563542741788177,-1.048999108483871,3,right
13.315,-1.053159669872052,-0.06196119413492797,0.10515052193792859,-0.021874233861040666,6.913582007482937,-0.8864775371956093,-0.6664863778473785,-0.0641398046060587,-1.044191366496515,3,right
13.315999999999999,-1.0657795098604603,-0.03437798747579014,0.10131992821744526,-0.019897647202577393,6.983415644329158,-0.8768535060360474,-0.6663056558772066,-0.06686652157737957,-1.0512668701431982,3,right
13.32,-1.0711421841002828,-0.005403742165622696,0.09463960798743387,-0.02056002436399209,6.947381438317393,-0.8820447775954179,-0.6670104442038306,-0.06419691659997599,-1.0456360406253369,3,right
13.322000000000001,-1.0697003704296009,0.025929108095721888,0.08827398446693813,-0.02135526414387419,6.95180483277737,-0.8808530712174054,-0.6654929108058552,-0.0662046241269727,-1.0474451885226017,3,right
13.325999999999999,-1.0567955736439187,0.053316038180568466,0.08745902046413939,-0.019342083694278173,6.968755491251816,-0.8794885001139137,-0.6680940443916882,-0.06492165699972303,-1.0502963610400236,3,right
13.327,-1.0301435567277872,0.07662804177783221,0.08924232803347357,-0.02194198107130512,6.942977980180761,-0.8818551489205222,-0.6645190269618119,-0.06567155481747412,-1.043582989099595,3,right
13.331,-0.9915213329697216,0.0989749872546276,0.09264084927339183,-0.019806460624309588,6.96593755201115,-0.8796332372088442,-0.6682181884042138,-0.0652981639497098,-1.051639467135119,3,right
13.332,-0.9463665510469914,0.11516237806826204,0.10136348279202732,-0.020074149981761297,6.955236376458949,-0.8811307197872247,-0.6661559733375317,-0.065228158928125,-1.0463813378193865,3,right
13.335,-0.8981253739680289,0.1223547380597086,0.11567820833739298,-0.023129224122972282,6.947137481729326,-0.8804532122380668,-0.6641446683491002,-0.0660562326795975,-1.0437238439669394,3,right
13.335,-0.8478017882713933,0.1246830658209707,0.1347107694186752,-0.015865132034154454,6.9763853221050205,-0.8805072241419002,-0.6725158370950962,-0.06407133660219314,-1.0588132035223667,3,right
13.34,-0.7986067321803056,0.12320664199127492,0.1611697298722704,-0.026769710459733295,6.930181248488517,-0.8807846831169301,-0.6570936248214672,-0.06736490809959711,-1.0300132956079004,3,right
13.341,-0.7489417567816783,0.11551710902734263,0.1920998070176847,-0.01513209512494468,6.979913933123896,-0.8804218984656368,-0.6768592449099944,-0.06327566533410946,-1.0672871419636674,3,right
13.345,-0.7052348219000968,0.10567823471998483,0.2232609834520647,-0.021877259791543827,6.950423017879217,-0.8807375270664157,-0.6603742994901468,-0.06663011697843738,-1.0360465526302107,3,right
13.345999999999998,-0.6686537168171757,0.0919782152911327,0.25605111534713354,-0.027589787073425215,6.9287452948032175,-0.8804857711355111,-0.6607946382601149,-0.06663129406497073,-1.0370795797875423,3,right
13.35,-0.632395593299452,0.07308389711480326,0.2847705117534902,-0.0024205886795716537,7.02974408503902,-0.8807290129778707,-0.6922961748954715,-0.05999078072947292,-1.0961489335397612,3,right
13.350999999999999,-0.6018826699661658,0.059585483210092334,0.30268639765136796,-0.04912923459175545,6.841336891794112,-0.8804340987008268,-0.614908086967981,-0.07617852506364982,-0.9506958041457909,3,right
13.354000000000001,-0.5698630810427232,0.04863809826516308,0.31652822745163156,0.010856544617557699,7.083506263754399,-0.8807760563231779,-0.7432042482308231,-0.04939023913759222,-1.1919600228712834,3,right
13.355,-0.5475791308921026,0.04020041944144223,0.32605089380646013,-0.039229809282136666,6.881234895142699,-0.880507781649088,-0.5739917648548101,-0.08470312768735427,-0.8737063217892238,3,right
13.359000000000002,-0.5423715500131516,0.038392852536158234,0.32834704215639,-0.037853265675290404,6.887085901220752,-0.8804538788511769,0.13629596774598335,-0.2329995331093888,0.462014980721644,3,right
13.36,-0.5221393228692075,0.03288728539895229,0.33903950269219385,0.05759227792045922,7.271533723073911,-0.8811594918321766,0.3054919027010552,-0.26830008408571215,0.780240510056672,3,right
13.36,-0.49580686886763375,0.02606068952171768,0.35746125751338187,-0.17703486093815843,6.326173005971086,-0.879503564697482,0.17722723506397667,-0.2415420499641299,0.5390083565106558,3,right
13.364,-0.47815375626491113,0.020502516072322324,0.3642180057184671,0.21200721605859627,7.893726458821304,-0.882221392658505,0.2545739989411707,-0.2576749990519271,0.6844674638259891,3,right
13.365,-0.46548961668702354,0.014604960708223117,0.3626955352286729,-0.3011541932084384,5.82613708265098,-0.8786494258348903,0.22311230378790334,-0.2511136395488935,0.6253085792476794,3,right
13.37,-0.4627808465325754,0.014170735976727676,0.3612360521486693,-2.4549373338800637,-2.852159000795274,-0.8634466350557719,0.2226725349739613,-0.2510269677609238,0.6244759237792841,3,right
13.370999999999999,-0.45261658873980004,0.014989784215482327,0.351883586218623,-2.9681259605542873,-4.919677966831221,-0.8598873210681646,0.23913226147817024,-0.25444135685901953,0.6554230236959977,3,right
13.370999999999999,-0.4381956543135205,0.016548510110307127,0.33302150905198646,-2.579054442035641,-3.352200690311784,-0.8625914653957345,0.2194580571913725,-0.25037489638095106,0.6184491814694792,3,right
13.375,-0.43082135950394185,0.025485194588493184,0.3140726827410054,-2.813670360095975,-4.297590390746553,-0.8609303107770772,0.23471769517066657,-0.25350549423379887,0.6471052341825316,3,right
13.376,-0.4218828447451896,0.0411511207852748,0.3019160302664153,-2.7183225397361266,-3.912889854949614,-0.861681376363056,0.22655176271108832,-0.25185392254622285,0.631791493177192,3,right
13.38,-0.41651850546951596,0.06099233688603255,0.29813049515625145,-2.7167357612944727,-3.907582580755447,-0.8615297054145687,0.22839003645266756,-0.25221534271051516,0.6352288656090486,3,right
13.380999999999998,-0.4128398546165417,0.08583807237205894,0.3033711071711054,-2.7671235260335285,-4.109074359442294,-0.8614015873176984,0.2304733506042226,-0.25260478544217013,0.6391109549529913,3,right
13.384,-0.40734630635544344,0.11068827025083666,0.3172871972176761,-2.706837633580231,-3.8676812822748485,-0.8616040071102022,0.22704241432570588,-0.25203347335234927,0.6327772447362405,3,right
13.385,-0.40609452195869833,0.1284412921406025,0.33319607539686447,-2.7536757188520706,-4.055753544836987,-0.8613692472068422,0.2299643651973265,-0.2523945393956657,0.6380668161649269,3,right
13.388,-0.40671086240343124,0.14380175205682622,0.3424785937391866,-2.7287643555358407,-3.9540880809055623,-0.8617324353698614,0.22836823369732795,-0.25236639169894126,0.6353178363042166,3,right
13.389000000000001,-0.4081317990525588,0.15559129340938868,0.3451850610489883,-2.7336465391688676,-3.9779132391618583,-0.8610945119798176,0.22877931383761524,-0.2522091489776408,0.6358892427380123,3,right
13.394,-0.4123942473082672,0.16188214597466571,0.34430490078085174,-2.741822298711729,-4.003704094078128,-0.8620754023555396,0.22876872164108958,-0.25220480783124133,0.6358676030000805,3,right
13.395999999999999,-0.4184954285822896,0.16942065378663618,0.337284144965888,-2.728429114410053,-3.9585122467741107,-0.8608963031500088,0.2293856086739448,-0.2527843528599609,0.6374019250659038,3,right
13.398,-0.4249115522820972,0.17612403148821032,0.32609967707318255,-2.7407331233370567,-4.001096242382897,-0.8618243755588266,0.22739337150115402,-0.2513382980875224,0.6328000460639114,3,right
13.399000000000001,-0.43047569855392687,0.18131451703416274,0.3154842512129701,-2.7334819487313737,-3.971815918213179,-0.8618846273310092,0.23084519590966474,-0.2535957801356845,0.6405674318607392,3,right
13.404000000000002,-0.43574916710520456,0.1861461074715377,0.30554737131380555,-2.7339390258411296,-3.9866332330253584,-0.8599987396052833,0.22688492197404977,-0.25113053001241503,0.631759813947546,3,right
13.405,-0.4411058941334655,0.1909273414955231,0.29759735573085644,-2.740143192703393,-3.981980989066614,-0.8642569711037418,0.22926312453167114,-0.25257406317340714,0.6370175839610385,3,right
13.409,-0.44497323850480236,0.19979610819243843,0.291905863877404,-2.7291520613842373,-3.9819259006126955,-0.8579171132257539,0.23134935857929548,-0.25382488994684654,0.6416193730955257,3,right
13.41,-0.4488966237364086,0.2097901195335531,0.2873132449449436,-2.7411914556280736,-3.9832870835488614,-0.8646728032081012,0.22210885338466488,-0.24832541566589944,0.6212756488472418,3,right
13.413,-0.45559229645403687,0.22119311884500825,0.28337269083948446,-2.733725559694723,-3.9804433293304466,-0.8607736211113254,0.23934948877874695,-0.2585469192446538,0.6591976193789625,3,right
13.413,-0.46306835558207493,0.2389555433220022,0.28041664335237315,-2.7298158674354536,-3.9881833033255765,-0.8573926549800901,0.21713930501979345,-0.245405907794895,0.610369219693877,3,right
13.418,-0.4708040241137389,0.25599446520526126,0.2776230610211201,-2.7510597049218912,-3.9709907970390055,-0.8721560043859965,0.23571432261683717,-0.2563850705307621,0.6511932970386685,3,right
13.419,-0.48220553007940414,0.2720237058225292,0.27082665353845436,-2.7109185613217623,-3.9998641689070857,-0.8447842661877506,0.235211733797668,-0.2560842607632101,0.6500936286846912,3,right
13.423,-0.4955884177887071,0.2917720589970545,0.26260003796610576,-2.7626264115067203,-3.963464212356871,-0.8799279890390346,0.19973727709588196,-0.23514660578035523,0.5721335222062033,3,right
13.423,-0.5063434830920175,0.30932444334932746,0.2561206295289046,-2.7193945826449735,-3.993580161780896,-0.8505912511935074,0.28695441367852537,-0.286621178639758,0.763787814786516,3,right
13.427999999999999,-0.5166483201029725,0.33150091648661334,0.24812304023602844,-2.7208151366003395,-3.9938121388729506,-0.8513776808596155,0.14232012209895148,-0.20126414953661853,0.445977019666593,3,right
13.429,-0.5235886210857661,0.34864686909998394,0.24292153636690234,-2.802419064361309,-3.9329496718856265,-0.9073367761244564,0.3331105746887593,-0.3138571047744719,0.8651978457072356,3,right
13.429,-0.5242302842580493,0.35145274777698754,0.24180005157484005,-2.601560077286942,-4.081310537022141,-0.7698100398285512,1.1338860718784165,-0.7863424767174922,2.624895473410245,3,right
13.432,-0.5284434143660857,0.3694649605163427,0.23808620427939972,-2.934657048258135,-3.8356362433792612,-0.9978262060943669,1.32468588382174,-0.89893338558857,3.0441392240767815,3,right
13.433,-0.5336939586297913,0.38840657045969984,0.23440795642478626,-2.4953131690510393,-4.159658247007097,-0.6970830027320638,1.1800477697431604,-0.8135936937912955,2.726297102376047,3,right
13.437000000000001,-0.5344573664147224,0.3899423122635745,0.2352471818257207,-0.6513688063489117,-5.521198942183005,0.5653874634091333,1.2672387270180216,-0.865015541673473,2.917965068341077,3,right
13.437999999999999,-0.5370501994173634,0.4045904810406432,0.2378184743788037,-0.21208282984970853,-5.845358476465317,0.8661163367439151,1.2318438915647172,-0.8441809762660288,2.8400395994416314,3,right
13.437999999999999,-0.5396966854088259,0.42709141332188727,0.2390263068189749,-0.5451171551070675,-5.59953536845032,0.6381156762400638,1.231200738444003,-0.843732132397266,2.8388335782186074,3,right
13.442,-0.5393509007488027,0.4437387351164401,0.2415837967515615,-0.34423433709386664,-5.747839694457337,0.775648303547939,1.2499526790831819,-0.8548644804409813,2.8798356274337054,3,right
13.443,-0.5369708420397511,0.4625510436971118,0.24667562626868636,-0.42604607950161744,-5.687470697028424,0.7196377913353178,1.2275970628619088,-0.8416447058829666,2.830798166779364,3,right
13.447000000000001,-0.5344767951015594,0.47879070960657566,0.24959849526087607,-0.4270195002239136,-5.686640838441567,0.7189619995206242,1.2448433628050668,-0.8517631939794084,2.8688694787844335,3,right
13.448,-0.5314494335135309,0.49262033527472376,0.24896202522229266,-0.38442876471189696,-5.718279303713819,0.7481400988947189,1.2358592700451494,-0.8466470325929422,2.8485689896798134,3,right
13.452,-0.5230422373572952,0.5077541197886143,0.2443910977481619,-0.4354982259333323,-5.6803631654930875,0.7131543546511064,1.2373458448392936,-0.8472061972498344,2.8527971105536682,3,right
13.453,-0.5127218983331787,0.5213562811771437,0.23799407982230572,-0.3956325237934688,-5.709890878395347,0.740457913526909,1.2406287475773248,-0.8495331548539056,2.8588316988700715,3,right
13.458,-0.5018912981806136,0.5331607864326172,0.232309423314854,-0.4174245800048406,-5.69400002005245,0.7255589394002895,1.2356947998307595,-0.8463112196017668,2.8489297004470586,3,right
13.458,-0.483210224452811,0.5444964594360544,0.22500951598622995,-0.41174897068049576,-5.697546487057876,0.7293768473486674,1.2397185499887025,-0.8486825968335161,2.8577799128538293,3,right
13.462,-0.4588536006980086,0.5556573581884953,0.21900096167763744,-0.40732579650201983,-5.701928625522534,0.7325231281408472,1.2382022698733124,-0.848364370907033,2.8527041629753604,3,right
13.463,-0.43393851451762966,0.5652062336195236,0.21462214913922142,-0.4156310374399874,-5.6944215035861525,0.7266914710281238,1.2366766755253213,-0.8461470017044561,2.853336972504605,3,right
13.467,-0.4053118542501676,0.5744755492293447,0.20777241342264258,-0.40761690939771267,-5.701437136951315,0.7322945943321797,1.2407102137486543,-0.8504918854380775,2.856255142387262,3,right
13.468,-0.3724821450734961,0.5842289206158477,0.2016366867799386,-0.4138477077629359,-5.696846798248423,0.728029914545956,1.2357672129320847,-0.8454807557980341,2.851731103899721,3,right
13.470999999999998,-0.33939159199407376,0.5938716490511036,0.20154991179271198,-0.40878002028723215,-5.69854525870419,0.7312827181720065,1.239054564855714,-0.8486305276909527,2.8552925907161244,3,right
13.472000000000001,-0.3072611363697978,0.6064980670349575,0.20945395645899006,-0.41415458560630874,-5.699247887116836,0.7280983963166356,1.2405474396303875,-0.8505549124239429,2.8554168889087,3,right
13.475999999999999,-0.2802689996772267,0.6204145376116492,0.2245811175698015,-0.4076231897814301,-5.697100577639073,0.731831099532581,1.2315400899997462,-0.8406740819457523,2.849438392320161,3,right
13.477,-0.26278536471188846,0.6346318870221668,0.24379838128970013,-0.41430881403891195,-5.699595343775026,0.7280414916538331,1.2488288103860974,-0.8593427026577449,2.8618093482563913,3,right
13.481,-0.2471403453369367,0.6505009259740155,0.26137192635647005,-0.41088349105972904,-5.6978298278728605,0.7299318430029798,1.2264185489509334,-0.8352473027625724,2.845462069469113,3,right
13.482000000000001,-0.23248530791534316,0.6652860799244655,0.2770346366354792,-0.40576366677333975,-5.697909904934751,0.7330438732720131,1.2452168554158796,-0.8554154394841144,2.859304450043819,3,right
13.485999999999999,-0.2257612186438745,0.6808715810589877,0.29114004989506326,-0.42462256099458423,-5.700183645312754,0.7218507557067864,1.2445706372013774,-0.8547895538238046,2.8586300101145783,3,right
13.485999999999999,-0.22106513921484655,0.6956774406431774,0.2994848527315358,-0.39028960435670945,-5.69549150962982,0.7421705887224278,1.209091490918878,-0.8165460663274124,2.83303323310965,3,right
13.491,-0.21844475268925173,0.7053305943981469,0.302864437834547,-0.4342300127765545,-5.7016254181978905,0.7161770929191396,1.2964937928034463,-0.9106589995932517,2.8963795087434008,3,right
13.492,-0.21999626076332982,0.7123051147200219,0.30157237905422724,-0.39760627805020443,-5.696457468918126,0.7378381558146354,1.1515014680523472,-0.7545728281354496,2.7911866861245382,3,right
13.495999999999999,-0.21886954245470397,0.7152465562823921,0.29723023433810714,-0.39837051730609996,-5.696771228212471,0.7374040556753989,1.3427733429829911,-0.9604640336523464,2.929992199727904,3,right
13.497,-0.21824934405812918,0.7157754448732196,0.2935952217777741,-0.4689457577664444,-5.7060636328352965,0.695601056123708,2.145525773305572,-1.8246368498839338,3.5124090402308106,3,right
13.498,-0.22027686893635345,0.7186437298378769,0.2835956339096465,-0.29575159166540066,-5.683010739995849,0.7981688341334754,2.336804263349734,-2.030526899570718,3.6512176326012673,3,right
13.501,-0.21953558020711728,0.7187215980203653,0.26196614028920484,-0.5828409352544628,-5.721299159201559,0.6281523068054291,2.191787939107212,-1.8744344746373,3.5459899815276583,3,right
13.502,-0.21800641195873194,0.716479469436283,0.2464220343885596,-0.20418452794140504,-5.6707752462779055,0.8524005308659323,2.2792471750334182,-1.9685744629273962,3.609446555021168,3,right
13.505999999999998,-0.21751027993639643,0.7169890981629294,0.24061239213557514,1.3855812800719491,-5.459031189689972,1.7938928315763287,2.2436687827267994,-1.9302720312220858,3.5836308256791236,3,right
13.505999999999998,-0.21521550241025372,0.718073467647361,0.2219655420654726,1.7642459336283343,-5.408481552233631,2.0181625953818987,2.2431539421993953,-1.9297363645422565,3.583273834701698,3,right
13.505999999999998,-0.21099422895679515,0.7197966489240673,0.19539654635761192,1.4771574238998317,-5.446820324255119,1.8481217957305984,2.2618296601252075,-1.9498044531851235,3.596784074931999,3,right
13.511,-0.20529880687265356,0.7218565346083115,0.17037657860859745,1.6503136416432147,-5.423698248645273,1.9506841379874331,2.23945930529826,-1.9257720729024457,3.580613880041196,3,right
13.512,-0.20035933315499233,0.7256122719907614,0.14100079126601972,1.5798392343318661,-5.43306278048648,1.9089513753883258,2.2568833861401476,-1.9444814792771883,3.593193763483008,3,right
13.515,-0.1964709132981178,0.7340268441335855,0.11489359365964281,1.5789056321851331,-5.433331212779647,1.908361430711767,2.247490188360658,-1.9343898989401462,3.5864057251613337,3,right
13.515999999999998,-0.1911950857069883,0.7430344350273779,0.09368417093925588,1.6157340946864067,-5.428140292093925,1.9302497227551945,2.2496211379026647,-1.9367236914167254,3.5880066589909863,3,right
13.520999999999999,-0.18692598651986136,0.753167747063479,0.0730047166828183,1.5716374184880735,-5.4344069530495585,1.9040252326812852,2.2521524429701754,-1.939321031528648,3.5896660179541326,3,right
13.522,-0.1835048685801257,0.7670034857046238,0.05648584574276698,1.605949408408852,-5.429453486936669,1.9244535035174588,2.247772612788509,-1.9348253687878012,3.58679430510818,3,right
13.525,-0.17917058001579056,0.7798333793779306,0.045016419689121276,1.5874283921782009,-5.432083433859749,1.9134385387645276,2.251902045022635,-1.939002131391939,3.589414308603927,3,right
13.526,-0.1763783907169906,0.7912272177896099,0.0364067861834548,1.5918102138830603,-5.431824935795571,1.9159419329587135,2.2491227968923644,-1.9362241063496801,3.587697869457296,3,right
13.53,-0.17622895636342678,0.8035012200903455,0.03153433073940372,1.5963082565145639,-5.430183676301205,1.9189007178635886,2.2503068833075974,-1.9375009226390383,3.588559714629983,3,right
13.530999999999999,-0.17912209179328206,0.8130151838889994,0.03135292163043498,1.588517295651679,-5.433013394934264,1.913778929055551,2.2504340025765175,-1.9372406693921314,3.588094663496335,3,right
13.535,-0.18655273519809681,0.8215805515559624,0.03186329967744623,1.5956145648814186,-5.429871072597233,1.9186049912928675,2.2494922301398725,-1.937133782975585,3.58868499498982,3,right
13.536,-0.19515975933888816,0.8332352832049201,0.03096758980088082,1.5909708274381624,-5.432240255970338,1.915358422379473,2.2507454460708463,-1.9371303357538692,3.5876941528022774,3,right
13.542,-0.20434928312480066,0.8429518701147627,0.026103586341088274,1.5933237089657633,-5.431942370648391,1.9167473615935238,2.24961069490535,-1.9373501082489593,3.588896396415776,3,right
13.544,-0.22166705279743448,0.850615938703631,0.01599689168667997,1.5919801422033855,-5.428874141234639,1.9168728654707399,2.250268033425142,-1.9372257158272865,3.5882030754924052,3,right
13.544,-0.2417796606710854,0.8597020487779072,0.004914646620706818,1.5937597092574007,-5.436057642953115,1.9158217639229547,2.250390591464358,-1.9366380268769174,3.58728274627232,3,right
13.545,-0.25903520050752116,0.8668728028786118,-0.009378725974929086,1.590805222097754,-5.4253811531155405,1.917212164104271,2.2492805183530677,-1.9385873398842246,3.59089337062294,3,right
13.549000000000001,-0.2796017961307982,0.8713666593372962,-0.026082414207039446,1.5943526331298954,-5.436709677053194,1.9159657978216496,2.251366561420321,-1.9350039803523131,3.5842176845347304,3,right
13.55,-0.29866563855659783,0.8756711865945124,-0.04087069027958194,1.5923068146544912,-5.430162975330118,1.9166879141540298,2.248726228784335,-1.9396441634448929,3.5928169592491925,3,right
13.555,-0.3142718232098195,0.8787299132708469,-0.05498103008294494,1.5896624538324986,-5.4246388850101015,1.9167897659232094,2.2509117326443624,-1.9357534191848598,3.585624829867004,3,right
13.556,-0.3283604683571507,0.8805126312430359,-0.06528668785367334,1.600096209859649,-5.4489707546328905,1.9156714897375584,2.250810319768794,-1.935805326943976,3.5857873962412787,3,right
13.56,-0.3355148058945585,0.8818074029824947,-0.07217764836607912,1.580802317500087,-5.403837958455428,1.9177773635573245,2.2468316717573114,-1.943446638979476,3.599641759721933,3,right
13.56,-0.34027072696474236,0.8814242446080682,-0.07937012745969958,1.605651058129825,-5.461782559808276,1.915118330445747,2.256637249020351,-1.924709108486953,3.5656114698540335,3,right
13.564,-0.3443358002853414,0.8812576320607874,-0.08324642618566135,1.5848707689293366,-5.413409368663797,1.9173159148170433,2.24038864370279,-1.9557767249047122,3.6220402586407716,3,right
13.565,-0.3436361369262324,0.8812905084231275,-0.08278360141575175,1.5853452075237313,-5.4147373155050795,1.9172076043475368,2.2618043692013154,-1.9147891401137835,3.5476007141142043,3,right
13.565999999999999,-0.34439730997785417,0.8810984795254329,-0.08312608783198,1.6253531725912005,-5.50690705445599,1.9132367018565688,2.3517003414624007,-1.742516526804239,3.235102810428642,3,right
13.569,-0.3455081983236069,0.8825795791218096,-0.08273711570564286,1.5270794642475956,-5.280343641482294,1.9230264262723171,2.3731023031968324,-1.7015056523672003,3.1606517782049295,3,right
13.57,-0.3428180581659911,0.8828061893773853,-0.07663808434458205,1.690034884861436,-5.6560032951226,1.9068066850436518,2.3568624836305316,-1.7326211461966716,3.2170937332050773,3,right
13.574000000000002,-0.34330651122892386,0.8824902948869302,-0.07130401130194669,1.4750699379821262,-5.16050711237904,1.9281808458147476,2.3666953513471736,-1.7138128677808622,3.1830655590386674,3,right
13.575,-0.34357183642216577,0.8816809085264052,-0.07008832338368837,0.572639702659422,-3.0808910576833672,2.017924620808312,2.3626227210033846,-1.7215362070066373,3.196884078103216,3,right
13.575,-0.33740139826588356,0.8768629145986165,-0.06505888322023436,0.35764301262890363,-2.585406854259461,2.039283440718127,2.3626937375862536,-1.7215222615895875,3.197127365242488,3,right
13.58,-0.3309754490783441,0.8726513659506805,-0.05665431207459319,0.5206362255425446,-2.961026337172088,2.0230703943313513,2.3646558579185086,-1.7176373576997261,3.1898166180380674,3,right
13.581,-0.3237349851231078,0.8693303530294936,-0.05147288944010345,0.42236336549103776,-2.7345543729113477,2.032901508048463,2.3622081860554482,-1.7223823717205415,3.1985376112432693,3,right
13.585,-0.31312380805793294,0.863242635155814,-0.048569792984773624,0.4622825878033352,-2.8265684113654688,2.02880323494054,2.3642664000621445,-1.7185483082025264,3.1918027176960395,3,right
13.585999999999999,-0.30166763943876734,0.8562527861547438,-0.04640876261833835,0.4629647903356385,-2.8280986286083873,2.0289206689986807,2.3628634703250313,-1.720881065548689,3.195324238485014,3,right
13.588,-0.287706142641527,0.8480876619526642,-0.046682752711442205,0.4418731390725819,-2.7795416951704928,2.0308332571879193,2.3637101708719737,-1.7198727085207515,3.194717442700874,3,right
13.589,-0.27231256938834236,0.8384145852218988,-0.04698496802562316,0.4670487622369044,-2.8375365209274612,2.028409714163176,2.3632442773389175,-1.720010764317907,3.1934688671043565,3,right
13.594000000000001,-0.2558249507581236,0.8285684116670058,-0.04615001391762483,0.44758256274623587,-2.792628556331767,2.030503676448933,2.3633557235313436,-1.720399454790671,3.195368454770322,3,right
13.595,-0.23664914998451947,0.8198355049338716,-0.04534225110256473,0.4578076764858673,-2.816349295607313,2.028976506993634,2.3638132018492017,-1.7195278449597375,3.1937979837200676,3,right
13.599,-0.2173662614764901,0.8124957014867052,-0.042425358912719174,0.45595932465242883,-2.8118166512952687,2.0300399280976693,2.362408685543842,-1.7211017444079935,3.1944374669832167,3,right
13.6,-0.19755750091216046,0.8049275219528547,-0.03664613886184241,0.4524716678074278,-2.804116401502342,2.029307136179856,2.3650584482849166,-1.71857892263974,3.1949237924488236,3,right
13.603,-0.17613343585814772,0.7970930524604064,-0.029650675837154722,0.4578630873532071,-2.816271448147782,2.0296317800572563,2.3613025875853944,-1.7219640084385168,3.1935122261968045,3,right
13.603,-0.15301135090072646,0.789551936197978,-0.023374187074281412,0.4533273972006876,-2.805816282228567,2.0300903824781162,2.3652343826701587,-1.7184942652543427,3.195268158795794,3,right
13.607999999999999,-0.13046618156443882,0.7843273724875897,-0.01828847932467588,0.4553480933843297,-2.810975090157114,2.0282923229971432,2.363010783142403,-1.7204056035005149,3.1940849987086937,3,right
13.609000000000002,-0.11215195636066608,0.7844715994656575,-0.014459620394862066,0.4563542344927786,-2.812146044891787,2.031842374997109,2.3609441213302493,-1.7223437622095426,3.193589186995472,3,right
13.613,-0.0954478607880972,0.7862557931637899,-0.013269798166239414,0.4528725610365144,-2.8058349348498304,2.0267431417523607,2.3697125149560403,-1.7143981120274627,3.1967262546435387,3,right
13.614,-0.07739747373597305,0.7858960237991374,-0.012246207805030947,0.45730883569222547,-2.8142328646040293,2.0321070691432848,2.3535164667065605,-1.7290057268670922,3.190679669680407,3,right
13.619000000000002,-0.05876163417772451,0.7872408450017261,-0.009772012607092304,0.45425973965755234,-2.8082605763219,2.0290559987542878,2.3742899336349628,-1.7102961322475836,3.1985267905842534,3,right
13.62,-0.04171560884770474,0.7900857507534653,-0.007576862274442718,0.4531416646488313,-2.806594452567695,2.0262759885879156,2.356956290296068,-1.7258937046409266,3.19193965748319,3,right
13.623,-0.025033571362753422,0.7926751718439051,-0.003529896143135814,0.46082115551671554,-2.820310307864517,2.0381661566690656,2.3574122310992887,-1.7255081111088615,3.1921744167714596,3,right
13.623,-0.008741669868403726,0.7966019131714053,0.0018279228690767965,0.4459213733089611,-2.793356307049395,2.016180917293293,2.390499623773332,-1.695670916375331,3.2045851778698164,3,right
13.628,0.008331339726953584,0.8021901194726085,0.0046523279064212214,0.4652902758750361,-2.828513647165357,2.0443877320991737,2.309192929265152,-1.7689507214152569,3.1739979455683565,3,right
13.629000000000001,0.030609384738491376,0.8108079476106196,0.004404849758225993,0.44902061814651717,-2.798931263732245,2.0208488064385017,2.4439975434444747,-1.6474747758531705,3.224746001462601,3,right
13.632,0.0453393932499334,0.818268845831686,0.002199431618499861,0.44961377257327767,-2.8000885694254336,2.0214715971406356,2.2661918909158425,-1.8076881056483114,3.157796101177178,3,right
13.633,0.04889314772707162,0.8209147645120412,0.001324061171064392,0.4802298659482496,-2.8555477320637834,2.0663939685284873,1.5199079024738043,-2.4804114345706014,2.876903798076073,3,right
13.634,0.06226329983589042,0.8280888486168954,0.0003358652489660398,0.4047592961657619,-2.7187199110975198,1.9560003940880306,1.342105194645079,-2.640631311834503,2.8099553332749188,3,right
13.637,0.08677763686824339,0.8445713362975493,-0.006570820188337361,0.529974601396435,-2.945781747632341,2.139031195515331,1.4768964494961043,-2.5191256676891607,2.8606968771589125,3,right
13.638,0.10119186884157272,0.8545753055418016,-0.013048180589309653,0.36478833774492625,-2.646217082849643,1.8976159110234752,1.3956245775575256,-2.5924828801774513,2.830126618755886,3,right
13.642000000000001,0.10502969504549858,0.8581202913556163,-0.014063558117438656,-0.32848927654881777,-1.3890843403974527,0.8842849885739014,1.4286482502013822,-2.5625040460960875,2.8425063205216263,3,right
13.642999999999999,0.11729076514084458,0.8765955268562845,-0.020562721764307828,-0.49367653459894967,-1.0895058616350894,0.6428672120234804,1.4291916637252964,-2.5623128858134745,2.8427837166932415,3,right
13.644,0.13288536500257775,0.9007306894124207,-0.03383621936229923,-0.36844226741590114,-1.3166238635998146,0.8258989352672235,1.4117723357182483,-2.5777200050615328,2.836154818670802,3,right
13.647,0.14380144717278084,0.9199264179833844,-0.04639011732134131,-0.44397578097115376,-1.1796557260571796,0.7155126713632189,1.4325814959742322,-2.559089736446537,2.844019336674254,3,right
13.648,0.15621649189436587,0.9430330112000086,-0.05876706319889663,-0.4132326480924105,-1.2353663071309064,0.7604131417772972,1.4164622089414383,-2.573867993697796,2.8380101688298307,3,right
13.652999999999999,0.16499037609491674,0.9641972813973413,-0.07042058709750351,-0.4128255810190856,-1.2361837370907032,0.7610743989361615,1.4249875888264543,-2.5653821563847643,2.841028782731893,3,right
13.654000000000002,0.17217845808228416,0.982001697930382,-0.08129760393062287,-0.42889828383629613,-1.2069276775543156,0.7374872504671149,1.4233383952701169,-2.568248268439673,2.8407364585839128,3,right
13.657,0.18058974564067015,0.9988712158703201,-0.09143016575346685,-0.40963825000169785,-1.2419611570387272,0.765733428568779,1.4206028958526642,-2.5690217739768215,2.8393037836585715,3,right
13.657,0.18483275039387925,1.0115066837697744,-0.10086072573052735,-0.42465309054215244,-1.2146871840936209,0.7437472795332829,1.424942631101846,-2.56645874916184,2.8412585554828285,3,right
13.662,0.1869610572683551,1.0207969146157956,-0.11233303197041423,-0.41650675024614336,-1.229369837628477,0.7555666056016197,1.421190683926164,-2.5698526171970455,2.839848902809652,3,right
13.663,0.18588099451080067,1.0253324743765944,-0.1233204159943638,-0.41848635015489477,-1.226069670522247,0.7529510736420504,1.4230826602959628,-2.565645290589341,2.8399658523049087,3,right
13.667,0.1830550315961949,1.027256568818827,-0.13462831535753092,-0.42041566602993896,-1.2220725179374368,0.7496527777504691,1.4234096464811297,-2.571068044235282,2.841449329464412,3,right
13.668,0.17961545225156644,1.0280941370376986,-0.1480608761066253,-0.41696634497540963,-1.2289390120352532,0.7552816899782349,1.4212840379633263,-2.5644547656470937,2.8386197819403653,3,right
13.672,0.173660029459427,1.026073876928118,-0.15890559593935072,-0.42023984793874325,-1.2225152402656498,0.7500286072013765,1.4241492094570782,-2.570964269734624,2.84186160938494,3,right
13.674000000000001,0.17050864669106439,1.0231494321288785,-0.16844538388975333,-0.4178995030153547,-1.2267556713895023,0.7534451087930503,1.422092014540956,-2.5675655323354594,2.839837410196238,3,right
13.677,0.16833716169136703,1.0191570832496843,-0.17592179787028966,-0.4193220920078389,-1.2250785590656241,0.7522358293739829,1.42156757762426,-2.5635089125993185,2.838562239828538,3,right
13.677,0.16442803164703934,1.0142642927849579,-0.17678047800372615,-0.4184043529720265,-1.22467879185601,0.7515885217449005,1.4261667047818172,-2.5791835375909984,2.845009393865811,3,right
13.682,0.1602518883379788,1.009737829693382,-0.1751216898269872,-0.4192149354023452,-1.2262889843405511,0.7533711737685106,1.4170934589667312,-2.550606247193566,2.832848649296152,3,right
13.682,0.1531038113251667,1.006485464750242,-0.17252372203487198,-0.41845445221239785,-1.2243833315465549,0.7513185696944764,1.4289397426970951,-2.587123448418284,2.848536957580567,3,right
13.687000000000001,0.14579007859333695,1.0037073209803118,-0.1673302056055459,-0.4187302089371253,-1.2257834069974725,0.7527450525344574,1.418967628507646,-2.5567125007455873,2.8354091476548517,3,right
13.687999999999999,0.13959282380217644,1.001265560866461,-0.16075381880191708,-0.419779958689102,-1.2255106877090418,0.7527838920770952,1.4193638231585162,-2.557418946771721,2.8358108398008763,3,right
13.692,0.13103644856732838,1.0006756177381604,-0.1553105246458455,-0.41651385147877606,-1.2242810615889557,0.7506643639500237,1.4380422116891285,-2.615716333528999,2.8607189935726587,3,right
13.693,0.12160608849172191,0.9988346728734211,-0.14955465780146013,-0.42233232502448226,-1.2270001479304926,0.7549472823785048,1.3919514611610653,-2.4725982675678058,2.7994319838826565,3,right
13.697000000000001,0.11191603196779387,0.9973043487031386,-0.1384273063651027,-0.41491309254250247,-1.2234083518724028,0.749368273128664,1.4684389345788484,-2.7098289372293767,2.9010716238595258,3,right
13.698,0.10515778867739381,0.9965109091073431,-0.13071369589519724,-0.42108811722941325,-1.2264502716186962,0.7540588090448486,1.367530582911101,-2.396949100779149,2.7670040232385906,3,right
13.700999999999999,0.1042899047427154,0.9967489105340192,-0.127257909187763,-0.42099802316498003,-1.226207321920897,0.7538070861942399,0.9440666921024401,-1.083547763246909,2.2042925634501414,3,right
13.702,0.10476500821902932,1.0019197838486642,-0.11848686615270557,-0.4089647150629516,-1.2209263974670652,0.7452705404601454,0.8431655505687935,-0.77068266772894,2.070236745029054,3,right
13.703,0.10421209775985057,1.0095644437609685,-0.11252417474429074,-0.43845610939398966,-1.2341027170666194,0.7664011985787405,0.919652108268965,-1.0078765743505755,2.1718599929604445,3,right
13.706,0.09916984810733484,1.0239410839969623,-0.11210960196231322,-0.3895730146432196,-1.2121965086511097,0.731325003628326,0.8735340032688585,-0.8648261673771364,2.110581043715807,3,right
13.707,0.09320133763044543,1.0365493963197527,-0.11278935326639725,-0.45405811632695336,-1.2411075064484436,0.777596669100032,0.8922885456722682,-0.9230244669990356,2.1355048700619363,3,right
13.710999999999999,0.09141396032246335,1.0398364008121588,-0.11338666269352157,-0.7247331160609655,-1.362091498855572,0.9716062800078615,0.8925544732263146,-0.9238425718990169,2.1358550610670255,3,right
13.712,0.08352431217407631,1.051597284891827,-0.11399127212716395,-0.7892463834822461,-1.3910056913258941,1.0178684717787188,0.8827422465574918,-0.8933528231300918,2.122815329615591,3,right
13.713,0.07208579492588543,1.0690769263112387,-0.11859488425046974,-0.7403328139447667,-1.369096029740091,0.9828025261401394,0.8944628995176496,-0.9298469459466443,2.1383981441330917,3,right
13.715,0.06364647150728248,1.0844715078767808,-0.1247910522616346,-0.7698126228666377,-1.3822710232164204,1.0039370847954512,0.885381503119343,-0.9014681892495142,2.126315952873727,3,right
13.716,0.05004912544527988,1.1032912527431022,-0.1335829786241316,-0.7578803886213068,-1.3770015878327404,0.9953665346430051,0.8902321869744033,-0.9167280982525438,2.132777562774039,3,right
13.72,0.03489563771211045,1.1227672495061078,-0.14714607466416366,-0.757572815155003,-1.376733933850327,0.9951879735657027,0.8891446253115576,-0.9132598591881521,2.1313248848890556,3,right
13.720999999999998,0.024571403360444808,1.142060970858521,-0.16029285791009962,-0.7640596661690013,-1.379811261798579,0.9997736127670926,0.887917328129181,-0.9092716682344637,2.129680826063556,3,right
13.725,0.01691558082348439,1.1601544205974639,-0.17269021731569828,-0.7563299135052477,-1.376184222459833,0.9942990557271663,0.8899131963240842,-0.9160539710015798,2.132377327501671,3,right
13.725999999999999,0.011847039465115082,1.1752409244656787,-0.18253664140548878,-0.7622823823368061,-1.3789184861027475,0.998536910582643,0.8882575604455591,-0.9098963172401218,2.130100080093732,3,right
13.73,0.00846427805808739,1.1898977634914456,-0.18659717063077272,-0.7592828957756796,-1.3777191918214322,0.9963276751636037,0.8891026803456716,-0.9137736631361966,2.1313182384546616,3,right
13.731,0.006608372611938106,1.2050886838632175,-0.18711880961810023,-0.75947374139318,-1.3773488823943345,0.9966554642142383,0.8889426562840824,-0.9122753466065889,2.1310295601140807,3,right
13.735,0.004282158065009489,1.2189391875241906,-0.1882278965501165,-0.761229451342478,-1.3789170432086637,0.997584087813337,0.8889496712967049,-0.9122887006185898,2.131038344141047,3,right
13.735999999999999,0.0006319663075689917,1.2300833648648468,-0.1943256321085267,-0.7586526675519514,-1.3768051782386255,0.9961424681655844,0.8884240320335481,-0.9125168091075704,2.130480762744627,3,right
13.741,-0.0005530004566561972,1.2393699702839105,-0.20387852283947577,-0.7609113325602277,-1.3785796672829267,0.9974380344262721,0.8899726490360782,-0.9130720385900121,2.1322163435410735,3,right
13.741,-0.0012793507154742173,1.245881499733569,-0.21539898471828992,-0.7600064061514105,-1.3781816078366764,0.9967863387977752,0.8873763429534944,-0.9113569890785144,2.129247201398505,3,right
13.745,-0.0007927482736382656,1.244678500545696,-0.22607848476755735,-0.7587419479479915,-1.3761990452777475,0.9964810703207544,0.8903112438266513,-0.9137035946809262,2.1326344510074207,3,right
13.745999999999999,0.005116692701978912,1.233443284761512,-0.2305032904865723,-0.7625425662376012,-1.3811370906036562,0.9978316920559139,0.8885620490798152,-0.9121821533590476,2.130606371136099,3,right
13.75,0.01759063946812805,1.211735163769921,-0.235082247346054,-0.7566546167043217,-1.3736729438875326,0.9956604976320935,0.8870318945603322,-0.9108013610679198,2.1288284074185304,3,right
13.751,0.040051005048545585,1.1773406341760921,-0.240768615792043,-0.7629717840227817,-1.381648074133624,0.9980041277015087,0.893792693285216,-0.9170429729128488,2.1366946081431055,3,right
13.755,0.07591186677487782,1.1348409421677033,-0.23975552505729358,-0.7592578181399317,-1.3770110853089839,0.9966039006343815,0.8811933740564821,-0.9052776994229809,2.122025324564577,3,right
13.755999999999998,0.1258358480692578,1.089222184462248,-0.2292935624073152,-0.7563733286275576,-1.3731570611995558,0.9956251029828761,0.8974139487907924,-0.920516259619597,2.1409174050314204,3,right
13.759,0.18151572034638144,1.043278875199045,-0.20477710203885327,-0.7695157677952706,-1.390258792736632,1.0002824540486848,0.8838537366348481,-0.9077376556233243,2.125121770684319,3,right
13.76,0.24443440758834772,0.9962127649178161,-0.16761483525595683,-0.7450498185861913,-1.3585006851594386,0.9915777835054217,0.8842179528394595,-0.9080729394400764,2.1255425778406365,3,right
13.764000000000001,0.31142705334982607,0.9489113517419261,-0.12614821143342747,-0.7764856388853782,-1.399289861694186,1.0027703614102124,0.9101144168250008,-0.9325682625884832,2.155723262201211,3,right
13.765999999999998,0.3681565439712762,0.9061402262720161,-0.0846269065499521,-0.7502339428293904,-1.3652320013160255,0.9934197305187984,0.846454140474086,-0.8723329699996537,2.081533077424676,3,right
13.77,0.43056047052616353,0.862256500640705,-0.05256924043898618,-0.7509748991655517,-1.3661712961559285,0.9936972145418224,0.952017047121549,-0.97224248126161,2.204560998161473,3,right
13.77,0.471266311377569,0.836802350455194,-0.03751848934685352,-0.8009296911131081,-1.4310580250807197,1.0114477813701983,0.812771007213826,-0.8404261216318527,2.0422640763782507,3,right
13.770999999999999,0.47739082470295263,0.8309149480737047,-0.032917296851330484,-0.6781131816862882,-1.2715512608571484,0.9677894864754467,0.2282322943329696,-0.28669949205348805,1.3605632468696052,3,right
13.775,0.5138125233738378,0.8073886034085269,-0.03716305765000451,-0.8817546085590944,-1.536029985584761,1.0401856226300947,0.08897320555974167,-0.15477721453144805,1.1981513454355661,3,right
13.775,0.5493839439631982,0.7876344807165363,-0.04360997077048796,-0.6131561604999493,-1.1871780694660936,0.9446931331115881,0.1945611254933814,-0.25490673813162446,1.32142500481186,3,right
13.779000000000002,0.5516939496587939,0.788962727656775,-0.050351959849663036,0.5142603902576305,0.2770745198538671,0.5439073066596157,0.13086762736530883,-0.1943416430957683,1.2468523498021886,3,right
13.78,0.5697918007090818,0.7915744895187009,-0.06773522557128311,0.7828441143480694,0.625939444618796,0.4484128700174538,0.15679682019735336,-0.21922661478448657,1.2775064292796943,3,right
13.78,0.5934990780876319,0.8103247247789843,-0.08629513054571686,0.5792236850222264,0.36143948373223056,0.5208134962296125,0.15714376700868093,-0.2192377719253017,1.2775005894981715,3,right
13.784,0.6168646130763944,0.8541838342284306,-0.1126964496601988,0.7020283052288216,0.5209662617048556,0.4771475605240108,0.14356576204969826,-0.20651219161060852,1.261842792746631,3,right
13.786,0.6663231718297045,0.9048224317186363,-0.15733066850521832,0.6520576722619277,0.45607392343537007,0.49490854338677315,0.15985720904094775,-0.2222121986033747,1.2811895206468122,3,right
13.789000000000001,0.7500928822311048,0.9412393891772664,-0.21400721685100543,0.6513755194527766,0.45511176055609587,0.4951752431162238,0.14712860238211448,-0.20929290948297408,1.2652249675821807,3,right
13.789000000000001,0.8642386197841867,0.9466490930062412,-0.3055549615504054,0.6775231117572516,0.48923038114987094,0.48583076560073185,0.1540559909536493,-0.21733855792464435,1.2752332487824858,3,right
13.794,0.9852402664856399,0.9186895258412937,-0.4410919163493209,0.6462156797556758,0.4483457584627008,0.49702884461521335,0.15238049265164122,-0.21393193531273857,1.2709121437149524,3,right
13.796,1.0920217914986337,0.8745685042428606,-0.5978748080254913,0.6705803200963891,0.4802099383070622,0.4883002053685687,0.15065960241263698,-0.21375179124797716,1.2707920437382119,3,right
13.799000000000001,1.1681726733579842,0.8338286291160608,-0.767960724847679,0.6574334288720313,0.46304064066589185,0.4930025951274071,0.15379565460591746,-0.21673537072508336,1.274465904991573,3,right
13.8,1.206074237144957,0.8101255887384692,-0.9484103775498662,0.6605142556090001,0.4668550908833926,0.4919643192922567,0.15068658628962373,-0.21110049485572235,1.267340081992471,3,right
13.805,1.219309795905734,0.8197898597282917,-1.134118060853314,0.6637866209185667,0.4717062704229751,0.4906179856931964,0.1530418817909482,-0.2194780852547785,1.2780854534801964,3,right
13.806,1.2204263391133532,0.8654612854330594,-1.3261110971904497,0.6581210843825007,0.46331326425827757,0.49294706238813557,0.15160665602625506,-0.20894947288417987,1.2644792540258587,3,right
13.809000000000001,1.21036289586269,0.9451725737554478,-1.5339964289434806,0.6633257274572966,0.47134206041104776,0.49071042790992714,0.15222112521016185,-0.21930551905826376,1.2779159554560087,3,right
13.81,1.1796741103099264,1.0506112379423578,-1.7592764203491233,0.6598959924262695,0.4658762553676503,0.49223777934511453,0.15233338107226657,-0.21376507392070132,1.2706973512016908,3,right
13.814,1.096804846399535,1.1653882077305364,-1.9443388066521434,0.6615638445594273,0.46803301334728553,0.4916472575988569,0.15144624503739534,-0.2080552353861058,1.2633268889942364,3,right
13.815,0.934718380097342,1.285492786869729,-2.061571957296026,0.6608628313277634,0.46899977752668054,0.4913257095287781,0.15325181117708672,-0.23107282402242846,1.2931604033440682,3,right
13.819,0.6974234296635211,1.399902340416571,-2.1335455577676226,0.6615486566873402,0.46560138345708413,0.49238683367305974,0.15050883378080576,-0.1889616901275868,1.2385403962163952,3,right
13.819,0.41963981654932303,1.493891412577083,-2.122080910620312,0.6603136987420165,0.4703953401242894,0.4908786481074383,0.15376239361795263,-0.24277842135216157,1.3083615336124503,3,right
13.822000000000001,0.15645001674478656,1.5587050521255774,-1.9613244178511613,0.6619112926850534,0.4656508334621514,0.4923870939786858,0.15116074466369528,-0.19796035942290566,1.2502055643178713,3,right
13.824000000000002,-0.10964201687960853,1.6316552009208047,-1.4981309925186403,0.66099293126219,0.46839692212247575,0.49151274026967634,0.15113243272366,-0.19907476470547064,1.2516632797575649,3,right
13.829,-0.3575208569295528,1.7384697090399746,-0.72491979240752,0.659570283278903,0.4699490343387748,0.49098680925144295,0.15627580192305596,-0.284718830858929,1.3627707654746892,3,right
13.83,-0.5299348934563601,1.8659102880897678,0.10086439065384842,0.6649752776875251,0.4620990876027329,0.49358772276837665,0.14381080789864154,-0.07439436191625416,1.0898908747714549,3,right
13.833,-0.6685059776099163,2.0206635349791564,0.7872571468563232,0.6549965973603822,0.4767113649252851,0.48874533636593775,0.16439437917857358,-0.42303374644148295,1.5422382412352906,3,right
13.834000000000001,-0.7278556825301508,2.116118026816823,1.1384088941513784,0.6678570582105181,0.4580137738707831,0.49494930250413854,0.13728491739855775,0.036772082220254146,0.945643407030134,3,right
13.839,-0.75319110653327,2.141783737293955,1.1926706482868668,0.6571033856220175,0.47359579698798315,0.48977176843730297,0.023511067978387375,1.9668384552165707,-1.5585493780863158,3,right
13.839,-0.7211117312516209,2.139301116941036,1.1223855859723508,0.657313800952106,0.47308163037224393,0.48995025913960893,-0.0035801988596878623,2.4266027974307938,-2.1551183511216987,3,right
13.841,-0.47614212019848534,2.037025829965871,0.8748205284978113,0.6781346677505429,0.44375082958746853,0.499687611573539,0.016960056212602936,2.0780423537418358,-1.702828755944931,3,right
13.844000000000001,-0.07151885783642481,1.8846623471608819,0.6299005007336145,0.6270403296057472,0.5159216289495283,0.4757055097222756,0.004571275010064992,2.2882632695364005,-1.9756137669741851,3,right
13.845,0.5240322687423886,1.7117457653492654,0.5200388394871613,0.7117366404697842,0.3962533918571691,0.5154925345481389,0.009607387425595339,2.2027189931904925,-1.8646310119952068,3,right
13.847000000000001,0.9525074267325143,1.5819668401340707,0.45095113372836065,0.6000354199542811,0.554088367606436,0.462990629998232,0.009694576250236783,2.2015560092401114,-1.86305025226509,3,right
13.847999999999999,1.0599975638216805,1.5495724219642342,0.4412188984900285,0.13085023796961134,1.2163096520364385,0.24282777198575722,0.007019610139670554,2.246310718066473,-1.9212662934171825,3,right
13.849,1.4254291102703642,1.4414511434010957,0.4172857669215403,0.019200661843236645,1.3741517587299374,0.19025960358547558,0.010230910110112155,2.192723205280745,-1.8515306594967527,3,right
13.853,1.8384714198960406,1.3047667470161812,0.263072725004615,0.10381624839903458,1.2544723758981078,0.23015020465077035,0.007720202340895343,2.234426942029943,-1.9058439300940115,3,right
13.854000000000001,1.9705779984745688,1.2589435028055322,-0.08174410727041116,0.05278867265184695,1.3266523919078321,0.20608243941495225,0.00906889586549391,2.211923349974237,-1.876558747478211,3,right
13.859000000000002,2.0133998264271495,1.2687889786429345,-0.5412916762245785,0.07361343660468399,1.2973221328580768,0.2158147954679978,0.008804975256646438,2.2172003953641264,-1.8832326135650295,3,right
13.86,1.8719726424859513,1.4086879535441474,-0.8834649412403456,0.07369424659264866,1.2967900652432196,0.21615957421039514,0.008325216555077489,2.2227922256966295,-1.8910440626865352,3,right
13.863,1.5290413020820584,1.697682127755061,-0.9847125801078747,0.06322345518461925,1.3124111537457979,0.21061908746933503,0.009154321487435996,2.2131106459887415,-1.8775251260873893,3,right
13.865,1.083454902390241,2.029816287446857,-0.8618031961172918,0.07568099001258317,1.2936579242228037,0.21734003602610383,0.008313237302701044,2.221999379030966,-1.8902322497348352,3,right
13.868,0.616559006181747,2.319301614408909,-0.6016062314207415,0.06610130712990417,1.3083252911769971,0.21198570087235125,0.008911129666937039,2.2161451734428885,-1.8817006733055135,3,right
13.869000000000002,0.21951915478393,2.5328740342292457,-0.259057347819263,0.07133349274811937,1.300451496599262,0.21480835628947073,0.008745359563306774,2.218999248803458,-1.8853955653155483,3,right
13.872,-0.10820489542767209,2.6458674505946513,0.16417654866849518,0.06957503546790691,1.3019572162508775,0.21471326808926353,0.008347936830779466,2.2177706318324577,-1.8855374225770278,3,right
13.872,-0.3225021531258244,2.5942226806821944,0.5706133898246479,0.06974186789205267,1.3048531786319035,0.21244656023994454,0.009348292669135231,2.2190120660496255,-1.883180879785392,3,right
13.877,-0.40399464510613226,2.361426172225264,0.8592276124228678,0.06946982543589626,1.2998504874907224,0.21635386598651415,0.007877475320244558,2.2167957750642886,-1.8862238430168963,3,right
13.878,-0.4125807222024407,2.015158081485933,1.0276149476355299,0.07052865149396775,1.3049611720450436,0.21190258140207757,0.009416845862011334,2.219641703004628,-1.8836069214078108,3,right
13.880999999999998,-0.39728317204643393,1.6197015467614997,1.042257549311427,0.06938631603439685,1.3013103865367779,0.21530942158253605,0.008527277928130617,2.2180017450320637,-1.8851250308877225,3,right
13.882,-0.39395810139344256,1.2206621901867076,0.8917907829124255,0.0686686857509114,1.3022747581451481,0.21500908684692713,0.007822945605553942,2.2155194959165545,-1.8850461815387112,3,right
13.887,-0.42175040125574836,0.8639862680065832,0.6685553187718931,0.07372896979764876,1.304900092931185,0.2100659781971685,0.01098587198803522,2.2250016118984073,-1.883596762767895,3,right
13.888,-0.47928145877761447,0.5731184115434786,0.447513642496506,0.0625475999558156,1.2983637782708395,0.22153909397828825,0.005116645048301848,2.2074837685945052,-1.8863723490831896,3,right
13.892999999999999,-0.5741057882908238,0.355588472811051,0.2519943352833404,0.07931519806429144,1.3079892889346998,0.20446640960689455,0.012647270336031923,2.2300685463355263,-1.8829254965307651,3,right
13.894,-0.687708240354338,0.2038606635830457,0.08738093686146006,0.06132477421239728,1.2978945283436314,0.22260933814774878,0.006363489424550679,2.2111698550756875,-1.885747763720791,3,right
13.898,-0.8340568432149781,0.12630743449027776,-0.013792106290415943,0.0717159627623978,1.3037283399390596,0.21212863806202464,0.006538361689347703,2.211576655098783,-1.8855319154624104,3,right
13.899000000000001,-1.0126129896677365,0.12936256555089692,-0.038583519627797894,0.0809411377580924,1.3083918435968664,0.20320739607787808,0.01849646734559657,2.2480738256507298,-1.8807575808958488,3,right
13.901,-1.1968203753298063,0.19757351635935763,-0.007749822100098645,0.04092010636912221,1.2875109176771078,0.2423904442265747,-0.01089654625999414,2.1584381513774487,-1.8925899212417707,3,right
13.902000000000001,-1.4586663577749266,0.3298786850189094,0.08889280026743777,0.11511610721513382,1.3262565573749483,0.16972515692598183,0.03783551628132341,2.3070768946982803,-1.8729910119398925,3,right
13.907,-1.6469033546904366,0.4265341248849524,0.16343467157097566,0.01982991451128298,1.2765376286300814,0.2630127706449187,-0.026438366297106154,2.110987573059396,-1.8987991721311959,3,right
13.908,-1.6944732208890838,0.44842139828786537,0.18205179994058607,0.09937937842377959,1.3180288116711272,0.18514831817377972,-0.2962622128244642,1.2878239753732983,-2.006916094153622,3,right
13.909,-1.8616671693145515,0.5201343094919963,0.21633500935914407,0.097277423465696,1.3168736416525153,0.18724003233929978,-0.3605353934847212,1.0916983477055289,-2.0326731356870944,3,right
13.911,-2.0614209409252133,0.6055036308578775,0.2115769131283185,-0.054582354098558994,1.2379073416918709,0.33572709496514297,-0.311798923464075,1.2403728364899191,-2.013138795219441,3,right
13.912,-2.1657880815772943,0.6435198454362006,0.14290669947624213,0.3186036228007085,1.4320134734450798,-0.029190184443923087,-0.34121052724039436,1.1507646241222258,-2.0249593652345173,3,right
13.917,-2.2494551299542396,0.6935467984008374,0.03446693530902886,-0.30012682283412406,1.1101880421228096,0.575821048552443,-0.32921217247392087,1.1871056805132691,-2.0200692027617,3,right
13.919,-2.2740209199292396,0.7248532319322726,-0.04824255177255142,0.5159587350587411,1.5346581246638458,-0.22215422020408881,-0.32909869543219494,1.1878311345815145,-2.020147756216452,3,right
13.919,-2.269080125645508,0.7312825873724216,-0.069072452808394,3.9422365482773345,3.3164455702773874,-3.572445029293509,-0.3353146279247122,1.1684893620249892,-2.022511733192889,3,right
13.922,-2.246074364057697,0.7730304820637628,-0.13591444631061916,4.758358136712706,3.7409069914210384,-4.370445555370977,-0.32782635933945525,1.1914981196216003,-2.019566438986809,3,right
13.923,-2.164719017176778,0.8330708807989601,-0.2085178762881218,4.139495588288208,3.419076621462053,-3.7653050987427945,-0.3337241163153186,1.1738293335916257,-2.022041668991643,3,right
13.925,-2.0504129205658064,0.8962286041764889,-0.21948320063210086,4.512996572673283,3.6132370027146927,-4.13057290632514,-0.33041696655352343,1.1828736662521413,-2.020355008455283,3,right
13.925999999999998,-1.916137351189918,0.9794931480092902,-0.2117880116721329,4.360586119987966,3.534135125026804,-3.9814324145614552,-0.33140033358552934,1.1816747753270063,-2.0213731155654835,3,right
13.932,-1.779496556767354,1.073083429112149,-0.17892249964510798,4.359214741412538,3.533201860523395,-3.980249549444557,-0.3319144580968824,1.1778956424775742,-2.020812328221746,3,right
13.933,-1.651757464744699,1.177113921608319,-0.14543642543182106,4.438080401494037,3.5744307633874612,-4.057208868838705,-0.33072395760660755,1.1832901329520253,-2.0209470385746364,3,right
13.936,-1.524574837141556,1.2929639443437515,-0.12406878380498569,4.343020845755236,3.524903204596372,-3.964325476055525,-0.3320838415755984,1.1791569829990438,-2.021497394956924,3,right
13.937999999999999,-1.3901403913311108,1.4057887783924956,-0.10879593195930341,4.41796265571102,3.5636958954924367,-4.037739447740643,-0.3306974921750407,1.1801159903639922,-2.019805964078287,3,right
13.942,-1.2381731704763523,1.5135455361160073,-0.1245820974183654,4.375803153241288,3.5423519615029626,-3.9960822571726533,-0.33218421485834315,1.183054581356775,-2.022997995304711,3,right
13.943,-1.0583861451194931,1.6105601834823986,-0.15818340772831407,4.388572776402556,3.5479930844067935,-4.009314080445037,-0.33055846719732207,1.17686390140971,-2.0184729738461398,3,right
13.946,-0.8486205121899869,1.687473438197859,-0.19049612830767623,4.39475526763424,3.5524341741297176,-4.014444955076474,-0.3320748604781847,1.1841244729664904,-2.023210200194648,3,right
13.947000000000001,-0.6183034802468506,1.7519410538490294,-0.21983138163532215,4.379913635432357,3.5437387111986993,-4.0006611522355815,-0.3313439806228846,1.1794860367405684,-2.0205309886625917,3,right
13.950999999999999,-0.3776169774171196,1.8067186333262102,-0.24157447306223367,4.397183474832913,3.552711808555732,-4.01755531479459,-0.33026222579132947,1.1768656554243893,-2.018041068802944,3,right
13.950999999999999,-0.1396794091331312,1.8500651428648096,-0.2582560233373814,4.379070478660857,3.545103051639429,-3.998490000965013,-0.3341631341753156,1.1908760673449805,-2.0286056442655838,3,right
13.955,0.07699812208329695,1.8837092549447254,-0.2725746024037613,4.399112815105669,3.551386809244452,-4.021180626375511,-0.32712574502417135,1.1642929843423824,-2.0090917937302395,3,right
13.956,0.2542129733762667,1.8969499582380815,-0.2843963517877057,4.376732333761559,3.54592350470356,-3.994683903089172,-0.33609116030741465,1.198643359590951,-2.0341207226512923,3,right
13.96,0.39415148591432886,1.8880031342873795,-0.3095064672694048,4.397839536475217,3.5503160353121954,-4.0202384806241955,-0.3286363169324449,1.1698746463099072,-2.013236458521419,3,right
13.96,0.47976026562413043,1.844268387553552,-0.337934199140443,4.387487380847576,3.5487384481650723,-4.0072785681920475,-0.32879201235758526,1.1707939007123542,-2.0137851931244697,3,right
13.965,0.504209549856368,1.7680486640440782,-0.3538135186500179,4.372832018111982,3.544392491726703,-3.990493506165738,-0.3431295074435742,1.2252759941271283,-2.053651864747783,3,right
13.966,0.4867891097173637,1.683227063401127,-0.36153504379217016,4.426397895785955,3.5579028239754393,-4.0535957460163585,-0.30795626096492923,1.0911625912265164,-1.9556870872410081,3,right
13.97,0.38935150694980514,1.5691982915895277,-0.3251511798125829,4.329555653461855,3.534150611613704,-3.939020757503038,-0.36625010927103396,1.3136050550578142,-2.1181104411418734,3,right
13.970999999999998,0.2950460729148382,1.4879637319448946,-0.27975110120653,4.453009037988071,3.5641784333741398,-4.085255685624091,-0.28936971406169815,1.0201772953306225,-1.903874671660269,3,right
13.974,0.27043988606162356,1.4690736111193428,-0.2646006532455617,4.350317949802684,3.539311549484367,-3.9635493728478255,0.03336961583084665,-0.2113772213264977,-1.0046281526410326,3,right
13.975,0.16280895684448088,1.3947704363157731,-0.19959829970791648,4.352527059313619,3.539670351205313,-3.966256649471394,0.11024920814013169,-0.5048087766470142,-0.7903826760113053,3,right
13.975999999999999,0.008829115560880167,1.2956962579845817,-0.10348903812982999,4.549858868706895,3.5879204647595535,-4.1998842954775775,0.05196121695493921,-0.2823463378633039,-0.9528193611877509,3,right
13.979000000000001,-0.09913424183377556,1.230631433456359,-0.03093876026460868,4.065658400571792,3.4697865184859604,-3.6265113758485032,0.08711712464870298,-0.41651438508627436,-0.8548485585419386,3,right
13.98,-0.2358415023290728,1.1527580970984512,0.042362866927663695,4.868185819851021,3.665479622965496,-4.576859541279953,0.07281317477778328,-0.3619300390725663,-0.8947010485878002,3,right
13.984000000000002,-0.321698953532734,1.1075830675776632,0.0826179811222991,3.8097564951331906,3.407430789704843,-3.3234818413573826,0.07260963779675421,-0.3611533829549031,-0.895294096582386,3,right
13.985999999999999,-0.3395626523359482,1.0987706082393518,0.08851824578549078,-0.6329591408375893,2.3237691728820202,1.9383822344153745,0.08011359328397481,-0.38977961528788885,-0.874335247001023,3,right
13.985999999999999,-0.4143182911716765,1.063077286486368,0.11109415451854625,-1.6913508210954944,2.0657208204515207,3.191754354586772,0.07112360849547839,-0.3554937077041872,-0.8994522500908315,3,right
13.987,-0.4982086202188416,1.0243702135321444,0.1290102664193823,-0.8889941212260499,2.261411796206242,2.2414314806188465,0.07812640833013644,-0.38219272781601615,-0.8798747636464113,3,right
13.992,-0.5458294860212588,1.000290170632173,0.1245892022138969,-1.3727496497894145,2.1432833494167776,2.8147384961976836,0.07435072749044683,-0.36779571481999795,-0.8904227795237287,3,right
13.993,-0.5870328183315385,0.9772247960288023,0.11803407278500828,-1.1762319602453157,2.1915234429862913,2.581231426239353,0.0752082331351045,-0.37109158129221403,-0.8880878128221151,3,right
13.997,-0.6086141618988179,0.9596158463800699,0.10680082042982222,-1.1729053057594694,2.191895957188235,2.578358644982888,0.07622379853501088,-0.3748896547888346,-0.885083943630897,3,right
13.998,-0.6167440071252057,0.9430523593405571,0.08545747906148715,-1.2766910303267536,2.1670156945961896,2.700227056528543,0.07446604535735324,-0.368316808287781,-0.8902808141887436,3,right
14.001,-0.6179590308795315,0.922442376554766,0.060361479767948985,-1.1527817754460772,2.1970489916967395,2.55392464513233,0.07612281338920254,-0.37447260988726927,-0.8852979642389567,3,right
14.002,-0.612338997100385,0.9005606876586596,0.03696374604529677,-1.248643109870573,2.1733089884861,2.6683543211718153,0.07500799399054575,-0.37035161799333594,-0.8886961574531753,3,right
14.007,-0.6079866538942102,0.8797565812240187,0.01424819665802524,-1.198182178299629,2.1867810424704017,2.6057119583668182,0.07548408658076769,-0.37216958007548784,-0.8873722388228518,3,right
14.008,-0.605200944840532,0.8566008608205367,-0.008661830771111384,-1.2075038806418776,2.182500626451206,2.621707099451987,0.07553070293269534,-0.3720995754744579,-0.8867009595404887,3,right
14.011,-0.6068817786909266,0.8301827742991383,-0.02659559930764431,-1.2243958957420649,2.1808429046440363,2.635635515291331,0.0751621599826873,-0.3712600904951123,-0.8889648373846015,3,right
14.012,-0.6116585999963602,0.8065373305945356,-0.03866453038880305,-1.198077404031129,2.185298950811748,2.6093092705159697,0.07565111064946325,-0.3722799209870786,-0.8857572866937351,3,right
14.015999999999998,-0.6208262476317508,0.7835389799417711,-0.044993117366678416,-1.2204069336897108,2.17983704923121,2.6357982534658237,0.07521063442599696,-0.3715011623288701,-0.8889514161843819,3,right
14.015999999999998,-0.6349426827604248,0.7592652045759041,-0.046790749404793434,-1.2100472425925588,2.186001000471589,2.614541844900188,0.07546597247906398,-0.3719541125294811,-0.8871037324753386,3,right
14.020999999999999,-0.6512601664313664,0.7390725858972613,-0.050716409025364395,-1.206037634199546,2.1786645559425497,2.6303306595985814,0.07550711854256978,-0.3716620511008738,-0.8860090902736041,3,right
14.023,-0.6705142014787516,0.7249284722320739,-0.0597587079397787,-1.221769304146612,2.1872325665190293,2.6183239472300333,0.07509546180472379,-0.3720574902744693,-0.8914438376271975,3,right
14.026,-0.6890142512831989,0.7183608538307547,-0.07271720765423918,-1.2014310592449737,2.178967536919182,2.626898036627763,0.07587030769033112,-0.37136730316512623,-0.8813337267076817,3,right
14.026,-0.7052589048402176,0.7216046744989387,-0.09261398680074598,-1.2155751197150035,2.183162305998255,2.6247766832704684,0.07489033225849742,-0.3723110639595284,-0.894273406848773,3,right
14.030999999999999,-0.7178536975302393,0.7315622495918146,-0.11848049453848905,-1.2203289614179362,2.188583602331669,2.6141412280642036,0.07570153053387875,-0.3714961222770091,-0.883490745588278,3,right
14.032,-0.7196881112943448,0.7522332375565153,-0.14039708236219567,-1.1858000606422165,2.1681859795124865,2.6444397941803572,0.07566112931329061,-0.37144910609221027,-0.8838323750602047,3,right
14.036,-0.7147552710005631,0.7818873945383515,-0.15622911005597884,-1.2530771215671495,2.2052302792321536,2.5920887876639886,0.07419374665086848,-0.37330294772953343,-0.9041753281508744,3,right
14.036,-0.7015501459847566,0.8129833628143492,-0.16766310048652872,-1.165520752380953,2.1579412181710147,2.6579279460551644,0.07781387290769587,-0.3687951976514299,-0.8541405549588179,3,right
14.043,-0.6709517328450834,0.8492216705911779,-0.17303077284061752,-1.2391122204931304,2.1973109126562416,2.603544127271884,0.07181349300717413,-0.3762787434885271,-0.9370925620060049,3,right
14.044,-0.645678151484517,0.8723357661148282,-0.17805455281373112,-1.2363563283494114,2.1964056476771976,2.6041214527556242,0.07972284054275071,-0.3663863892461524,-0.8276960538654918,3,right
14.045,-0.6380446175191439,0.8789028856822626,-0.18061887804982785,-1.0980636448140455,2.120902514138571,2.7102017858596996,0.11287929038706654,-0.3247228209837128,-0.3685967435444551,3,right
14.046,-0.616563843304268,0.9002848848214811,-0.18707183361259166,-1.4390769595098605,2.306262627605351,2.4507595179780814,0.12078100996419051,-0.3147978923488858,-0.25922555408073134,3,right
14.046,-0.5726703213007287,0.9309116022715742,-0.21961497942340516,-0.8732411129769361,1.9989896846463198,2.8804446658433087,0.11479237289555433,-0.3223300040920949,-0.34214044154696865,3,right
14.05,-0.5455459558633806,0.9443528208963448,-0.2486006691204549,-1.6197314937155762,2.4042833445314282,2.31386071371091,0.11840327678433822,-0.3177884694491829,-0.29212970108750164,3,right
14.050999999999998,-0.5363725661360673,0.9495790807901325,-0.255947644696238,-4.752463570714668,4.105196694279917,-0.06495771671816808,0.11693400208967476,-0.3196226893760612,-0.312492495542703,3,right
14.052,-0.5026595554374116,0.969182976767304,-0.2817393928356463,-5.498989550781042,4.510549663217709,-0.6315279155418154,0.11691469676034538,-0.3196828841420556,-0.312743984654959,3,right
14.055,-0.4560743502498813,0.9948465069479026,-0.31307540211526874,-4.933027127686927,4.203234027557697,-0.2019619290744137,0.11768201699289907,-0.318662188364485,-0.3021285559721054,3,right
14.056,-0.4104578517282522,1.0153332171603986,-0.32250806746095584,-5.274337705816092,4.388493667833009,-0.46104048952514365,0.11676276202552877,-0.31987583785265494,-0.31485425222719454,3,right
14.06,-0.3508366850022654,1.0349175656952654,-0.32131650040687415,-5.135529746349268,4.313360208531136,-0.35567228305358145,0.11747978769781875,-0.3189484883519472,-0.3049245987885897,3,right
14.061,-0.2912549364239887,1.0512465172684293,-0.30997354340205063,-5.1334529478369415,4.311764309085925,-0.35407144529299617,0.11708885409704302,-0.3193903296499858,-0.3103400204965132,3,right
14.065999999999999,-0.22899600426788694,1.0574470516822716,-0.2907079165666385,-5.20641466572839,4.352040356257891,-0.40951548806335547,0.11718859009666073,-0.3194272955082986,-0.3089582907324744,3,right
14.065999999999999,-0.15355722130111255,1.047912670095501,-0.2727979714598225,-5.119055793594178,4.303953527092415,-0.3431293038634661,0.1172718277922501,-0.3190417141466607,-0.3078035614124285,3,right
14.07,-0.08227750597300798,1.0427004620517597,-0.2573270747461441,-5.187045392998023,4.34114749531321,-0.39477163981876806,0.11711809840897976,-0.3195804030396959,-0.3099367390387194,3,right
14.07,-0.025972192438977703,1.056264273979774,-0.2381184653290724,-5.150508684373522,4.321883222747548,-0.3671196270735968,0.11726563126185945,-0.31911925345277237,-0.3078894341968821,3,right
14.077,0.018815218371453023,1.0635484731758202,-0.21726432094794945,-5.158567799528731,4.324424928597901,-0.3729747565590348,0.11715367544802127,-0.3192577011305192,-0.30944005440022526,3,right
14.077,0.06161221047289525,1.0586258256899161,-0.20298419217663538,-5.168812119681945,4.3331434990389885,-0.38120671470591394,0.11723837422055092,-0.3196627008889946,-0.3082753419182943,3,right
14.08,0.10233542936958992,1.0587382225362527,-0.19083927486627486,-5.151353012947915,4.319791661756624,-0.3673914414718642,0.11715631413520292,-0.31859662379642084,-0.3093921151466059,3,right
14.08,0.133726361381894,1.0586758283175732,-0.17681514812225657,-5.167638352388501,4.331720299191396,-0.3802028199912433,0.11725206406616231,-0.32022075977984477,-0.30809598249822046,3,right
14.084000000000001,0.1627709045974577,1.048116057890053,-0.15481512016430798,-5.157073989624325,4.326013566167856,-0.3721891708888727,0.11715492935108096,-0.3184830731751642,-0.30940892729828684,3,right
14.084000000000001,0.19272193196916565,1.0323632803356797,-0.12093726838645505,-5.160737555958066,4.322270543227285,-0.3741292394693416,0.11720323355105008,-0.31949700617512283,-0.30875894802564474,3,right
14.089,0.2144686880105362,1.012938874869527,-0.09290585953774459,-5.162912359044092,4.33654891410915,-0.3777007120319781,0.11728370272268442,-0.3203221054642662,-0.30766009159108754,3,right
14.09,0.22745536278586254,0.9900295222973875,-0.07779550788122477,-5.157141417734999,4.313877402024493,-0.3704552697581056,0.11699503148287274,-0.31663096049673534,-0.3115879637090798,3,right
14.094000000000001,0.23441088145365274,0.9686444398847105,-0.06416544860579315,-5.163764928929595,4.338300627487522,-0.3785360971789999,0.11751896963850086,-0.32349068299248424,-0.3044624380504172,3,right
14.094000000000001,0.2362499422789513,0.9470708188990895,-0.05534102134759872,-5.159192490574888,4.323786221926692,-0.3733035568004929,0.11684869572470222,-0.31467923591021985,-0.31357674348655207,3,right
14.099,0.23530685722757044,0.9270647550337303,-0.05407815528606365,-5.158938986606575,4.313270259137223,-0.3715843499261241,0.11740735911086311,-0.32203674656380477,-0.3059813820721093,3,right
14.1,0.2248114028854345,0.910404978061105,-0.056012068280511834,-5.166088819906717,4.362559019433572,-0.3836769055044271,0.11739594928309001,-0.32183266273982014,-0.3061331980469906,3,right
14.104000000000001,0.20840113529647092,0.8945988236863869,-0.06279736852732358,-5.151735294898901,4.270564003537013,-0.3604273001240905,0.11631824875557714,-0.30781966305492364,-0.32079396178068875,3,right
14.105,0.19338432773142894,0.8822949695943032,-0.07284177416546114,-5.17041669706881,4.388820974350363,-0.3904647696645338,0.11896298544492552,-0.3422676419140119,-0.2848214565280002,3,right
14.11,0.17142074781093997,0.8707841571775541,-0.08698113655134966,-5.154711799667245,4.290042646194431,-0.36531494863983927,0.11457864953365453,-0.2851499410369024,-0.34445135984140673,3,right
14.110999999999999,0.15459093652879746,0.8612832978726119,-0.0997312489673895,-5.155538586646779,4.29291723940368,-0.3662788048598577,0.12036193255641486,-0.3604878701400161,-0.26579841890593775,3,right
14.113,0.14849020365580384,0.8586502245056672,-0.10286338274931278,-5.184187585594741,4.480603852567533,-0.41330153318386376,0.14463766967886288,-0.6767123754634423,0.06439481916282697,3,right
14.114,0.1308030920050372,0.852521718479726,-0.11243294272032292,-5.113277980968065,4.019060519124023,-0.29739582025784994,0.15042223061118942,-0.7520495159864102,0.14305932435176938,3,right
14.115,0.10117523751383392,0.8410695126413394,-0.13458952695814452,-5.231002833450976,4.784375058531136,-0.489652628547248,0.1460365115794003,-0.694932666487369,0.08341690799120549,3,right
14.119000000000002,0.08256817042484735,0.8355807126819415,-0.14602093386387088,-5.075671748480572,3.774932774896094,-0.23606834949664143,0.14868072420939538,-0.7293809762675018,0.11938465916742513,3,right
14.12,0.07632668759853226,0.8320625510783705,-0.15064298292462602,-4.424445066107292,-0.4619463162285756,0.8279852330132933,0.14760760624708197,-0.7153651332191463,0.1047653887562944,3,right
14.120999999999999,0.055178663341996816,0.826765005389287,-0.17055452060245554,-4.26904757152986,-1.4713430201538291,1.0815131647211795,0.14758633398836446,-0.7151671583977818,0.10452428845289258,3,right
14.124,0.02050260127234045,0.8249262483267819,-0.1980597006613246,-4.386899551860715,-0.7060870673599813,0.8893267314493473,0.14815914007159903,-0.7225159170693456,0.11224767044671903,3,right
14.125,-0.01068908488384015,0.8222348195460623,-0.2230689121854404,-4.31582148213791,-1.16761631371467,1.0052222974221576,0.1474747805192137,-0.7137131762799718,0.10300587702346228,3,right
14.129000000000001,-0.0435915613302794,0.8240496237877504,-0.24161851389411715,-4.3446357884013,-0.9798338290586082,0.9580660654702579,0.14800480094264024,-0.7205691586162715,0.11018642291486767,3,right
14.129000000000001,-0.07459360991686902,0.8376922124060522,-0.2553539470194371,-4.3453765579943955,-0.9772107493728273,0.9574353688256272,0.1477282146618281,-0.7168704995568906,0.10636799966391583,3,right
14.133,-0.10056833507018265,0.8499422584900258,-0.27195585891998886,-4.329579090326366,-1.0755922421952886,0.9820707496039222,0.1477697367286353,-0.7177197386109204,0.10711424558672825,3,right
14.134,-0.12460842834139614,0.8562868961098287,-0.2837132421109998,-4.348622369333317,-0.9577756761627918,0.9525914706456674,0.14788515868584137,-0.71869211479694,0.108371813208192,3,right
14.138,-0.14292471289409858,0.8610867538747242,-0.2910056843520437,-4.3336118571648985,-1.0494966525490428,0.975514959015231,0.14770564276429976,-0.7170053895369463,0.10631317796109682,3,right
14.139000000000001,-0.1561447053631897,0.8618964719298357,-0.2975276325379539,-4.341605061079653,-1.0000233066307893,0.9631395659840913,0.14786708721757033,-0.7185889553282269,0.1082038515531088,3,right
14.142999999999999,-0.16489576878098847,0.8596756271044126,-0.29799517183068625,-4.340620196087157,-1.0114669014641995,0.9661078762861937,0.14778557520315433,-0.7175223817459921,0.1070922834922881,3,right
14.144,-0.16873444088358514,0.8568005215286534,-0.2959484744994214,-4.336181000811971,-1.0241939257374164,0.9689963029666918,0.14774844799407022,-0.7180029784823176,0.10715389863553575,3,right
14.149000000000001,-0.16877747289704942,0.854167012847421,-0.29287460131623655,-4.343837432218507,-1.0021649590385033,0.9639959823769475,0.14791497292853595,-0.7179689069782249,0.1081243918723112,3,right
14.149000000000001,-0.16326757404082415,0.8552312232146833,-0.2895744090286932,-4.335456179872192,-1.0226279283646305,0.9684812950326849,0.14764700321234758,-0.7177649310612508,0.10641046903663431,3,right
14.154000000000002,-0.15252521216964815,0.8616872048301203,-0.2904694384551546,-4.341720063262262,-1.0090196876283597,0.9655853398716289,0.14793627653443242,-0.7180297088823122,0.10828701711026156,3,right
14.155,-0.14214766471050527,0.8711124238456048,-0.29763734033593114,-4.340795417580101,-1.0152789980823185,0.9671615281288106,0.14776343530331376,-0.7178019757471964,0.10712466779470038,3,right
14.158,-0.13220336185924147,0.8847208645692848,-0.3060425684526257,-4.333254425294467,-1.013983450755593,0.9658689375478106,0.1476427740808675,-0.7179763284819625,0.10650980290730194,3,right
14.159,-0.11766094551592277,0.8998554546170656,-0.30459034941436425,-4.351014987221625,-1.0135051140719258,0.9679599929751143,0.14821713716532464,-0.7178196636340111,0.10983408356525097,3,right
14.164000000000001,-0.09818052137015693,0.9095517227960348,-0.2930285855441004,-4.324643224227328,-1.0134194257020093,0.9646392839502075,0.14714370844668728,-0.7180011137072502,0.10355518943508234,3,right
14.165999999999999,-0.06897936493733217,0.9154154088863393,-0.2779461349151346,-4.352592465569071,-1.0145710076190424,0.9684459060240043,0.14852377842830838,-0.717792113186149,0.11164272489534595,3,right
14.168,-0.03125846792004294,0.9180214459360901,-0.26394973863888743,-4.336442139024751,-1.0139169378870097,0.9662487538506448,0.14737108839374305,-0.7179575485509114,0.10488128447263334,3,right
14.169,0.009548056115452319,0.9203516469574555,-0.25309955898479763,-4.322880527371389,-1.011002017726108,0.9637658534651582,0.14740469911905196,-0.7179891783032464,0.10510225993629851,3,right
14.173,0.05105935017605061,0.9239222155793818,-0.24482098051129184,-4.382697939084267,-1.02071554352489,0.9738711524696817,0.14959427215870333,-0.717553381190353,0.11786867466379386,3,right
14.173,0.08851199352657459,0.9256670480719187,-0.2424398666256708,-4.271743800879014,-1.002853039192472,0.9551673985444789,0.14421017214953316,-0.7185837824325227,0.08644731813100998,3,right
14.177,0.12983452768087922,0.9331872846649303,-0.24408504358227376,-4.414183373873364,-1.0259844200612283,0.9792343008364537,0.15313734150270708,-0.7168836568219189,0.1385544657588277,3,right
14.177999999999999,0.1550697737027421,0.9399603558500724,-0.24474730496485497,-4.29528261019712,-1.0065843423869296,0.9591176598827381,0.14136319042925793,-0.7191285074646412,0.06982748447232959,3,right
14.182,0.16150430001822721,0.9415713420134273,-0.24458873833913794,-4.298536193380908,-1.0068620711024214,0.9596049687111033,0.09193627826720782,-0.7285682876848825,-0.21863058682912492,3,right
14.183,0.1890297199656108,0.9525309456090649,-0.24531964185020155,-4.525100189919872,-1.0449093267425758,0.9982162640870426,0.08016383395112928,-0.7308234339344977,-0.28734760228711226,3,right
14.183,0.22336876596309413,0.965235224861421,-0.24316512768772047,-3.9682101055331778,-0.9515810350724127,0.9033518859322955,0.08908915681352246,-0.7291121682122063,-0.23525123563807235,3,right
14.187000000000001,0.2558740742887989,0.9723761936115473,-0.2280874977515072,-4.891552811567384,-1.1063420275720155,1.0606523833916284,0.08370435409854568,-0.7301383362033238,-0.2666766979882903,3,right
14.187999999999999,0.2819397625948197,0.9777623655418993,-0.21474265333174286,-3.673680754557295,-0.9021520506790829,0.8531536865139149,0.08590005327616625,-0.7297394819004634,-0.25387450693938074,3,right
14.187999999999999,0.28751962290223204,0.9790928117030595,-0.21068085427493594,1.4382847065364117,-0.04437463351429466,-0.017847364502474428,0.08592048338076541,-0.7296916199942731,-0.2537305019005276,3,right
14.193,0.30957722239852437,0.9817348670269587,-0.19355221022385677,2.6561437650383866,0.15991396633686106,-0.22536543282478189,0.08478669125058266,-0.7299710339012444,-0.26038158783472853,3,right
14.194,0.34010957716183676,0.9850337915633655,-0.17369845548583868,1.7328164739546574,0.0049887283351285686,-0.06804815875265832,0.08614794340202289,-0.7296485300000871,-0.25240393556596064,3,right
14.199000000000002,0.3531267714772448,0.9868115441543825,-0.16607242229751143,2.289707120442201,0.0984802519700943,-0.1628897527710113,0.08508263322814177,-0.7298789631078619,-0.25863542985282206,3,right
14.2,0.3618798647268868,0.9916884569840506,-0.16389023643389178,2.0631063419235667,0.0603667594440338,-0.12437851768076738,0.08567315770969514,-0.7298197455238286,-0.2552167619000153,3,right
14.200999999999999,0.3612767638984514,0.9967513675088734,-0.16755724405149267,2.05993849279614,0.05995083721686494,-0.12369631724544634,0.08550044016069787,-0.7296801604861729,-0.2561356237325344,3,right
14.202,0.34837126812743324,1.0029554499634328,-0.16622786088524533,2.1787110518738446,0.07977380224988281,-0.14407606173141108,0.08541729187048945,-0.7299933740118967,-0.2567742024252222,3,right
14.206,0.3262678664373335,1.0140021326156228,-0.14987606872823503,2.03640574024317,0.0559405730979502,-0.11976755957619979,0.08559649190280968,-0.7295942547975021,-0.25554042156835904,3,right
14.207,0.29260217511997433,1.0223830920808727,-0.12319641144434709,2.1472896942986566,0.07462726026681954,-0.1385376902690772,0.08541627427380197,-0.7299195992193627,-0.2567419452202521,3,right
14.212,0.24800969159245825,1.023180320174436,-0.09051667122426597,2.087385231392892,0.06431506420119149,-0.12872710353979144,0.08558358964000648,-0.7298901768110764,-0.2557667800382888,3,right
14.214,0.19242810893461726,1.0212928993166006,-0.061204927614431116,2.101275823696348,0.06709180628209069,-0.13041078602765724,0.08538359842779371,-0.7293886508181787,-0.25665628473573643,3,right
14.217,0.1291291960633496,1.0155326855829976,-0.048318744962851996,2.1168317592393975,0.06915707303184551,-0.1338997455342536,0.08567426954884347,-0.7305666776682842,-0.25559441931564975,3,right
14.218,0.06389254776403008,1.0031133627475364,-0.051731481230436985,2.08964118346312,0.06502802826042407,-0.12859841250437615,0.08528048946965183,-0.7288015653117024,-0.2569460017424191,3,right
14.222000000000001,-0.0009877772782025483,0.9897726941589696,-0.060649597017340726,2.1153645812748154,0.06934785696984458,-0.13297514339352567,0.08569284113860859,-0.7306847320843916,-0.25554850304112336,3,right
14.222000000000001,-0.06712087191511845,0.9777250928040767,-0.06879985550971876,2.0976982340611103,0.06558197139030841,-0.13120612446352742,0.08546631178800168,-0.7295942423714223,-0.2562875435872309,3,right
14.225999999999999,-0.1324159130365793,0.9643764396811972,-0.06717346755556192,2.106213404056575,0.06884204580225184,-0.1298210525037897,0.08521296500483885,-0.7286657840507155,-0.2572635384683795,3,right
14.227,-0.1949408860597845,0.9503325682617582,-0.05149713458668174,2.1047296318990627,0.0658617941806709,-0.13379872213826285,0.08622665960690576,-0.7327483270075257,-0.25354695388029624,3,right
14.231,-0.25676635566903544,0.9377414906404307,-0.034071620505173254,2.1022060534468796,0.0683494303511995,-0.1288593103734053,0.08436392612310922,-0.7251735096668586,-0.2603391866569815,3,right
14.232000000000001,-0.31981371159753647,0.9260047231317892,-0.018072841690761933,2.1064168788844873,0.06737439778194965,-0.13218162968653027,0.08675189594359939,-0.7349011056841206,-0.2516402076774077,3,right
14.235999999999999,-0.38385550217210496,0.9144362652907907,-0.004834015095263677,2.101488317666229,0.06509690937052066,-0.13358956369595087,0.08475988999099164,-0.7267790971893526,-0.25889327577621035,3,right
14.237,-0.44850925762863536,0.9056103040572598,-0.0048776066134494376,2.107268996270938,0.07241270442520753,-0.1247422452312402,0.0848077575289713,-0.7270015376473258,-0.25873225691673796,3,right
14.242,-0.5077723484934673,0.8984935045873034,-0.010090996235875569,2.100278805446265,0.05947245991918434,-0.14178327541456298,0.08862589268970084,-0.742481316476433,-0.24478668269662515,3,right
14.243,-0.554183634726845,0.8918187976250422,-0.016449616406192365,2.107910596243425,0.07586177890320908,-0.11967477985465523,0.07924857185857638,-0.7044296057522665,-0.27902126428338125,3,right
14.245999999999999,-0.5941598027953687,0.8882657045340293,-0.030647392814987122,2.1021063704905902,0.06227587145216556,-0.13822563752438322,0.09479467342196386,-0.7675236754407053,-0.22226998268564488,3,right
14.247,-0.6162987609468933,0.8879642783130688,-0.04086824654763936,2.1013901634780545,0.062493490777958786,-0.13758200838641488,0.074289695848447,-0.6843006202020143,-0.2971231779165251,3,right
14.251,-0.6179099365987639,0.8893608135700064,-0.04318816110184728,2.114781104403102,0.08879759047377067,-0.10258733002832286,-0.011789513233724604,-0.3350005494854357,-0.6113757679211206,3,right
14.252,-0.6240562294630279,0.8936077040201045,-0.04640626673421084,2.083129706980274,0.024364018291057832,-0.18880089916973852,-0.03229507746101898,-0.251773736669166,-0.6862323499661631,3,right
14.252,-0.6204658093858423,0.9031573277489157,-0.05444907612216056,2.1351342581979047,0.13111344543547218,-0.04578341416344402,-0.016748341111670065,-0.3148718719196465,-0.6294774023681208,3,right
14.255,-0.608282468345075,0.9099347399311639,-0.06400857398915333,2.0667116278727935,-0.009656232524989143,-0.23444472508315545,-0.02612542076863409,-0.27682170702848424,-0.6637105962850975,3,right
14.255999999999998,-0.6047283989709051,0.912948625055118,-0.06961654094487107,1.7788861662885276,-0.6007438758698747,-1.0264543561931272,-0.022309390561674577,-0.29228800117036147,-0.6497771645903709,3,right
14.257,-0.5838040139297146,0.9252833807403512,-0.07911163677028615,1.7104949261205946,-0.7415120554028487,-1.2151287315630923,-0.02225699363532081,-0.2925394561521252,-0.6495900113283681,3,right
14.26,-0.5503230029261683,0.9411616030550868,-0.09210514356030716,1.7623571171217742,-0.634769379520973,-1.0720520063381898,-0.024255494063650566,-0.2843758463039432,-0.656880557443507,3,right
14.26,-0.517231880480485,0.9522923933353945,-0.10086080897529073,1.7310767518581465,-0.6991853974816724,-1.158419963842587,-0.021861056786109164,-0.29414486910388316,-0.6481442499542183,3,right
14.265,-0.47018179067006155,0.9604544057081666,-0.11230148245999894,1.7437888000522834,-0.6729133810130905,-1.1231428025778574,-0.023726581442033684,-0.28655217591444115,-0.6549526045691005,3,right
14.265999999999998,-0.41685765090689786,0.9650489511625135,-0.12784410590451747,1.7440045148426846,-0.6726517567006145,-1.1228869324288986,-0.022718439175110277,-0.2905991474170676,-0.651268039206059,3,right
14.270999999999999,-0.3633061999502952,0.9708932013741963,-0.14465864219088137,1.7372874663479119,-0.6862807221970048,-1.1410579875988516,-0.0229538980482445,-0.2897852783086696,-0.6521408308204921,3,right
14.272,-0.30786269247289466,0.9784588550806845,-0.16351002239369244,1.745299417820909,-0.6698735533993518,-1.1191076496548935,-0.023211250318192198,-0.2884973445105331,-0.6530577292173756,3,right
14.276,-0.2573629044605517,0.9832485290875491,-0.17906524757204215,1.7391271924234957,-0.682775025620075,-1.136489054982475,-0.022761069819504577,-0.29062282686874535,-0.6514419179324773,3,right
14.277000000000001,-0.21013170587689844,0.9865222321080553,-0.19007743122494825,1.7423186687283878,-0.6755816457958121,-1.1265643744548308,-0.023185010923926157,-0.2886645255898056,-0.6529676040405896,3,right
14.28,-0.16612360202762066,0.991097873130063,-0.20210171289095702,1.7418378438545135,-0.6776490320517341,-1.1298229637880752,-0.022894603857719846,-0.28984083824853984,-0.6519071650888763,3,right
14.280999999999999,-0.1311825530739949,0.9969174364959208,-0.21646082820951285,1.740595065081562,-0.6788814872230391,-1.1308761386469448,-0.023038635021387414,-0.28969780280775637,-0.6524738662485123,3,right
14.285,-0.1027688046178853,1.0024152008562228,-0.22827388718920494,1.7424172213431908,-0.6761890130042857,-1.1277448449919938,-0.022999215555456157,-0.2888490967795071,-0.652236641428281,3,right
14.286,-0.07978949052759544,1.0076083002313074,-0.23525969783231104,1.74097587254278,-0.6791665964369433,-1.1317403087596136,-0.0229886263984436,-0.29039669008936975,-0.6523370959866884,3,right
14.289000000000001,-0.06456350054229562,1.0126180606751083,-0.2381515421041132,1.741416759223272,-0.676288639870332,-1.126995463201995,-0.02301283938232052,-0.2886946111450218,-0.6522773040283042,3,right
14.29,-0.05397621231442477,1.0170931581778229,-0.23611152051456974,1.742198400636872,-0.6791826815732253,-1.132902539694098,-0.02297844264360205,-0.2897606883579966,-0.6522371790173567,3,right
14.295,-0.047168873583459406,1.0201742683908201,-0.22939733247261743,1.7404018203525775,-0.6761624611246253,-1.1258285840290678,-0.02304987264615343,-0.2902700583350286,-0.6525721438644989,3,right
14.296,-0.04362452409780907,1.0200621918024986,-0.21570529552752588,1.7425478832478394,-0.6789073033141662,-1.1327335697319896,-0.02290271352275506,-0.2873706342995018,-0.651711334316849,3,right
14.299000000000001,-0.04153758323697802,1.0182191991863165,-0.19958800830533385,1.7411532230213183,-0.6776397743779605,-1.1291702026935497,-0.023145763550534604,-0.2928682892571757,-0.6531982356767384,3,right
14.3,-0.042422830676886854,1.0190472007740916,-0.19109142438621507,1.7404313965880087,-0.6755571782187065,-1.1247729876717243,-0.022840368340432134,-0.2857823829079063,-0.6513138871398735,3,right
14.304,-0.04414127770115585,1.021083955402849,-0.1889265685841089,1.7444769965268985,-0.6828450437276652,-1.1415720667983205,-0.023092627101121234,-0.29170827189216814,-0.6528764874108195,3,right
14.305,-0.04801747464723025,1.025653164220631,-0.18505931040758883,1.7367648207741255,-0.6697614184344955,-1.1109954631589314,-0.023096176703921112,-0.2915074612629074,-0.6528736740434016,3,right
14.309000000000001,-0.05612804106790855,1.0374327514903534,-0.17617598147894414,1.746743211994675,-0.6864055055914042,-1.1500495920978202,-0.022581097328297342,-0.2803421993198977,-0.6497658968160076,3,right
