time,gFx,gFy,gFz,ax,ay,az,wx,wy,wz,subject_number,foot
12.908,-0.8725899184815105,0.9977262294158208,-0.05908613412343243,0.4425855199674611,1.6362354401021384,-0.09321676621043246,-0.03968173822831113,-0.9176386085772603,-2.253924212999719,1,right
12.915,-0.9166895971277547,0.9344657167675039,-0.06744517524321075,0.43893747986694853,1.634982048124861,-0.1012436327024594,-0.03980073234440693,-0.9181812906534053,-2.2548332035152208,1,right
12.915999999999999,-0.9559469463151192,0.8660007445480383,-0.07349624705963866,0.44322843070269713,1.6362942730392995,-0.09162373389362927,-0.03989386566253429,-0.9164939068340332,-2.2529662826974097,1,right
12.917,-0.9917054601314347,0.7987262974561176,-0.07486398780213037,0.44001103082131937,1.6355782869644453,-0.09912154787118964,-0.03956477026807473,-0.9186816716286286,-2.254955119496695,1,right
12.918,-1.0284491250315249,0.7286586454794818,-0.07189397853283774,0.44136430373006663,1.6350182040450956,-0.09506228199745739,-0.040257467140331474,-0.9160338130839979,-2.253158111271568,1,right
12.925999999999998,-1.0642296110702119,0.6625369281061615,-0.06649976726710496,0.441950222919436,1.6373682747908966,-0.09602710079398949,-0.039079205083624294,-0.9193822952971715,-2.2548041356083077,1,right
12.927,-1.1019691233531326,0.5991943520863309,-0.06271307497509856,0.43985403642573784,1.6332020278072845,-0.09703111040874127,-0.04069450371860704,-0.9153387204455968,-2.2532152986400735,1,right
12.927999999999999,-1.1386794307430774,0.5393758826574062,-0.06646208756176752,0.44264544641117304,1.6383366795069185,-0.09525848781233995,-0.03902454902398887,-0.9193010466475093,-2.254591634768219,1,right
12.927999999999999,-1.1665917764911775,0.4857411002978961,-0.07213059816344815,0.44031416711221605,1.6342327880019187,-0.09693330624129115,-0.03995480734118717,-0.9172450104530412,-2.2540095720206237,1,right
12.933,-1.184442987006683,0.4348866343414665,-0.07492960293316342,0.44077600076529433,1.6342489805585907,-0.09576543855408644,-0.04086439012456271,-0.9147470255785399,-2.252844995556684,1,right
12.934000000000001,-1.1942961528852822,0.3885731384121127,-0.07582419195985635,0.44357364820762807,1.6416951185945825,-0.09639942974955289,-0.037081999046262346,-0.9243408041141772,-2.2567184273402683,1,right
12.937000000000001,-1.1971054577004092,0.34597603912574926,-0.0738745008801689,0.43670583387988837,1.6246278861546468,-0.09611551430992339,-0.044050027657697374,-0.9068651274655248,-2.24982482561502,1,right
12.937000000000001,-1.1942498886346513,0.30916341375667233,-0.07226959598201396,0.44706411550383923,1.650099993058523,-0.09626004774797389,-0.035118862120237446,-0.9291911129671572,-2.258571123626096,1,right
12.942,-1.1865178507339795,0.28739277300079225,-0.06717112386180128,0.4360021454135846,1.6229459299036142,-0.09615788726234012,-0.04256925280807879,-0.9105998103426037,-2.2513154720738413,1,right
12.942,-1.1648337031903675,0.27458182511778284,-0.05358824460725407,0.44242507310896534,1.6386359095275784,-0.0961350099803075,-0.04237539768648638,-0.9110302734978234,-2.251438868115697,1,right
12.946,-1.1291636352324597,0.2589209477657882,-0.04974124204364075,0.4478024664349138,1.6521529307184064,-0.09652121439092287,-0.02814738255601099,-0.9466740229765878,-2.2654666678221895,1,right
12.947000000000001,-1.1015715138854605,0.24162164718660056,-0.059718656001609985,0.4240109434434074,1.5929877787698792,-0.0954952247598004,-0.06310874090097959,-0.8591703601457102,-2.23109671803822,1,right
12.950999999999999,-1.0907126321052458,0.22052993881976968,-0.053365882314887106,0.4681755416996582,1.7027062780196733,-0.09727830306014248,-0.005142177767276369,-1.004217249271009,-2.2880385070420832,1,right
12.952,-1.0871525246052685,0.20486590080303146,-0.03838852367029685,0.41146119549673116,1.5618305702012099,-0.0950152166616332,-0.0816027239068892,-0.812913462926826,-2.212954273265773,1,right
12.958,-1.0867234859583172,0.20069018412406942,-0.033271573612568675,0.45880433270635895,1.6794269559507287,-0.0968943743378308,-0.4024945947240828,-0.009887657117282345,-1.897641250839269,1,right
12.959000000000001,-1.0857973047350813,0.1903322822613733,-0.013978667760698395,0.45752785640138727,1.6762757313158239,-0.09688360577942828,-0.4789634656828061,0.1814178002395827,-1.822573148844032,1,right
12.959000000000001,-1.085141289723821,0.17991574324341764,0.01761425519598585,0.36725624733048556,1.4519672041386693,-0.09316743729131732,-0.42098918426395837,0.036377698064625937,-1.8794896647644292,1,right
12.960999999999999,-1.087480389991556,0.1793483652753616,0.04305927707242008,0.589110307761312,2.003227297363085,-0.1022554159933621,-0.455942552657732,0.12385023000407352,-1.8451407739158745,1,right
12.960999999999999,-1.0867623875997625,0.17954665459782398,0.06140358871123071,0.22128964412244517,1.0892561020204123,-0.08719754303528421,-0.44175382411073155,0.08827523936088773,-1.8591693684210586,1,right
12.966,-1.0848733186457395,0.1802480142240097,0.06793709647550189,0.7064218872945741,2.2947462732303365,-0.10705955743927476,-0.44148172531218277,0.08773876153703118,-1.8592529080667406,1,right
12.966,-1.084561819728235,0.18148200240270734,0.06750847706838915,2.7433771481145888,7.355751304389165,-0.19043890738025604,-0.4490392686254906,0.10644849917745267,-1.8520849428088568,1,right
12.967,-1.0815296758886892,0.1842132514709819,0.06710049163650864,3.228530613508299,8.56127671941165,-0.2103044215596439,-0.44000768802514234,0.0840465072444071,-1.8607057759397645,1,right
12.972000000000001,-1.0805971603463398,0.18992316808178003,0.06389891379787485,2.860606156266632,7.647144909367705,-0.19524914848740582,-0.44700736993414486,0.10147711671894659,-1.8539371485818028,1,right
12.972999999999999,-1.0793427376733138,0.19466716466812944,0.057721008079504484,3.082737794909919,8.198824338729064,-0.20431306620790657,-0.4433381059609902,0.09212801942278429,-1.8577550897377089,1,right
12.975999999999999,-1.073788996823398,0.19783698847131037,0.05011140009844013,2.9919520918248996,7.973747896591122,-0.20065609305270282,-0.4439295526669307,0.094146478354136,-1.8564884483995712,1,right
12.975999999999999,-1.0711006225723154,0.19925470697074196,0.040439340443159125,2.991387425982454,7.971651424671521,-0.20054911330663133,-0.4453816998228206,0.09685352445941589,-1.8562416729710205,1,right
12.981,-1.0669677246649185,0.19716566308253936,0.028385178437218824,3.0380256742547926,8.088213884333271,-0.20254127525342364,-0.4430991603617877,0.0922783556976875,-1.857037206979145,1,right
12.982000000000001,-1.0619965728995548,0.19379481717595987,0.014159056706900566,2.981618908702697,7.947770216770897,-0.20019681632973713,-0.4451611490726448,0.09653244410259271,-1.8561644019758505,1,right
12.985999999999999,-1.0631861533158693,0.19266133026612664,0.000487290574756878,3.026383067944265,8.05841189561637,-0.201957149673463,-0.4440828598719523,0.09382607751179539,-1.857234325014633,1,right
12.987,-1.0667720114821089,0.19208231494793387,-0.01290150346571053,3.0006400848050383,7.9963189730675746,-0.20113434872378125,-0.4437263711648384,0.09461429611212671,-1.8554450134382194,1,right
12.99,-1.0737740530499091,0.19205537874731698,-0.0313024872859284,3.0094008071622733,8.0148685283462,-0.20109537579130632,-0.4456209745638092,0.09551563661948542,-1.858472333450155,1,right
12.991,-1.0825698455964776,0.19472790855287153,-0.05302808567140529,3.0116421394458257,8.024384440830486,-0.20167488982238205,-0.4425360234753213,0.09352375320818038,-1.85421081268513,1,right
12.995999999999999,-1.0904009504960015,0.1962909579356028,-0.07823750188854253,3.0039617229608293,8.00215530889492,-0.20097173296464882,-0.4458726583168415,0.09576758831941722,-1.8587057182884466,1,right
12.997,-1.0960732920450764,0.1972521522713193,-0.1094544257594474,3.0142392785997227,8.027663776699562,-0.20138878688672907,-0.4438689208159393,0.09428091614739441,-1.8561843132391806,1,right
13.001,-1.093208942497686,0.20016388408077623,-0.1384741489452506,3.001349464105136,8.001472998069026,-0.201583029773155,-0.4425177516430492,0.09394177431960318,-1.8536374735936814,1,right
13.001,-1.0858902892273223,0.19967300190813825,-0.15908134065178664,3.0181123025493037,8.029785707374474,-0.20061976829764194,-0.4490463543298805,0.0969683125881031,-1.8641710748902658,1,right
13.005,-1.0771189139735386,0.1948997570762091,-0.17607332986392404,2.9975759477618125,7.998656930318367,-0.20223962936842646,-0.4368283453263126,0.09107751607961227,-1.8447485313281056,1,right
13.005999999999998,-1.067390301582161,0.18975861857619963,-0.19426389231669278,3.0178319136845273,8.027774866573965,-0.2004460332428546,-0.45254117095314883,0.09870355025466326,-1.8696607701915977,1,right
13.01,-1.061904017258764,0.18441933642068475,-0.21021680653009356,3.0072254217163383,8.013678321643221,-0.20152696447956142,-0.4394141811311935,0.09231244453432533,-1.8488766820925984,1,right
13.011,-1.0556357584422238,0.17649051615871209,-0.21797121337704875,2.994670618565322,7.993046046889751,-0.20232014986689098,-0.4398060438155465,0.09258067773071667,-1.8493919825265022,1,right
13.015,-1.0473187882807582,0.16700188003148742,-0.2182847739401057,3.0433216062978476,8.067694639212379,-0.1985933243097795,-0.46471463159185084,0.10445310627047522,-1.8891699892775367,1,right
13.015999999999998,-1.0406972748857544,0.1576831850090079,-0.21008638696380394,2.954585722669246,7.932958049993104,-0.20556475852857098,-0.4034512002930341,0.07516148330488706,-1.7914639182273024,1,right
13.020999999999999,-1.0357866167601089,0.14571788004651337,-0.19148826811353958,3.067989904646666,8.104628873473636,-0.1965920014745791,-0.5050370911832182,0.12375494700596375,-1.9534394506172013,1,right
13.022,-1.0346116645368313,0.1380980287783985,-0.1800688513858473,2.973542570996228,7.961881172856539,-0.20409095114672293,-0.3710483608753876,0.059660980058285185,-1.7398095498798067,1,right
13.025,-1.033368896956027,0.13585384484038776,-0.17705342071831795,2.9757461196484627,7.964856888658965,-0.20387652989160704,0.1913516215747941,-0.20926621962436426,-0.8428846649551468,1,right
13.027000000000001,-1.0327931243940083,0.12660912373633226,-0.16264233172254852,3.156775528536103,8.239404295206176,-0.1896087424029651,0.3253298766946353,-0.2733433549870493,-0.62927335001614,1,right
13.027000000000001,-1.0392619208860887,0.11625384679216891,-0.1494088828052268,2.7123399611751244,7.565896871470561,-0.22469214668648602,0.22375532096776532,-0.2247681009900258,-0.7912287680305986,1,right
13.029000000000002,-1.0498428320325812,0.11254570543094186,-0.14378639747737557,3.4490379185365176,8.682097260176711,-0.166518806455612,0.2850230567341061,-0.25406665347871665,-0.693515069437898,1,right
13.03,-1.056984763111552,0.11092446927869401,-0.1360325598521048,2.477412233833655,7.210039026500333,-0.24324761373236936,0.2600768871783542,-0.24213381137420678,-0.7333597362855344,1,right
13.035,-1.0578941233688093,0.11106888709985345,-0.1352596990275855,-1.6013159575632834,1.0300421908155313,-0.5653545929976002,0.2597658946663884,-0.24199556079331735,-0.7337315810907306,1,right
13.036,-1.0580438121171647,0.11476725273242384,-0.13610436709388457,-2.5729206278493324,-0.44193321754369197,-0.642076680335708,0.27277692648205426,-0.24820030165818477,-0.7131532016842007,1,right
13.037,-1.05409866421338,0.1257583240438671,-0.12908693318095865,-1.836285780108542,0.6740772654289064,-0.5839089646274542,0.25717957905990946,-0.24075984318879076,-0.7378605696021459,1,right
13.039000000000001,-1.0396047915203224,0.14726569013520333,-0.11981365321625184,-2.2805869911289465,0.0008910041732835827,-0.6190009643380037,0.26934774607263307,-0.246570576125686,-0.7185264760899881,1,right
13.04,-1.0198625902827918,0.1758557904173964,-0.10139444923908639,-2.0997769799653634,0.2750032894341935,-0.6046970402622327,0.2627200161167931,-0.24338466129299713,-0.7292358825738603,1,right
13.047,-0.9966371245675387,0.20778153320889003,-0.0667805549533279,-2.097298324057732,0.27842595599217834,-0.604552341625042,0.26439056199561506,-0.2442371634291212,-0.7261225199512022,1,right
13.048,-0.9697254437933864,0.2425095637021184,-0.023539836412865216,-2.191982421768931,0.13542913138635043,-0.6119577519597738,0.2658439659087741,-0.2448393147225638,-0.7245773743648135,1,right
13.049000000000001,-0.9375298231636133,0.2774909586484724,0.025907734128906106,-2.0785394337961085,0.30685874548467434,-0.6030701104722757,0.2631827645729397,-0.24368098674128083,-0.7278740410610225,1,right
13.05,-0.8980311159909058,0.30909806282350594,0.07681578032936942,-2.1669263118223583,0.17313481575229056,-0.6100197304522185,0.26572917348337693,-0.24480748411497522,-0.7245679988857097,1,right
13.054,-0.8539247771101603,0.3340330936339815,0.11427428023177286,-2.1191514205833304,0.24589695039134532,-0.6061854554403228,0.2638298949437614,-0.2438983563346955,-0.7276034088404733,1,right
13.055,-0.8042051936873043,0.3466180312865465,0.13767626745869688,-2.130333966226421,0.22773970994597376,-0.6072656532327676,0.2651854909934918,-0.24471623836476758,-0.7240419559620921,1,right
13.059000000000001,-0.7476517310646164,0.3444406886532595,0.155981784560798,-2.142481778853983,0.21142338254954196,-0.6078856094107921,0.2639802622617834,-0.24375226733933864,-0.729162582385658,1,right
13.06,-0.6841424873818388,0.329792316164921,0.17432621797534142,-2.121208453251504,0.2410938254353962,-0.6066221028775058,0.26532509239415925,-0.2449736172893297,-0.7222461671579476,1,right
13.065,-0.6159770708489066,0.30188856239384876,0.20219933667083873,-2.1412496786112056,0.2127694212173879,-0.607872605794237,0.26397565921254984,-0.2437119713643316,-0.7294850931020438,1,right
13.065,-0.5516107963801709,0.2624186991973537,0.24264721564663957,-2.127489871623582,0.23363614054559168,-0.6067834381795059,0.26462242196470664,-0.24437716930366887,-0.7255140712587363,1,right
13.07,-0.4958816124895543,0.22196245535009876,0.28394655235579597,-2.134398157697887,0.21938280300698557,-0.6079444426535732,0.2658391953054692,-0.24526655367069503,-0.7210409313888189,1,right
13.071,-0.45086657909771855,0.18309920087260395,0.31779667598028216,-2.1323377197260434,0.2311555535011965,-0.6063744311654025,0.26159252731405525,-0.24189139796593281,-0.7389002331116064,1,right
13.074000000000002,-0.4199014142793266,0.14139199190254068,0.34062833732448483,-2.1321242151246187,0.21857529916252838,-0.6084577054221885,0.2692739712292686,-0.24805727012803472,-0.7060883610392161,1,right
13.075,-0.39707663056696696,0.10342681842258605,0.3486109016062421,-2.1329633349246278,0.23105742064777124,-0.6062843079508549,0.2594533372769607,-0.24016100226007955,-0.7481533550992441,1,right
13.08,-0.37704528413152294,0.07139824164464448,0.3453099804474468,-2.1315130190470057,0.22531144443434611,-0.6074653490697062,0.2676359003945347,-0.24674460305046259,-0.7130596430941831,1,right
13.081,-0.3597454095783167,0.04120288569918715,0.3289091308111617,-2.13504777249092,0.2130981514681553,-0.6088566146142969,0.2674789257181439,-0.2465992101899176,-0.7139103012631733,1,right
13.084000000000001,-0.3436999273588775,0.01815589004286762,0.3047556063508467,-2.127408121425656,0.2546638125248462,-0.6033762472152413,0.25166160701869844,-0.2339382405298023,-0.7811608600527111,1,right
13.085,-0.32759883180927685,0.0039692973964305074,0.2850844798778263,-2.140165072578834,0.17972672376944257,-0.6134323443411447,0.2904658232756364,-0.26501846057433065,-0.615975744946131,1,right
13.089,-0.30455082186319127,-0.004925027296096761,0.26390372811863716,-2.1240978166924203,0.275465796952545,-0.6005404601196973,0.22614137688996225,-0.21349637172258057,-0.8898429083420945,1,right
13.09,-0.28882279310155223,-0.009255123511339267,0.2508599606478227,-2.1373892197289983,0.19573671633952533,-0.6112996252465328,0.3109900733484755,-0.2814524519125312,-0.5285984008659754,1,right
13.093,-0.2847395667157176,-0.010447422464797882,0.24772834357010393,-2.137508172837099,0.19713867621601444,-0.6110321970054071,0.6672024678247004,-0.5667466383802618,0.9877813562651523,1,right
13.095,-0.2674908259516915,-0.012363633624853347,0.23505794903322566,-2.110580857966588,0.3516384426088418,-0.5904252076724991,0.7520769713441775,-0.634705491572617,1.3490855631481724,1,right
13.095,-0.24664775773683958,-0.01188753600274435,0.2202818558821691,-2.1762131717903808,-0.02720489669435794,-0.6410594699220203,0.6877163700420341,-0.5831810687575407,1.0751317555139033,1,right
13.097999999999999,-0.22649265294815724,-0.00017666036653643654,0.20607265432407568,-2.06751919542215,0.6006944078966494,-0.5570940807974578,0.7265391296016891,-0.6142577878806081,1.240370418229488,1,right
13.097999999999999,-0.207778866051347,0.010082182018234416,0.19493124438336074,-2.210896744773552,-0.2274703793923002,-0.6678665328927383,0.7107543076577136,-0.6016116352243247,1.173173075211589,1,right
13.103,-0.20387619901914905,0.0127668243906747,0.19228458915406693,-2.8131723609977897,-3.7049073198643807,-1.1326196942378732,0.710487246692957,-0.601437611913649,1.1721003319363008,1,right
13.104000000000001,-0.1905277499966675,0.025028398213264684,0.18313571645471938,-2.956649155559793,-4.533143744407916,-1.2434363910363455,0.7188598091626065,-0.6080596607235196,1.2075986052668926,1,right
13.105,-0.16587577781677748,0.04084805038057751,0.1732289905599165,-2.8478478055278282,-3.9051669445507002,-1.1594231313312569,0.7088098050289693,-0.6001283572659449,1.165023154341175,1,right
13.107999999999999,-0.14634295926591362,0.05194325316068804,0.17414610388607765,-2.913439269392783,-4.283980764653813,-1.2100391896735414,0.7166648172198538,-0.6063033100267037,1.1982550962474925,1,right
13.109000000000002,-0.12489748070440149,0.06182490417026501,0.1783333836933036,-2.886868156431933,-4.1297381799246935,-1.1895909839682532,0.7124432094297126,-0.6029721502375862,1.1803736817362078,1,right
13.112,-0.10959732278842899,0.06919559293699781,0.1813093179688073,-2.8862207119689733,-4.127782917884998,-1.1889819094327567,0.7132835422153825,-0.6037437410721833,1.1841259692442394,1,right
13.114,-0.10624954269369127,0.08006363633572786,0.18326326292001996,-2.900610960954167,-4.208305276169228,-1.2002309286415018,0.714746779372954,-0.6045983194617128,1.1897886471601886,1,right
13.117,-0.112279672692047,0.0924885026794468,0.17939851676252658,-2.8834494996378837,-4.111776320636671,-1.1868512487130705,0.7122171210326037,-0.6031186769228418,1.1799963020581532,1,right
13.118,-0.12865787060956851,0.10454877360985894,0.16478429922749316,-2.896678550804646,-4.187054123784591,-1.197117826725275,0.7147690242658553,-0.6044922878187788,1.1896612949479937,1,right
13.123,-0.150554117788283,0.12358201582082748,0.14447121262168056,-2.889978574448472,-4.146166986404157,-1.1920563212335795,0.7129620324691011,-0.6035792397222999,1.18292450258911,1,right
13.124,-0.18091619508700857,0.14732017069105588,0.12407668483216368,-2.890486494350907,-4.1561949856039275,-1.1920982936253748,0.7134825242747502,-0.6040008786513699,1.1851484162398858,1,right
13.127,-0.21731252258593003,0.17510370810680684,0.10422360415653147,-2.89425147107829,-4.165706076062567,-1.195604236017978,0.7146032098259201,-0.6039073561200561,1.188146855061385,1,right
13.128,-0.24981693718757456,0.20739484983349699,0.08407570214586231,-2.8886901921982444,-4.148603468905929,-1.190577588473713,0.7117527878341611,-0.6038892471396473,1.1800633614102836,1,right
13.132,-0.28307642863498494,0.24075514694722622,0.0655863661552179,-2.8935792845785406,-4.164867018043495,-1.194935630949894,0.7159380095425962,-0.6038626280184901,1.1918365877221224,1,right
13.132,-0.3167624460345808,0.2759442191100096,0.05450852915327163,-2.8915645725532007,-4.153127965862922,-1.193385846653762,0.7115655388154589,-0.603962212649116,1.179665422328343,1,right
13.137,-0.3457242062542687,0.3101331309957176,0.05054112314690047,-2.8890032046334193,-4.160544075167557,-1.1903255847222187,0.7140930082180386,-0.6039057087275811,1.1867021564753344,1,right
13.138,-0.37646331570815006,0.3404831950005603,0.049057787296153836,-2.8968842469300777,-4.155301111807663,-1.1988834956950174,0.7160737525849812,-0.6036978514254514,1.1919259171073353,1,right
13.140999999999998,-0.4058030314167058,0.37032252825496714,0.04950037889574714,-2.88464120754291,-4.160318677103121,-1.1857420595651886,0.7071485164368451,-0.6044008264346274,1.1679737393678145,1,right
13.142000000000001,-0.4285698893800543,0.3992463508615063,0.05087143754001021,-2.8977832313584946,-4.155492334433525,-1.1998207828654435,0.7237134402334868,-0.6031080697344547,1.2124479126436525,1,right
13.147,-0.45416514005625486,0.4234146434217875,0.05015900755261672,-2.8900468544125175,-4.157456544119555,-1.1915759702286002,0.7024594151402366,-0.6047804632841685,1.1554102653369829,1,right
13.148,-0.47889070893629926,0.4442853071929287,0.05165755734836614,-2.88408532966852,-4.163232920104068,-1.1850144833797498,0.72019623137155,-0.6033792814679878,1.2029969894843129,1,right
13.152000000000001,-0.4971770610502407,0.4642558590725926,0.05682435803738746,-2.91133394135663,-4.144636451939682,-1.2146238197118209,0.7196945201151003,-0.6033982900812578,1.2016189590686532,1,right
13.152000000000001,-0.5157478092103605,0.47927517651773804,0.06148736705335469,-2.8605919452259263,-4.177917541975253,-1.1595519268082413,0.685964668788458,-0.6061464386918759,1.1112617700629006,1,right
13.157,-0.5292982962034626,0.4889051590619537,0.0699650625828632,-2.9257942541574327,-4.1354533962477955,-1.230302964372008,0.7688860449627903,-0.5994091686961582,1.3334189592339403,1,right
13.158,-0.5348760393398744,0.4980005344111695,0.07978852329404525,-2.8713408173171473,-4.170795575103731,-1.1712219644034385,0.6313986337183548,-0.6105772149226909,0.965075802573829,1,right
13.161,-0.5361359131395431,0.5030334364799711,0.08259488666604486,-2.872888232207055,-4.170257876989401,-1.1728770379782953,0.8127405949292553,-0.5958470125602868,1.4509007381568895,1,right
13.162,-0.5362944962002785,0.5027687272109711,0.08070582371690493,-2.9764793416078903,-4.101491887424402,-1.2853487710296188,1.5738599807977867,-0.5339513900517581,3.4899047594260626,1,right
13.163,-0.5389444282145133,0.5027838542270151,0.07711550436017889,-2.721777793906795,-4.270018064684599,-1.008841319806871,1.75519986909869,-0.5192269396421538,3.975709898607802,1,right
13.165999999999999,-0.5369054714874706,0.5010608178563514,0.07462705760109262,-3.144107817094583,-3.9907191417714216,-1.467319957640718,1.6177156970798312,-0.530385995434153,3.60739768591045,1,right
13.167,-0.5323543995048625,0.49852217351155864,0.07597026690897124,-2.5870537608713677,-4.359105524838696,-0.8625879823513719,1.7006343967176307,-0.5236561600168379,3.8295292814800677,1,right
13.171,-0.5310635395083534,0.4966303227951199,0.0744060543320684,-0.24894422800376115,-5.905976706395713,1.675690119225892,1.6669043824059009,-0.526404745068586,3.739170603030378,1,right
13.172,-0.5243095189155891,0.49186181318106453,0.06863472158481167,0.30810336762102464,-6.274420165757029,2.2804152301346203,1.666407883000332,-0.5264093151916567,3.7378422465645613,1,right
13.173,-0.5134088238545571,0.4867662029673879,0.06687806461254384,-0.11421966572756825,-5.995059511595885,1.8219440181973936,1.6841333344601837,-0.5250396433967677,3.7853205433285257,1,right
13.177,-0.5054062896587639,0.4811643951642974,0.0666292171543681,0.14048454084211617,-6.163562125935949,2.0984542973061626,1.6628954880876297,-0.526667158408123,3.7284373421472363,1,right
13.177999999999999,-0.49754135986506026,0.4766512748602635,0.06465541999059189,0.036870244378638645,-6.09500113364819,1.9859579221639712,1.679444402412675,-0.5254188384813709,3.772758567420066,1,right
13.181,-0.48993580601304143,0.4729614815888429,0.06153408128115987,0.03537271884087092,-6.094022463450591,1.9843558646725117,1.6705260785578095,-0.5261025754387678,3.7488726471025116,1,right
13.182,-0.48316817855674465,0.4652809507467632,0.05748427390299585,0.08975462490616781,-6.1299968223762455,2.043360853926954,1.6725203465007872,-0.5258573006550087,3.754225100471177,1,right
13.186,-0.47576974185065374,0.4607642149538773,0.05864566420019578,0.024623545157604648,-6.086903262685583,1.9726855026844639,1.6750041993340181,-0.5259216829133798,3.760845896192153,1,right
13.187000000000001,-0.47188775415360673,0.4586062359977259,0.061870329904106174,0.07533480821974517,-6.12045573735445,2.027724746674961,1.6707068251956163,-0.5258130153765121,3.7493913669762584,1,right
13.190999999999999,-0.4685482323789446,0.4550153771411236,0.0639633914851856,0.04802502888077891,-6.1024002056177125,1.9980503984086315,1.674799965539109,-0.5260418738840942,3.760285345423714,1,right
13.190999999999999,-0.46354485235619025,0.45630502552116065,0.06932552183234864,0.054183587421163845,-6.106434853315614,2.0048212734958675,1.672022855694232,-0.5258201757045344,3.752902670277717,1,right
13.196,-0.46226005554812954,0.45906532343753725,0.07794158474076199,0.061580469291333026,-6.111399691831893,2.0127053203344465,1.6731443855488994,-0.5257247379201933,3.7559073588249197,1,right
13.197000000000001,-0.46317421461339864,0.46170226246554935,0.09210867687332085,0.04885508847623673,-6.102891294694015,1.9990693270253541,1.6735284273943143,-0.526524316112225,3.756831072923511,1,right
13.200999999999999,-0.46846660439748644,0.46856505397941994,0.10927887663291405,0.060765963850179835,-6.110843669971373,2.0118578275026207,1.6720328980701957,-0.5247478024054981,3.753065426628381,1,right
13.202,-0.47961846202657266,0.48158068875932514,0.12524355463574105,0.052881952419163256,-6.105628475689876,2.0032967020518084,1.674120458082939,-0.5274093326714453,3.758298248245091,1,right
13.205,-0.4943893057504077,0.5016809491368776,0.14254784583099156,0.05605974967996412,-6.107594648070513,2.0070120781661247,1.6720854228623772,-0.5245570208803629,3.753230339468206,1,right
13.206,-0.5154504590359572,0.5238645016342631,0.1570511744671301,0.056665732017438825,-6.108307583807502,2.0070648343292947,1.67326351044108,-0.5262042489190812,3.756163839692074,1,right
13.21,-0.5420640598657351,0.5472479071051362,0.1608466265769498,0.05387822237663879,-6.105997139301591,2.004940013905861,1.6738560176925839,-0.5276606189052779,3.7575616473833398,1,right
13.210999999999999,-0.5724344267479737,0.573909945768502,0.15256914494138002,0.057199179986397224,-6.108691973151107,2.007586116912907,1.6707147603725727,-0.5213356978937923,3.74998059842384,1,right
13.215,-0.6080086916460463,0.5973560487853162,0.1332873871108951,0.054728617774624275,-6.106769161992408,2.0054554255177646,1.6765680229982172,-0.5330612893547264,3.7641120832090387,1,right
13.216,-0.6501300710676627,0.6167527935324062,0.10481056669479757,0.055336668719957474,-6.106924796003822,2.0065996879886967,1.6690866020417356,-0.518004009153193,3.7460608853974096,1,right
13.220999999999998,-0.6953461233486351,0.637641115991558,0.0731947210831086,0.057152943356257466,-6.109210097299147,2.0064712045185784,1.6753173678941629,-0.5305732522173121,3.7610875238139627,1,right
13.222000000000001,-0.7432619027788095,0.653817134980353,0.039041782244074244,0.052980635896431344,-6.104438189035173,2.0058288751125035,1.6751022847178951,-0.5302427204268749,3.760563255231638,1,right
13.225,-0.7884155162733836,0.6632162769069523,0.007868469145627725,0.0585129218321021,-6.1106830769287965,2.0068511802826965,1.6634158026929615,-0.5062457751288787,3.732414659688448,1,right
13.225999999999999,-0.824532817277067,0.672471525690627,-0.013200029492167354,0.05383110687637154,-6.105425081624857,2.0059177914572954,1.6921774752293999,-0.5652123214138383,3.8016876653076555,1,right
13.229000000000001,-0.8587630727326052,0.6773660783608506,-0.03875766718017799,0.054216192654623796,-6.105744382506087,2.0062497906502683,1.6444894114171853,-0.46745214501828014,3.6868406584283506,1,right
13.23,-0.8784277495519444,0.6780895445816133,-0.058346080535099445,0.0622742820378418,-6.115180836333984,2.0070230533754936,1.7073821859020764,-0.5963888285568569,3.8382924852195552,1,right
13.231,-0.8827572516804681,0.6780335951012864,-0.0633170140668254,0.042184725468350344,-6.091787164155202,2.0047612805592343,1.9712204551542163,-1.1377156494406042,4.473720115164131,1,right
13.235,-0.890102674496443,0.6733351245083925,-0.07951236414672387,0.07554247070927414,-6.13061626406008,2.0086042008937985,2.034102899577551,-1.2666380975470326,4.625126518885297,1,right
13.235999999999999,-0.8913483717346699,0.6681881497411486,-0.09242576370816219,0.031574776896036084,-6.079411987501354,2.003528487259776,1.9864342447302747,-1.1688926545020175,4.510350712202996,1,right
13.24,-0.8882971066317003,0.6678349030054971,-0.09252382238040183,-0.1530053809888876,-5.864572668939562,1.9826594131496074,2.0151710082921674,-1.2278674262583966,4.579564288433877,1,right
13.241,-0.8809898617399262,0.6661522137281641,-0.09260105853431788,-0.19687475956928874,-5.813417679666659,1.9776225688268563,2.003507568342692,-1.2038145105586953,4.551413727891372,1,right
13.241,-0.8570277741594713,0.6553081644322902,-0.08101196005963976,-0.16362339103467805,-5.852193467371603,1.9814234347637691,2.0032830685580896,-1.2036011451135022,4.551001281823654,1,right
13.245,-0.8222931348417108,0.6426116227767937,-0.060759284271275256,-0.18375338223392998,-5.828779466264074,1.979145668702375,2.0094951812391235,-1.2160050063280177,4.565781445159674,1,right
13.245,-0.7754116411633564,0.635138037414861,-0.03625787181695105,-0.17534249582614517,-5.83839290407129,1.9800584260687246,2.0020725013342773,-1.2011091504740419,4.548083293219654,1,right
13.25,-0.7202434570977789,0.6277573747279306,-0.008749907765721942,-0.17571652654938028,-5.838331467230826,1.9800902833946612,2.007825826596749,-1.2127711470812965,4.561862609691313,1,right
13.251,-0.6695386570236229,0.6273246345885596,0.014947095485224288,-0.17930989912873835,-5.833619319998094,1.9795872383330022,2.004806012785932,-1.2062936521841203,4.5544388866010594,1,right
13.254000000000001,-0.6237005588976623,0.6387103794068029,0.038514770817781645,-0.17486150380898155,-5.839320722791797,1.9801810093911119,2.0053030018288744,-1.2082174952542293,4.556122061216486,1,right
13.255,-0.5862296097035427,0.6531750056775454,0.0531929326135314,-0.17856607839291183,-5.83478319634065,1.9797235873644519,2.0064778364459928,-1.209072875849949,4.55811422324036,1,right
13.259,-0.5589021340891712,0.669739941508068,0.05107670443370105,-0.1758191789355596,-5.8375354756671936,1.9799630846083782,2.004624982117263,-1.2071778905092723,4.554678949921778,1,right
13.26,-0.5354779017531959,0.689844438890076,0.04000312426935734,-0.17820914041960562,-5.836187328755349,1.9799219689939365,2.006301184258109,-1.2090978022008354,4.557897220485929,1,right
13.264000000000001,-0.5143468866263158,0.7080686283987725,0.021073843050278304,-0.175513882043698,-5.836855319600444,1.9798337392078575,2.005414449182968,-1.2072649486705154,4.555754435078324,1,right
13.264000000000001,-0.49530263839227784,0.7212324423125879,-0.0027171200931552495,-0.17853280816977518,-5.836370882499196,1.9799732239888304,2.0051570950964717,-1.2095548388262247,4.556653176241681,1,right
13.269,-0.4733090689601377,0.732021165872818,-0.022495803568143288,-0.17626566801008942,-5.836594668737764,1.9798468088843635,2.006633064247085,-1.2061437857775128,4.5567375315266,1,right
13.27,-0.4469746431152366,0.7399176280719553,-0.041471089878741346,-0.17561507367823434,-5.837331195930785,1.9799173552874587,2.004218634407115,-1.2107960569055685,4.55609975417482,1,right
13.274000000000001,-0.4162778473141832,0.7445064542801054,-0.0601585781107795,-0.18181637768816306,-5.834592194833288,1.9799242621355413,2.006831988796449,-1.2059179266045472,4.556874866215377,1,right
13.275,-0.37933196236200506,0.747529222032129,-0.0741702788440915,-0.168265237799533,-5.840128059065247,1.9798382563313743,2.005259486681287,-1.2086081680097265,4.5562764323785645,1,right
13.279000000000002,-0.3348556162727776,0.7481865756706831,-0.08342536553061289,-0.18833275621748644,-5.832043066884001,1.979983227705973,2.0042137446066755,-1.2115629308563924,4.556506719227868,1,right
13.28,-0.2801479321408725,0.7480005204795886,-0.08204103904384075,-0.16696763417739274,-5.840629090269399,1.9798255715663904,2.0092973982036995,-1.199672019667935,4.556720079115857,1,right
13.284,-0.21612258449418884,0.7470799373048506,-0.07329619391252014,-0.1792693264927043,-5.835719961475194,1.9799218720805303,1.9997783101101148,-1.2215361567787597,4.556104121522924,1,right
13.284,-0.14330138534765546,0.7479953249108418,-0.059994251885111635,-0.190088301733469,-5.8312328468667305,1.9799792927529156,2.0120216137890754,-1.1935032725420398,4.556944242839967,1,right
13.289000000000001,-0.07000476387595296,0.7499267145299633,-0.0400161721371428,-0.14308966543634402,-5.850451277098784,1.9796857743943888,2.0017924263768343,-1.2168905746651508,4.556223398609976,1,right
13.29,0.010722483867200348,0.7510643205922738,-0.01954805019723283,-0.230186900624018,-5.814887668451082,1.9802381458822431,2.0020998611461103,-1.2163194511225455,4.5563180707985325,1,right
13.294,0.10099541782909252,0.7566247097946537,0.0009625187836391374,-0.11836230519424018,-5.860533761184287,1.9795264508530943,2.0215039856528674,-1.171520142467597,4.55744524938231,1,right
13.295,0.17909104722658106,0.7633149106766185,0.02187874071347479,-0.2117160326010007,-5.8224366922617,1.9801224898066443,1.9737750670813934,-1.2815583191812845,4.554586286496155,1,right
13.298,0.2688791784136376,0.7817455260682666,0.05086850466974728,-0.20920500360297492,-5.823433094749566,1.9801009357371908,2.0529222560271547,-1.0991326225137579,4.559350913051135,1,right
13.298,0.33013280871596606,0.8009204095606133,0.07352731485148034,-0.03114083939777093,-5.896182796244434,1.9789796844758252,1.9485220660066056,-1.3397355832012539,4.553058605357172,1,right
13.299000000000001,0.3406588302141954,0.8033727473951356,0.07736320781272435,-0.46878778936226506,-5.717421295427343,1.9817443941848452,1.5101862087713094,-2.3492894747117834,4.526550431548973,1,right
13.302999999999999,0.40143769451288197,0.8298689364920641,0.09715791662804432,0.25685417627883733,-6.0137946772250235,1.9771551934005067,1.4057494659745495,-2.5897830409525033,4.520216458435533,1,right
13.305,0.45885527025942296,0.8610745380265687,0.11742740541645694,-0.700273616508339,-5.62289382946558,1.983212836345866,1.4849806721442478,-2.40760458683979,4.525082517014457,1,right
13.309000000000001,0.46338166389988,0.8657655356246288,0.11947330670691811,-4.7177198166736325,-3.9819002824246916,2.008584938247474,1.4371092823654925,-2.5172312641325005,4.522041095871488,1,right
13.309000000000001,0.49803303295626616,0.893503110726945,0.13421703931221934,-5.674868703893816,-3.5910183470294825,2.014649728569607,1.456706951642592,-2.472980504196345,4.5234302452584325,1,right
13.31,0.5351829193500837,0.9389478934876294,0.1457991433264812,-4.94920392031506,-3.8873712795845665,2.0100528019860664,1.4568148851035474,-2.4718578454655393,4.523236158742877,1,right
13.312999999999999,0.5478767951590793,0.9770518962919716,0.1398318371059169,-5.386842172846951,-3.7086019514747246,2.0128145451114543,1.446698067049005,-2.4955325789410607,4.522709250972756,1,right
13.314,0.5500568556233603,1.0206351458712402,0.12472741052351453,-5.208853749441165,-3.781419619838049,2.0117189974424994,1.4590463997813683,-2.467842182990954,4.523631144916889,1,right
13.317,0.5318843678695435,1.0631032462585255,0.09258115378074316,-5.2061797783361605,-3.7822698450478884,2.011642173975985,1.4490791919259243,-2.488391112310949,4.52246946458775,1,right
13.318,0.5062121909009061,1.1035096991916926,0.05008488806946266,-5.299767112617895,-3.7443823150251703,2.0123174299061106,1.455000767090107,-2.4788960250398517,4.52378872885718,1,right
13.323,0.47244453934235753,1.1453904159291701,0.007185978741345321,-5.187709917281923,-3.7898198127715905,2.0115268864316693,1.4528526592923021,-2.4787611765592823,4.522480107355357,1,right
13.323,0.43172641668424305,1.1832460976366481,-0.03561519501267306,-5.274907470843483,-3.754346093808021,2.0121132143227465,1.452272884399009,-2.4841470951738476,4.523384292437396,1,right
13.328,0.3940366179376795,1.2162938129722198,-0.07548106651874074,-5.2281086726168935,-3.7737439124383005,2.0118875543855976,1.4546311791449056,-2.478752502248238,4.523535986430426,1,right
13.329,0.36232031197470427,1.2406118036045322,-0.11151180109483252,-5.238284089749281,-3.768679395219072,2.0117266430901948,1.4509802661013649,-2.479643500995601,4.521570643572639,1,right
13.332,0.34010255139299744,1.2554990768836198,-0.13997881993720793,-5.2516945597527815,-3.764764895682929,2.012198991765522,1.4557614155456668,-2.4858101877542316,4.525845532472843,1,right
13.333,0.3234535631933665,1.2630005239195423,-0.15120350474862224,-5.22896879561566,-3.7721305353109473,2.0115799863115957,1.450187663506671,-2.4730212792535244,4.519563069095684,1,right
13.337,0.3120042177911044,1.2605923867647066,-0.1447610241356968,-5.2501209249276,-3.765018080016346,2.0120925344811824,1.4554425614746427,-2.4882353526251135,4.526218117068422,1,right
13.338,0.308355757386459,1.2477866314256747,-0.12270040694967421,-5.236579816010628,-3.7705635594318343,2.012010341058252,1.4527572425152313,-2.478638057993037,4.522395127582424,1,right
13.342,0.309825145789992,1.225124187907002,-0.08528088998331936,-5.2407675307195944,-3.766017611561866,2.011333891447048,1.4497028916113035,-2.472062917059343,4.519051515013248,1,right
13.343,0.31240371147493284,1.1962972240326695,-0.04026673509479193,-5.244717994760803,-3.770881892548565,2.0129651609296357,1.4615090842669174,-2.504423073236004,4.533583266242967,1,right
13.347000000000001,0.3125957045009321,1.1625240707088207,0.011565099497215183,-5.23558735437167,-3.7649491201475627,2.0105111812199308,1.4400698967695336,-2.4433663808615402,4.506664439482348,1,right
13.347999999999999,0.3070493568293916,1.1241676644840182,0.06707592940142373,-5.2459222842158635,-3.7710260308980814,2.0131309486668463,1.467396019859558,-2.522228799894683,4.541214423378644,1,right
13.352,0.2970838739673557,1.0893216765833167,0.11368211472156844,-5.239001003180954,-3.7679058103258587,2.0116112641710417,1.444670843431689,-2.456194285476375,4.512379824012189,1,right
13.353,0.27806217787243026,1.0616590383025062,0.14768305470805979,-5.237744311062301,-3.7632828546058397,2.0103309860830123,1.4452070445328251,-2.4581483331146288,4.513145968104295,1,right
13.357000000000001,0.24932289604825092,1.040913604106728,0.1703299791633038,-5.2509491013218295,-3.7803477602000544,2.015982689831692,1.4886878760186861,-2.58375669423791,4.568159581882616,1,right
13.357999999999999,0.22113067689696075,1.0302507596536024,0.18146634963394434,-5.225074345220532,-3.749275426469526,2.005492831508186,1.3819597536801522,-2.2747289705338964,4.432970763758675,1,right
13.362,0.18673793297557895,1.0311407027823742,0.1823495272158462,-5.258604047770586,-3.789040774076487,2.0189642165494956,1.5588493058906179,-2.787250541701656,4.6571010988005455,1,right
13.362,0.16224884017238234,1.0333332439299454,0.17829335985854528,-5.230496109397524,-3.7559021493420848,2.007716937194699,1.3255708157880572,-2.1111728666651466,4.361491319327996,1,right
13.367,0.15604115697138993,1.035931426792845,0.17603360000326673,-5.231717303977058,-3.7565827577299418,2.008024207063771,0.3463218382298506,0.7267674894297567,3.12050068608667,1,right
13.368,0.13730104474919946,1.0470714935369392,0.17444145650948198,-5.283780516415795,-3.8204653517039127,2.029460963217409,0.11307140997272555,1.4028727191089556,2.8249168573000816,1,right
13.368,0.11485340330980046,1.0608793163270063,0.17443166421222261,-5.155294593608614,-3.663719781849564,1.9767688816206928,0.28991069434719147,0.8902754832392389,3.0490179176667294,1,right
13.370999999999999,0.09600871065530828,1.080984310817802,0.18654952511770795,-5.368438492984721,-3.9235233880022875,2.0641353428047164,0.18324153510698513,1.199454278993453,2.9138226634044493,1,right
13.372,0.08172018827968075,1.0974080884526614,0.20074057077066376,-5.087330552270295,-3.580876091804659,1.9488996919746142,0.22667771268632864,1.0736099818257983,2.968920664847065,1,right
13.376,0.07818804390927074,1.1020516906912983,0.20552173632985465,-3.907630219523865,-2.142017344899161,1.4652000546029333,0.22721288163740835,1.0719398996087228,2.969499395457709,1,right
13.377,0.06048977443214161,1.121752853988556,0.20831458321583346,-3.6266482973785275,-1.7993911325169698,1.349965218627602,0.20456693061347783,1.1377463410814213,2.9409381866364406,1,right
13.378,0.03600222712424025,1.156221765854512,0.19172535208326144,-3.839655851877432,-2.0591719291145854,1.4373307948477811,0.23171705519149766,1.0588873638396477,2.9752100880886676,1,right
13.380999999999998,0.013860086636581264,1.1913249333748608,0.14624695991739833,-3.711118076892991,-1.902417677194581,1.3846383897891403,0.21053412168682104,1.120357898836549,2.9484220975216155,1,right
13.382,-0.014526901768745291,1.2241725190943211,0.09041253478861633,-3.763633546919257,-1.9663759511896222,1.4060780459354998,0.22207597795452383,1.0870378141971369,2.963167644338378,1,right
13.386,-0.032105544294533085,1.2419901446677089,0.03155372502523929,-3.763881647668301,-1.966893733095645,1.4063790597924486,0.21915831639234698,1.0950586821627666,2.959092330231462,1,right
13.386,-0.03241871036066213,1.2388218906338506,-0.027685247598926623,-3.737168932023609,-1.933988561580268,1.3951407633495603,0.21664335711893984,1.1030998195729445,2.9565545128651136,1,right
13.390999999999998,-0.01342105579194355,1.2196938997720537,-0.09012475942978881,-3.76930927938354,-1.9735214471423237,1.4086031869708817,0.2212579762640209,1.0888023206282673,2.9616063891468527,1,right
13.392000000000001,0.024453652890377833,1.189828605443361,-0.15543130774156289,-3.7440340127188945,-1.9425494004306063,1.3981172256319356,0.21683922313303616,1.10234509578269,2.956640829898449,1,right
13.395999999999999,0.07194286952274265,1.1501772747236028,-0.20976181000682592,-3.7584318392287397,-1.9598139608945322,1.4037765548388468,0.22014617315022586,1.092765802737742,2.960838140852938,1,right
13.397,0.13033019776388666,1.1072042976204894,-0.23924855888047547,-3.7533320168381596,-1.9545479256970766,1.4024715929584644,0.21775893405112315,1.0983234919933167,2.9566339552869496,1,right
13.4,0.18798595401163937,1.0669945528728617,-0.23551681477856212,-3.7530326262637748,-1.952535721415898,1.4009945078163066,0.21991883438502968,1.0951756296388162,2.9620639623993825,1,right
13.402000000000001,0.23065387899617557,1.0277064064154882,-0.20153149492319594,-3.7552408196190807,-1.9572528572665884,1.4035619228414085,0.21748595890147007,1.0975835744724782,2.9549644655948777,1,right
13.405,0.26295275246628963,0.9939584716096843,-0.15084010472005643,-3.7525892297113375,-1.9524041048259648,1.4011497890052023,0.21993249022020173,1.0954429166875967,2.9623455377028183,1,right
13.405999999999999,0.28544009459563646,0.9662759518140175,-0.10181421619018415,-3.756597378473923,-1.9572781802893748,1.402781182905358,0.21875095229411767,1.0960065988608294,2.958376336418649,1,right
13.411,0.29820841939709025,0.9427320827807416,-0.06386840871289975,-3.7487618111420886,-1.950720270233136,1.4020276482754221,0.21658279309805992,1.0998265644300647,2.9534931847095502,1,right
13.411,0.30544003647986884,0.9280398493671935,-0.03156161409072602,-3.762697998339048,-1.960863508831642,1.4021220708647628,0.22418999042742188,1.0885663781082626,2.972469722334031,1,right
13.415,0.30761655687745293,0.9185221771180189,-0.003942209506745463,-3.742858386625744,-1.9468921393691518,1.4023707744220626,0.21042186465808138,1.1084630087970286,2.937711825898991,1,right
13.415999999999999,0.30947844353819376,0.9083560603775518,0.010147530015083225,-3.763830893027632,-1.9615693045798592,1.4020334785170938,0.22802481888049064,1.0831364600770823,2.98224238227768,1,right
13.42,0.3123422390976293,0.896639537638741,0.012462011561575882,-3.7519926422339767,-1.9534306693729684,1.402342294957276,0.21335950312059979,1.1041897727172025,2.9451105242684044,1,right
13.42,0.3155583720988855,0.8821977099858737,0.0024688977025952297,-3.7404022462901354,-1.944723323295024,1.4020428061302699,0.2136388904407158,1.1039656291485245,2.9459531331888815,1,right
13.425,0.32275595146585045,0.8677065962564967,-0.020505239751292294,-3.7888594386988395,-1.9800607217561605,1.4024286494861573,0.24198909602681035,1.0626892663562284,3.0172780295092605,1,right
13.425999999999998,0.3321090955034535,0.8511753270429767,-0.0477316327535678,-3.699404414446941,-1.9150281927935708,1.401878865001959,0.17244553411485203,1.1637321332625628,2.8421719785098896,1,right
13.431,0.33953312267752633,0.8298579157754453,-0.08872646629536171,-3.8141772138708907,-1.9984193886101655,1.4025491764270281,0.28771731689351693,0.9963063985508478,3.1324412936481005,1,right
13.431,0.3434401774057224,0.8165463073044441,-0.12022240524682376,-3.7183962931043064,-1.9288480078108907,1.4020019141586775,0.13567589161055368,1.2171281540472032,2.749600163305806,1,right
13.436,0.34434237886827124,0.8144734347452622,-0.12934356728963542,-3.720846267299328,-1.9305517640470955,1.401964849720432,-0.502670540686575,2.1445604173718826,1.142195875673531,1,right
13.437000000000001,0.3463523312845049,0.8084583849535443,-0.15763716756743026,-3.9039488182478417,-2.0637936768310516,1.4031846205432428,-0.65472915587853,2.3654188877543256,0.7593674700029228,1,right
13.437999999999999,0.348327230391831,0.8033503831651025,-0.19320461215169454,-3.4540728357693253,-1.7365174248824877,1.4002417166280328,-0.539438773066979,2.1979534244424244,1.0496230173332544,1,right
13.44,0.3415012129096945,0.8135782676302077,-0.22140354490736214,-4.199944834469345,-2.2790946369355027,1.4051145900813924,-0.6089752673789675,2.2989812028757823,0.8745117321463888,1,right
13.440999999999999,0.33375911910179445,0.8242361742829927,-0.24191220921470213,-3.216146279583734,-1.5634521995651942,1.3986760918694778,-0.5806867420188995,2.2578365651544248,0.9458822917606236,1,right
13.446,0.33045192773138876,0.8284283185798766,-0.24549258415905043,0.9135398884145515,1.4407523254949064,1.3716351923294097,-0.5802746337961151,2.257328971799808,0.9466266477273187,1,right
13.446,0.3153126846864035,0.8433175710321105,-0.259135166626802,1.8973592515096012,2.1563916179252836,1.3651569653743314,-0.5951302508925966,2.278788715265934,0.9096356666082033,1,right
13.447000000000001,0.29450297067052167,0.8623364950684765,-0.2744006002144885,1.1514635044740322,1.613830030891438,1.3700883389440566,-0.577337788142692,2.2530574195979582,0.9540259363927355,1,right
13.45,0.2779582779200469,0.8781717665309535,-0.27953029861222134,1.6013352996624661,1.9410642849801842,1.3671068244075193,-0.5911876983959724,2.2731287406139873,0.9193285758746524,1,right
13.450999999999999,0.25641215051513916,0.8988423357036307,-0.29224111489113946,1.4182984070413942,1.8079003356959986,1.3682973160412353,-0.5837431995476114,2.262216001152873,0.938425568069228,1,right
13.454,0.22939253659853265,0.9191173846898826,-0.3010840232415084,1.4157011348970476,1.8060884566968982,1.3683989433794759,-0.5853872026044413,2.2649165488091607,0.9331543799298507,1,right
13.455,0.19758243675983073,0.9344942340817881,-0.3001704410958278,1.5116980754920792,1.8757671251268828,1.3675922218412642,-0.5874719169986228,2.2674091455267993,0.9298537922897034,1,right
13.459000000000001,0.16107658035395941,0.9424991548708097,-0.29436671052749874,1.3967041388754153,1.7923287262854855,1.3685966039953397,-0.5839169262363062,2.262901108636,0.9364142965818216,1,right
13.46,0.11861949336835421,0.9413386182706593,-0.2801348839471014,1.486265771393196,1.857270879851467,1.3677620877735588,-0.5872335718781048,2.267196617386115,0.9299690127342073,1,right
13.465,0.0723728754904783,0.9312128672624425,-0.2559787155885209,1.4379726826146995,1.8222292046436832,1.368185020559285,-0.5850814261089587,2.2640651735911654,0.9354048116271574,1,right
13.465,0.03413652830494546,0.9067898685271745,-0.22525938759834,1.448990091526603,1.8304229335277125,1.3683233470246414,-0.5858288991641587,2.2661209667325886,0.9299866675175561,1,right
13.469000000000001,0.005631447596851963,0.8699491532997122,-0.20065987382060582,1.4618408043185491,1.8391973762568383,1.3675614637996198,-0.5862695803378646,2.2645454011213397,0.9369583469874208,1,right
13.469000000000001,-0.012895113641530901,0.824710306814356,-0.18575472840757304,1.439599018440994,1.8240044640877904,1.3688740246401834,-0.5850972988483203,2.2661473303521897,0.9278538248228247,1,right
13.474,-0.026833295739550587,0.7819911820262434,-0.16954427711892184,1.4604904877129692,1.8379919244170966,1.367305825793324,-0.5864430755029229,2.2645797732253103,0.937318002720155,1,right
13.475,-0.033786448611358134,0.7397223922492288,-0.15806156586441567,1.446471783401312,1.8287581195165394,1.3685383853826572,-0.585513781046153,2.2652644195873175,0.9322306712930784,1,right
13.479000000000001,-0.008741705167896692,0.680523065786601,-0.1661919145897812,1.452566146338496,1.8332005783198906,1.3685089196593436,-0.5854634286858007,2.2669472552025156,0.9259578484985318,1,right
13.48,0.042534086686415874,0.6073073225783083,-0.17425846653685512,1.452703972629524,1.8315110230794578,1.3663909417730122,-0.5869131546351376,2.26137270131424,0.9503212440147233,1,right
13.482999999999999,0.10687904573991532,0.5242191775372587,-0.15877403316059976,1.4490366932572243,1.832932477816331,1.371252408812238,-0.5840021998681049,2.271385808015819,0.905696643289436,1,right
13.484000000000002,0.19024382048529642,0.440847891161238,-0.14862655918525014,1.4537285765672765,1.8302459546549041,1.36400566020891,-0.5877906240677471,2.2586037902378764,0.9628718407582548,1,right
13.488,0.2938880223789556,0.3510771683905629,-0.16923660515353667,1.449760610004362,1.8338609947236786,1.3717233562967022,-0.5846064235609264,2.269241222529711,0.9151894952080626,1,right
13.489,0.41889234130372754,0.2892554275577353,-0.2196500206212179,1.4520636302832273,1.8317809986573241,1.3672652006136548,-0.58477277553093,2.269075399674409,0.9162865247842151,1,right
13.494000000000002,0.5549822455843444,0.2797719947575861,-0.31824714334057874,1.4517596123018435,1.8283187734089816,1.363433442205019,-0.5905841397413699,2.248400564859934,1.0078428813343017,1,right
13.495,0.7017333936782465,0.31098114453936465,-0.4949707442763411,1.45012846886496,1.8413084391493495,1.3802145776565116,-0.5762033696535249,2.2990639114960625,0.7830359021963704,1,right
13.498,0.8034552511259818,0.4782596248895603,-0.6890743344811088,1.4532988788693355,1.8173281897084017,1.3490961320651733,-0.6000758069667184,2.215112622646322,1.1557185060833937,1,right
13.499,0.8186239226587316,0.6420721949910765,-0.7709995221828129,1.4494201428076976,1.848256474735893,1.3890492210026215,-0.5685806400585631,2.325822285318913,0.66415507513417,1,right
13.503,0.8119106573720054,0.6913721929343751,-0.7990053117235969,1.45256853133947,1.8223755816831386,1.3556997266163058,-0.436520505500634,2.7907869726381778,-1.3994462113298547,1,right
13.505,0.6812560410596553,0.894790153476264,-0.8081442871286912,1.4522496726867957,1.8228948377268857,1.3565929425277874,-0.4050200191556468,2.9014615623659026,-1.8910385534791656,1,right
13.505,0.37018503572962735,1.1718082251221666,-0.7278288400900703,1.447256788452074,1.8730065817123789,1.4202033701673868,-0.4289055235844489,2.817572002617185,-1.5183227216584443,1,right
13.508,-0.022408362883063422,1.3591036594649435,-0.6271324715577433,1.4596963314934674,1.7499828501485184,1.2638778359520777,-0.4145010437534349,2.8681655435666196,-1.7431247035486082,1,right
13.509,-0.5039419213130443,1.5695849770819756,-0.4732628450569928,1.439099691826603,1.9539653533184203,1.5230556709144094,-0.42034670956342757,2.8475385004152036,-1.6516578817444785,1,right
13.514000000000001,-0.8079970026736899,1.690399938686868,-0.32928020372282163,1.466197291452305,1.6848805008111916,1.1812188101840286,-0.42047492722080027,2.8473858676476675,-1.650358704334282,1,right
13.515,-0.8601397766138625,1.7073884882022763,-0.2862105039220547,1.5794319367940703,0.5548317985049107,-0.2538276936114373,-0.4173168449007846,2.8579114981192593,-1.698338496940674,1,right
13.515,-0.9607757265233857,1.7791814672987454,-0.16009602644462542,1.6064256237175625,0.2857001447219081,-0.5956359528952693,-0.42111493524265065,2.845356846129875,-1.6408576005582682,1,right
13.519,-0.8997579992203965,1.8236064056128474,-0.04790646171502973,1.5859860948163171,0.48976579975046414,-0.3364893480525019,-0.4181335599343855,2.8550563647891103,-1.685631753754289,1,right
13.519,-0.5643628502158842,1.7643340788139334,-0.1832742781556186,1.5983101255788188,0.36664615450525956,-0.4928256413032923,-0.41972764794845313,2.8497831189853366,-1.6614901959421773,1,right
13.523,-0.22944382128190263,1.6572166008436504,-0.41779466171479657,1.5932706027272943,0.41682737209622844,-0.42911464936954663,-0.4194748827434207,2.851349546072197,-1.6669784570593185,1,right
13.525,0.04829138124995959,1.5115492477162529,-0.5509034990427348,1.593270078355839,0.41735577196934814,-0.42843920156218973,-0.41874528888193135,2.8517499203618764,-1.6734573317072194,1,right
13.527999999999999,0.22267313465136915,1.3229495531657296,-0.6857204810813177,1.595787512757942,0.391334767297258,-0.46147534672344737,-0.4200042439696105,2.8510459957316874,-1.6622432211181661,1,right
13.527999999999999,0.2590788479531051,1.1406413486143396,-0.8460130044116254,1.592755088201455,0.42256121929500745,-0.4218356797269566,-0.4186648270508285,2.85119063245607,-1.672805837773005,1,right
13.532,0.17263845547115741,1.0556707279876592,-0.8225426286207662,1.5951554658675193,0.3981577018039728,-0.45281630542930473,-0.4196479847875627,2.851371380760559,-1.6657022421697452,1,right
13.533,-0.03233731460516187,1.1316242838308024,-0.6982435705333762,1.593730533373336,0.41157022217825645,-0.4357719856101044,-0.41945795117056706,2.8520733729006125,-1.6687469206588756,1,right
13.537,-0.18044606646136035,1.3567361879879793,-0.6081156953574112,1.5943671539878959,0.40791373078958953,-0.4404617766241642,-0.41846124433736076,2.8488252581505806,-1.668998232645031,1,right
13.538,-0.07824003549550557,1.7130750236540107,-0.4302972667323835,1.59413845109629,0.40550556681031014,-0.443435692469045,-0.42084591587499853,2.8558700726819652,-1.666748351171512,1,right
13.543,0.2984140717007314,2.193801693548574,-0.12573480920303653,1.5942447049794646,0.41022714251547465,-0.43754570301071993,-0.4173135202274716,2.84527322880084,-1.6697157476920848,1,right
13.544,0.872087754069371,2.7539325073965175,0.2646070613734322,1.5942440240746913,0.4056073639816426,-0.4433260981770452,-0.4210459375738716,2.8566856689548312,-1.6670687604560341,1,right
13.547,1.523129638815878,3.398581596897646,0.6267695683921193,1.5938591977053913,0.4094306232013423,-0.4384727770615998,-0.41888913473170053,2.850093188652026,-1.6686036082086737,1,right
13.548,2.0806582466952928,4.128153847489792,0.8055987489250485,1.5950804775246232,0.4057802698299794,-0.44326326379953096,-0.41710284140539966,2.844151286837165,-1.668781990177798,1,right
13.552,2.47631757893907,4.849551089204388,0.8058433966248875,1.5926666010307378,0.4103142548429089,-0.4371466631625075,-0.4250145697580746,2.8698196116441363,-1.6665197724920948,1,right
13.552999999999999,2.783732850179873,5.422139588726997,0.6945157034066656,1.5961793394295074,0.40446484417307843,-0.4451139157091597,-0.4103378228707645,2.8222350347474205,-1.6707884102545287,1,right
13.558,3.021410753858154,5.613492322696867,0.45967749388558743,1.5924484885001193,0.41052682114273154,-0.43683702439904276,-0.4291770710629709,2.88335642012703,-1.6654026895727263,1,right
13.559000000000001,3.2616118875241167,5.339635416408124,0.10250033483721994,1.594582419693431,0.4072985457101703,-0.4412776744545833,-0.413452362876717,2.8323208204529244,-1.6698550120172735,1,right
13.562000000000001,3.4584371666563305,4.657247996637994,-0.17577983682447054,1.5965391629474799,0.40316872261519787,-0.4467955688566918,-0.41388461634379514,2.8336719702946063,-1.6696156465296412,1,right
13.562000000000001,3.531127439798963,3.7783065163226754,-0.2689377509680556,1.5881599263491504,0.419028488096862,-0.42541509755631013,-0.443838173551218,2.9311098109797245,-1.661635926493604,1,right
13.567,3.5286597826930626,2.9486990993443296,-0.24252578646200726,1.6036740236567988,0.3900261852506589,-0.4645633280481085,-0.37021224428813426,2.691646027483931,-1.6813371398307715,1,right
13.567,3.2663894572949514,2.0733246504676868,-0.027917628834333796,1.5837477400032391,0.4271605706554991,-0.41441103490392517,-0.49228540834282025,3.0886858890229805,-1.6486827250622191,1,right
13.572000000000001,3.0209233346687956,1.5379186672949987,0.17553241733360503,1.6004012046947547,0.3962218415307896,-0.45622904971732603,-0.3312745149105807,2.5649887501220867,-1.6917223915666253,1,right
13.572000000000001,2.939162990883408,1.4206203613945676,0.23159342039626665,1.5999127343234472,0.39685763694934784,-0.4552858672902767,0.3445752727536113,0.36661438877315145,-1.8720904844413666,1,right
13.573,2.562119391690013,1.026210906905789,0.43063702894850436,1.568238810925861,0.45645881095884033,-0.3749409591140283,0.5055841472178229,-0.15709658018908781,-1.9150838041815406,1,right
13.575999999999999,2.060057775944396,0.5790249775081684,0.6698928069443755,1.6461727161327504,0.3102530284785763,-0.5721851540339041,0.38351131412327777,0.23997495447468825,-1.8825017596608604,1,right
13.577,1.4921315720332684,0.30097542199081495,0.7232466528819401,1.516892157648503,0.5525430842339898,-0.24521760918170088,0.4571446390903563,0.00045767507446906053,-1.902143319173157,1,right
13.581,1.0472363425674498,0.08130886667577926,0.7224579894740384,1.6874626794843333,0.2330306979557381,-0.676467185268313,0.4271703018154086,0.09796790074981072,-1.8941595654051393,1,right
13.582,0.9365508390976427,0.03806072035187397,0.7061508306730082,2.401940625486445,-1.1102203694001107,-2.4873247645793377,0.42677371770958517,0.09924482178001252,-1.8940373061871152,1,right
13.583,0.5197707119653845,-0.10275737124054392,0.6025948474595544,2.5724577184795896,-1.4298199861590124,-2.9186128017200197,0.4424545218575574,0.04825038742742017,-1.898234911083137,1,right
13.587,-0.06891195103724268,-0.3016753964419676,0.42586608014785926,2.4434259109994936,-1.1871944822898095,-2.5915474455954906,0.4236499516615698,0.1094123024723884,-1.8932112768108273,1,right
13.588,-0.49268426134677834,-0.40277390731194185,0.22453042734890682,2.520705471393348,-1.3342182478631286,-2.788974872128884,0.4383285241386725,0.06165885257996287,-1.8971222988965644,1,right
13.593,-0.9573456047962898,-0.5261475984545873,0.02746887143137343,2.4902341192932456,-1.2731697811997573,-2.708357618367791,0.4303483341705049,0.08764120630080517,-1.8950132077161412,1,right
13.594000000000001,-1.377968021145521,-0.6125128405988349,-0.1444995046208547,2.488089654879511,-1.2744719979586543,-2.707726265114584,0.43228860735683394,0.08128784084336892,-1.895496614363715,1,right
13.595999999999998,-1.7945881227657838,-0.6720450286822628,-0.28047156648785154,2.5063717185669603,-1.3035735451513197,-2.7493166728749174,0.4342178862627353,0.07506365301310508,-1.8960527734160928,1,right
13.597000000000001,-2.2342224388964977,-0.7172951544348025,-0.37309352593890477,2.4857552129930296,-1.2670925473597743,-2.699116862446671,0.43072455144414035,0.0863858891079729,-1.8950879533873017,1,right
13.602,-2.655779053091088,-0.7190910595287449,-0.4066504469897815,2.4998373283537627,-1.2979968251432257,-2.738794711625803,0.43412634491101204,0.07532048160763988,-1.8959957953506648,1,right
13.603,-3.109701104827561,-0.6903241251318627,-0.3833591387845593,2.49603665958459,-1.2765437693804507,-2.716281921206778,0.43160230905596997,0.08360537322498872,-1.8953810624094116,1,right
13.606,-3.547270988363282,-0.6055930525740123,-0.3156763010808338,2.490101780796096,-1.29003379086486,-2.7234291101995156,0.43315855268452375,0.07837223403623916,-1.8956618178657951,1,right
13.606,-3.975049205440261,-0.46421698679541124,-0.2292268758419732,2.5019403116993875,-1.2820490201814074,-2.726208205966933,0.43232026045997807,0.08135419374190023,-1.8956387685126017,1,right
13.610999999999999,-4.386647287591295,-0.24961599790182015,-0.18374321894382298,2.4904341113410347,-1.2845282302174743,-2.7187535526330313,0.43267107816840394,0.07994095617265151,-1.8955184562197436,1,right
13.612,-4.750110530357197,0.015402379223377796,-0.2490753707660152,2.4939680214831417,-1.291367652518756,-2.727883504648781,0.43283241096751346,0.0795736097558792,-1.895685360549037,1,right
13.615,-4.991988990841414,0.2698635182519693,-0.43485764708520813,2.5057779379399276,-1.2688849669633857,-2.7175909674548024,0.4318396635098804,0.08293775800754186,-1.895526246839437,1,right
13.617,-5.019241748581372,0.4621949401952165,-0.6370589608734656,2.474324918352086,-1.3119003326136132,-2.729828943207117,0.43409626218426556,0.07500538064302781,-1.8956635003056455,1,right
13.620999999999999,-4.839043703261609,0.5561158990829,-0.74367553161233,2.5228235431734456,-1.2506729201134088,-2.7155456250983745,0.43040481751350457,0.0881115868264129,-1.895541344214868,1,right
13.620999999999999,-4.428546626156979,0.6188843311755077,-0.7355870134444631,2.4705393145277696,-1.3148687430384434,-2.729318498280464,0.4349668547444977,0.07186088005094379,-1.8956500366605071,1,right
13.625,-3.880008408804148,0.6687223031339788,-0.6082948145565296,2.501151010590454,-1.2784910258226172,-2.722334061005388,0.43123361593088194,0.08518338516562428,-1.8955803822346204,1,right
13.626,-3.250557837705796,0.7604559410758728,-0.42536458526542,2.5262885773867794,-1.2449117184214793,-2.71328688824899,0.431218315351243,0.08519945909459797,-1.895549010178335,1,right
13.630999999999998,-2.595915744030103,0.9258005020473503,-0.26227666052673515,2.4139541763086454,-1.3877800845072614,-2.7472993560232912,0.43864612305696227,0.05879428065787041,-1.8957695255986224,1,right
13.630999999999998,-2.045715382383391,1.1039450924178005,-0.14605264440853355,2.6228477916516457,-1.1237856790291227,-2.6855399393929424,0.42055817197058476,0.12315009723134557,-1.8952772906388304,1,right
13.636,-1.4327403050922531,1.4343728932954112,-0.18214303494726528,2.3543835992894167,-1.4624378374667284,-2.764370213021895,0.45048451110595594,0.0166510473738041,-1.8960721283862338,1,right
13.637,-1.0446687329588564,1.693010924866323,-0.2664060213758099,2.578659018819954,-1.179828265574833,-2.6987533925737615,0.4110361919286263,0.15704772076401716,-1.895035489910598,1,right
13.64,-0.9525090118263785,1.7687979559043812,-0.30142666963849196,2.572306545023078,-1.1873294295368226,-2.7002347578593913,0.24536222366518912,0.7466536634566642,-1.8906594233476408,1,right
13.64,-0.589720770573813,2.082687450837514,-0.4585285131071117,2.1453670765814596,-1.7266242079943188,-2.8261405763799123,0.20592276579409646,0.8870358300941147,-1.88964286405811,1,right
13.640999999999998,-0.14939218498459306,2.50876047452975,-0.6759716384318071,3.195232252669202,-0.4012706060272194,-2.517096725575948,0.23582269638917952,0.7805973441900769,-1.8903993042155087,1,right
13.645,0.29711420152583434,2.8764804357947407,-0.8422140015318631,1.4541958378828315,-2.5987675486827957,-3.029359988915148,0.217790679988293,0.844800204457525,-1.8899578636790322,1,right
13.647,0.6697102920623326,3.131051168494124,-0.9435500280796942,3.7508852880393606,0.299800941805238,-2.3537248661678234,0.2251274578282218,0.8186706038630407,-1.8901286898214065,1,right
13.65,0.7674248125172438,3.1775944972086902,-0.9598669206982791,13.388284828271289,12.465232540050595,0.48221297400850127,0.22522595997777414,0.818312621109671,-1.8901228921083184,1,right
13.651,1.1577075177809144,3.2507452397077685,-0.9828574580340619,15.6853947040383,15.364008750260899,1.157878253592151,0.22139524948774159,0.831996206704289,-1.8900816921117587,1,right
13.651,1.7468091035133044,3.20315881115362,-0.9812671875291209,13.943889225205481,13.16631367717223,0.645618248564467,0.22597228361600552,0.8156048314966908,-1.8900807004384768,1,right
13.655,2.1861493167017882,2.88475141347032,-0.9119974812013967,14.993631663919494,14.491487555040273,0.9545225807394848,0.22242676113846693,0.8283652583162575,-1.8901569433587775,1,right
13.655999999999999,2.5915371748176375,2.4834543675133416,-0.8125181661481393,14.568097424899001,13.953132560060162,0.8289870395152356,0.22431932739731128,0.8214902909406495,-1.8900402589419891,1,right
13.659,2.807371111840749,2.040658501511915,-0.6601973492033232,14.558652195653028,13.943739140194122,0.8268840398995811,0.22389512296423225,0.8230595616702432,-1.8901002934145925,1,right
13.66,2.783432060155974,1.6459564183507531,-0.4708557960518869,14.78741742274251,14.228957898351503,0.8932519997813656,0.22341977824270032,0.8248700812663476,-1.8902295082080665,1,right
13.665,2.5545282615885836,1.3520980905067002,-0.26386182311089257,14.514413089665501,13.887837346395868,0.8138488182302654,0.22418776402660323,0.8217556042283514,-1.8897945827223241,1,right
13.665999999999999,2.1482801095538973,1.130059546824806,-0.06346320869597624,14.72539424779891,14.152655763326731,0.8755303357966963,0.2235609704713491,0.8246422728827153,-1.890561266313217,1,right
13.669,1.6900471445952268,0.9699594686786512,0.08967722962631483,14.616662295166867,14.012462482337465,0.842758933591524,0.22386653640694365,0.8227504065185764,-1.8896088199032777,1,right
13.67,1.2298784212194787,0.827855173827637,0.19474018865082698,14.629685770624103,14.038380185718626,0.849097034590353,0.2238236474211255,0.8235439868318468,-1.8903731204148784,1,right
13.675,0.8066117630499474,0.6944610841826062,0.25551641349881943,14.681459865380646,14.087416657862384,0.8600176662549639,0.22382671156468553,0.8235390543467381,-1.890380141366379,1,right
13.675999999999998,0.4342154431755142,0.5690668009775958,0.27466366250449015,14.60289680025121,14.008261551984777,0.8421911579119574,0.22358437700000655,0.8232118322045936,-1.888953451184051,1,right
13.679,0.10296383772134236,0.45345558717047524,0.25365738000545135,14.672805278538101,14.080554326766894,0.8585451894309386,0.22427379612234694,0.8234764290303432,-1.8922171025080097,1,right
13.68,-0.19205707204948558,0.3581132741750469,0.19186848650076116,14.640486032779531,14.039619715388316,0.8489988541566831,0.22313353949653286,0.82347989143373,-1.88734561175206,1,right
13.684000000000001,-0.4647679159221857,0.28441548776503345,0.10331135886704808,14.614990174567001,14.037020127728052,0.849315263182858,0.2244144347297301,0.823243131155547,-1.8925402104485487,1,right
13.685,-0.7194556322017733,0.23090086515178543,0.012238451354126375,14.7056966328539,14.083908305004837,0.8581374454953491,0.22365341479082368,0.823455115290834,-1.8895385546443957,1,right
13.689,-0.9634048114293697,0.19900067186721404,-0.06094129550234802,14.562609086337467,14.00415291167273,0.84269000537963,0.2229888106451864,0.8236661454670217,-1.8869498331449415,1,right
13.69,-1.1970943203588447,0.19577027175101347,-0.09717191468806294,14.716591475943318,14.090999989417151,0.8595833530152506,0.22592278947631222,0.8226475459893589,-1.898277845515474,1,right
13.694,-1.425076265337745,0.2179614840570141,-0.08757009688388104,14.625331813957663,14.037935049708416,0.8491494821874352,0.2204575733277347,0.8246244019422752,-1.8772701938355496,1,right
13.695,-1.648010149196663,0.2757911134689182,-0.04839543555009539,14.557995564346395,14.00648104752767,0.8434873898319355,0.22749192532107454,0.8220244485971275,-1.904244615573305,1,right
13.698,-1.8664486648513186,0.36273135195626716,0.008291867285200566,14.871244105532464,14.167528392547615,0.8737224238320077,0.22161182501336874,0.8242244786826013,-1.8817260718539024,1,right
13.699000000000002,-2.0782236294771095,0.48222351268429525,0.07683838024435326,14.286967675614545,13.864642512070512,0.8166658866227952,0.22177048714963166,0.8241600675378922,-1.8823327067385756,1,right
13.704,-2.258089675946411,0.6347751961501473,0.14300441787516588,15.037967263369197,14.254510955396766,0.8901514511311654,0.23299675699524855,0.8199307037285248,-1.925278224203109,1,right
13.705,-2.4129189537269093,0.7893447268190547,0.19881959467500493,14.4106770986575,13.928643957053193,0.8287106126023935,0.2053988922930452,0.8303573883344361,-1.8197290407860227,1,right
13.709000000000001,-2.4867247131341053,0.970190863942189,0.23198330751584434,14.428854170073013,13.938939747261832,0.8307210928227404,0.25116262307623627,0.813040764432948,-1.994730162346307,1,right
13.71,-2.487978883509834,1.0879471112715946,0.24221812023473777,15.621069720977012,14.555465480248486,0.9467407824780771,0.19079629694684846,0.835906451908781,-1.7639088515024928,1,right
13.710999999999999,-2.499102702550278,1.1124616132904652,0.24374502544597965,12.689305020487595,13.038377283935274,0.6611646283277954,-0.06259498943823616,0.9317836489491,-0.7949889827911435,1,right
13.714,-2.3969201757287513,1.199606617644632,0.2297884071943478,17.55072223418752,15.554234891358899,1.1347758596804067,-0.12296601783748898,0.9546829234821163,-0.5641746160414851,1,right
13.715,-2.270307013788841,1.2712438958705594,0.2140507400897254,11.138427005152192,12.235782749094644,0.5100653866385406,-0.07719496066114839,0.9373219920405922,-0.7391682830269486,1,right
13.718,-2.2299354400448266,1.2661980724456865,0.21020476610079064,-15.775493672638245,-1.691324402961305,-2.111667827359966,-0.104798820436208,0.9477630805000241,-0.6336160350202699,1,right
13.719000000000001,-2.0307196956196556,1.2752866159116785,0.19625694596761417,-22.187942685746624,-5.009652646705948,-2.7363770276398314,-0.09357307802112126,0.9435960688138679,-0.6765869010191836,1,right
13.72,-1.7130109512333602,1.2557203008347226,0.1829801055989017,-17.326150778383607,-2.4938848805630727,-2.262737879914504,-0.09340235907491747,0.9433586255507553,-0.6771392806520151,1,right
13.724,-1.4239363904516544,1.20880290244023,0.1842178199237577,-20.258590033020553,-4.011180648680521,-2.5484183155844553,-0.09930849107203699,0.9458378727375788,-0.6546982995128605,1,right
13.725,-1.1256966040234677,1.170684700291181,0.18518588109791967,-19.065405282831676,-3.393887438705344,-2.4321801524809383,-0.0922372931914886,0.9429209974419077,-0.6815957704760567,1,right
13.732000000000001,-0.8620972659415822,1.1349304435712904,0.18006330758449995,-19.04829734892561,-3.385027303096612,-2.4304968402628777,-0.09773869429446941,0.9451068038230138,-0.6606207916669861,1,right
13.732999999999999,-0.6366646133852856,1.1174340006342227,0.16307278587439517,-19.67486822068453,-3.7090085392708283,-2.4915830031815567,-0.09478960708088274,0.9441939614765165,-0.6720161038179735,1,right
13.734000000000002,-0.4336581337574542,1.1131661020700383,0.13510946595706214,-18.92356851579425,-3.320802217313072,-2.4183076930605023,-0.09542246333137816,0.9437781006961821,-0.6692126920365935,1,right
13.735,-0.25898173758398446,1.1158503328439624,0.10230052798810849,-19.509861977024528,-3.6233715099924373,-2.4755389435747395,-0.09628382795753074,0.9452326925281155,-0.6665797641008011,1,right
13.738,-0.09286648057053364,1.1211392865109362,0.06840916182817622,-19.192521524882935,-3.4599737725412956,-2.444511697068406,-0.0948313342734128,0.9432984962774471,-0.6713231071105279,1,right
13.739,0.0619246244055108,1.1248040079071293,0.03900411959344021,-19.26555675613501,-3.4974111090575484,-2.4516735432371233,-0.09618074143743552,0.9449127235370718,-0.6668094890456345,1,right
13.743,0.20753016814161201,1.1284628910691892,0.01287026988359471,-19.35124349972693,-3.5410677751967907,-2.4601204619592543,-0.09532671426760986,0.9445991673370906,-0.6700806789386774,1,right
13.744000000000002,0.34708183676391324,1.1277705601598504,-0.00928379821287629,-19.199592487278842,-3.464810284775713,-2.4450316672491725,-0.0955626954705585,0.9426416057723876,-0.6679798973017483,1,right
13.749,0.47920786840170054,1.1235226826488844,-0.028298043895889545,-19.347552485497175,-3.537551687151409,-2.4599869961444716,-0.09587633357285259,0.9474380705732108,-0.6695195460118887,1,right
13.751,0.6017439643975853,1.1151808239249439,-0.047073971863676456,-19.241400312403506,-3.487313766793812,-2.448982270033545,-0.09520416384079816,0.9402053184391845,-0.6680037540004582,1,right
13.753,0.7081390685637055,1.1035677041041805,-0.05928358424927771,-19.29337586454958,-3.5104681834877516,-2.4545743223265983,-0.09595875096360615,0.947929938787087,-0.6694741551556809,1,right
13.754000000000001,0.7998343651804899,1.0906846205296632,-0.060723450259023155,-19.29329635110026,-3.510395223647628,-2.454571688181492,-0.09546267634391645,0.9434439469221982,-0.6688542749195506,1,right
13.758,0.8689543447352268,1.0747280960517152,-0.05501626844157122,-19.249150088809486,-3.494488774915528,-2.449289059638088,-0.09533263140934488,0.9396895046434711,-0.6671820375423356,1,right
13.758,0.9116246071611476,1.0579040772807229,-0.048484570074118584,-19.327966141131512,-3.5194168604179867,-2.4592107589010177,-0.09638886064587443,0.9563049505442305,-0.6726379973056109,1,right
13.763,0.9319812461757612,1.0426248274018386,-0.04598503926705227,-19.22856397877996,-3.491635380760046,-2.446180352330787,-0.09434217197795422,0.9254582396178959,-0.6628559993242193,1,right
13.764000000000001,0.914325184321866,1.0302746214924852,-0.04776982164075026,-19.32390371128958,-3.515752730414173,-2.4590358823907597,-0.09698992453484531,0.965074359278473,-0.6753412255510406,1,right
13.767000000000001,0.8695650409344664,1.0244066604457798,-0.05035047704834002,-19.272211497697434,-3.5035746101089673,-2.451938763765452,-0.09477149934371923,0.9319977673215432,-0.664948248431005,1,right
13.767999999999999,0.7974784708072546,1.0253196675454572,-0.049862357923754846,-19.229067253172225,-3.493809204238811,-2.445958605797486,-0.0948620857646845,0.9329049414358703,-0.6651130994187779,1,right
13.772,0.6982872205429486,1.031672969430221,-0.04887704326340436,-19.413806736605736,-3.5344357631366874,-2.471732759188356,-0.09899191278812958,0.995936293945126,-0.6853127803994652,1,right
13.773,0.6019297711936566,1.0447647309066164,-0.04723189366746895,-19.07510818163158,-3.4611127266379142,-2.424314648661339,-0.08880536137378713,0.8409990945610801,-0.635801577094067,1,right
13.777000000000001,0.47979738013908313,1.056932576376365,-0.03704963603215897,-19.507312479363666,-3.553865642641863,-2.4849385770854866,-0.10570439255552606,1.0978949073798485,-0.7178575177504678,1,right
13.777999999999999,0.3965147026280197,1.0605888724625894,-0.026108219772894403,-19.14766800050477,-3.477041491066661,-2.4344419136928663,-0.08341379537510836,0.759052531098019,-0.6096312381026714,1,right
13.779000000000002,0.37577501978300965,1.0608685450508668,-0.0229429653645999,-19.157561343824018,-3.479204813839078,-2.435823796991612,0.010114602636669828,-0.6631567529962554,-0.15526857572335645,1,right
13.782,0.2972699652244895,1.0617444474545643,-0.014113949095176527,-19.840850199388953,-3.624404780470644,-2.5318701317590238,0.03240303794775012,-1.00198163921918,-0.04704796157593729,1,right
13.783,0.2033163896085189,1.057383856842835,-0.0030669593179402503,-18.16206981224968,-3.26786012586902,-2.295864805880985,0.015504421630548772,-0.745122266321651,-0.12907517132800567,1,right
13.788,0.12455129668054439,1.0390843018005405,-0.007027312267460961,-20.94484869147675,-3.8586571228577626,-2.6871027653926083,0.02569867799393485,-0.9000046176063743,-0.07964169089493663,1,right
13.789000000000001,0.06051843566266702,1.0239790163057965,-0.01366197999491179,-17.2749131320273,-3.079679713355026,-2.171113102373012,0.02154704173143604,-0.8370384079145359,-0.09969666466972649,1,right
13.79,0.045478123928381325,1.0193416049675685,-0.01669690580378122,-1.8720794292425,0.18904408684927287,-0.005378570003534144,0.02149399415090037,-0.8360765227422322,-0.10006261644486765,1,right
13.798,-0.005870839143022066,0.9957964863753951,-0.03379069173041892,1.7974627019414535,0.9677805449439895,0.5105818723322109,0.023666110962028766,-0.8691631475693071,-0.08946957031762975,1,right
13.799000000000001,-0.0783127948123732,0.9569179836328414,-0.05936073387138743,-0.9846751477492209,0.37739657678614835,0.11938653809747896,0.021055085794236213,-0.8296224855704846,-0.10204377317025479,1,right
13.799000000000001,-0.1199579097685965,0.9152276522083864,-0.08035063326846838,0.6935043051454677,0.7335008080985908,0.355364889410367,0.02310335599736652,-0.8602779718125886,-0.09242810361370439,1,right
13.799000000000001,-0.1618432153417524,0.8618446623133313,-0.09992790979929742,0.010376110000696714,0.5885484713732558,0.2592940829277534,0.021975430308102326,-0.8439633183640227,-0.09733595421916705,1,right
13.802,-0.19145119839260472,0.8088672093195142,-0.11419929096807505,0.0011877447458419343,0.5865954980033172,0.25801856977745463,0.022267337238865228,-0.8473778189039856,-0.09661776325811278,1,right
13.802999999999999,-0.21106504354972097,0.7632028251930788,-0.12055809824870722,0.35898017353422496,0.6625230327598788,0.3083197047261007,0.0225237484958807,-0.8520923918138905,-0.09481484069590916,1,right
13.806,-0.22998337561159488,0.719184596375396,-0.1299939183333364,-0.07032888927125304,0.571406273697185,0.24794423125921217,0.0220216090382438,-0.8444666814777853,-0.0972475603344161,1,right
13.807,-0.24357615801011562,0.6839906246076899,-0.14645725087702735,0.26516846137510425,0.6426428791597194,0.29515529014969843,0.022554815017063853,-0.8510534202048514,-0.0956963418409929,1,right
13.811,-0.25785993049485967,0.6601765730541975,-0.1629980355693094,0.08244123858286337,0.6037925369237689,0.26939793048278515,0.022096450510378444,-0.8475574698236152,-0.09555024608995406,1,right
13.812000000000001,-0.27275585883488707,0.6440175713897642,-0.1788041198445865,0.1268406645769914,0.613308312294151,0.27571973006237444,0.022447667459595737,-0.8477158478141433,-0.0973834213784508,1,right
13.815999999999999,-0.2867758493516671,0.6378969060754557,-0.19577899878139293,0.17198005100043526,0.6228111056379395,0.2820037932573879,0.02221971535337334,-0.8497745074842206,-0.09471777702648136,1,right
13.817,-0.2995982608421719,0.6396266154235659,-0.21121853662484213,0.08933993586386604,0.6052729735656277,0.27038386061470543,0.022276720038968773,-0.8474479329213614,-0.09662098814140807,1,right
13.821,-0.3099106677403404,0.6445734164004715,-0.2238291430487701,0.1716678299168911,0.6228890914022794,0.28207499165909616,0.02248311188259528,-0.8478367712074664,-0.09749754887819934,1,right
13.821,-0.31317137478645535,0.6534151402296737,-0.2361556301091085,0.10868130111288028,0.609189703795082,0.27295476671336805,0.02191176320648009,-0.8511893756061331,-0.09204835366409964,1,right
13.825999999999999,-0.3083242296682679,0.6695278102632374,-0.24814016895313193,0.14788119896716007,0.6180062749169762,0.27886053770566144,0.022874654044714532,-0.8434984535889195,-0.10262403567077033,1,right
13.825999999999999,-0.2934727865623361,0.6938364834461122,-0.2560918783144328,0.1302160748588468,0.6137256613710618,0.2759562372726619,0.02168101237988694,-0.8540277351649954,-0.08883605352149815,1,right
13.831,-0.27326068376315427,0.7191026331501404,-0.26101724402060233,0.1281078863273826,0.6135867533412567,0.2759036330124143,0.022659511309827872,-0.8449580591795848,-0.10043537818846174,1,right
13.832,-0.24620302540340297,0.750117009177864,-0.26397186387157373,0.1522253671557287,0.6189676927974732,0.2795020409399688,0.02264807611519283,-0.8454449440990763,-0.10004615512624944,1,right
13.837,-0.2130382326465624,0.7853019585395096,-0.264410660392255,0.10142050763459944,0.6070288968664392,0.27144523774352847,0.020754860203921727,-0.862292065434388,-0.07806690606735397,1,right
13.838,-0.18249996083356063,0.81647256160095,-0.26384462467465264,0.17967862535345036,0.6257855889846275,0.28414501609072756,0.025381376127456813,-0.8204512337750085,-0.1322237093167743,1,right
13.842,-0.135646267128414,0.8571424483410023,-0.26247670823262426,0.0862738096288212,0.6032011095133546,0.2688312892632846,0.01772270760522219,-0.8900317772242834,-0.042366086052105165,1,right
13.842,-0.10330916744615115,0.8843084879571182,-0.2622914660902843,0.16122446024912104,0.6214173122495654,0.28119373165230777,0.02781912274162663,-0.7981547627253693,-0.16091716949385965,1,right
13.845,-0.09382327309951943,0.8903566255259392,-0.2623906293272519,0.16181842393648346,0.6214712088482484,0.28121953904495484,0.07018101942590307,-0.4124577028115262,-0.6585802786085849,1,right
13.847000000000001,-0.05240291331294836,0.9141422714719554,-0.2622541974395369,0.014042385687596928,0.5857280807768295,0.2569834832247629,0.08027602544036502,-0.32052616172167314,-0.7771441864673638,1,right
13.847999999999999,0.001572589934769152,0.9434017744820798,-0.2649569692845121,0.37255543652901246,0.6726019218823691,0.31590843202973884,0.07262312936548387,-0.3902302894617156,-0.687252052976913,1,right
13.85,0.06515684164806014,0.9659432643518063,-0.2652379474971798,-0.21962630235448866,0.529023627267066,0.21851163948531366,0.07723517904301762,-0.3481831149798925,-0.7414766690560104,1,right
13.850999999999999,0.11482858530247066,0.9816795320815507,-0.26327913385242707,0.5603561074197263,0.718183665802498,0.34683540938316204,0.07536792503819931,-0.36530620106122524,-0.7193927626680905,1,right
13.855,0.12648364061372436,0.9833191603717697,-0.2617487027161215,3.8339847390231747,1.5119384493028352,0.8852776736322914,0.07532135182700432,-0.36551440147106246,-0.7191280595292178,1,right
13.856,0.17587911388856736,0.994257203154746,-0.2533803368875649,4.613357863205995,1.700994168345791,1.0135373640778516,0.07633364154218755,-0.35659204687212476,-0.7306294377790632,1,right
13.856,0.2443669719943588,1.0119656542623876,-0.24067733567061375,4.022534783776679,1.5576771546861745,0.9163082509518574,0.07512707273081348,-0.36728970219226664,-0.7168383305646724,1,right
13.86,0.29261155786076065,1.022694387044294,-0.22865348934508434,4.378821069160667,1.6440682351141702,0.9749112104408364,0.07605706447382807,-0.3589410776059614,-0.727602271782406,1,right
13.860999999999999,0.3429710270924028,1.0353194685074534,-0.214765695360363,4.233965966453827,1.6090344763284152,0.951163356569964,0.0755854726837642,-0.36349713990276167,-0.7217250915304432,1,right
13.865,0.3814315647455707,1.0492241343437705,-0.19990514986895144,4.231687292168817,1.6082860808090649,0.9506185129342275,0.07562305264378674,-0.3623286085255405,-0.7232393469400058,1,right
13.866,0.4129316341581155,1.0639774144205807,-0.18951150232390493,4.308025021939399,1.6270729785070759,0.963415049935454,0.07588431678887868,-0.3613685108805301,-0.7244645144198202,1,right
13.870999999999999,0.43867006865426716,1.0813081279376782,-0.1845812485386511,4.216650943495647,1.6046441806348264,0.9481488121867699,0.0754977013833481,-0.363149263111537,-0.7221840183693948,1,right
13.872,0.4507925038913676,1.0987735523867976,-0.176557841901532,4.2876972467192935,1.6219893746867886,0.9599372556730883,0.07583787522374225,-0.36143791191563035,-0.7243782544689243,1,right
13.874,0.4594882085563021,1.1122256167766869,-0.16420513170526269,4.249746650195501,1.6130144039418575,0.9538923023890193,0.07569618638124194,-0.3627419372126285,-0.7226965700987565,1,right
13.875,0.4614779255829461,1.118755526864165,-0.15388795666737956,4.257572929156627,1.6141772971989155,0.9545415255863021,0.07552285980497793,-0.3617437706035722,-0.7240070208128148,1,right
13.879000000000001,0.4562430167821857,1.1173983637147398,-0.15063470787523828,4.269273934231043,1.618280223058027,0.9575652248503569,0.07606146838223274,-0.36272557494848306,-0.7226877975161925,1,right
13.88,0.4460501726420264,1.103727922169664,-0.1568121036472,4.2498124824739145,1.6120086528128532,0.9530159063825407,0.07522384112976373,-0.36157209194843826,-0.7242544645897343,1,right
13.884,0.42433328057786185,1.0785293450478903,-0.16593662855203817,4.267797710620692,1.617607172879536,0.9570488098917339,0.0761231124406416,-0.3627437678399696,-0.7226592238661905,1,right
13.885,0.39062799616589783,1.0434623590401604,-0.18102540925340616,4.256781973401866,1.6149467127122503,0.9552460686115666,0.0755934894037702,-0.36215830584427894,-0.723462727424006,1,right
13.889000000000001,0.34810787541514226,0.9951911887443634,-0.20226645230163026,4.258767015410614,1.6131335031667344,0.9535801399943391,0.075186631077277,-0.3612002508571557,-0.7247405954677988,1,right
13.889000000000001,0.2972740515320288,0.9323811791999838,-0.21491007799726408,4.265236742376134,1.6199461820019898,0.9591978843662989,0.0770485459179153,-0.3646510304882805,-0.7201062874956468,1,right
13.895,0.23664260897032346,0.8546824116820644,-0.22183036643568932,4.252949526681012,1.6091438679374872,0.9503836773824343,0.07358095482856247,-0.35838548483806354,-0.7285273785901144,1,right
13.895999999999999,0.15900105256562017,0.7691334200020064,-0.22436371064012267,4.266538126144537,1.6207781204776481,0.95986043721788,0.07803677000216092,-0.3664006781011378,-0.7177536032332992,1,right
13.9,0.07428545447523845,0.6819511947250364,-0.21408768426761665,4.257912549505653,1.6138682337019814,0.9542573617805261,0.07431554887319844,-0.35972139040480156,-0.7267315738947584,1,right
13.901,-0.027437193038401614,0.5997271862685161,-0.19136710933019857,4.254313790668448,1.6088419296009366,0.950058810589665,0.07442127900814724,-0.3598554427507248,-0.7265506600264375,1,right
13.904000000000002,-0.14318890019091912,0.5285837223702146,-0.16430239023394358,4.276341921909996,1.632361364967581,0.9694669891694662,0.0815003624534184,-0.37274476776032534,-0.7092294616100168,1,right
13.905,-0.253998231055117,0.4704856805897727,-0.1455749226199627,4.2343593784155935,1.5884702993603361,0.9332880606902224,0.06409503468414862,-0.3411194873909292,-0.75172809336292,1,right
13.909,-0.40325982219178924,0.44276281434536324,-0.12912079434821339,4.28851809558077,1.6448892022618482,0.97978508329975,0.0929552453394107,-0.3935414014933828,-0.6812845971195325,1,right
13.91,-0.5071301750418693,0.43373989501253263,-0.11686603987191012,4.243205854870803,1.5977645033143895,0.9409505971529327,0.054888822129464304,-0.324398342904315,-0.7741948639556646,1,right
13.913,-0.5330189175925997,0.435625563389616,-0.11362974331695354,4.24481533278494,1.5991321439187387,0.9420656330731022,-0.10488909481786252,-0.03410345740286348,-1.1643042850912697,1,right
13.915,-0.6307376583802301,0.4615585365995375,-0.10498971752475542,4.329949608489905,1.6886839857436433,1.015904481400435,-0.1429546420072825,0.03504538463724301,-1.2572172856817014,1,right
13.918,-0.7538112528580572,0.5054601098613389,-0.09359968485613465,4.120258170080054,1.4684708552638552,0.8343432156044006,-0.11409537925974253,-0.01738278708660676,-1.1867708311736929,1,right
13.919,-0.8376346913387887,0.5913943535924707,-0.07439907137961671,4.468039838613071,1.8336183984694414,1.1353982749312221,-0.13150106711324963,0.014240114513137617,-1.2292683398509436,1,right
13.922,-0.8953484365823476,0.6606849556997645,-0.05580687332265264,4.00932078807392,1.3519922411266416,0.7383078898642957,-0.12441884054754505,0.0013715433633339543,-1.2119569487347763,1,right
13.923,-0.9054102916433493,0.6784596351061934,-0.05285571234630135,2.0840643515332196,-0.6695958017180136,-0.9284104151230663,-0.12431987377029133,0.0011928349994205882,-1.2117549306894193,1,right
13.924000000000001,-0.9211654333981595,0.7508148477341618,-0.03806815359340451,1.6253832885011446,-1.1512133543563001,-1.3254934004319048,-0.1280313971864619,0.007936151538640303,-1.220763162485505,1,right
13.927,-0.9210535620893487,0.8481193270803574,-0.016690357502448776,1.9731673457728998,-0.7860624832661809,-1.0244431693933973,-0.12358523944850495,-0.000142802553570505,-1.209959250822778,1,right
13.927999999999999,-0.8697935958325312,0.9118193090065239,-0.00841405841129318,1.763306237496452,-1.0063239172815046,-1.2060187358725842,-0.12704866253466687,0.006150257427116606,-1.2183933498738506,1,right
13.931,-0.798669115578546,0.9754153460320472,-0.001889202087717794,1.8488944104916258,-0.9166489114683712,-1.132130125944487,-0.12517845704232244,0.0027542237253991584,-1.2137849094771154,1,right
13.932,-0.7030033314652158,1.0253602366393528,-0.0012916287508299884,1.8497394236054474,-0.9154846232675578,-1.1311066561740146,-0.1256120257894648,0.003535916292646387,-1.2149794323368186,1,right
13.937000000000001,-0.593946613120141,1.0646220526283612,-0.008435188306248561,1.805353418816145,-0.9623671141277006,-1.1698222662750393,-0.1260956234286964,0.004425264141953161,-1.215926553662032,1,right
13.937999999999999,-0.4803149870854559,1.098545338948677,-0.01802468484297115,1.8588019582693303,-0.9061277472994052,-1.1234281166396076,-0.12525283917425337,0.0028806376717866672,-1.2141550467400577,1,right
13.940999999999999,-0.36080458973724494,1.1182241447312273,-0.03160074635203299,1.816731870942076,-0.9500558328387929,-1.1595914453215452,-0.12604542871922317,0.004331464602547614,-1.2158622584732774,1,right
13.942,-0.24278841030477366,1.1347789573355351,-0.046968933855226436,1.840277645065271,-0.9261184240931506,-1.1400285942285082,-0.1255064268131837,0.0033522874388077478,-1.2145442490592235,1,right
13.946,-0.12707259472507776,1.144067894537585,-0.06563589396572767,1.8333519111906846,-0.9320372927626257,-1.1446112678601585,-0.12576331309431477,0.003798714737868571,-1.2155939747261475,1,right
13.946,-0.017367747365483698,1.1439145364523053,-0.08614607966607118,1.829572197029536,-0.9376669108127574,-1.1496172731959209,-0.12571402558144187,0.0037556372184243975,-1.2145082034723482,1,right
13.95,0.08688858308814838,1.1355403732017273,-0.10662277323342768,1.8381553973626223,-0.9273302190150197,-1.1408044576549354,-0.12565876932029268,0.0035858292618917353,-1.2158133788232899,1,right
13.950999999999999,0.1811858436721438,1.1168977253796015,-0.1281921545669899,1.8284517101497233,-0.9375069267600069,-1.1491921488433736,-0.12574164095307513,0.0038104700078432853,-1.214480709023356,1,right
13.955,0.2613524768246627,1.0886158554585323,-0.14231218301521145,1.8381839898505263,-0.9297472831856626,-1.1433338866084748,-0.12565590374016103,0.0036118184251855696,-1.2151581184688651,1,right
13.955,0.3228588229274054,1.0482133443915962,-0.14214191385388752,1.8279418182187412,-0.9348814028049023,-1.1463344460804434,-0.1257695589824858,0.003781551047577829,-1.2162005069463326,1,right
13.96,0.3607941624611961,0.9983834422085052,-0.12906300555310873,1.838995895323214,-0.9316592687509966,-1.1455162915979304,-0.12557912071953806,0.003596895196704316,-1.2123891139000442,1,right
13.960999999999999,0.37726046563125554,0.9414431345492059,-0.10717040463898748,1.828758018197569,-0.9334703973733733,-1.1450497970356404,-0.12587692996911087,0.0038385585883184544,-1.2193217307928768,1,right
13.966,0.36422864061064997,0.8796650365591276,-0.0849442158436117,1.8336368287276623,-0.9335129421439589,-1.14621712075446,-0.12550689093713913,0.00355091055015259,-1.2104505725731685,1,right
13.967,0.32750324538067466,0.8216079527077369,-0.06661243332696795,1.8410657160497,-0.9301637139173122,-1.1444320445897387,-0.12581089174847218,0.0037818204501636936,-1.217843950208124,1,right
13.97,0.2617661905348698,0.7746502546588252,-0.049952897039192624,1.8144995743298908,-0.938574698664179,-1.14709455908014,-0.1258217292918453,0.0038108558658478797,-1.2176919394625958,1,right
13.970999999999998,0.1697024518678603,0.7435244958681537,-0.0338472591694093,1.862362158555155,-0.9244527153732666,-1.1433738457663116,-0.1251792841918537,0.0032549618772260915,-1.203437280167498,1,right
13.975,0.07142954843881465,0.7262192549493226,-0.020018808110280464,1.8014101030139904,-0.9420534580980058,-1.1477125081679187,-0.12673609042916126,0.004579553806290423,-1.238416025290001,1,right
13.975999999999999,-0.052497028818734644,0.7195706962254503,-0.016600276703438936,1.8520827641965925,-0.9275853181111451,-1.144276337653015,-0.12416030371747253,0.0023942528754939446,-1.1804354141374183,1,right
13.98,-0.142043926735251,0.7203251792566332,-0.023937861151055784,1.851039170858363,-0.9276280775632477,-1.1440822472350467,-0.1275576926181978,0.0052755404552247845,-1.2569089954865578,1,right
13.981,-0.16857968320440714,0.721020366469398,-0.028563428530000934,1.753543642915694,-0.9561429374971993,-1.1513974446789401,-0.14184134902863232,0.017423241710119317,-1.5779898895324602,1,right
13.981,-0.24925066556513714,0.7277258552559953,-0.03917683599009495,1.9927027855342505,-0.8865632655491065,-1.1338339623745424,-0.14524181655150176,0.020308441095551872,-1.6544670524431977,1,right
13.984000000000002,-0.37719449994466264,0.7419932034611345,-0.06930332864649007,1.5963424591156672,-1.001735632816878,-1.162796101177479,-0.14266269911426108,0.018118909709270145,-1.5964825673911873,1,right
13.985,-0.4403073611475732,0.7479305298089012,-0.08943462431448473,2.119078941885671,-0.8498986981432924,-1.124655707643119,-0.14421823801482675,0.019441885359085843,-1.6314598347717204,1,right
13.99,-0.46152984054115,0.7487325882837181,-0.09476274806050691,4.3135176368934935,-0.21229486576128992,-0.9643399738200809,-0.1435868427485072,0.01890004395820591,-1.61721803740821,1,right
13.99,-0.5267709830999837,0.7514863841929078,-0.1169006925504385,4.836259013449116,-0.06049088193629565,-0.9262229953582974,-0.143573905885374,0.018898852557767014,-1.617038358050806,1,right
13.992,-0.6056519782180225,0.745601222520339,-0.13506946802656017,4.439920584066741,-0.1755728498024797,-0.9551172423346896,-0.14391199380649128,0.01917309429247098,-1.6244714024911975,1,right
13.994000000000002,-0.6607379474231254,0.7273563785699968,-0.12826756014965066,4.678981398775558,-0.10617354013695095,-0.9376948672361433,-0.14350801183287032,0.01884230589178033,-1.615560749870028,1,right
13.995,-0.7207443150651152,0.6974186947559289,-0.11136755977180593,4.5817019953954645,-0.13440686947901784,-0.944783328844409,-0.1438204655221046,0.019102566648381322,-1.6225103977287887,1,right
13.999,-0.7766658206487116,0.6600979248654884,-0.08627042817023037,4.580326032470366,-0.13478829415410387,-0.944869475396225,-0.14365917748271856,0.018954994882121677,-1.6187329423473589,1,right
14.0,-0.8284230993963344,0.6213337343943757,-0.057279473324111894,4.631369045557384,-0.12004840944802664,-0.9411977214849557,-0.1436789370573004,0.019005336499908564,-1.6196660484818355,1,right
14.005999999999998,-0.8818773282170673,0.5813091046959564,-0.03537157479006868,4.5701808443576635,-0.13765265123682252,-0.945563348715462,-0.14375498299247438,0.019012362496558743,-1.6205317330904618,1,right
14.007,-0.9270065715030562,0.5505886244475798,-0.026262593527284342,4.617899008107605,-0.1240251665539431,-0.9422165626728045,-0.14363930935606695,0.018984625773575653,-1.6189680267765039,1,right
14.01,-0.9662064923020217,0.5355834824205533,-0.02523997194723022,4.592103194829715,-0.13129020559750051,-0.9439674827450943,-0.14374233813994458,0.019015964814065867,-1.6204573592431855,1,right
14.01,-0.9901684951145556,0.5354888842847391,-0.02802640429797982,4.598027082643707,-0.12966614864888557,-0.943590487084468,-0.14369447233454952,0.018974819125133824,-1.6193733128063554,1,right
14.015999999999998,-1.0007511702440086,0.5534217764955638,-0.036062667662327255,4.604944661780948,-0.12785234761156541,-0.9431992939767104,-0.1436575978524224,0.019047651241897286,-1.6200810995719754,1,right
14.017000000000001,-0.9988088304472028,0.5864238303575754,-0.03715167382221171,4.592793643049985,-0.13075636010569144,-0.9437240741902442,-0.14378991678780764,0.018922010609090004,-1.6195443824448545,1,right
14.017999999999999,-0.977301634306645,0.6348824457192985,-0.027423762648824977,4.604492779123034,-0.1284336445892885,-0.943492149544852,-0.14358102088278218,0.019099702304735254,-1.620086154729646,1,right
14.019,-0.9453978481882843,0.6994748759460263,-0.010503647619213883,4.5962833674169925,-0.12949947809233914,-0.9433290172317209,-0.1438058241677922,0.01891202006646521,-1.619556884890644,1,right
14.023,-0.9086751135092621,0.7802965859511015,0.014963912548545075,4.600166865690545,-0.1294223255126043,-0.9436529337576294,-0.14367261110148227,0.019017759426751775,-1.619786505280881,1,right
14.024000000000001,-0.8628568631614261,0.8720668162448035,0.03788882747323691,4.60015626509395,-0.12943490839092464,-0.9436592432312298,-0.14357433515261503,0.019122587728867692,-1.6203616860928243,1,right
14.029000000000002,-0.8081707524924151,0.9665598522145644,0.05014909009737212,4.597215893619926,-0.1283390328192672,-0.9427468455910313,-0.144031446055279,0.018685946781325298,-1.6184620205957567,1,right
14.03,-0.7465136772820403,1.0631748565921033,0.05073049488152401,4.602137723761006,-0.13136533602472594,-0.9449629244057827,-0.14317895679251885,0.019491982762291443,-1.6218734004927335,1,right
14.034,-0.6705945200175895,1.1466976572911896,0.04138110554617758,4.596276162177999,-0.12642055364874888,-0.9415488780265961,-0.14427452442007913,0.018457445117512693,-1.6175181807178303,1,right
14.034,-0.585649521518195,1.21409522325429,0.028769554673174446,4.601659460797491,-0.13194318407276964,-0.9452515966341082,-0.14335970917718383,0.019321477509284746,-1.6211437854625275,1,right
14.039000000000001,-0.48738243595414565,1.2549168127944195,0.01871363160208208,4.598824286541319,-0.1286720054392484,-0.9430917351210657,-0.1433855698406623,0.019297854371640666,-1.6210849950616726,1,right
14.04,-0.3795322525392162,1.260302511759145,0.014316586194453659,4.596500320012587,-0.12581813680338116,-0.9412222566114599,-0.14512577799700016,0.017649594424817557,-1.6140430901390128,1,right
14.044,-0.28349955424318524,1.2452700455102348,0.019863049952522884,4.606348175691991,-0.13840353427266633,-0.9494299178152715,-0.14084779309176923,0.021702534063182587,-1.6313044400113879,1,right
14.044,-0.18637406547752666,1.1756043940891656,0.046541976877200845,4.588399331852257,-0.11497181892273209,-0.934184790723991,-0.14794044938941853,0.014980405060572468,-1.6026969101533979,1,right
14.048,-0.12815283629470825,1.1050990442394566,0.07161297598353214,4.611230420553578,-0.14512285802305286,-0.9537771290313004,-0.13858619868226663,0.023849458085684075,-1.6404283811582254,1,right
14.049000000000001,-0.11444764754245665,1.0866390220712032,0.07792590429638394,4.592259945714495,-0.11992382767969234,-0.9374122066460394,-0.09931323335793725,0.06104910916176459,-1.7988705108922778,1,right
14.05,-0.08784000504179841,0.9950058816979584,0.10196152538603062,4.592801305798661,-0.1206008937860365,-0.9378571846098778,-0.08996080715566554,0.06992276454629973,-1.836605541004333,1,right
14.054,-0.07595591216089251,0.8538029831352717,0.13738821395884454,4.6287352583648165,-0.16871210676482695,-0.9690692458263672,-0.09705148960582324,0.06319565731897783,-1.8079941609440116,1,right
14.054,-0.09528760277950923,0.744940169072343,0.15816086078306935,4.540439199397287,-0.05044730420953429,-0.892344118033155,-0.09277275340646532,0.06724669876987467,-1.825254044429057,1,right
14.059000000000001,-0.15544798026499523,0.6049794862939344,0.17491189494969359,4.686798447313583,-0.24655127365869733,-1.0195660423756743,-0.09451951056240865,0.06561496508404402,-1.8182249164921371,1,right
14.06,-0.21338215212869407,0.5114159752643022,0.18303271172122107,4.493781997406393,0.012120765575894019,-0.8517547727904784,-0.0945312809527259,0.06555578961354663,-1.8181386373383366,1,right
14.061,-0.23143116766398242,0.4914275149277025,0.1848770411460242,3.684205545819809,1.0979758659283014,-0.1474458199280002,-0.09363666772093265,0.0664707920294845,-1.8218036533393303,1,right
14.062000000000001,-0.3091183345426388,0.4167806164781886,0.1889784105037698,3.491247853741376,1.3566614306006843,0.020365245380159755,-0.09471211908795052,0.06538550488278139,-1.8174091907234735,1,right
14.062999999999999,-0.42912422818627005,0.32985506637812667,0.18766246024144145,3.6374599423373764,1.1605307659337183,-0.10684705451200005,-0.09386830826989546,0.06621342718220811,-1.8208374984524465,1,right
14.067,-0.5348386512058245,0.28618443689893025,0.18634617042887658,3.5494357726749497,1.2788327252098004,-0.03015514989905481,-0.09434269635058187,0.06582039112503354,-1.8189715421364143,1,right
14.068,-0.6573877873062155,0.2534333993050807,0.18539826121969877,3.584970228500195,1.2306819774061886,-0.0612992780553017,-0.0941887712210788,0.06578480032250085,-1.8194381551697498,1,right
14.072000000000001,-0.7762512902476467,0.24742033620752246,0.17621428132256406,3.585963388334724,1.2300311345,-0.06184454968360364,-0.09415144094642902,0.06613246248350395,-1.8198548316720333,1,right
14.073,-0.8818354636121817,0.263610381059733,0.1592584250841611,3.5666715931441253,1.25523967640926,-0.04537255243478948,-0.09425857527918333,0.0656479070817072,-1.8190960084750751,1,right
14.079,-0.9742435715503912,0.28938216052848653,0.1379959079190527,3.5894148490534383,1.22502031736183,-0.06502564179841377,-0.09414348584011048,0.06606224037713912,-1.8198207747370316,1,right
14.079,-1.0424848492702055,0.3286965125195048,0.11535212185877967,3.5722611949826155,1.2485907970136123,-0.049839484737998895,-0.09427665203944346,0.06593880073896419,-1.819285727627463,1,right
14.083,-1.085642702416485,0.3716261392035487,0.08041871459928615,3.5804394534316657,1.2358122348599263,-0.057798699731307884,-0.094065671625244,0.06557227722045142,-1.8196538358923227,1,right
14.084000000000001,-1.0942252800917167,0.4151013986791703,0.030368830436443332,3.5804917376640866,1.2388551275588178,-0.05639185257742438,-0.09441567528023989,0.06653503811099436,-1.8193459965915721,1,right
14.088,-1.0711397768413138,0.4564221935573088,-0.020454682636650616,3.5752663149085055,1.2420465071016764,-0.05362657992784396,-0.09392516389391212,0.06506884564181954,-1.8196774111911147,1,right
14.089,-1.020120160565043,0.49267899550222205,-0.06733657874985681,3.5817734656920055,1.2363607438579431,-0.05786864438672262,-0.09444219810157004,0.06663734898801496,-1.8193480029878801,1,right
14.093,-0.9473991629187826,0.5243167011076337,-0.10177894352311986,3.577719052383073,1.2418254698742257,-0.05432892621498221,-0.09415270428477723,0.06572235936212172,-1.8195006383500218,1,right
14.095,-0.8674916497953891,0.5528898268448887,-0.11820453805296083,3.576434502365971,1.237906482536852,-0.05584312488012359,-0.09385723240605434,0.06497697062879781,-1.8198186656006539,1,right
14.097000000000001,-0.7892451914815368,0.5771612285015252,-0.12567440165540056,3.584415151460366,1.2400956060171082,-0.05677196003770063,-0.09507528125466932,0.06830994110898495,-1.8187322227619902,1,right
14.097000000000001,-0.7215276025046559,0.5950385807502253,-0.1253584045592448,3.570732867750983,1.239212859789105,-0.05384061000071171,-0.09282985087894069,0.06211631187185174,-1.8206917196230537,1,right
14.100999999999999,-0.6704653910011402,0.6185221779788908,-0.11751920643492828,3.5859685156009418,1.2392820707369048,-0.0575309861205866,-0.09571020858036794,0.07007183018803513,-1.8181883098847709,1,right
14.100999999999999,-0.6355986267618254,0.6459868421659454,-0.11575088559457057,3.5767293480813587,1.2398263575414272,-0.05501964263268058,-0.09330652417560396,0.0634294270165845,-1.820272787504055,1,right
14.106,-0.6183628953688296,0.6802544532607382,-0.1257745972223414,3.57012079979191,1.2384790472086822,-0.05403328997600984,-0.09336743229030992,0.06361271882057484,-1.8202366745796188,1,right
14.107000000000001,-0.6146398239816793,0.7218619924611349,-0.13959606354610676,3.6015442188711635,1.2410246661894087,-0.06052399045263726,-0.09796492039233093,0.07626606198040678,-1.8161963954443046,1,right
14.110999999999999,-0.6190672560899457,0.7580439775526843,-0.14379064652389156,3.5426781848875346,1.2370949051931013,-0.04797359348184144,-0.08666924306247144,0.045162406476700834,-1.826102009308816,1,right
14.110999999999999,-0.6379519688095392,0.8150173878456881,-0.12618440873154718,3.6184781793111522,1.2418566356392704,-0.06427349792271758,-0.10539746837535956,0.09673352462412518,-1.8096856277257294,1,right
14.116,-0.6543259726436264,0.8559545555385721,-0.10749847416369818,3.555106223042863,1.2380000460873966,-0.05058820838762512,-0.08069422112530134,0.028712907778492253,-1.8313365237462174,1,right
14.117,-0.6599248969879773,0.8673104811735098,-0.10160667253900564,3.5569610998938606,1.2379228830448987,-0.05107708467017972,0.022993545209577304,-0.2568138552947229,-1.9222636480642092,1,right
14.118,-0.6814041914053476,0.9174523603753993,-0.08309259034578348,3.6774275129488037,1.245760826923775,-0.07685642631358669,0.04769896368001037,-0.32483142818888167,-1.943913991751502,1,right
14.120999999999999,-0.7140502028183834,0.9820764185530473,-0.060292935927805026,3.3811332877562066,1.226755873540682,-0.013324007605511608,0.02896838978269538,-0.27326360389059223,-1.9274982095504394,1,right
14.120999999999999,-0.7408697763544027,1.0577188147335517,-0.058940672150667284,3.872479977499235,1.2581729067342518,-0.11872585892443276,0.040263171778089614,-0.3043685102151725,-1.9374040443433715,1,right
14.127,-0.7555677868275943,1.1192080571183298,-0.06498674597258763,3.224366716857622,1.2167624259891956,0.020318469345752564,0.035673479817481216,-0.2917042462871762,-1.9333617960498308,1,right
14.128,-0.7575714598775944,1.1354068046318333,-0.06920312219858835,0.5040354451959528,1.0428431177174242,0.6038840480526271,0.035595799933634875,-0.2915444542867609,-1.933329928765828,1,right
14.129000000000001,-0.7573679588904214,1.1969228502888885,-0.08227565683113423,-0.14408907106482194,1.0014173301689644,0.7429223303823511,0.03802352955977273,-0.2981531615931084,-1.9354083119943701,1,right
14.13,-0.7478725874116334,1.2838830650975466,-0.09664135390001219,0.3472890201561619,1.032839765018603,0.6375179170777615,0.03511923044972028,-0.29023119971866257,-1.932910979746228,1,right
14.130999999999998,-0.7238868173205497,1.3471814556174349,-0.09907613856367305,0.05093133597804805,1.013880636903866,0.7010850678045105,0.03737498624590721,-0.29641034553029777,-1.9348678380359015,1,right
14.136,-0.6922717867426688,1.4152691116165017,-0.0878070663173138,0.17149772929956286,1.0215821583215714,0.6752175534474139,0.03617750735108821,-0.2930485699762432,-1.9337762138233525,1,right
14.136,-0.654466801132316,1.4755453338697755,-0.06391786563832598,0.1732312653360344,1.021744087174728,0.6748739832470523,0.036406737008605874,-0.2938867653623004,-1.9341109961042722,1,right
14.14,-0.615248898443561,1.5300774554327603,-0.038805555336792585,0.1099582060322837,1.0175882707931723,0.6883864867097373,0.0368103579754146,-0.2946418353118111,-1.9342347253020076,1,right
14.140999999999998,-0.5774465869694115,1.583650325951464,-0.02497188889264726,0.18575350378440414,1.0225935331292169,0.6722142330770666,0.036153272796408134,-0.29326960403433766,-1.933940831010896,1,right
14.145999999999999,-0.5353791868595621,1.6307197726923168,-0.02642338321533908,0.12671534145884378,1.018659771826952,0.6847920124849122,0.03675542215151831,-0.29457930323183285,-1.9342438742573804,1,right
14.147,-0.48845226782729884,1.6705343774864678,-0.043200364790194345,0.15854409064896027,1.0207633673618512,0.6780016912141675,0.03640645349456338,-0.2936151838590697,-1.9339359154956102,1,right
14.15,-0.44214594606726076,1.6897494282210888,-0.06610015667517094,0.1513202370457594,1.0204392310048949,0.6796263095124785,0.03641017129560954,-0.29427203468323015,-1.9343563675644617,1,right
14.151,-0.39287859928135455,1.6842735228418406,-0.0875153549504824,0.14274933711009036,1.0194480767581102,0.6812234998673601,0.03675059629989855,-0.29373191433340007,-1.9337014554769443,1,right
14.155,-0.34281286591685534,1.6495167072771721,-0.10390073707003003,0.15758108428567735,1.0211599259500213,0.678457855893288,0.03615922296200349,-0.2943075573005786,-1.9346052348317408,1,right
14.155999999999999,-0.3048075733659097,1.5807356057556494,-0.11123621841218433,0.14359895003543433,1.01932892874154,0.6809466272985929,0.03680512327742931,-0.29373670998489143,-1.9336553416413549,1,right
14.161,-0.2818776047413648,1.4786039871800425,-0.112350568632782,0.15300860667676475,1.020677344431651,0.679335271480576,0.03640747764874802,-0.293998962221825,-1.934182823449887,1,right
14.162,-0.27879433825744526,1.3429601435607368,-0.10989005027185894,0.14899580068235052,1.020428214464307,0.6801996072853138,0.036186036023240484,-0.29456000007302496,-1.9347436820731998,1,right
14.165,-0.2972886070172569,1.1854482734805072,-0.10548074615872774,0.14858028194700368,1.0190138416135262,0.6795333259659571,0.03735357772116937,-0.2926527664922837,-1.9324625880171293,1,right
14.165999999999999,-0.33563695164395335,1.0217966483931717,-0.10139328727073452,0.15173757807921898,1.0223859857027984,0.6805826427432582,0.035152767670662374,-0.2960909941231367,-1.9366618851494553,1,right
14.172,-0.4024567617286215,0.8631018171377356,-0.09584401367762177,0.14754103177934266,1.0173891648197533,0.6789068520177262,0.0379864070857156,-0.2916980595730151,-1.9312763284475787,1,right
14.173,-0.4877944868047929,0.721228829374191,-0.08854335905553576,0.15133341056153,1.022671063537913,0.6808396638014078,0.035618030874825436,-0.29535695792435235,-1.9357703837147753,1,right
14.175,-0.5952416907067757,0.6026642607830679,-0.08681250110674724,0.14913570677545562,1.0196210091227074,0.6797238903693213,0.035693386865309956,-0.2952913841497915,-1.9356578963344053,1,right
14.175,-0.7192525840878734,0.5127583662114821,-0.09490073040759273,0.14874834398673986,1.01708105288575,0.6784399288938718,0.04017134954316611,-0.2882038864227018,-1.9270569922182161,1,right
14.18,-0.8339211401608946,0.44954161504023893,-0.10994806418331948,0.1523925744717929,1.0283067934953098,0.6836435434398442,0.029152897344481083,-0.30558557102187045,-1.9481877376328263,1,right
14.181,-0.9598476453167841,0.41276752548565365,-0.130858072595731,0.14553937809605394,1.0074887515417255,0.6740127038234691,0.047423822771518576,-0.27677478083496543,-1.9131525038449408,1,right
14.184000000000001,-1.0416735190065367,0.4056560029954478,-0.14419727667147925,0.1542117086529959,1.034205582715099,0.6864076026126897,0.02332625524581133,-0.3147769039567937,-1.9593663910941257,1,right
14.185,-1.060664586077407,0.4055923826707637,-0.1455964196974316,0.14703209205103587,1.0119146293907106,0.6760451073658289,-0.07782776815477785,-0.47432087867047784,-2.153331678079493,1,right
14.186,-1.127459154893098,0.4286268381462779,-0.1549557428581526,0.1473770955394408,1.0125044276626722,0.6762971846124308,-0.1019204759710709,-0.5123301249052046,-2.199551768241121,1,right
14.19,-1.2101827398824914,0.48498398692427314,-0.16813877719228001,0.16040958214554507,1.0550234616660923,0.6961878393096713,-0.08365480654518428,-0.4835116282816949,-2.1645098222169556,1,right
14.19,-1.2615842368496268,0.5498770484313817,-0.17712770716053444,0.1282728975907244,0.9505550161843073,0.6473138643060427,-0.09467526516484315,-0.5008903806838038,-2.185638019036986,1,right
14.194,-1.3191810726422868,0.6548937327470337,-0.1931527133079341,0.18153454983893338,1.123736928812534,0.7283590406909133,-0.0901798478134828,-0.4938284491618198,-2.1770593684434205,1,right
14.195,-1.3476435544008964,0.7344010043781172,-0.20440365589879908,0.11132991797401148,0.8953366663428708,0.6214469101782285,-0.09014203853464028,-0.49370786798754074,-2.176898994502264,1,right
14.196,-1.3518957784857915,0.7543661104176826,-0.20630607160198894,-0.18314643835548206,-0.06403597846593692,0.1727563314850153,-0.09245658776343071,-0.49744563457266716,-2.1814617136221583,1,right
14.199000000000002,-1.366986411581507,0.8385240082956915,-0.219335789342222,-0.2532964214893514,-0.2924575451085478,0.06583676950103466,-0.08967653956529972,-0.4929741652400134,-2.176007776754668,1,right
14.2,-1.3681756350092473,0.9532727041973583,-0.23844488098846298,-0.2001009334032997,-0.11916742000345619,0.14687668543714422,-0.09185424312824017,-0.4964462763537871,-2.1802365885011286,1,right
14.206,-1.3452036459915273,1.0388520616869026,-0.249552529964654,-0.23223517764240514,-0.2239287476990594,0.09805288031441604,-0.09064064254869028,-0.4946064880143421,-2.178014190622621,1,right
14.207,-1.3042512080471922,1.1327163002397223,-0.25283809978328364,-0.21905795401935396,-0.18086429353947275,0.11781973850147337,-0.09101038456072544,-0.4949502774292919,-2.1783859337584595,1,right
14.209000000000001,-1.249286707254025,1.2107774239938098,-0.24516081175270182,-0.21905870465215777,-0.18103258380119794,0.11827329413127229,-0.0911525410620114,-0.4955868513120939,-2.179239291466197,1,right
14.21,-1.188819838149496,1.2708339687667531,-0.22394426808899137,-0.22571508776613525,-0.20256920672729795,0.10767386686539683,-0.09082014892047885,-0.49455662441645354,-2.1778894435184117,1,right
14.214,-1.1266424479412178,1.321656652827182,-0.1928693226029799,-0.2175981369728577,-0.17618806558919503,0.12023981557363782,-0.09116163972701649,-0.4954984965582199,-2.179112120885323,1,right
14.215,-1.0732723239826716,1.351147870475533,-0.15746035830023447,-0.2241478981263026,-0.19763276525229423,0.11065565640897627,-0.09081884673692664,-0.49496166387979046,-2.1784599707298815,1,right
14.219000000000001,-1.0354952997671831,1.3655559947323148,-0.11711515968883185,-0.22017379459249095,-0.18434104397794132,0.11543476824948987,-0.09127916854788021,-0.4949388351239561,-2.1782888156950166,1,right
14.22,-1.0107310349114207,1.3643468316559457,-0.07016555664222929,-0.22187664800184548,-0.19047773356951386,0.11504061689495419,-0.09056790856418068,-0.4955279660863679,-2.179333021109524,1,right
14.225,-1.0048229216663782,1.3498315476118998,-0.021008275437482616,-0.22166425727277,-0.18906677507234568,0.112662849976923,-0.09154724241030981,-0.4945205030869896,-2.1776187384046906,1,right
14.225999999999999,-1.0170930470854231,1.3225796756496044,0.03072290577911055,-0.22098179449430716,-0.18741556390271352,0.11585637666279495,-0.09051868141333719,-0.495618378971276,-2.179475505119356,1,right
14.229000000000001,-1.0399884751481197,1.28363630845065,0.08573875760715421,-0.22247211384560742,-0.19227318808501417,0.11360599205692257,-0.0910885820893913,-0.494946312086825,-2.1783563513880724,1,right
14.23,-1.071820769723986,1.2368699022920395,0.13902209614539446,-0.21981213384286033,-0.18255578287026564,0.11365879440475368,-0.0916999653965832,-0.4945539735327417,-2.1776204481816404,1,right
14.234000000000002,-1.1072357742620897,1.1851249580080365,0.19108096122495621,-0.22405501310286402,-0.1987844646496234,0.11633385461034436,-0.08922148595937805,-0.49657696184635886,-2.181216148499987,1,right
14.234000000000002,-1.1405551803160796,1.1335527427021428,0.2467646264117464,-0.21837227784515945,-0.17667982042330266,0.11135884365703785,-0.09378160922711332,-0.49277026994780654,-2.1744796995510836,1,right
14.238,-1.1701097451396254,1.0754363010387251,0.30213131765662365,-0.2241928054126266,-0.19947316376305585,0.11702203140578005,-0.08793518244779136,-0.4976703604037287,-2.1831456012453616,1,right
14.239,-1.1994592320323123,1.0205959356801662,0.35446381730147525,-0.22099004423436322,-0.18682004702328414,0.11350930967529413,-0.09281127492003484,-0.49357493510609357,-2.1759034983320333,1,right
14.244000000000002,-1.2188218299716371,0.9656264789412878,0.4122690313830276,-0.21773043888272792,-0.17430593245373666,0.11122905679057996,-0.09269518850158681,-0.4937040643292582,-2.176125858194938,1,right
14.245,-1.2233658917944688,0.9112206845255767,0.45216244018838003,-0.23107449303298885,-0.22610889289079245,0.1225872014295881,-0.08334867623165929,-0.5014523184941861,-2.189851311273584,1,right
14.248,-1.2288764367123646,0.8674599067397493,0.4491614358935159,-0.20654770663300676,-0.13074062559582722,0.10119904208907587,-0.10629922881075837,-0.4823874329015003,-2.1560821848424774,1,right
14.249,-1.2244401630434043,0.7859049964186497,0.4444484520163554,-0.23795875304879838,-0.25294511651627294,0.12877734727855794,-0.06825605003299343,-0.5140020370766187,-2.212084931718362,1,right
14.254000000000001,-1.2202139305222097,0.7214189500682993,0.4548029493489525,-0.21177573049451598,-0.1510302690607549,0.10570851763165554,-0.11842755184013373,-0.47230398808961177,-2.138211510891593,1,right
14.255,-1.2175152464952639,0.7023049235187209,0.46430900894943744,-0.21241546236856435,-0.15362236736442456,0.10639838867289994,-0.3290769510952114,-0.29729392044123615,-1.8281915904798576,1,right
14.255,-1.1926487336783893,0.6259671244122503,0.5019685377439532,-0.26252070825071827,-0.3483954935393458,0.15020940265390195,-0.37923204855876014,-0.25560310426721267,-1.7543066385556334,1,right
14.258,-1.1630702168887503,0.5456494992871034,0.5552437587430402,-0.13947688557916293,0.13009129474269057,0.042438152906888404,-0.3412152659707862,-0.2872075901304436,-1.8103288552745147,1,right
14.259,-1.1036399945918638,0.5034896923281665,0.571936758103499,-0.34343758373689465,-0.6631691286849756,0.22115495094813648,-0.36414193828263064,-0.2681478497134138,-1.7765397011063215,1,right
14.263,-1.0444933662834306,0.4722121517523544,0.5641711739587236,-0.07444265373061908,0.3831025342146347,-0.014575596938786024,-0.354799700466812,-0.27590531849379674,-1.7902748416577339,1,right
14.264000000000001,-1.0266317144241324,0.4627315838826207,0.5574790799082865,1.0552413787466848,4.774997738045359,-1.0043233749692122,-0.3547166040679809,-0.27600343578018993,-1.7905104768296063,1,right
14.265,-0.9755519833659471,0.41883367386985737,0.5458531517355603,1.3242544110583416,5.821265606464833,-1.2400685596947154,-0.3595116189994121,-0.2719614308644708,-1.7832220227504032,1,right
14.267000000000001,-0.920181415672489,0.34324392686868543,0.5403990870359341,1.1202116571886676,5.028022311253845,-1.0612853742265682,-0.3537881208948009,-0.2767971388304866,-1.7919682039626004,1,right
14.267999999999999,-0.9040246224961348,0.2684470455076373,0.5470111702067018,1.2434693019844105,5.5064645337057225,-1.1692296551387966,-0.3582168486467304,-0.27303900168317086,-1.785133746375504,1,right
14.272,-0.8908089802850239,0.19250780360873035,0.5540454019056132,1.1929728511874211,5.311772885378582,-1.125102033502778,-0.35581336389333273,-0.2750694034157486,-1.7888065350886038,1,right
14.273,-0.8933477185787899,0.13830741509251543,0.5657892530117826,1.1928700959226461,5.3090690068761015,-1.1248467778424605,-0.3564937676347819,-0.27457083161811857,-1.7880735084780932,1,right
14.277999999999999,-0.9055900999510986,0.10037274843058523,0.5709993494598986,1.218527189094073,5.411093261938596,-1.1474898924952974,-0.35676844299100974,-0.2741285534633906,-1.7868068139231568,1,right
14.279000000000002,-0.9122454802517468,0.07399011529316124,0.554092031436745,1.18733509767504,5.28884335580017,-1.120088895935238,-0.35628937373219377,-0.2748947928916135,-1.788996030640282,1,right
14.283,-0.9199827799521927,0.05654384350677053,0.5274502193984978,1.2123333376551304,5.384113242712471,-1.1418585032686115,-0.3565510895038423,-0.27422584306698994,-1.786790624961818,1,right
14.284,-0.9240488436724388,0.037311564716508476,0.4957288304914231,1.197497231565416,5.332621125822969,-1.1292928692523179,-0.3564767855105376,-0.27464741214648125,-1.7883507695580267,1,right
14.288,-0.9242669469685902,0.02056632389152236,0.46141047360292897,1.2033197148676509,5.344601604418221,-1.1336473768957913,-0.356793196668732,-0.2743876393618826,-1.7878975881696646,1,right
14.288,-0.9226178706788524,0.0032025701187638174,0.4363415286826541,1.20338017875565,5.3579086873913315,-1.134616716314151,-0.35561186848284876,-0.27470183290484884,-1.7869458017652629,1,right
14.292,-0.9223087678519386,-0.011770461973511675,0.4175702801218496,1.200063335737601,5.334594754138701,-1.1309802802758662,-0.3581407276785368,-0.2741258316440257,-1.7893728175280947,1,right
14.293,-0.9292684333677466,-0.018688853578045575,0.402766686461709,1.2057711389461256,5.356693104557687,-1.1359749765944458,-0.3543282470089899,-0.27501815573553623,-1.7858104173559313,1,right
14.298,-0.9483141521056695,-0.017975656150230637,0.39151818004678174,1.1968750293309571,5.3414344465559305,-1.1295344836493957,-0.3584453610666214,-0.27402310665132146,-1.7895307247716608,1,right
14.299000000000001,-0.9788941447609536,-0.004728364900046838,0.3784608108680304,1.2101654958761379,5.348937755630844,-1.1380850608375637,-0.35606662120275745,-0.27459761112624,-1.7873797540960108,1,right
14.302,-1.0187578221212052,0.017427558304735698,0.36613807038137525,1.1928179513984878,5.3473812667440725,-1.127501119336463,-0.35390061393533095,-0.27518985740282925,-1.7856993654542155,1,right
14.302999999999999,-1.0631556152056483,0.03994679872728171,0.34989940724311797,1.2104032914158562,5.3455155953715785,-1.1379893226030862,-0.3632317195020649,-0.2727234064184412,-1.7932799388001905,1,right
14.307,-1.1022823653277785,0.06272303019110483,0.32590036695106217,1.2008511879235193,5.348954878311131,-1.132461532716595,-0.34593338303524784,-0.27729130261239143,-1.7792090710248578,1,right
