time,gFx,gFy,gFz,ax,ay,az,wx,wy,wz,subject_number,foot
16.327,0.6729123066361697,0.998534432971165,-0.25543213807334775,-4.797912377161481,-2.1594816749541748,1.089647559451063,1.693559676767131,-4.532116341633184,2.381730380478638,1,right
16.331,0.707244997918608,0.9792750361713878,-0.22212483845492498,-4.731983282692619,-2.1267463887692504,1.1084736489152678,1.6967733433549697,-4.528801436109638,2.3858088593069207,1,right
16.332,0.7361074944589687,0.957463971306622,-0.18535985562575819,-4.783215374171293,-2.1521957816449167,1.0937580724955862,1.693459776841011,-4.531222356943667,2.3817838788459365,1,right
16.336,0.7649901208301518,0.9335377394389386,-0.14680475071010324,-4.75553081358369,-2.138448728213554,1.1016656457321645,1.6958418942544002,-4.529970226614326,2.3845890938249665,1,right
16.337,0.7925468440968959,0.9046665027707158,-0.11098546371881637,-4.762365168711847,-2.141794086702193,1.1000994267188986,1.6952520659269563,-4.531561916230039,2.3836628823848742,1,right
16.340999999999998,0.8163817901777818,0.8776161524153374,-0.07768104475720321,-4.768297410760908,-2.1448741322399947,1.097337508915647,1.6933748603500738,-4.527219387795512,2.3824156192537997,1,right
16.342,0.8401109703513645,0.8529728385179383,-0.04727300164610933,-4.758017218820282,-2.1395375780644628,1.102111752781036,1.6979938071890435,-4.536277898900844,2.3857783619337294,1,right
16.345,0.8603049926364373,0.8303904087667178,-0.020375081462102044,-4.7669316145215,-2.1442518096415926,1.097287549313195,1.6911800879857681,-4.52256501610288,2.3808812680680402,1,right
16.346,0.8746437640643749,0.8126525771465395,0.0029371952376289266,-4.761349030644845,-2.1412489277683635,1.1007074498929716,1.698341705900023,-4.537447918608878,2.385943162240687,1,right
16.351,0.886841280406885,0.798879819848448,0.018590043249678903,-4.764893967814732,-2.1430046781207954,1.099733550125619,1.6942032263751678,-4.528853686888607,2.3830174266522586,1,right
16.352999999999998,0.8929719791295467,0.7925857263158038,0.02508326903909733,-4.760296216473627,-2.1411609451839677,1.0975667175879011,1.6908591990735364,-4.520848077572377,2.380843710361749,1,right
16.355999999999998,0.8936815936242624,0.7926073346832189,0.027347915089851356,-4.768866708808443,-2.1444135396318758,1.103059690124401,1.7057820141399564,-4.5551056600237345,2.3908060358947205,1,right
16.357,0.8919908034526834,0.7980862851132484,0.024308996938104906,-4.755629632349447,-2.139337992734909,1.0949912448687351,1.6780946025266186,-4.491618733753534,2.3723102086906183,1,right
16.36,0.8809930178904547,0.811552340488104,0.012582156896318848,-4.7703394884214365,-2.1450449041840964,1.103425097189194,1.713626342973559,-4.573182029849891,2.396028719963049,1,right
16.362000000000002,0.8681198632064406,0.8278108916488631,-0.0014027718406411222,-4.761843957862164,-2.1417503560929507,1.0985508960303116,1.6839734449394888,-4.505075282237658,2.3762434228545235,1,right
16.365,0.8526173680383694,0.8492507305763982,-0.022342951433737525,-4.753203874314455,-2.138254451886709,1.0947172720230793,1.684794542215991,-4.506836639488916,2.3768092274248236,1,right
16.366,0.8316475760004098,0.8743298602204689,-0.05030638454963505,-4.789318976605621,-2.1527057553606386,1.1119697819454988,1.7412480224321079,-4.637015147515352,2.4143942955103888,1,right
16.37,0.8145446718016742,0.8977456430295843,-0.0793131049310252,-4.722421262168614,-2.125947179204726,1.079952871427123,1.6024848487747443,-4.317139780500318,2.3220002008706326,1,right
16.37,0.7833609101210142,0.9267188850649491,-0.12255828305510508,-4.80843849079009,-2.1603618047654507,1.1210315513880245,1.832550843656719,-4.8474815337804795,2.475181057956166,1,right
16.375,0.758263600067956,0.9460659309034586,-0.15344823026733606,-4.736565636521943,-2.131604648153627,1.0867538529954262,1.5291086543669756,-4.147979374795856,2.2731553006374705,1,right
16.375999999999998,0.7524435913353733,0.9506243528357468,-0.16145312713847032,-4.738398690177414,-2.132317030144188,1.0877138341128658,0.25538500222666183,-1.2113108326359188,1.4251359175449014,1,right
16.377,0.7259921335936024,0.9643570055680655,-0.18789067459471298,-4.875973993950504,-2.1874382367244993,1.1529248547198563,-0.048035824834195245,-0.5118375537623873,1.2231399029403163,1,right
16.38,0.6897685587545536,0.980594266952135,-0.21936768982157903,-4.537883879746532,-2.052003321662103,0.9926277279002412,0.18200266699328835,-1.0421595585063206,1.376281749142481,1,right
16.381,0.6483813722132468,0.9890464412917814,-0.2406725638238585,-5.098498199072132,-2.276569772353319,1.2583959857420592,0.04324625422717546,-0.722231581884309,1.2838996118583919,1,right
16.384,0.6155294772726714,0.9940771906612027,-0.2563543604816515,-4.3589899286589,-1.9803477002861516,0.9078653033396202,0.09974434042951764,-0.8525976966016238,1.3215415400577502,1,right
16.386,0.6064973437254799,0.9939418345420876,-0.2587414480814875,-1.2553230297895477,-0.7368595071871091,-0.5635690068817788,0.10044804373314456,-0.8540114854361452,1.3219516777514135,1,right
16.386,0.5720526098319998,0.9914188560438943,-0.2637518745745383,-0.5157886947469056,-0.4406133895694632,-0.9140912112832855,0.07098061334678439,-0.786358171778204,1.302416256744089,1,right
16.391,0.5241362477139349,0.985473987248883,-0.26900312250006686,-1.076361799064891,-0.6652098341759998,-0.6483168751851703,0.10630624546158751,-0.8675260404213684,1.3258526142046405,1,right
16.392,0.48774302320641655,0.9754204743180046,-0.263916885963269,-0.7385282810428511,-0.5297707228875072,-0.8086715097812599,0.07874754650402266,-0.804105555745604,1.3075404260212005,1,right
16.395,0.445619104805666,0.9644523833637815,-0.2583156661383143,-0.8755031549729001,-0.5848346821965935,-0.7433186967977491,0.0937556806066533,-0.8389427587411635,1.3176024130599047,1,right
16.395,0.405456520566115,0.952575325714383,-0.2514389894382394,-0.8782894801837753,-0.5856896465093997,-0.742589401333223,0.08997912478635159,-0.8294829988419898,1.3148623057923947,1,right
16.399,0.3643362170444713,0.942403168431099,-0.24074062828016674,-0.8053209343798178,-0.5567125161420676,-0.7765959065829445,0.08667541816382092,-0.8231599230235715,1.3130517514837416,1,right
16.4,0.31899126429999203,0.9347215009206804,-0.2303337526844444,-0.8920906135315807,-0.5913656035990822,-0.7357128804163633,0.09271753053142365,-0.8355044150498945,1.3165971814073254,1,right
16.404,0.2741955825229176,0.9279389448330294,-0.22345003019707727,-0.8254970383294291,-0.564468077890024,-0.7677835201582767,0.0869382566559741,-0.8234436066165808,1.313129901975758,1,right
16.405,0.22419601974774633,0.9239233012264894,-0.22309488278724554,-0.8595171077294762,-0.5787977096436706,-0.7500446767268887,0.09123979127197288,-0.8333722333673781,1.3159971809751165,1,right
16.409000000000002,0.17000557068003477,0.9255844262037793,-0.22984280444444,-0.8551329794266753,-0.5758366682928563,-0.7548972574945833,0.08819210410113226,-0.8240019219845764,1.3132622041623376,1,right
16.41,0.11774954740973402,0.93094404387801,-0.24463616567116875,-0.8407195382192059,-0.5715394378408518,-0.7583266997647782,0.09086991668855006,-0.8355315796245791,1.3166580984507097,1,right
16.415,0.07067376195079449,0.9357970821180374,-0.2675449335320283,-0.8611888328590332,-0.5785629177441183,-0.751335627037435,0.08790182707412836,-0.8206986565114847,1.3122757304629906,1,right
16.416,0.028806754212623097,0.9400679845130258,-0.29116834450000173,-0.8456066172224869,-0.5723093979497664,-0.7587474449171743,0.09087470446294701,-0.8360702565459204,1.316819969013907,1,right
16.42,-0.007088116170127745,0.9417952808333825,-0.3143551313273496,-0.8489829442433607,-0.5758466087646665,-0.7521118791889918,0.08945888498200863,-0.8278841012440348,1.3143956320579873,1,right
16.421,-0.032821994434599856,0.9380845878965239,-0.3390313024668006,-0.8606083267958667,-0.575512507367443,-0.7581058264842839,0.08674279583918222,-0.8173810258529339,1.3113090464006416,1,right
16.424,-0.04539926028157973,0.9298030510738766,-0.3609774043496211,-0.8364544805100081,-0.5732817277512268,-0.7523936489339771,0.09618168293735899,-0.8577071598401836,1.3231854664543097,1,right
16.425,-0.046704534358271876,0.9158486872150761,-0.3773521810436544,-0.8646941742435781,-0.5766584230533278,-0.7573008115070623,0.0791188923277268,-0.7839388342519787,1.3014555047478984,1,right
16.429000000000002,-0.03572305311969901,0.8983490111800394,-0.382103576063476,-0.8467083975528953,-0.5740378626086435,-0.7552586054770289,0.10092940377134213,-0.8784344069482923,1.329291075559265,1,right
16.43,-0.016374973457314614,0.8808979235564598,-0.3744945033162821,-0.8363928099891556,-0.5738603252234179,-0.7510321680029434,0.08276073162171904,-0.7996342401660839,1.3060803660374545,1,right
16.435,0.0010027864865116971,0.8589457391416389,-0.34941026984430495,-0.8911089442126195,-0.578477256831458,-0.7649789528926074,0.08309923495726944,-0.8014193570770394,1.3066035711335462,1,right
16.436,0.017977818643926606,0.8360737432926901,-0.3108982024359833,-0.7873792578958938,-0.5690080411831919,-0.740190428981267,0.11824670974935599,-0.9528226838846151,1.3512040886606795,1,right
16.439,0.03192252093803967,0.8154534403925999,-0.2698038266537285,-0.921382724614079,-0.5814936174040536,-0.7716310584244848,0.03203843238198221,-0.5810952836949381,1.2417073154589073,1,right
16.44,0.03592816290848067,0.7906460414554826,-0.2122731383657347,-0.8091748478815042,-0.5709324708033509,-0.7455492747454598,0.17493013458094342,-1.19733986665223,1.4232230367567733,1,right
16.442999999999998,0.03408601419229671,0.7754706109642873,-0.1699347217062422,-0.8127211964503018,-0.5714298528313432,-0.7459966250364478,-0.013540851585010734,-0.3845133156584949,1.1838109678285575,1,right
16.444000000000003,0.03137214413259495,0.771064492508285,-0.15973552710479397,-1.025317790885573,-0.5910047675601762,-0.7964152320792043,-0.8048524679998794,3.027693230907234,0.17869111586773484,1,right
16.445,0.023506121018069075,0.7561705770159974,-0.12524809160495826,-0.5020589980031681,-0.5425870050047914,-0.6728706371924552,-0.993344915079192,3.8405843031249325,-0.06072764677047324,1,right
16.448,4.1009084065369086e-05,0.7389843593281931,-0.07609899597699532,-1.3698985872701641,-0.6229797017625984,-0.877564565668237,-0.8504299914935205,3.2242699118698246,0.12079531648919645,1,right
16.449,-0.01892289951924737,0.7329670178163523,-0.05490766139274793,-0.22515939872333496,-0.5169026312617815,-0.6076367582402887,-0.9366294452102015,3.595970763958131,0.01130129839462389,1,right
16.453,-0.024118460880286626,0.7308817773769506,-0.049128053386812046,4.579687557921137,-0.07179609074948584,0.5256463009642899,-0.9015589757836611,3.4447989918187565,0.055877791601655465,1,right
16.454,-0.047763994437131654,0.7270574083017352,-0.039428241410666115,5.724338652473015,0.03428170863661394,0.7955334376019575,-0.9010547756065971,3.4425156533510175,0.05645268708064637,1,right
16.455,-0.0807716497227287,0.726019147578814,-0.029725921534497293,4.856583823408322,-0.046133338361581136,0.5909281815521011,-0.9194610314718152,3.5220301707146686,0.03316786481898751,1,right
16.459,-0.10518523777285665,0.7289803915725088,-0.03305081616447131,5.379916241269005,0.002360496160845424,0.7143312924974388,-0.8974139261536189,3.426823251468739,0.06107723547694506,1,right
16.459,-0.13046516432900665,0.7344857955628228,-0.04556174855816765,5.166926435086376,-0.017369250850009482,0.6640929078777775,-0.9145788213502084,3.500898514468578,0.03931543231522847,1,right
16.462,-0.15311366813539468,0.7464863398583963,-0.05799327501521252,5.164174658831529,-0.01763867625902859,0.6634756985011072,-0.905343057070509,3.4611832116314405,0.051128475399179064,1,right
16.463,-0.17362605146745902,0.7639520308989525,-0.07201725666113126,5.275284482583995,-0.007320161747427399,0.689626560796841,-0.9074047577335271,3.469718614327566,0.048246037161340495,1,right
16.468,-0.19444056482442285,0.7843149118800354,-0.0854797269203971,5.142322995819818,-0.019669313973008744,0.6583350702335892,-0.9099481575830844,3.481295160864705,0.04546994987940055,1,right
16.469,-0.21883304670765047,0.8052128381651343,-0.09305838641700512,5.245698603806785,-0.010063636534395595,0.6826545541589578,-0.9055914122689636,3.4617626916262294,0.05044586976339541,1,right
16.474,-0.24949059458503423,0.8281706917387602,-0.09900242869467804,5.18986766779369,-0.015247791482440825,0.6695122171226175,-0.9096628538792371,3.479912873626021,0.04571935136250992,1,right
16.475,-0.28220574866663484,0.8557931064543816,-0.10400440644194886,5.203395640910056,-0.014017379421269441,0.6727515437163567,-0.9069947229374449,3.468412748380831,0.049112163062642836,1,right
16.477999999999998,-0.3185895848248858,0.8819938248209616,-0.103690354703326,5.216061539269887,-0.012771361338318367,0.6755838814006059,-0.9079952265766379,3.471627171830426,0.04701587439278732,1,right
16.479,-0.3580748594601592,0.9055199553355954,-0.10389153331704362,5.194121723852245,-0.014928062674322107,0.6706741371988509,-0.9083724612620392,3.475766850179939,0.0484235669998762,1,right
16.483,-0.39870467137842586,0.9250367523747592,-0.10670650460736722,5.213595851516607,-0.012972239424726549,0.6749436127851057,-0.9071715513004316,3.4668399894699986,0.04713373053777156,1,right
16.484,-0.433889795552173,0.9382748540743737,-0.11165958683518995,5.201137879407721,-0.014247026554770888,0.6722627746014445,-0.9085707517203938,3.476868906460342,0.04835798235925516,1,right
16.487000000000002,-0.4605384895444359,0.9473710682291583,-0.12203614709463453,5.208263458159636,-0.013587958166489333,0.6739453299654103,-0.9075744566810939,3.4702646923264195,0.04788854043576174,1,right
16.488,-0.48045463138322947,0.9491426181912801,-0.13311839112111784,5.201273427379642,-0.014012121855552527,0.6718208553347683,-0.9076455389578908,3.468580421557965,0.046304726346348336,1,right
16.492,-0.488074069755305,0.9448392625831499,-0.14364591441132468,5.213346475152207,-0.01340402572783849,0.675755898451525,-0.9088569287224966,3.4825140372561627,0.05130668334205632,1,right
16.493,-0.4831458508104413,0.9384270117747762,-0.15738970809076874,5.194429958023875,-0.014395248451755768,0.669671844274681,-0.9063352752326752,3.4554888457342763,0.042378184033526736,1,right
16.498,-0.4646783882272817,0.9302392754958597,-0.17058233814924423,5.215796903169654,-0.013227184961026955,0.6764412555007701,-0.9096353554393788,3.4904573841001874,0.053765607094861965,1,right
16.499000000000002,-0.4384362544727165,0.9228477610869993,-0.18261710530592096,5.20346529292254,-0.013900800083567089,0.6725324520584892,-0.9068545653293969,3.4611545778337165,0.04428898071035138,1,right
16.502,-0.40188577395926717,0.9171568456344562,-0.19551971301922563,5.190164545829703,-0.014728907594368408,0.6685358196478763,-0.9070272603924192,3.462364321741756,0.04442744165101149,1,right
16.503,-0.3565191781838606,0.9156820830454944,-0.20502900697123932,5.244914273822436,-0.011425309457563069,0.6852163494675028,-0.9120116448351441,3.5168757548709624,0.06288790073404117,1,right
16.507,-0.3171446638826789,0.9167985041889783,-0.21049105874789842,5.143555726038513,-0.017535642353528117,0.6543212319091961,-0.8996442651049781,3.382398834337073,0.01765026358854878,1,right
16.508,-0.26430194473139595,0.9169711279012571,-0.2126697476395487,5.2739226172690135,-0.009669508267651526,0.6940456660746177,-0.9201819435927718,3.6054997543159786,0.09262534465534822,1,right
16.511,-0.22700563864337367,0.9193830101312777,-0.2118551787025359,5.164990277800454,-0.01624539435851318,0.6608557810776473,-0.8930872137929824,3.311213139478971,-0.006270180139190305,1,right
16.512,-0.21773128624521218,0.9199182104532675,-0.21073665657355237,5.167646309870529,-0.016094541180469168,0.6616931284898713,-0.7795115349241084,2.076576776583119,-0.4215203186080104,1,right
16.512999999999998,-0.1801329879146798,0.9174246901130152,-0.20918827494804043,5.376583248488456,-0.0034420443418925533,0.7252492958200207,-0.7524198303337786,1.7823200900477123,-0.5204481767994893,1,right
16.517,-0.13203344551603435,0.9141669296953034,-0.2067043549857634,4.863278464245251,-0.03451832640843682,0.5690757109335826,-0.7729586711355374,2.005399627074657,-0.4454300351329946,1,right
16.518,-0.08026941951102447,0.9086845017850814,-0.1993729623686033,5.71436307039551,0.017007676501542585,0.8280313013309255,-0.7605743363026569,1.8708714378320759,-0.49068297965829144,1,right
16.521,-0.038237816812473485,0.9072748106886042,-0.19179832356709403,4.591737873730761,-0.05095932558703439,0.4864463425043301,-0.7656019659347182,1.925570585884401,-0.472279574199347,1,right
16.522000000000002,-0.028156735788690553,0.9071490592571286,-0.19110820082178503,-0.1214199320469942,-0.3363390615417696,-0.9474356667736585,-0.765703251074324,1.9264300876430789,-0.47197894782195104,1,right
16.522000000000002,0.010437283051240026,0.9036514664719759,-0.18756930516644066,-1.2441144229781944,-0.4043123256639378,-1.2890576666637539,-0.763007524454128,1.8975865031637458,-0.48171963756238706,1,right
16.527,0.0686720848397092,0.9011696467728723,-0.18304213636043265,-0.39290285090352106,-0.35277472728329917,-1.0300497533318027,-0.7662445394658619,1.9321514094376928,-0.47002985017927507,1,right
16.528,0.11769712779692831,0.8981023103245672,-0.18458559784069106,-0.9063632849991654,-0.38386550637402017,-1.1862514749188287,-0.7637099099626956,1.9052007330686527,-0.4791620054459894,1,right
16.531,0.17335567754060227,0.8953705553837702,-0.1870694138870685,-0.6972953643797083,-0.3712002840113908,-1.122738813994805,-0.765068060450002,1.9197105681825066,-0.4742510339532002,1,right
16.532,0.22412541825804752,0.8921929276636309,-0.1861053912662381,-0.6946675098877714,-0.3710532958617397,-1.1217481119851642,-0.7648256910653666,1.916565132173519,-0.47525162513372043,1,right
16.535999999999998,0.27665991417620817,0.8865408443525903,-0.17914448506291009,-0.8037625275994856,-0.3776424677195534,-1.1552057105242195,-0.7642790624521072,1.9122543608617917,-0.47689066804094393,1,right
16.537,0.3363425120325569,0.8817531565761796,-0.17136348777431898,-0.6729799640951419,-0.3697395852770202,-1.1151549369356744,-0.7652224116685344,1.9197066861008434,-0.4740561797514115,1,right
16.541,0.39575715089089236,0.8769489382956744,-0.16382618319509856,-0.7749889652146055,-0.37590944985866337,-1.1463018285378805,-0.7642415544815147,1.9124785131204693,-0.47689089178646155,1,right
16.542,0.45204265017450973,0.8728907571332714,-0.15753663266188483,-0.7195106055227984,-0.37253676456958895,-1.1296458291766571,-0.7649507237405155,1.9174514995770322,-0.4748960076040064,1,right
16.546,0.4979988096407168,0.8750141301101562,-0.14753694879296964,-0.7332910207480143,-0.37341428938993215,-1.1331235737412926,-0.7647860247673648,1.9156370142324515,-0.4755038027470117,1,right
16.547,0.5268178204686167,0.893135846112803,-0.123588281449432,-0.7458561364403534,-0.37410102825246405,-1.1381761177779817,-0.7641820024818651,1.9141449743920118,-0.4766031882338883,1,right
16.551,0.5472980136482821,0.9071239186892168,-0.11341534996263078,-0.723077236113975,-0.3728125243400673,-1.1297379725353993,-0.7656544119920327,1.9185555810058856,-0.4737533705533657,1,right
16.552,0.5888312151380876,0.8687706498869696,-0.13176379812870917,-0.744800129767453,-0.3740555852169301,-1.1375482995201878,-0.7634793357708208,1.9122094957084828,-0.4779266430582423,1,right
16.555999999999997,0.6511258705319896,0.7862921898019929,-0.17197114639166589,-0.7288839806743822,-0.3730911213586128,-1.1327175323667302,-0.7657696084982955,1.91866495914529,-0.47358162843786367,1,right
16.557000000000002,0.7252974377460744,0.701369065343795,-0.2524912656967353,-0.7395381990067635,-0.3738704694828414,-1.1337282598864804,-0.7644458519665448,1.9149324022572487,-0.4760934355552309,1,right
16.561,0.8164288053465618,0.6375681012653461,-0.34727569778906214,-0.7310577672961467,-0.3730504200658041,-1.136244275951853,-0.7633682620272388,1.912398024716025,-0.47802781408499445,1,right
16.562,0.9297312313316183,0.6127477973405897,-0.4322531565597685,-0.7399068578659422,-0.37404339923473445,-1.1313353894076101,-0.768166898993296,1.9243723334002778,-0.4692628504732155,1,right
16.565,1.0595617755961493,0.6325574785899646,-0.5350587691458031,-0.7311839580294834,-0.3730280644692028,-1.1367829631459916,-0.7592633038761281,1.9021235582451421,-0.48553276286097247,1,right
16.566,1.176834875425988,0.6980329611949189,-0.6593288234852948,-0.7351022925137761,-0.3735465048565082,-1.1332965803316528,-0.7706911760662696,1.9306334794261968,-0.4646601489863559,1,right
16.570999999999998,1.2906842781422267,0.8023432406119925,-0.8129505044508625,-0.7440282878245612,-0.37433027894938997,-1.1319714793311788,-0.761152283446662,1.9068604178612105,-0.48207750055311455,1,right
16.572,1.3642252716187868,0.9534324038023855,-0.9623594196137104,-0.7140520541116444,-0.3714523425784046,-1.1405192885602002,-0.7614188415344594,1.9075699815670717,-0.48158047974046814,1,right
16.575,1.3846254332081056,1.1339068381086919,-1.0564151421718933,-0.7679962501004486,-0.3766889545090242,-1.1241731459364561,-0.7795750191868898,1.9526074871772308,-0.44847582804470737,1,right
16.576,1.3642766760008298,1.3096783851306555,-1.0879139267219857,-0.6991080693529529,-0.36998866188521323,-1.1452705816105713,-0.7349409796838052,1.841867839840162,-0.5298639568719816,1,right
16.58,1.1908399856061949,1.4890345227816772,-1.0214543789639166,-0.7564528649125,-0.3755710535944682,-1.127617404469823,-0.8089480070157202,2.0254660597833483,-0.3949188026012445,1,right
16.581,1.0107093241992033,1.6032919240360566,-0.9286828559313051,-0.7555132495782606,-0.3754600561659261,-1.1282561954816455,-0.7113330635069398,1.7833246502667837,-0.572906075749922,1,right
16.581,0.9488124294652533,1.6342130360684033,-0.8940044035218415,-0.6441943166156253,-0.3646886704572734,-1.1613787474484298,-0.30166608465442274,0.766968012211685,-1.319896648704061,1,right
16.585,0.7233341953296126,1.7196776712342796,-0.7776161021048098,-0.9170488677721812,-0.39111195388699205,-1.0797873215587654,-0.20405572049611603,0.5248490976385464,-1.4978727006511505,1,right
16.586,0.356526365238747,1.8775557073249485,-0.5249087264542014,-0.46487167757330305,-0.34731866765796965,-1.2151060483602596,-0.2780495739166897,0.7084277804700703,-1.3629506991662033,1,right
16.590999999999998,0.16657787931202322,1.9718606694691594,-0.35909759859470425,-1.061236101988721,-0.4050755021685383,-1.0366295784043946,-0.23344276320043753,0.5976618714448564,-1.4443044400432543,1,right
16.592,0.11591369215956089,2.004248165496442,-0.3146682559431132,-3.5665379619039825,-0.647722697028889,-0.2873644326473176,-0.25155535600511547,0.6428151667822,-1.411239930142089,1,right
16.592,0.0468696741958656,2.095386690342174,-0.2337458581222396,-4.163021437157008,-0.705489981190086,-0.10889711002471913,-0.2518755956306563,0.6432990142208187,-1.4107102604329569,1,right
16.596,0.11483826490593688,2.162872243702971,-0.2490897265009648,-3.710556071196235,-0.6616645842511948,-0.24425095040420894,-0.24229183662715156,0.6198308355269091,-1.4281314135096266,1,right
16.597,0.4202481666780966,2.0860538509971542,-0.4514164309933947,-3.9839261283831604,-0.6881572591219703,-0.1624963324405675,-0.2537242876476556,0.6480605718490656,-1.407308739247322,1,right
16.599,0.8081417267964479,1.9392977550606698,-0.666148955755125,-3.8718706936373266,-0.6772714539396929,-0.19598038936386106,-0.2448931791992686,0.6258892179050419,-1.4234573358841773,1,right
16.6,1.1748533884686427,1.8242389517924642,-0.7769136084259731,-3.8717382933191464,-0.6773051514764459,-0.19606093238796105,-0.24951630424398188,0.638204283930979,-1.4148793814223848,1,right
16.604,1.4890486180974898,1.8045916587484552,-0.7419046964838452,-3.928548150070827,-0.6827613362923638,-0.1790323751254687,-0.24870890709056884,0.6347445828444592,-1.4166068425815848,1,right
16.605,1.7804130995573235,1.8833326109041244,-0.5988444779294281,-3.859415167759142,-0.676085222828753,-0.19972740306700187,-0.2470871724739416,0.6325084975294699,-1.4192506654271768,1,right
16.609,2.0787127975817237,2.0390583704388296,-0.4029890847816836,-3.9149087564614553,-0.6814998769020775,-0.18314713466012383,-0.24956517196938968,0.6372314943697679,-1.4149820465004448,1,right
16.61,2.318915069624943,2.2609010843506736,-0.20603823120590525,-3.8818159615091923,-0.6781668868174042,-0.19298006484042537,-0.24750631997022582,0.6321109038303403,-1.4187382594434856,1,right
16.615,2.425174764122205,2.4912508906506865,-0.12605081316674605,-3.895057940874983,-0.6796693690055015,-0.18913165114838743,-0.24836761697800694,0.6368913382707921,-1.4167046018335347,1,right
16.616,2.384115232445851,2.6908769375041355,-0.1480140679998167,-3.8947889139198035,-0.679373616862204,-0.18907536445395584,-0.24895237084515,0.6323008432670352,-1.4166970529556315,1,right
16.62,2.256894541951119,2.8483248790134907,-0.10979907391943287,-3.8877540203350995,-0.6789070013492049,-0.19128798648397194,-0.2471809225215651,0.6369181679263556,-1.4183475670724222,1,right
16.621,2.101487402886529,2.9379192762640964,0.0362498502577579,-3.9004135319466933,-0.6801356234591176,-0.1875019163680185,-0.249398307216603,0.6328126114093617,-1.4159884065947994,1,right
16.624000000000002,1.945287337863748,2.940217656081594,0.17710246498888704,-3.880095432577495,-0.6777679054000642,-0.19338080277661457,-0.24789650779218916,0.6346367532013736,-1.4177534466597268,1,right
16.625,1.7929233854850857,2.820297231243,0.25458106059501395,-3.9109170837388794,-0.681665791122753,-0.18461497952338393,-0.24728779186085378,0.6379132194025396,-1.4180253181437932,1,right
16.629,1.6968911854006312,2.5644492719346297,0.36286209552684157,-3.8704355604052703,-0.6763842508281585,-0.19604795315112694,-0.25121713977909177,0.6267181311520389,-1.4145303696283626,1,right
16.63,1.6968072328675046,2.2253874407300396,0.5169358005136804,-3.9115767990910224,-0.6818185142001236,-0.1844614069058914,-0.24363120816106065,0.6467357566653442,-1.4215559598125234,1,right
16.635,1.6917133067236214,1.8680693280354934,0.5538517955300424,-3.889155551149298,-0.6788111085033348,-0.1907534327759815,-0.2534796070771509,0.621301551340492,-1.4123392852594259,1,right
16.635,1.6212892307539453,1.549042748466473,0.4167802085858996,-3.865631023928615,-0.6758066639829741,-0.19742929296896525,-0.24521222636220036,0.6424191869191571,-1.4201153300737182,1,right
16.639,1.4281673535278205,1.2904083166238134,0.24798069065026188,-3.9608413430825795,-0.6881939513092967,-0.17052164864073008,-0.2455059818684396,0.6420291962389799,-1.419780500604535,1,right
16.64,1.153669286679294,1.087457463771285,0.15720426543833238,-3.7861040613035684,-0.6654036787897617,-0.2198775351798413,-0.26108400272710786,0.6012806900085365,-1.4052847156004868,1,right
16.643,0.8686611666885447,0.94099070244937,0.11975861595928765,-4.009813462463954,-0.6945988737413614,-0.15669707537517713,-0.22269401431471883,0.7011692438147086,-1.441091675154821,1,right
16.644000000000002,0.4372243728651259,0.8353189469713639,0.08396719549253387,-3.823331960928038,-0.6702589554413865,-0.20936308014431462,-0.2863844127547689,0.5356542374677509,-1.3816569456273213,1,right
16.648,0.0831361804690347,0.7813024659176582,0.057463968521271544,-3.82794205253097,-0.6708612467085494,-0.20805902749834632,-0.20236340998669491,0.7539258190541185,-1.4600728382762003,1,right
16.649,-0.034905046398242316,0.7700271954455609,0.049237867648561445,-4.184684980650603,-0.717417804717579,-0.10731021250802185,0.15026323676456604,1.6704740239092066,-1.7892265975966737,1,right
16.649,-0.40618652956926604,0.7415249649259146,0.02650127681860842,-3.308492917844953,-0.6030798554859905,-0.3547677972302138,0.23428670687064265,1.8887478187815012,-1.867650527082479,1,right
16.653,-1.1055946418246916,0.6973763803812788,-0.019590857922454935,-4.761009667802299,-0.7926064909663129,0.05547125745368013,0.1705851162740306,1.7232227963389266,-1.8081793399054806,1,right
16.654,-1.5136039895494058,0.6750192343308403,-0.04759900845600619,-2.8452516013923215,-0.5426656455876355,-0.48562325982335397,0.20900427687359918,1.8231374348228295,-1.8440813272165388,1,right
16.658,-1.6483885460783816,0.6669330527895275,-0.057426449703280286,5.196468595165025,0.5064971853350019,-2.756961936451272,0.19337287656565616,1.7823412181029847,-1.8294116585662943,1,right
16.659000000000002,-2.0997788306491687,0.6428666962981155,-0.09164308531432275,7.112151575314751,0.7563172159856607,-3.2981095283306625,0.19315239735861106,1.7820167025552913,-1.8293155280141877,1,right
16.66,-2.6707543728725796,0.6034335624788012,-0.11680602844588195,5.659807472093377,0.5670082439156441,-2.8877884375166594,0.20134800116346063,1.8030702267785839,-1.8368577566325195,1,right
16.665,-3.0737239734878807,0.5599786086415371,-0.08807523654914722,6.535706662133519,0.6810879299807245,-3.1353113614951047,0.19152949927869195,1.7776626816614356,-1.8277384757365942,1,right
16.666,-3.4631245830444435,0.5049922835891583,-0.0217240832915754,6.179361740980697,0.6347327055713028,-3.034573297970289,0.19917973914751513,1.7977378479933437,-1.8349735460995302,1,right
16.668,-3.7609674083507985,0.43934478273472766,0.05864621270811637,6.174341209937392,0.6341213951668727,-3.033126039606792,0.19504681228121748,1.7863607722078232,-1.8308154407029926,1,right
16.669,-3.957717861578198,0.3627949954411186,0.11709490717588147,6.361054180060858,0.6581346302499373,-3.0860935111260765,0.19600524605055974,1.7899497680214433,-1.832226521752765,1,right
16.674,-4.075027484119904,0.27778104185893215,0.13006182098976368,6.137560249054763,0.6296889852878671,-3.022492751942481,0.19707822780905598,1.791390795393267,-1.8325946769567532,1,right
16.675,-4.052162260636047,0.20231440633689635,0.10299038178637104,6.311376390374528,0.651367980280807,-3.0722530426363974,0.19520256402392935,1.7875903845284546,-1.831348691456296,1,right
16.677,-3.9349302889923634,0.15596230769750208,0.04370791396438096,6.21788940051607,0.640152578966358,-3.0451922919917274,0.19697731332966578,1.7922110128852737,-1.8330099354782239,1,right
16.678,-3.7440605356471353,0.16572672184607024,-0.020565093880339787,6.239145543192092,0.6425051402663362,-3.0514771913310557,0.19575772930556384,1.7870528188034793,-1.830934445122797,1,right
16.683,-3.5175551090424277,0.24815858000197852,-0.06542490071727637,6.263611745438674,0.6448631740409645,-3.0589445985269093,0.19634694505740322,1.7931297334293745,-1.8336258343918788,1,right
16.685,-3.278651322311151,0.37808844865821745,-0.1039687048523468,6.221939618121098,0.6421075781592714,-3.045383111015857,0.1962419287464824,1.7860755784452294,-1.8303332101339391,1,right
16.688,-3.005100884563573,0.5231314706328445,-0.14945044975024568,6.259888701429707,0.6424437422959067,-3.0591853238924727,0.1960707022573725,1.7928591976377306,-1.8335789844199075,1,right
16.689,-2.7132056789204535,0.6696136718194843,-0.2031598512492181,6.235847941643367,0.6449676941363207,-3.0486124884979153,0.1963594853010264,1.7894334890720938,-1.8318805999607604,1,right
16.692999999999998,-2.401040382078473,0.8070267992151825,-0.2724894105512887,6.245258953861329,0.6416838779842097,-3.0542859720322024,0.19601813625494768,1.784945126099477,-1.8298661432978829,1,right
16.694000000000003,-2.065080181766833,0.9354267801957318,-0.3554722490609939,6.2451839994485745,0.6416346355000296,-3.0542901515956338,0.1964231134181066,1.8017554622170344,-1.8376671647177931,1,right
16.697,-1.7250329424124766,1.061689451400865,-0.44105295892897445,6.243337076092061,0.6497620918644267,-3.0481777272886053,0.19592925608895204,1.7712502960213459,-1.8234396153224206,1,right
16.698,-1.36294929700117,1.1920388686499006,-0.5153481753444273,6.240957876396776,0.6303267409153981,-3.0602845934892837,0.19647084042736185,1.8101784266841365,-1.8416226414789492,1,right
16.703,-1.0053340231275065,1.3269767487454445,-0.561413226032646,6.249943329038661,0.6600306101484545,-3.043756832976098,0.1960575928120624,1.7777824584666333,-1.8264780376678336,1,right
16.703,-0.6392515252217323,1.474112342690792,-0.5631636735415178,6.237183044147441,0.6279496356372414,-3.060479606048096,0.19600905307189967,1.7784993771419748,-1.8268340686438544,1,right
16.707,-0.2627369868839634,1.626026945431921,-0.5295626187191329,6.245583084260433,0.6466219455009816,-3.0511028858835534,0.19695610535853073,1.8406964487658892,-1.8558558437755908,1,right
16.709,0.07270186020655255,1.7648030694102468,-0.4802466569658566,6.253206498251496,0.6627615088658282,-3.0431419880969157,0.1947143083163687,1.688056860896833,-1.7846001955919009,1,right
16.713,0.45338833052558347,1.911109081025626,-0.420954906640364,6.2185386017703586,0.5919439064390375,-3.077643722766391,0.19839948935009638,1.941049570355634,-1.9027187838287736,1,right
16.714000000000002,0.707016558996868,2.0032760187559884,-0.3857142469336309,6.284031961199986,0.723437955651372,-3.0139870462194915,0.19354942868973718,1.6073902059996545,-1.7469273155731688,1,right
16.717,0.7680329011071771,2.018476172401914,-0.37610212523826847,6.1990929203865575,0.5544778488746891,-3.09549959414965,0.17315133265153673,0.20670548563821645,-1.0929760672908462,1,right
16.718,0.9821615338706754,2.0737773275145868,-0.36010629758804613,6.27040918360721,0.6955951384593781,-3.0275452066727486,0.16830004227002004,-0.1269344363615519,-0.937173828687011,1,right
16.718,1.252944396140601,2.101490578711825,-0.3445658182628696,6.2684057972519,0.6917469506080698,-3.029405780229162,0.1719811301171723,0.12601225236678523,-1.0553036375158849,1,right
16.721,1.412512886564079,2.0442869285882987,-0.3392508151791393,6.131967501418675,0.4226515206091384,-3.1587527183007422,0.16975904987038146,-0.026546837099804974,-0.9840539522364486,1,right
16.722,1.5624096186534602,1.961160513436744,-0.33993196109015733,6.467758493871106,1.0841514807348698,-2.8408738714767656,0.17066208392533933,0.03553756204554326,-1.0130339175013146,1,right
16.726,1.663840917624253,1.7874213559025565,-0.31000647984268687,5.910599820320416,-0.012727389746114093,-3.367882381918754,0.1706817966268249,0.03637502260542498,-1.0134777994631339,1,right
16.727,1.7044628288394816,1.6523829982784164,-0.2748708824673124,6.645842670834985,1.4341259833677844,-2.6727957718195734,0.17019187147010828,0.003903806831681216,-0.9982089222103672,1,right
16.727999999999998,1.7168211254427708,1.6184658692671192,-0.2590898732093013,9.730516786223255,7.506739742572976,0.2445013293306405,0.17078335205476344,0.042784973860477186,-1.0165135931785954,1,right
16.732,1.7179537007512424,1.4766791795374137,-0.17906543940511632,10.466235500595339,8.95370640069071,0.9395631984521235,0.1703170971055372,0.012526428319128757,-1.002237463101526,1,right
16.733,1.697076552935214,1.297795774859833,-0.053575866062606045,9.908453246557976,7.856690773172216,0.4126121762431761,0.1705660183910948,0.028855506604344848,-1.0099250306702237,1,right
16.737000000000002,1.631348144372526,1.1826442713774807,0.06349522061990927,10.244433536738228,8.518194378739377,0.730392392651866,0.17053260071117698,0.025020100387442578,-1.008260546426203,1,right
16.738,1.5430027302078386,1.0764821759513674,0.178187990443129,10.108909114598205,8.249401896244553,0.6011809859064734,0.17040138537400823,0.02097871537172951,-1.0059679649394266,1,right
16.742,1.4237791516931986,1.009863314339201,0.2554220674905774,10.104409001332725,8.244832654080136,0.5991786646957127,0.17062814635640597,0.02797696371301639,-1.00993355348961,1,right
16.744,1.274364960867302,0.9712912097832275,0.293370236481939,10.179729738433455,8.387039213778321,0.6672163001895776,0.17038135432733398,0.02155986320488304,-1.006081217140148,1,right
16.746,1.1103938153869257,0.9459370116983405,0.30977647352757,10.09027257857801,8.216925185501543,0.5857707441447169,0.17056514402678075,0.025781927455821793,-1.008734839414842,1,right
16.747,0.935434448354903,0.946340020009441,0.3001979111079194,10.158700618142438,8.349045709058625,0.649120153335276,0.17053607017657313,0.02370997655234092,-1.007773588917631,1,right
16.752,0.7587877852938325,0.956791900456092,0.2677907090311654,10.12564220621761,8.278922697005452,0.615202346395799,0.17032269873523567,0.024651531388731843,-1.0069471596037483,1,right
16.752,0.5774860792366829,0.9803986727062527,0.21644053457446302,10.124175718640592,8.292315109313483,0.6223856769895693,0.17082692112741849,0.023637386815008887,-1.009366720356892,1,right
16.755,0.38913792592476937,1.0179831065853402,0.15165648066884413,10.150454568455341,8.316010155174453,0.6324759073404245,0.17007851190674622,0.02541402952247851,-1.0058804521164284,1,right
16.756,0.19647120267305948,1.0613866241845122,0.0787379636659633,10.113399576892252,8.2774579436337,0.6155422876317695,0.17087125820880372,0.02317005330298922,-1.009433310931696,1,right
16.762,0.0012525250552146497,1.1042251009440256,0.012703580834290153,10.145267224225119,8.312779514244571,0.6312454806097524,0.17041313988032536,0.02446228212231186,-1.0073786345998768,1,right
16.762,-0.19128168885329033,1.1416033945414454,-0.039303122994846534,10.135007473644055,8.29233912120825,0.6214155038482922,0.17002956586574144,0.026355190759381454,-1.0059706010332343,1,right
16.766,-0.37640484239490507,1.1668365772922349,-0.08596402669143244,10.109237579883608,8.292461310072076,0.6238196000107045,0.17172297254386718,0.019080821765486103,-1.0126031405354423,1,right
16.767,-0.5501734276425013,1.1688317014904896,-0.12715114248417497,10.178509641141758,8.31262201042794,0.6281437965868707,0.16858177613784125,0.03251958830706017,-1.0002794434604376,1,right
16.771,-0.7068026293412252,1.142128770752937,-0.16324821620258342,10.072685101578271,8.277650696711728,0.6193417713496697,0.17261431535612104,0.015200677447403882,-1.0160738059055188,1,right
16.771,-0.8399515820100252,1.0947295563242292,-0.1950645655714663,10.185954509452017,8.315842270495082,0.6291623174173238,0.16924813844421424,0.029686348739378986,-1.0029012245469993,1,right
16.775,-0.9443726993778657,1.0250265843429296,-0.22809607152548045,10.119783707020087,8.29233551661093,0.6227970799309863,0.169340531965678,0.02938170069771541,-1.003296847237104,1,right
16.777,-1.0199281142154175,0.9393711722887413,-0.25961613928579064,10.066342837308849,8.279203975947688,0.6207340399798134,0.175753851830742,0.0013977953591468115,-1.0282492115433477,1,right
16.78,-1.0667138721942977,0.8548072720972192,-0.28309704755907616,10.306106224918377,8.348347318753195,0.6353662903640447,0.1599896168196801,0.07010597561359126,-0.9668887146592318,1,right
16.781,-1.0759731772910008,0.7643653707409799,-0.3194768600579817,9.860413723022688,8.218013639203782,0.6072204259643887,0.1861274672037932,-0.04381405596801812,-1.0686255335528627,1,right
16.787,-1.066040944138909,0.710797974892979,-0.347865330494628,10.432923079930635,8.385840944463975,0.6435862421556483,0.15165198419062825,0.10646048561002917,-0.9344437487514359,1,right
16.789,-1.0622037471013805,0.6989396145049624,-0.35547136590158057,9.954898968321762,8.24553908825179,0.6131371645277132,0.006947879427877432,0.7376302703200194,-0.37135205818465505,1,right
16.789,-1.034500852260599,0.6636880232260589,-0.39020917732742194,9.968133810335054,8.250070776919348,0.6143073128295403,-0.027527011215677744,0.8879434428927634,-0.23718655970574312,1,right
16.79,-0.9873894851194173,0.6327519561000456,-0.43410565353160435,10.8785927764579,8.515189108273802,0.671226727983425,-0.001390489713822672,0.7739417644307443,-0.3388931967141767,1,right
16.791,-0.9454859804947512,0.6351072864645937,-0.4568749336358067,8.640505227201714,7.86269601884407,0.5309233285648982,-0.017152531649554208,0.8427752003117993,-0.27757048999106043,1,right
16.796,-0.8770765214640603,0.6602287839512404,-0.47264642769400844,12.351369387893763,8.944781545581625,0.7636508601900783,-0.010742109602020064,0.8146389386391818,-0.3024895797641568,1,right
16.797,-0.8267312973482306,0.6864041543243078,-0.477713172549493,7.45682622690638,7.517499848782466,0.4566830485218106,-0.010646837248917757,0.8144676991028944,-0.3028955190631465,1,right
16.798,-0.8139183044151808,0.6955345891564413,-0.4762181180304657,-13.089635504464619,1.5275708018416543,-0.8314966289285366,-0.014014454792526866,0.8289177346563369,-0.28975720632940705,1,right
16.801,-0.7545898449874082,0.7298947870042627,-0.47636336175462396,-17.984210295282384,0.10038458448058896,-1.1384259725656198,-0.009983837410012356,0.8114398906074274,-0.30545616133242837,1,right
16.801,-0.6687437258850575,0.7781009534205119,-0.475419758959083,-14.273037914557461,1.1823614732480534,-0.9057170546326021,-0.013117971757400135,0.825308269945844,-0.29328743465290646,1,right
16.804000000000002,-0.5939633450156845,0.8121161079499257,-0.4738518304947643,-16.51208295871608,0.5298479930043449,-1.0461177719684835,-0.011437276887991963,0.8173384513211781,-0.29973966362083604,1,right
16.805,-0.5092403693607247,0.8499509990226863,-0.4730088268244976,-15.599736706839897,0.7952700274946969,-0.9888923031947658,-0.01180461034367015,0.8200404056915706,-0.2984613306634296,1,right
16.813,-0.42343802060413627,0.8836412979513162,-0.4673957177366715,-15.589225942953975,0.7991222327409702,-0.9882684359185882,-0.012276685576288087,0.8207510745232648,-0.2964392634867178,1,right
16.814,-0.3334328270486664,0.9107692936061342,-0.4521799358912265,-16.064414419403125,0.6598154559883069,-1.0180241114798245,-0.011481705807395447,0.8183580471813566,-0.29968017344376396,1,right
16.815,-0.23758807327964568,0.9345656908822652,-0.4298477085243597,-15.493392060719362,0.8266258410800329,-0.9822365431019748,-0.012209643533052927,0.8215423922285033,-0.296848799279921,1,right
16.816,-0.14658629858017458,0.9549672631143933,-0.3959125626899322,-15.940925152768266,0.6967792779698412,-1.0103413218414974,-0.011756465634122824,0.8175737347845455,-0.29833918333709847,1,right
16.82,-0.06068919409513563,0.9745010606272818,-0.3550054699699875,-15.694165283879919,0.7666844886478064,-0.9947322801607001,-0.011890303093204858,0.8227097827681005,-0.2984423515235324,1,right
16.822,0.01751024476082546,0.9892150856152404,-0.31431574694962605,-15.760303895705837,0.7509071581184699,-0.9991156325628118,-0.012008236186445663,0.816433190893934,-0.2970526996233822,1,right
16.824,0.08727843279074682,1.001331452077103,-0.2720754217787838,-15.810182270090257,0.7320679872859968,-1.001951929039376,-0.011766297275085658,0.8226170635236507,-0.2989862257536031,1,right
16.825,0.1483087425395182,1.0115674809314084,-0.23578223097574885,-15.710974709259514,0.7644157387936252,-0.9959641101888738,-0.011984029886049819,0.819384106002342,-0.2975658890105243,1,right
16.829,0.19910972286114975,1.0195459602842867,-0.20361190003742555,-15.814453268362797,0.734276016010612,-1.00245483372596,-0.01192939494051516,0.8155400544511235,-0.2972840960579374,1,right
16.831,0.23761227165011556,1.025684812454172,-0.1716354769492759,-15.724749921348272,0.7540823472105583,-0.9963962810550726,-0.011721431504120926,0.830412858023984,-0.3002561803886822,1,right
16.835,0.26596183447268185,1.0289839191991474,-0.142334266732146,-15.8017034437685,0.7461502455203568,-1.0022134434881385,-0.012212744385659325,0.8032921965869189,-0.2943337141025858,1,right
16.836,0.2873290899503842,1.0285935299489837,-0.10689164629251426,-15.731996739434232,0.7448371408899019,-0.9963622495678653,-0.011543777962940548,0.8379499801715604,-0.3020863214883238,1,right
16.839000000000002,0.3022752551929586,1.023255538364639,-0.06672544744672304,-15.789804606357777,0.7510471231256836,-1.0015656520837166,-0.012118398140348607,0.8090866879801291,-0.29555180410709514,1,right
16.840999999999998,0.3123327658198247,1.0129726286215837,-0.03017226275823426,-15.76746763517212,0.7442335181114799,-0.9992522294351793,-0.012077941656124087,0.8097584951345036,-0.2958243940491301,1,right
16.844,0.31917672009280695,0.9979437141415658,0.004102596398357553,-15.713812863236692,0.748388970274254,-0.9951028366893334,-0.011048463853473342,0.8650856066873216,-0.308029558004816,1,right
16.845,0.3234230212900999,0.9833531296107277,0.02905232033348007,-15.885168087309959,0.7487042962831884,-1.0092871957544265,-0.013614887270980806,0.7292574463970013,-0.2778927808417624,1,right
16.848,0.3154812033522303,0.9743832595879073,0.03798977112572205,-15.582382040247742,0.7437488328581507,-0.983920559275215,-0.00934590906390088,0.9544054951494385,-0.32791236208391583,1,right
16.849,0.30280377712023754,0.9709126559425714,0.04016095201300657,-15.965771002374039,0.7516864167161942,-1.0161555371423512,-0.014981813321930956,0.6574602674582577,-0.261919027546684,1,right
16.852999999999998,0.29983231590469617,0.9707756301603712,0.039618208128021706,-15.647980228590757,0.7443954618698414,-0.989384666334573,-0.03861794712109458,-0.5890621975645114,0.0150196892732372,1,right
16.855,0.28414720772199425,0.9726589034444311,0.033075263325021476,-15.653067655760045,0.7456155426276261,-0.9898947943500622,-0.0442553343262936,-0.8859977693216198,0.08101305480987198,1,right
16.855,0.2573468069583048,0.9792479162196539,0.028417477048871022,-16.268379055141793,0.7567965030251662,-1.0415135946271876,-0.03998156991079193,-0.6608755798449794,0.030983820696003864,1,right
16.858,0.23982004025239886,0.9895610992848632,0.026854016367706686,-14.761098337470195,0.7278378821393238,-0.9149474691818182,-0.04255865296902457,-0.7966531231358582,0.061154657042768346,1,right
16.859,0.21919038132215374,1.0010544409136595,0.021098735002165414,-17.258325406950043,0.7764075447687984,-1.1246889837821326,-0.041511263371118254,-0.7414039008617911,0.04887936168934116,1,right
16.865,0.2045396491257035,1.0094458692462318,0.017576923460198107,-13.965184990006758,0.7121461885889642,-0.8480750908749242,-0.04149382470744113,-0.7406396909367752,0.04871074211564114,1,right
16.867,0.20129455966334703,1.0106408634603783,0.016095110911402158,-0.1396109155231149,0.4431539497172728,0.31307056791166565,-0.0420478688505767,-0.7695752749982088,0.055133756468342655,1,right
16.867,0.18900502808145941,1.0134277446400062,0.0063302023293356135,3.1534250528099435,0.37886553509012266,0.5896932678184181,-0.04138386950898322,-0.7349206935823633,0.0474452556672829,1,right
16.868,0.17342311339119715,1.0187327214221265,-0.01334266174001831,0.6567181752999484,0.42758317464174145,0.3799677486279385,-0.04190186373383902,-0.7619003474412158,0.05342720216472053,1,right
16.869,0.1586435786584225,1.0187177977832311,-0.040427100901257354,2.162599611426838,0.39821524445064815,0.5064398433421621,-0.0416232161484625,-0.7473465280106733,0.05019927690896775,1,right
16.873,0.1407699229930566,1.0152276583144846,-0.06748210001296623,1.5498867208462017,0.4101658808666543,0.45503903250220634,-0.04168200949551501,-0.7507165402879102,0.050959761258676295,1,right
16.873,0.12661153949382056,1.0083702924546736,-0.09296199947605699,1.541194658081129,0.41030897118390025,0.45418438724155935,-0.04176916997138244,-0.7544520659114635,0.051751414607838254,1,right
16.878,0.11489480706583431,1.0003271824925244,-0.12077761215185545,1.862563428259253,0.4040985969390001,0.48134953823940796,-0.0416185823111274,-0.7479851184835904,0.050381133844162145,1,right
16.879,0.10339271470003272,0.995033452303178,-0.14511270342527327,1.4775979826673349,0.41153923314745733,0.4488464585323559,-0.04176661755669447,-0.7539888372699282,0.05163300213865757,1,right
16.883,0.093053854933428,0.9903224499545668,-0.16551846764450714,1.7773754885060142,0.40572285593768376,0.47409754937598186,-0.04166374176989772,-0.7499981454924878,0.050811906990092776,1,right
16.884,0.08284286996416562,0.9848991801091806,-0.18507678406650513,1.6158737912180987,0.40894274740715036,0.46067621305236384,-0.041698420612971174,-0.7518398368938728,0.05122171543565466,1,right
16.887,0.07373016197258059,0.9778331713445383,-0.20068065777569027,1.652410497812557,0.40800460562125057,0.46328431917354507,-0.04174113995941027,-0.7514349815054944,0.051009757318421264,1,right
16.887999999999998,0.06622017464759482,0.9698311935499122,-0.21330023219832633,1.6959408749033116,0.4075473788637255,0.46773305656682873,-0.04162436643301994,-0.7513481513342222,0.05126934878761395,1,right
16.892,0.05951212483690294,0.9618639071586118,-0.22390533388506115,1.6209403986905344,0.40852680034729094,0.46046177375649777,-0.04179407743293112,-0.7512427161578259,0.050829822790340234,1,right
16.893,0.05466721236946301,0.9550308303373868,-0.2325798436507674,1.6911800287253427,0.4075433497538159,0.4671357909374855,-0.04161910635983576,-0.7516669319934883,0.05136765402686454,1,right
16.898,0.05244157929561324,0.9479144844013306,-0.2416519725857139,1.644562819060668,0.40845635107349,0.4632272671615728,-0.04172023678261136,-0.7514252013862817,0.05105771431820795,1,right
16.899,0.049771794894580605,0.939012358873256,-0.24980900998814912,1.6636836610600283,0.4073632356925833,0.4633964710641166,-0.04179437756142863,-0.7505250534889247,0.05063656164037733,1,right
16.903,0.046780590303674964,0.9338185050675091,-0.2569200187940416,1.6665167833044707,0.4089543594577486,0.46691769396470184,-0.041453102569099606,-0.7535689098921631,0.05228018790711199,1,right
16.903,0.045897561522737315,0.9281088063874396,-0.26336893596417443,1.6511445683563637,0.4067974160268044,0.46072866794212547,-0.04208676585176316,-0.7479686570500994,0.04924219368763866,1,right
16.908,0.04572460619277642,0.9207910411232934,-0.2659378586585932,1.6696083595558031,0.40905669515857757,0.46750060939788324,-0.04127427646329649,-0.7552169746253312,0.053155642615476895,1,right
16.909000000000002,0.04789881613779749,0.9193397109393568,-0.2660261189217865,1.6556618832173604,0.40781504666677787,0.46331255204965316,-0.04195197824285507,-0.7491396359499468,0.04988304073059174,1,right
16.913,0.05068996755189359,0.9198238803637058,-0.26637684994350297,1.6598747235411593,0.4064281000473995,0.46106570688821363,-0.04193250419255863,-0.7492312694074552,0.049954639504500714,1,right
16.914,0.05147751749444206,0.9214253300339983,-0.2671259838479677,1.6680129861634696,0.41198009967264637,0.47313053222977586,-0.040645555778155894,-0.7611301156061618,0.05626574611547515,1,right
16.917,0.05458030505673783,0.9235381393290903,-0.26697348206486193,1.6481230878429587,0.40177713539333726,0.45035350278712416,-0.04380925791826155,-0.7319395444789025,0.04076770948894539,1,right
16.918,0.05700263023010406,0.9257662990610187,-0.2646448208144274,1.6747399860540955,0.41485750906078855,0.47969057635472095,-0.038564177871214154,-0.78034391024152,0.06646407775118525,1,right
16.921,0.05638840825095441,0.9297381406035741,-0.2633653910580154,1.652081668262103,0.4039455654170502,0.45516210137791724,-0.045481695693028096,-0.7164815033072973,0.03256807292698535,1,right
16.922,0.05581889795714001,0.931139430806291,-0.26237347246037973,1.6543695820133326,0.4042088960338943,0.4559660087522248,-0.07451863538094788,-0.448225463847692,-0.10976715224623272,1,right
16.923,0.055432729660971014,0.9330424327978578,-0.26056116973514537,1.6920833163844922,0.4251214181685654,0.5022771970490478,-0.08143503221961215,-0.3843376527356568,-0.14366678676673306,1,right
16.927,0.05366450429621793,0.9378172754783995,-0.2586821987186251,1.597411957869931,0.3737581790951272,0.38828534906006973,-0.0761914211329538,-0.4327829851832209,-0.11796349395566771,1,right
16.928,0.04902249431076447,0.9446698168372356,-0.255889868119348,1.7548933494474057,0.45891183166453586,0.577331036929547,-0.07935467733298755,-0.40355511764794905,-0.133470654030185,1,right
16.930999999999997,0.04723264176326479,0.9498898953102964,-0.2557763416449028,1.5471318735994481,0.3465944054342195,0.3279779996701266,-0.07806557615820131,-0.4154612324182697,-0.1271506859629223,1,right
16.932000000000002,0.04675846341388083,0.950660839042814,-0.2556064075308243,0.6775057325000376,-0.12489259981621123,-0.718483666340849,-0.07805198353961801,-0.41560299215376983,-0.12708353100867015,1,right
16.933,0.04104654705791967,0.9555448949571336,-0.2512640849937477,0.4699446830865301,-0.23721582970522787,-0.9678185003981404,-0.07872025214577331,-0.4094011281964691,-0.13036146886278605,1,right
16.937,0.036952800553465254,0.9618878748784682,-0.24379203455119453,0.6272092725608981,-0.15205588361548006,-0.7787925043069317,-0.07791840588274997,-0.4168392207815926,-0.1264280818578559,1,right
16.938,0.036783812763929294,0.9648351356007452,-0.2346785946841022,0.5324552762721626,-0.2034167853183,-0.8927918530517914,-0.07854515616326191,-0.41103493711867445,-0.1295018377934246,1,right
16.941,0.036798245951831635,0.9684538681743422,-0.22552733960089882,0.5708886536725837,-0.18252498707535628,-0.8464153145628078,-0.0782000894710423,-0.4141972992513009,-0.12781274927144254,1,right
16.942,0.037829956970961365,0.9695317544355071,-0.2128345329605099,0.5716283906841249,-0.18221699645033088,-0.8457520021811912,-0.07829564367201933,-0.4133996055205956,-0.12827268967774147,1,right
16.947,0.03912080282357104,0.9675812422697596,-0.19815748886368922,0.5511896631813386,-0.19319302947656286,-0.8700789038325822,-0.07835465622616719,-0.41270650709332135,-0.1285769051007073,1,right
16.947,0.03894836302316858,0.9658491042719112,-0.18588047417665865,0.5755965387808594,-0.18004876622089466,-0.8409425410328897,-0.07823691810710987,-0.41397645408653594,-0.12798122058119202,1,right
16.952,0.036971294767894,0.9647360095722396,-0.17568423399521818,0.5566598044316816,-0.19027942754362415,-0.8636329938596428,-0.07835272094334905,-0.41276099047837345,-0.12856376213257098,1,right
16.953,0.034806005370994916,0.9637979699834034,-0.16619022840236036,0.5666968068415743,-0.18478199141425194,-0.8513957550793856,-0.07825452171287717,-0.4136671903060909,-0.12808244884382944,1,right
16.956,0.03293293681035898,0.9628258374106942,-0.1571870975497436,0.5647949499639793,-0.1859926592202274,-0.8541978867029569,-0.07835357560405594,-0.4130219053676398,-0.12854048267173676,1,right
16.957,0.030509604257540655,0.9643010816408797,-0.151151900147309,0.5613834034374456,-0.18753833566189476,-0.8574292219720557,-0.07822493479805454,-0.4135931650806465,-0.12797295638346956,1,right
16.961,0.03135507417219625,0.9688222666437202,-0.14646394886398484,0.5669192037180915,-0.18490562767631705,-0.8518313548510053,-0.07839343986843247,-0.4129575239580544,-0.12870476552861498,1,right
16.962,0.03648471675591431,0.9746035072484542,-0.14577438279300173,0.561852297237707,-0.1873607503386713,-0.8570844472221707,-0.07821816643005737,-0.41359458695068146,-0.1279460986915194,1,right
16.965999999999998,0.04027639559996543,0.9826185764942996,-0.15070831757725076,0.5647807349304956,-0.1857712160188511,-0.8535546645614333,-0.0783125591769582,-0.41329043447293057,-0.12835059153211836,1,right
16.967,0.04514347801974129,0.9931112212121993,-0.154661817677685,0.5647696643476079,-0.18631343987436283,-0.8551228090058944,-0.07842801576918884,-0.4127122158903992,-0.12886678087049397,1,right
16.971,0.05365565124022234,1.0036193347480942,-0.15698410647935562,0.5618689333575159,-0.1866613442366491,-0.8550613110782954,-0.0779785143583879,-0.41472497662703267,-0.12688205164811944,1,right
16.972,0.06067522785963918,1.0115622224860115,-0.15752730816847915,0.5668957199264111,-0.18576218050007123,-0.85430960385327,-0.07880205531472778,-0.4110862470719717,-0.13051305557501341,1,right
16.976,0.07216638048444324,1.0154886862897676,-0.15901238808342352,0.5614075390687581,-0.18679156012280537,-0.8552679504361629,-0.07774683827746216,-0.41573681612689556,-0.12586205332284328,1,right
16.977,0.08912397086923735,1.0190677928575025,-0.16367563602583968,0.564784660386215,-0.18608490127199026,-0.854466124407395,-0.07862688694634432,-0.4118639707595383,-0.12974001906795352,1,right
16.980999999999998,0.10630129150186303,1.019924741418726,-0.16867191550888477,0.5666734053650913,-0.1860297558595617,-0.8550040002729553,-0.07860653980380428,-0.411933540357137,-0.12965326866931426,1,right
16.980999999999998,0.1256165470001641,1.0143190070357995,-0.1773287771124677,0.5567343133807687,-0.18717807915389062,-0.8546617613198902,-0.07691703739419124,-0.41943143629290347,-0.12219990741928405,1,right
16.986,0.14707274302839277,1.0090445133192758,-0.19097925487093342,0.5754682944906138,-0.18488465847889352,-0.8549333689600542,-0.08106556868350859,-0.40104644668807077,-0.14049705193960177,1,right
16.986,0.178178202195522,1.0043076034096683,-0.20872766140803048,0.5513451123759942,-0.18786647811035878,-0.8546660747285967,-0.0741881206510688,-0.431515430499517,-0.11016631108198072,1,right
16.991,0.20072895198475119,1.0024704094683035,-0.2236204993598122,0.5715122417474312,-0.18536188413919052,-0.854856217167538,-0.08325941687908406,-0.39133211091587033,-0.15017045317208233,1,right
16.992,0.20690002371539495,1.0008531212706409,-0.22784882661453598,0.5708597753447144,-0.18548750675816722,-0.8549776877313526,-0.1213404118488437,-0.22256690080702712,-0.3181296670429218,1,right
16.993,0.23160542454101218,0.992576038942157,-0.23583396337423684,0.5327538383232053,-0.190074283786902,-0.8541997721357129,-0.13041225836551992,-0.18238675667670168,-0.3581334227503362,1,right
16.996,0.2673237195403738,0.9834575123725191,-0.24806488992481446,0.6265403382622927,-0.17873167000779633,-0.855962562622583,-0.12353421456848532,-0.21285230186538454,-0.32780310082084896,1,right
16.996,0.2964378803675122,0.9663555654998046,-0.2414031074114084,0.47100382765676385,-0.19755693192965762,-0.8530782981188325,-0.12768252079282416,-0.1944660161727583,-0.34610040119215113,1,right
17.0,0.3149460103670882,0.9511217007087086,-0.22932797954912754,0.6761608580456281,-0.17272357061708538,-0.8568794642157824,-0.1259949904661859,-0.20197528658539093,-0.3386456597418398,1,right
17.000999999999998,0.3191272894478412,0.9473007420588222,-0.22424956872451662,1.5371411381593343,-0.06857538660588039,-0.8730157880108425,-0.12597039824619027,-0.20202036798582898,-0.3385618833456717,1,right
17.002,0.3277419483649512,0.9290657830147718,-0.2021975863680057,1.7422926049172398,-0.04374489822638668,-0.8768320932463136,-0.12685653500952845,-0.19818264539301786,-0.34243558151005515,1,right
17.004,0.33141713497263803,0.901624960460572,-0.17116341173880129,1.5867583269111205,-0.06256917895935067,-0.8739319523195492,-0.1257952536085813,-0.2027982249179542,-0.33778883320563147,1,right
17.005,0.3153673093294061,0.8809302195259447,-0.14945524670535504,1.6805605294709363,-0.051217848626483715,-0.875686731036862,-0.12662141473935234,-0.19917461976716852,-0.34141799359541003,1,right
17.01,0.2884843629373628,0.8611172786257552,-0.13233731488908426,1.6424069727033304,-0.05583046901708674,-0.8749668219267002,-0.12617711277183405,-0.20121736404367413,-0.33942962997950293,1,right
17.011,0.2516309724681257,0.8445045393580604,-0.12616941381672875,1.6418384922932625,-0.05591086338161827,-0.8749659387556779,-0.12627580660231041,-0.20054245295046796,-0.33995755855670373,1,right
17.016,0.20721510478124788,0.833894989795285,-0.13297426631200504,1.6618999936995331,-0.05346280932990076,-0.8753295464238713,-0.1263990901837005,-0.20040496654881945,-0.34034180612248927,1,right
17.016,0.15789033202277125,0.8288522359289793,-0.1454724566511462,1.637863518760987,-0.05639870531057706,-0.8748919718775223,-0.12618835206835427,-0.20083742391684556,-0.3396080044999187,1,right
17.02,0.10472492669972568,0.8278123602002496,-0.1604299216822453,1.6565943989446195,-0.05410582661903694,-0.8752324934928593,-0.12638514380168006,-0.20036500064861368,-0.3403199612491379,1,right
17.021,0.053464813692290024,0.8330438735849445,-0.17460747887416017,1.646501784614993,-0.055337997284718825,-0.8750469813660642,-0.12625672628518064,-0.20093749315598503,-0.3397523239632888,1,right
17.024,0.004414531163834478,0.8480283568240775,-0.19080124972513163,1.6487490544697891,-0.05508915636667887,-0.8750980685258601,-0.12630335363967488,-0.19998982750963856,-0.340247047413642,1,right
17.025,-0.04511972638108645,0.8662564328536237,-0.20766093525302093,1.6515856253819075,-0.05467287720086872,-0.875124741891613,-0.1263250187190607,-0.20158747034592772,-0.3396817664882975,1,right
17.03,-0.08951644259799241,0.8845936812621896,-0.21681683367750995,1.6466788697260604,-0.055391929205757945,-0.8750772027923469,-0.1262619615831846,-0.1993401628952416,-0.3403896701459469,1,right
17.03,-0.12963889699286546,0.9063276402381846,-0.22422430082001832,1.6513645270372201,-0.05467141394753516,-0.8751111712984234,-0.1263349438178786,-0.20171047699181258,-0.3396602287483228,1,right
17.035,-0.1731401717391799,0.931183995472975,-0.23935160620599585,1.648179028326937,-0.055179160156053085,-0.8750941086014117,-0.12628367167083754,-0.2003809139292814,-0.3400419298338606,1,right
17.035999999999998,-0.21507960065303705,0.9583626111240686,-0.25585014840515574,1.6494471872202794,-0.05502689046987641,-0.8751183870221179,-0.12628442801566842,-0.1990366798073805,-0.340568033693037,1,right
17.04,-0.2522310583633188,0.9858350244794001,-0.270164276228237,1.6499633808743064,-0.05473734630134554,-0.875048924996761,-0.12635481060104453,-0.2045953916386985,-0.33858805632056643,1,right
17.041,-0.2875027328164712,1.0099380011703518,-0.2850858276527425,1.6480850896722155,-0.055483430382659876,-0.8751942664654344,-0.12621086958217298,-0.19434522396040477,-0.3422018171794896,1,right
17.043,-0.3198562514112949,1.0327841466480245,-0.29616101366598535,1.6507246009781622,-0.05439014241899266,-0.8749745692240176,-0.12639886343547418,-0.20749384268773477,-0.337574497759495,1,right
17.045,-0.3474419458847823,1.0551367291441882,-0.3016024724423868,1.64812637382538,-0.05552949731495576,-0.8752127227434664,-0.12624041997173274,-0.19652196231259533,-0.3414325462963598,1,right
17.049,-0.3736697003101841,1.0743783664171807,-0.2937150148781248,1.6496298441622756,-0.054870928768255375,-0.8750751946584772,-0.12625000065743464,-0.19679872972660475,-0.34134789884592975,1,right
17.05,-0.39850325137877524,1.091563844882074,-0.2720549034980291,1.6504483189445658,-0.05436097093841541,-0.8749476557333105,-0.12653536571604265,-0.2177863453895962,-0.3339260288894952,1,right
17.054000000000002,-0.419015740423357,1.1055664335925897,-0.2494931101526646,1.646248259295424,-0.056667480127447975,-0.8754941379659327,-0.12582715704808106,-0.16622499019492787,-0.352145226789022,1,right
17.055,-0.44090624852457483,1.1141907760408083,-0.21577848400755434,1.6540679332642254,-0.05238636600246448,-0.8744812903217143,-0.12700385198645506,-0.2517101874114354,-0.3219423095028692,1,right
17.059,-0.4537652878860481,1.1179050064278302,-0.18803559600286152,1.6440667024347908,-0.05787870093230705,-0.8757825801804298,-0.12545062601536733,-0.1389558096868213,-0.361780150409889,1,right
17.06,-0.4577513119397878,1.1182087362577344,-0.18203762466979503,1.6523985017170473,-0.05329562136953499,-0.8746958065641541,-0.1189497490924525,0.3343548075740845,-0.5290186143420321,1,right
17.06,-0.466334363464628,1.1137964315144995,-0.1541950857198413,1.6521214279621577,-0.05342577029571763,-0.874724475642001,-0.1173953181116362,0.4471124041700727,-0.5688604235786929,1,right
17.063,-0.4698808834110056,1.104475275944397,-0.11596525402980785,1.6364528455864538,-0.06213872769876175,-0.8768001777599798,-0.11857331678096691,0.36162372594081005,-0.5386532120757033,1,right
17.065,-0.4664195090441493,1.0911363162051493,-0.09304910786857346,1.6750032821446015,-0.04071880628853382,-0.8716988430789239,-0.1178656040047288,0.4131837509395089,-0.556870779667775,1,right
17.067999999999998,-0.4475620025387681,1.07076663975052,-0.0570359777978976,1.611091059425248,-0.07623332414186426,-0.880157019806084,-0.11814664435359516,0.39220769905958575,-0.5494631461259262,1,right
17.069000000000003,-0.42637843588183855,1.0565755538371673,-0.03146003067520027,1.6953701029414168,-0.029391953838962474,-0.8690012333758563,-0.11816553014123891,0.3919060585022861,-0.5493478636191703,1,right
17.07,-0.417782541789394,1.053651966818546,-0.0272302703921573,2.048750553838431,0.16719356022457127,-0.8221974046958898,-0.11799374509513211,0.40291359567614315,-0.5532498395032139,1,right
17.074,-0.3825330485347592,1.0459425871768604,-0.004406133815977582,2.1329451837789226,0.21402851800935757,-0.811047483229103,-0.11819502432302886,0.3897294780155718,-0.5485787739996244,1,right
17.075,-0.3248476405699537,1.0393271363931107,0.022021593147045937,2.0692048174114186,0.17852652255060608,-0.8194926695871778,-0.11804535101720443,0.3999949483467614,-0.5522114171931403,1,right
17.078,-0.2655530768745975,1.0384115830573792,0.035420465262340994,2.10750476268039,0.19992930231411704,-0.8144124578295555,-0.11810432505085575,0.3944667532313465,-0.5502689896349311,1,right
17.079,-0.19340953300934685,1.0404924519310312,0.04479559942434322,2.0921212547398675,0.19123411036896792,-0.8164606860171326,-0.11814183104893469,0.3957127420389857,-0.5506741086463433,1,right
17.084,-0.11854457255279244,1.0510279588166207,0.042839761709350735,2.091623638428751,0.1910929795273361,-0.8165160532483862,-0.11802723797640657,0.3972115532388712,-0.551264286699322,1,right
17.085,-0.04473710337464043,1.0639579096586174,0.03314268709905885,2.0999571533160504,0.1956699944948483,-0.815416951255661,-0.11817793057620982,0.3946335639242745,-0.5502789758706719,1,right
17.088,0.030664397268941573,1.0777470045911022,0.021462772398826376,2.0903470361633345,0.19021094111837505,-0.8166981036416828,-0.1180529194233006,0.39704638825989413,-0.5511908947399056,1,right
17.089000000000002,0.10806040352451846,1.0901817374427893,0.011815116119115643,2.0972685245342455,0.19442710810729086,-0.8157541331842144,-0.11807403137798363,0.39545033974877075,-0.5506273772813218,1,right
17.093,0.19231066166802235,1.0947625134636347,0.010232516444894459,2.0944133307825714,0.19220858074318262,-0.8161792259100487,-0.1182356313480564,0.39609057612637805,-0.5507436277241246,1,right
17.094,0.273545075493601,1.0939497476884834,0.01172846962832188,2.0937912429697194,0.19263566172708502,-0.8162041138868928,-0.11784446500954901,0.3962204452889595,-0.5510410262565952,1,right
17.098,0.34420541717178754,1.087118817985754,0.010028433718647903,2.096135021407429,0.19332317068998553,-0.8159394312586358,-0.11843323382792921,0.39564523258739526,-0.5504624106025486,1,right
17.099,0.3974008104960957,1.0778473565022932,0.004502668253275388,2.0942496713299206,0.19226924627247,-0.8161896964481397,-0.11780464059578094,0.39632936747906344,-0.5511044873582202,1,right
17.102999999999998,0.4240241681848096,1.0685486166815048,0.0010397464929657561,2.093714064468559,0.19311367172019017,-0.8161754986081828,-0.11816935485525668,0.39582205819103866,-0.5506935955172598,1,right
17.104,0.42805538396242615,1.0583223450645114,-0.0007004632705312002,2.0978108696899858,0.19278161669314586,-0.8158271185972643,-0.11847619014709576,0.3959399636405987,-0.5505365761553327,1,right
17.108,0.4088877884502576,1.0500571659801785,-0.006460651638551663,2.090441908021841,0.19257778061587688,-0.8165136613265385,-0.11712100792857072,0.39633247079033906,-0.551546887291432,1,right
17.108,0.3712018243022849,1.040456397826285,-0.01194597085005957,2.098851684006964,0.1931032161147268,-0.8157079971803463,-0.1196363869413699,0.3954409040780449,-0.5496145512356472,1,right
17.112000000000002,0.32678226543959243,1.0330520644433876,-0.01397706699287942,2.0937084882657193,0.19264201898533448,-0.8162117684572159,-0.11640608519666272,0.3966220072033644,-0.5521094596740301,1,right
17.113,0.2771240892853062,1.0288978291470117,-0.01926640406273423,2.0898746921679825,0.1925767756163128,-0.8165645979005867,-0.11910300262248466,0.3956218641110424,-0.5500203224071736,1,right
17.118,0.22824960008345865,1.0205678151213557,-0.028324081537385887,2.1079190786777273,0.19356378537594487,-0.8148485739179621,-0.11902945728864245,0.39570426410360093,-0.5500993911602221,1,right
17.119,0.18796560989847644,1.014806788177979,-0.03298019636085298,2.07408538518649,0.19152852016134675,-0.8180817510274507,-0.11388899277573725,0.3974281302990531,-0.5540110958829366,1,right
17.122,0.15123385093926062,1.0106565515903063,-0.03456133907408894,2.1176959809753164,0.1942334309321725,-0.8139063889790652,-0.12652407050362433,0.3931275044985531,-0.5443681236157825,1,right
17.123,0.11169476199925943,1.0011941270491351,-0.03661300448094532,2.081212320216177,0.19193491810003552,-0.8174047465775205,-0.10557466147947978,0.40027257781042624,-0.5603662800453514,1,right
17.127,0.08775780360121177,0.9958191138330709,-0.03816188061673126,2.082273674604812,0.19203447115579442,-0.8172943030380788,-0.1332064787166823,0.39084985465137306,-0.5392607579367072,1,right
17.128,0.08197038201587364,0.9943791660697153,-0.03820624072293549,2.1516962940660904,0.19634597054767347,-0.8106570724905557,-0.24919373170885778,0.35134639018954067,-0.45074031718721236,1,right
17.129,0.06419240180707592,0.9895321624466322,-0.036844955730148496,1.9809284016374773,0.18568098794962357,-0.8270006200549114,-0.2768248729773332,0.34193573017121287,-0.4296313410328659,1,right
17.132,0.03984374448957566,0.9828954770824536,-0.042963459818404146,2.26414198077903,0.20339866277997304,-0.7998834809518158,-0.25587619525749933,0.3490677523565251,-0.44563323572888014,1,right
17.133,0.029470039208121843,0.9779259776774429,-0.05041544520529073,1.8905382415964422,0.1800090906012046,-0.8356662371544683,-0.268511551317927,0.3447621612260534,-0.43599168047571957,1,right
17.137,0.0263524123379361,0.9767771074044379,-0.0529239780076871,0.3225761690453651,0.08189583506130362,-0.9857270489679743,-0.2633686604741929,0.346529323485504,-0.4398909979262189,1,right
17.137999999999998,0.020972592227999787,0.9759601947777264,-0.06859290478095995,-0.05107746196065102,0.05848843748067932,-1.0215318500425512,-0.263300335452726,0.34651856854078356,-0.43999672537289414,1,right
17.139,0.01618558303484932,0.9771762204171408,-0.09446381111914365,0.2322061463927368,0.07623432732269894,-0.9943887326805787,-0.26598976820578335,0.34565198911640155,-0.43786936021432454,1,right
17.142,0.017714877413972027,0.9832854297262303,-0.11985577689729468,0.06140193620065085,0.06554505262774159,-1.0107307433553658,-0.2627669193884469,0.34670009271376145,-0.44040234156854324,1,right
17.144000000000002,0.025826367570032836,0.9905278541581565,-0.14914538314496295,0.13076269793557016,0.06985778145755014,-1.004157096123837,-0.2652790830554399,0.3458659090990214,-0.4384535667734145,1,right
17.148,0.042451755044072656,1.0021606776940344,-0.17890823869990147,0.1320354409457668,0.06999824779218716,-1.0038994683010312,-0.26391749987397695,0.3463726331129168,-0.43943120955319553,1,right
17.148,0.06490892567166721,1.0165979421708866,-0.20785429680621137,0.09518601073011444,0.06760620120739833,-1.007617165786093,-0.2642449526217572,0.3461226295263913,-0.4393794674579504,1,right
17.152,0.08584083442171521,1.0264589712347756,-0.23361507978916013,0.13923912715020648,0.07044780879679463,-1.0032130106739539,-0.2645741431797509,0.34624923423628534,-0.43878715384221795,1,right
17.153,0.10442891288399518,1.0325744753178503,-0.24724838972113836,0.10506911903158933,0.06827268241667613,-1.0065641751806598,-0.26398914532941253,0.3461554069705991,-0.4396519067547413,1,right
17.156,0.12226803609429675,1.0334180998208855,-0.24766931920920743,0.12306847255844616,0.06932866556501822,-1.0050002236424556,-0.26454315946609186,0.3462004093367633,-0.43889572387179976,1,right
17.157,0.1389702997286682,1.0255467474663056,-0.23862683753577094,0.11995604462307592,0.06936186523182539,-1.004786805000494,-0.26415167957324587,0.34633583773270854,-0.43919162987221916,1,right
17.160999999999998,0.15166616306357789,1.0081304243278972,-0.2237689266959021,0.11324266680375868,0.06854899052049468,-1.0063096153932636,-0.2643777838578123,0.34582504512049644,-0.4396371919668619,1,right
17.160999999999998,0.16080759374362646,0.9804771036912427,-0.2085349046206508,0.12392710106159574,0.06969943745454943,-1.0042072589690565,-0.26425148893404404,0.34685942238217043,-0.43832092490337954,1,right
17.166,0.16961366310666592,0.9500811259261415,-0.19817015220063694,0.11422502511627161,0.06870820781297798,-1.0059964583528354,-0.2643463793873343,0.3453481254586048,-0.44035595436664715,1,right
17.167,0.17417824088750591,0.9213411706632708,-0.19210583834239542,0.11949788354655982,0.06903499758375282,-1.0054992821386075,-0.2642626582900821,0.34695328583300494,-0.43817322136092474,1,right
17.171,0.1697104357682918,0.890746675019805,-0.1843574318118239,0.12054505059880086,0.06981240351205623,-1.0038028982471956,-0.26428349660899725,0.34603520006829147,-0.4394555334144462,1,right
17.172,0.15580818801481475,0.8635192681711555,-0.175514462083097,0.11287415863934075,0.06770526935008762,-1.0081849021455116,-0.2644377897034579,0.34519733148632276,-0.44045647231215335,1,right
17.176,0.13190127811672897,0.8410165138051164,-0.1678845240801952,0.12558167601385525,0.07092795301297336,-1.0015267002025967,-0.26398573609461873,0.34878818783287935,-0.4359047299344037,1,right
17.177,0.0995056246836969,0.8196104771387387,-0.15427641040091006,0.11179992293428945,0.06747765055628467,-1.008647104004385,-0.2647837307805347,0.34214265670104277,-0.4443770974705584,1,right
17.18,0.06093951173811319,0.8019904106047748,-0.13224773871179588,0.12013469842454158,0.06949474517589206,-1.0044971272891567,-0.2637681981024659,0.3506727278065127,-0.43349085624314027,1,right
17.180999999999997,0.020592324732973448,0.7876353496091013,-0.1012894919574069,0.12547807397851046,0.07111746241544004,-1.0010967894505456,-0.2646122044042069,0.3435527057965243,-0.4425826725389823,1,right
17.185,-0.02264825736823385,0.777629085680961,-0.06020692510652327,0.09907900693603774,0.06382536757352597,-1.0162683726490416,-0.26460375417227555,0.3437404979588208,-0.44232431575134834,1,right
17.187,-0.06626613460494164,0.7705009619159044,-0.01971143152968055,0.14858014889506516,0.07738333244899075,-0.9880798316749743,-0.26294748723804756,0.35733297523489793,-0.4250270239471501,1,right
17.191,-0.10666727307469469,0.7684276068479009,0.015256989307154339,0.08489641251551738,0.05996597721948457,-1.0242875827637024,-0.26700115349461195,0.32393023877812116,-0.4675572834198233,1,right
17.192,-0.15698471081875415,0.7811523461012276,0.04084695046130891,0.13811194992158787,0.07451083881834517,-0.9940539373586523,-0.2602847204009253,0.37931185858339345,-0.39703490641105177,1,right
17.195999999999998,-0.19024171734579043,0.7957736278313272,0.04958061729084884,0.13648246419708016,0.07410328406131764,-0.9948924052182795,-0.26914297632580314,0.3062640483139638,-0.4900553248264437,1,right
17.195999999999998,-0.19747960954461957,0.8016614798347481,0.051705440857485324,0.035632105796120694,0.04641276757178609,-1.0524776842357926,-0.3063564363727117,-0.0003638488064853923,-0.8804452247262875,1,right
17.197,-0.22272094784161292,0.822138781585344,0.05859510523258661,0.2837323199895244,0.11449098889550186,-0.9109144054670362,-0.3152168955770108,-0.07341239381620235,-0.9734625231843866,1,right
17.2,-0.24031992861098828,0.8671277636405688,0.06920424198139705,-0.1276859191166479,0.0016067722018859865,-1.1456421226035833,-0.30849666658192815,-0.0180295605617251,-0.9029495631827489,1,right
17.201,-0.23511134949200974,0.8977901093186575,0.07511307532718892,0.414976393954729,0.1505056297128285,-0.8360320905543989,-0.3125544278888986,-0.05143347704502173,-0.9454597076373588,1,right
17.205,-0.23412787065143073,0.9065867585479905,0.0797602414539558,2.6925311512046366,0.7754904079223354,0.46352820428828245,-0.3108957567925864,-0.0378405806170448,-0.9281953345181877,1,right
17.206,-0.21778854620700505,0.9379784589996252,0.09408998822586903,3.2351692289085614,0.9244045920136953,0.7731534202049654,-0.3108855907521141,-0.03765164869451845,-0.9278956210362508,1,right
17.206,-0.1830983147609442,0.9828664907735882,0.10892785732336785,2.8237771974158727,0.8114922069568842,0.5383972352990466,-0.3117375723127478,-0.044774939430292246,-0.9370231388429431,1,right
17.21,-0.1405357160594614,1.0144984544860223,0.12112478447420372,3.071887432011912,0.8796051593225938,0.6799969112458693,-0.31070720903148485,-0.03623957166526932,-0.926130819413832,1,right
17.211,-0.08870781199741226,1.041993666252027,0.13151418610134472,2.9709499975153726,0.8518850449989634,0.622378208398936,-0.3115243952728143,-0.042891179544785676,-0.9345510793229663,1,right
17.215,-0.033997266511632936,1.0630251643114104,0.13325030424733442,2.9695078012042098,0.8514846525324364,0.6215529210608316,-0.31105560011954136,-0.039296135367934824,-0.9301306677655259,1,right
17.215,0.0243896814042512,1.0750889946207483,0.13030715205259924,3.022454856277921,0.8660644984957446,0.6518146944497897,-0.31121311112359196,-0.04013246464010532,-0.9309255134786752,1,right
17.22,0.08466224571352046,1.0798528783195236,0.12235033449825561,2.95903840645796,0.8485557757383773,0.615520189115952,-0.3112571947591072,-0.041061735263930435,-0.9324397597473585,1,right
17.221,0.14356923419811995,1.076569445630751,0.1085175209087178,3.008424341440572,0.8622581472769799,0.6438552582998573,-0.3111143689816813,-0.039433786104878285,-0.9301032034276566,1,right
17.225,0.19779919150652986,1.0687879903644304,0.0937353357675772,2.9817954706368344,0.8548025881217193,0.6285067734323836,-0.31130206661761756,-0.040976791462996306,-0.9320654076954563,1,right
17.226,0.2411626506378714,1.0529719444575636,0.07637322912970942,2.987878622639033,0.8565357155331887,0.632044506531543,-0.3110714108414554,-0.03991152195382673,-0.9311985213063454,1,right
17.23,0.2717888157186763,1.0285324581233328,0.058058012380141445,2.9949390078500535,0.8585987648060862,0.6362031930532988,-0.3113666354273136,-0.04043500036675887,-0.9307466678638592,1,right
17.230999999999998,0.28922997201511624,0.9990079097527603,0.040559587756326766,2.9827209586252286,0.8548413337960565,0.6288115485495938,-0.3110079042071616,-0.04032710248180594,-0.9322775379095106,1,right
17.234,0.29287093147317883,0.9610229934559815,0.018417196679885284,2.9941822527580797,0.8586832553509837,0.6360750410454594,-0.31136040418402594,-0.04019578500416296,-0.9303321142335448,1,right
17.235,0.27974367386430254,0.9145427330157703,-0.003255589310048594,2.986499249368668,0.8557201470693021,0.6308031946805897,-0.3111768091915754,-0.0404369253231915,-0.9316663562070278,1,right
17.24,0.24977596066419575,0.8645238535433991,-0.015990511553596386,2.9898613834879177,0.8573240963562174,0.6334293907793118,-0.310956132560295,-0.04013097367213099,-0.9321630291247653,1,right
17.241,0.20872264670028795,0.811858074975151,-0.023592037587276148,2.9898455979068386,0.8573257558890315,0.6334266857375696,-0.311806729746369,-0.040521908532619666,-0.9287838313573396,1,right
17.244,0.15570049598282726,0.7608337048596943,-0.029118096280666892,2.988031853572795,0.8555641616132632,0.6310786488872494,-0.31025655709603184,-0.04002107448627905,-0.9353353296294586,1,right
17.245,0.08874865181841377,0.7177523020214822,-0.03294259526715733,2.990308939539637,0.8590773834638377,0.6353786674946804,-0.3122371540631346,-0.040583140576562024,-0.9268203713249419,1,right
17.25,0.018184503361288948,0.6781685339766923,-0.03706557138575487,2.988450180606896,0.8542584096667819,0.6298417195818488,-0.31058795182466636,-0.04014853134665047,-0.9339722282599401,1,right
17.252,-0.06313656554412392,0.6489141192555923,-0.042618487528342255,2.989532528985074,0.8591487902681572,0.635230904018222,-0.31062584258765213,-0.04010649259415723,-0.9337123352204101,1,right
17.254,-0.15047094388361862,0.6363235886490126,-0.048240442193733066,2.989194468251876,0.8564019753316232,0.6322814564094175,-0.31378838469133924,-0.04107797677515082,-0.9202517353582281,1,right
17.255,-0.22580422946960543,0.6321284217199757,-0.05163280188689273,2.989022756403018,0.8540670260611865,0.6298057842465008,-0.30602522037361435,-0.038768742023552794,-0.9534318334182015,1,right
17.259,-0.3122046945062753,0.6448712905298922,-0.052771517089359385,2.989428817490089,0.8641911003695122,0.6404402448537951,-0.31889284494822867,-0.04256691903140012,-0.8983820638085767,1,right
17.259,-0.3708115344796926,0.6609160204219042,-0.05325213822683306,2.9890060519493913,0.8455065440277751,0.6209083411165297,-0.3019223568393846,-0.03756953670177028,-0.9710048356869985,1,right
17.264,-0.3831948601254183,0.6691339322304326,-0.053272467365862754,2.9893203126624375,0.8694357000143458,0.6458564444982013,-0.2306773300336257,-0.01652928865195296,-1.275795396925991,1,right
17.264,-0.4301340466100151,0.6988639316174774,-0.0510024205902259,2.989157905382057,0.8494858513658508,0.6250876413665882,-0.21370801323911087,-0.011537042390593565,-1.3484191563030978,1,right
17.265,-0.48413855872627953,0.751598491483533,-0.049554635178872986,2.9891758097866035,0.8500296217128818,0.6256525468901353,-0.22657363277598658,-0.015323585257956627,-1.2933605811259699,1,right
17.268,-0.5080154495057884,0.8060613191020316,-0.047322984376540256,2.9892753045335834,0.8880120501531708,0.6651466204121163,-0.21881259960801652,-0.01303376282984937,-1.3265676780566054,1,right
17.269000000000002,-0.5326266998278654,0.8585411692648766,-0.04384105925971726,2.9890867600661477,0.7946710975758463,0.5681165466270532,-0.22197395817681492,-0.013979302237457365,-1.3130541236849775,1,right
17.274,-0.5356112898729686,0.9173307768210115,-0.048696519703064683,2.9893382071285126,0.9494179613331539,0.728955489718363,-0.22201079647050215,-0.013963440129739364,-1.3128704245536014,1,right
17.274,-0.5277896270194258,0.9548267045632874,-0.05319495507388265,2.9890534665635844,0.745320467262325,0.5168414108991837,-0.22036598465115892,-0.013515034445003633,-1.319943253444249,1,right
17.275,-0.5244262674018636,0.9635022927572352,-0.05474833116517057,2.988034778396411,-0.11132370864495364,-0.3735477529684226,-0.22233861055608573,-0.014061191068311956,-1.311469244842847,1,right
17.279,-0.49881964430397324,0.9886588690963362,-0.06873211722474307,2.9877943254714467,-0.31540883757562854,-0.5856417621428125,-0.22079856069256965,-0.013622276525344541,-1.318073166372376,1,right
17.28,-0.4597963815206204,1.0110316436728013,-0.08880545000081089,2.9879687530531944,-0.16068405988918352,-0.42482317770267813,-0.22164060254801382,-0.013900013669316771,-1.314497295467012,1,right
17.282,-0.4160296827324932,1.0074643766639242,-0.10604361767370395,2.987865068352286,-0.25399925746945473,-0.5218663110135782,-0.22142099084404956,-0.013740456718800094,-1.3153496495474886,1,right
17.283,-0.36577013382948037,0.9938153995305515,-0.12281679988192484,2.987910989771698,-0.21603603794556253,-0.4822903116393522,-0.22125060226701485,-0.013853256302158681,-1.3162287839971327,1,right
17.288,-0.32030411604258546,0.9640634428405317,-0.1386362499631086,2.9879021869919793,-0.21549341730067648,-0.4818950691596612,-0.2215709197429508,-0.01374785114204578,-1.3146743542948682,1,right
17.289,-0.285190103943852,0.9244825195976503,-0.1498516623247918,2.987891746442375,-0.2354076058966364,-0.5024258992390702,-0.22126171472166356,-0.013815914444351474,-1.316143828899654,1,right
17.293,-0.25947293891331147,0.8812761048577713,-0.15599902208185917,2.9879126788278914,-0.21155644675704083,-0.4777081673068174,-0.2215024250950755,-0.013888262427342405,-1.3151150811131551,1,right
17.294,-0.2445133151253581,0.8384999298105725,-0.16258258323394023,2.9878801923407066,-0.23012844622216588,-0.497152912981812,-0.2213059532797026,-0.013535138800762125,-1.3156845145954335,1,right
17.298,-0.24400134685892297,0.8051107781932837,-0.1680791913005351,2.987930436411353,-0.22011921750832264,-0.48629244413858874,-0.22151516671558152,-0.01427142170893985,-1.3154091999598103,1,right
17.299,-0.2503710227315847,0.7750487051116667,-0.17001887407057803,2.98785955285918,-0.22239698788687529,-0.4894475919121876,-0.221260486216368,-0.013189973084701436,-1.315574209634415,1,right
17.303,-0.25958191382991047,0.7456925197558983,-0.165809481708434,2.9879410636490116,-0.22506480408869212,-0.49125393986764837,-0.22152129075247579,-0.0143396653281616,-1.3154440610109857,1,right
17.304000000000002,-0.27767910020588665,0.7117317181921212,-0.1536917828591825,2.9878786984910173,-0.22045982186565766,-0.4872380522408622,-0.2213874738971366,-0.013680315190289255,-1.3154469667152366,1,right
17.31,-0.3040758143566453,0.6726264243136368,-0.13975433519355046,2.9878729052086745,-0.22476987574135215,-0.4917247020241854,-0.22118850631284945,-0.01308742853878821,-1.315807568120237,1,right
17.311,-0.34316693309933244,0.6321107481676208,-0.12033781109326679,2.988002732448022,-0.22189963265765633,-0.4873119948433354,-0.22192243803224523,-0.015642107758486002,-1.3148155830494084,1,right
17.312,-0.3937969331583032,0.5909059874431686,-0.09031823805426041,2.987712472328102,-0.22312066441072215,-0.49184762268152354,-0.22058603083566547,-0.010911603671547955,-1.3165493980535183,1,right
17.312,-0.4488610320856908,0.5690295945989294,-0.05548901712187035,2.9881430103126414,-0.2231790326663013,-0.48703547005172887,-0.222296537354554,-0.016984279361890203,-1.3143468894939947,1,right
17.317,-0.5083632521237909,0.5642633439709898,-0.029342541234447683,2.9876853962794887,-0.22242900452968378,-0.49145007992736384,-0.22087070829888186,-0.011915001136787156,-1.316175950441962,1,right
17.319000000000003,-0.5643953199420919,0.5870947658587635,-0.017545293495900283,2.9879481581902567,-0.22332345460890665,-0.4893791855981707,-0.22090081938965694,-0.012050055868903453,-1.3161635187876233,1,right
17.322,-0.6091543555984689,0.6474519047853687,-0.01637143009217521,2.988179931262566,-0.222660920190351,-0.48610204891025904,-0.22364753925672698,-0.021723576506279593,-1.312554436329716,1,right
17.324,-0.642314250970552,0.7252906118694573,-0.020569796149770003,2.9871761992363357,-0.22291591479190187,-0.4976914980367047,-0.21690629979042275,0.002050595279095716,-1.3213812307412862,1,right
17.328,-0.6601593940514103,0.8537812180122455,-0.011189860675685198,2.9890337209140716,-0.2230675640662509,-0.4768496567552253,-0.22808121986452234,-0.037368031623865816,-1.3067575964647755,1,right
17.328,-0.661592270259808,0.9538917465929067,0.001173164787545785,2.9866521155317027,-0.22264816648336128,-0.5033762634653365,-0.21334144323507065,0.014625820030120688,-1.3260446948403595,1,right
17.332,-0.6624296955247446,0.9801746871669126,0.00657701743419564,2.988635261453111,-0.22309253312606492,-0.4813312198023338,-0.15145917700189002,0.2328732121422456,-1.407054355782456,1,right
17.333,-0.6509455400964788,1.0804022403859794,0.0294626088562476,2.9885937705454575,-0.22293608703269235,-0.4817712749209851,-0.1367172455086184,0.284870680499831,-1.426344200354293,1,right
17.334,-0.6170918446241647,1.210376390412333,0.05822134091615946,2.9847824317645246,-0.22247341317831104,-0.5242224705235907,-0.14789522127008747,0.24544587656414482,-1.4117189490554845,1,right
17.337,-0.5712048783394674,1.284991183697623,0.07352016705724915,2.994126762280066,-0.22381834558600305,-0.42011117151809796,-0.14115230315484723,0.26922657921203286,-1.4205398168879695,1,right
17.338,-0.4763221584365733,1.353839109247295,0.06909345310395107,2.9786491258725056,-0.2215113054922695,-0.5926438420822531,-0.14389657819610907,0.2595495063828681,-1.416950478666438,1,right
17.342,-0.39765896292312175,1.3851354232515631,0.056917178060340086,2.9990522230599863,-0.2245810605657198,-0.36510841517200343,-0.14393548289232116,0.25941104996096287,-1.4169021710577028,1,right
17.343,-0.37530999983943786,1.3871402871306664,0.050293016747515074,3.085046867066512,-0.23741842457766166,0.5902084646546285,-0.1424942166941775,0.26449404843104074,-1.4187773815460636,1,right
17.344,-0.2789213903851403,1.3966600005727328,0.019189361775122073,3.105462883724952,-0.2404955025676074,0.8177431774402801,-0.14422362921546744,0.25839666376005666,-1.416535525016362,1,right
17.347,-0.136646988567991,1.3813156255786243,-0.029772456100044496,3.089926683773499,-0.23815525545115795,0.6452137555952455,-0.14287250171189603,0.26315834386137243,-1.41827404737022,1,right
17.348,-0.024357504039307924,1.3331684720511314,-0.0699182321520411,3.0994236211058483,-0.23958673149828602,0.7493165781068454,-0.1436053217030836,0.2605776089591293,-1.417344127079308,1,right
17.351,0.08525077913627546,1.253570824389974,-0.10442195820324923,3.0953330749269083,-0.23896570829930663,0.7068809005300365,-0.14343594988206254,0.26117310853659526,-1.4175534412934379,1,right
17.352999999999998,0.1606693194402332,1.142163185794562,-0.12175020692554123,3.0956748311734064,-0.23902662664158783,0.7064195355654077,-0.14323637322335558,0.2618741110122189,-1.4177894141942367,1,right
17.355999999999998,0.19230123907689886,1.0148885476988125,-0.11572312094655864,3.097282613436106,-0.23925808740378093,0.728485462535642,-0.1435935551743862,0.2606243062100241,-1.4174025394929581,1,right
17.357,0.18630083895312355,0.8841790935572099,-0.09613904574989088,3.0950572814306283,-0.23892735112338137,0.701950139979463,-0.14323863474558451,0.26185872614322525,-1.4177284654140752,1,right
17.361,0.13008698645975048,0.7653755508286331,-0.07477457561425024,3.0972512821717615,-0.2392697978711049,0.7227733107205122,-0.14350080837103404,0.26095546426863525,-1.417555277459243,1,right
17.362000000000002,0.04415529859081719,0.6715344687562712,-0.0600115069396584,3.0951826569535315,-0.23892086552776626,0.7112430329061543,-0.14336685165533752,0.2614107774375084,-1.4175951716547313,1,right
17.366,-0.053341292628778084,0.6115037449131487,-0.04955915405777634,3.0972435873061457,-0.23929574235948778,0.7144184836655381,-0.14336693842911324,0.2614104701155566,-1.4175938180082421,1,right
17.367,-0.15738180880229824,0.5876682190354847,-0.04062687363044077,3.095263648705316,-0.23891818430965123,0.7166141044721698,-0.14349518253327442,0.26098961771804985,-1.4176773218537075,1,right
17.372,-0.26317892671369764,0.590144587500081,-0.031935676162240856,3.096592955409343,-0.23918173820089117,0.7121000399881652,-0.1432528036804894,0.2617723352400095,-1.4174201901587802,1,right
17.372,-0.3633375253122195,0.6131109065306861,-0.023638192699660276,3.0970413689331067,-0.23925005794457535,0.7169113726738028,-0.14357262524857745,0.26075213487521426,-1.4178584315492229,1,right
17.375999999999998,-0.45967140784475624,0.6461334105272482,-0.018368630269360624,3.0934300585023626,-0.23858774533755425,0.7125601833630044,-0.14325609091844782,0.26175343211178503,-1.4173593150263262,1,right
17.377,-0.5534852102982146,0.6722719413237568,-0.017026071763475936,3.1011469834180447,-0.24002043320457422,0.7165512144974595,-0.14343121995329203,0.2612025861911812,-1.4176578888827254,1,right
17.381,-0.6360512975839916,0.682186019450376,-0.01599641592218177,3.0898236880770282,-0.23791162786164805,0.7126938246863043,-0.14357880125999328,0.2607386802771131,-1.417919619456243,1,right
17.382,-0.7079015601098002,0.6726188287939068,-0.01365492177659976,3.1018251464607274,-0.24014912818329912,0.7160386420617934,-0.14294202598005806,0.2627347220802373,-1.4167620786577548,1,right
17.386,-0.7651029239462728,0.6505533987413022,-0.013404432460836432,3.094937556018555,-0.2388635573520317,0.7146205020426624,-0.1441140699426529,0.2590651664915352,-1.4189204179299908,1,right
17.387,-0.8000060063182579,0.6236701782868836,-0.013764973060285526,3.088854706164086,-0.23773273096058795,0.7117985428574842,-0.1426152096302512,0.2637546778138378,-1.4161409433523362,1,right
17.392,-0.8173548422826014,0.5980545538773525,-0.013691858505682572,3.1152070471206046,-0.2426398071410663,0.7211977576938498,-0.1438639777991434,0.25984990916094974,-1.4184648504155333,1,right
17.393,-0.8166662855517085,0.581988696945744,-0.013251747714442754,3.0664006278364817,-0.23354982273962013,0.7044641868648075,-0.14382943719286678,0.25995529444973375,-1.4184026373282623,1,right
17.396,-0.799984867295417,0.574728303203744,-0.013618941576536907,3.1290463681346674,-0.2452176391044853,0.7256994094982205,-0.14145489560583385,0.2673845865916653,-1.413963445472406,1,right
17.397000000000002,-0.7771875858053993,0.5678315233391376,-0.01681655206101447,3.0767582049814375,-0.235479299634051,0.7080776875721174,-0.1472904614398035,0.2491329011317862,-1.4248760111528855,1,right
17.4,-0.7505898127652761,0.5539283513658049,-0.01019149797690292,3.0781540916548575,-0.23573816191518418,0.7083903017667796,-0.13761591857008915,0.27938670214765293,-1.406780615259903,1,right
17.401,-0.7320588980997522,0.5411697050532065,1.0665610893161558e-05,3.1779072186518116,-0.2543190431743284,0.7424282769818009,-0.1503758874060752,0.2394890811650453,-1.4306497136755258,1,right
17.401,-0.7276839629939151,0.5364780383705916,0.002682008390619033,2.9327572148889125,-0.20865791945129855,0.6590052724359148,-0.2039241372721153,0.07200848265477841,-1.5308500084516945,1,right
17.405,-0.7247299066048274,0.5323920294629342,0.0164157570302727,3.3392112588182847,-0.284360731360938,0.7972338519307678,-0.21668383921294165,0.032119349671854924,-1.5547202450186217,1,right
17.406,-0.7224772191564417,0.5291819349568464,0.02984186772828317,2.803112096381419,-0.18451427920645394,0.6149448972884678,-0.2070104218970532,0.06236101504721328,-1.5366225227660129,1,right
17.41,-0.7263557011035718,0.5324911759192161,0.031583280466838975,0.5527818705868669,0.23461762966082264,-0.15034628195183247,-0.2128431336296256,0.04411629350293301,-1.5475384984516891,1,right
17.410999999999998,-0.7359995751226422,0.5541699295802409,0.038752821940470056,0.016704801272306086,0.3344519619197679,-0.33262615574546217,-0.2104737445810159,0.051554490693319,-1.5430953957321485,1,right
17.412,-0.7461264639581806,0.6052464560482289,0.04616414162858693,0.4231228445493058,0.2587683141832081,-0.19442806337520185,-0.21043219984204325,0.05162631374446291,-1.5430362557337833,1,right
17.419,-0.746711047437515,0.6851851928573096,0.0513418362375049,0.17800659863645274,0.3044129915548378,-0.2777816184413766,-0.21168774210295027,0.04778119739921678,-1.545360033380614,1,right
17.42,-0.7304250655742743,0.7903647480944298,0.05578630849273936,0.27775067797172476,0.2858328007991944,-0.24386193356795666,-0.21018621907842386,0.05239690322312566,-1.542575345175733,1,right
17.42,-0.6977468209704618,0.9135159263372818,0.05832858573265849,0.2791070165417252,0.28560197302042056,-0.2433956000439323,-0.21135182960700255,0.0487859436378293,-1.5447458556483538,1,right
17.421,-0.6567657884702487,1.0448237272432643,0.06815794540873216,0.22692280698989753,0.29527648174062127,-0.2611570247281058,-0.2107348135301244,0.05078371989723293,-1.5435699285509101,1,right
17.425,-0.608360361649128,1.1694930598087938,0.0735800656793934,0.28940600922139226,0.28370175130072656,-0.23988348889728323,-0.21084880140725837,0.05020818875899641,-1.5438515571900107,1,right
17.426,-0.5465637229180916,1.2758507689509746,0.057924402973721284,0.24077932899474785,0.2926967432554451,-0.2564464057940731,-0.2110647542129951,0.04990986168037152,-1.5441381679469228,1,right
17.430999999999997,-0.47365003393059224,1.3574052578726918,0.031023538742701147,0.26701867268795665,0.2878360746602142,-0.24751141183971406,-0.21071622775708962,0.05053736758052836,-1.5436300374197447,1,right
17.432000000000002,-0.3883122388067698,1.4057186969638793,0.005098989850494002,0.26086532982436744,0.2890347486765685,-0.24958001886378695,-0.21103451559327188,0.049910565601546164,-1.544110846648435,1,right
17.436,-0.28576865961188,1.4167552410494255,-0.01679754944143015,0.2543458299705921,0.29008004952681415,-0.25187495462481246,-0.21085434389671953,0.05047727645462873,-1.5437726774699692,1,right
17.436,-0.18184819448203315,1.3894301444284216,-0.02954788767380316,0.26563369302808104,0.2882683987769704,-0.247901484378262,-0.2108427414104218,0.049829794863152775,-1.5439639021991245,1,right
17.439,-0.09339155288557434,1.329446258331967,-0.02712337577742046,0.25527040245223986,0.28984208450276394,-0.25159162142428415,-0.2110494798439203,0.050745873363299686,-1.5438641597333764,1,right
17.44,-0.0251146684929357,1.2433912319692362,-0.005843398487987161,0.2620957373316306,0.28885483383285004,-0.24913808127545772,-0.21069790339923639,0.0495142045231437,-1.5439321898174416,1,right
17.445,0.0068353797034988815,1.139317417269483,0.02520611983685929,0.25876762569608586,0.2894775592318929,-0.250268668014156,-0.21108072750699186,0.05080209865600889,-1.5438746947867221,1,right
17.445999999999998,-0.002559816208354197,1.033406700494918,0.051106814114470496,0.2602020362190157,0.2886827981993635,-0.25002702716130554,-0.2108468336425804,0.0500975713187513,-1.5438841914317465,1,right
17.449,-0.04407018321011458,0.93291600608302,0.06998485253860007,0.2587507526260177,0.2901581823314829,-0.24995790880663452,-0.21070811186397947,0.049293853535201194,-1.5440099498461244,1,right
17.45,-0.11339795302987138,0.8440082187593212,0.08066866108685686,0.26134023430052633,0.2878786333032519,-0.24991678183347407,-0.21141818577272387,0.05248995373571329,-1.5436519706276677,1,right
17.456,-0.19807635570634277,0.7736146541879299,0.07928144560870012,0.2580166559635655,0.290412956357332,-0.25015209193908094,-0.2100827585697284,0.04662061698356562,-1.544281175670641,1,right
17.457,-0.2923021417297288,0.7181569666508724,0.06970514918272183,0.2599311709165072,0.2889507305881507,-0.2500180832218161,-0.21180169208592797,0.05414434397828149,-1.5434809476796336,1,right
17.459,-0.3891799087839563,0.6758039935580773,0.05423109261457562,0.2628296596864359,0.2874546230291354,-0.24947830555987288,-0.21036493262180475,0.04786805681509507,-1.5441460104920497,1,right
17.459,-0.48782858422157444,0.6534962800111082,0.030969401638732498,0.2517597917283302,0.2936947550394223,-0.25129167517139717,-0.21041034732880043,0.0480186063548501,-1.5441397644851467,1,right
17.465999999999998,-0.5873683538918528,0.6487082264997512,0.010518376781920802,0.27220910578643537,0.28214006991186824,-0.2479557864943949,-0.21312858666137158,0.060050397674982034,-1.5428327570400633,1,right
17.467,-0.6753682063813512,0.6525009782897949,-0.004251111642217071,0.24584704385953207,0.29699336752259325,-0.2522747923740428,-0.20643976105208184,0.03049980220241336,-1.5460316469311486,1,right
17.469,-0.7685674404824306,0.6737536951322081,-0.025019987445920912,0.267903467943744,0.2845885075207977,-0.2486524896382518,-0.21753216659270624,0.07949109019057533,-1.5407309452197266,1,right
17.47,-0.8302496859857624,0.6945925388285257,-0.039059791115526016,0.26743574116676383,0.2848897957189051,-0.24870715523235493,-0.20290114428596046,0.014871403554634455,-1.5477226193429385,1,right
17.47,-0.8440334780538497,0.7010031696239603,-0.042527384581903645,0.22482333505337554,0.3086722092313371,-0.2558015453693401,-0.1414985929027357,-0.2563706678370732,-1.5770769250993848,1,right
17.475,-0.8871426168256018,0.7270747236397037,-0.05693226419648775,0.3294640657630769,0.25025580675528825,-0.23839570836242738,-0.126868470200464,-0.32099194164001055,-1.5840697695937926,1,right
17.476,-0.933441230205207,0.7566660464574916,-0.07983432969619851,0.15595244140879813,0.3471016966469256,-0.2672603898573348,-0.13795965561378304,-0.2720023987321467,-1.5787691087865174,1,right
17.477999999999998,-0.9414610091820874,0.7620694441136036,-0.09266167584379084,0.3848478482238607,0.21936625924582487,-0.22917573051407197,-0.13127133404520636,-0.3015400775690129,-1.5819628870495417,1,right
17.479,-0.9434966850853166,0.7632659226725244,-0.09671337725120528,1.3459381458448745,-0.3171628680212995,-0.06922898906999705,-0.1339909996535762,-0.289539264846095,-1.5806696251742043,1,right
17.48,-0.9303498856793568,0.7534521072785202,-0.10885251190152684,1.5748835797376857,-0.4449187531371507,-0.031127922912824013,-0.13403214151103165,-0.2893389511463785,-1.5806401806452255,1,right
17.483,-0.8984136159415296,0.7163754540940074,-0.12177315284546618,1.4012953780435022,-0.34800813024889254,-0.06001591019419315,-0.1326024724106653,-0.29567306754668543,-1.5813334000939205,1,right
17.484,-0.8593872099054161,0.6570502935980053,-0.11209876132567867,1.5059950459227203,-0.4065670440091971,-0.04259714969117856,-0.13431314132463698,-0.28810864549907633,-1.5805115110009824,1,right
17.488,-0.8166780274321765,0.5878001638023937,-0.07548663513482227,1.463398237106146,-0.3825468676126193,-0.04967321907505484,-0.13298351607142012,-0.29396417588783064,-1.581138220520023,1,right
17.489,-0.7842118643496612,0.5256022408953136,-0.02416188631912514,1.4627874247297017,-0.3825492909450828,-0.04979440206533252,-0.13369553478886753,-0.290875294558012,-1.5808261284417457,1,right
17.493,-0.7691715212215691,0.48145846589726016,0.02117843729953741,1.4851366954811336,-0.3946851099753339,-0.046055030844549885,-0.1335416846799118,-0.2914579688596859,-1.580851014911878,1,right
17.494,-0.7692096603939509,0.46527132325013315,0.047773002793499136,1.4583734787032692,-0.3798918463515509,-0.0505177151059788,-0.13333888960056117,-0.2924727737303482,-1.581007667383108,1,right
17.499000000000002,-0.7774337907249904,0.48276121696925967,0.05567483206082802,1.4791993090949798,-0.39180664512472296,-0.04706949907023527,-0.13367820333750388,-0.29087906231694993,-1.580797880192272,1,right
17.5,-0.785085872885525,0.5305064325402542,0.050219483597355626,1.4680051527519655,-0.3846254821510212,-0.04887547736567434,-0.1333693006789319,-0.2922425261839282,-1.580945033392266,1,right
17.503,-0.7851637703247939,0.5992357983223334,0.034281706290460665,1.470497623316242,-0.3876226800041936,-0.04855902767511888,-0.13355803419938772,-0.2915855315295258,-1.5809433683815213,1,right
17.503,-0.7771688978478913,0.6764406966424662,0.010829204044408349,1.4735694324808626,-0.387367193474817,-0.04792697680808071,-0.13350942392275877,-0.29139668235723704,-1.5807643478556779,1,right
17.508,-0.7595617920989528,0.7581963709091974,-0.0002125861431164801,1.4683396345261999,-0.38601831922790275,-0.048893712978349185,-0.1334471607658664,-0.2922736615232329,-1.5810957707338194,1,right
17.508,-0.7296285953958106,0.8395350077186452,0.013440291654646842,1.473174525020653,-0.38873121840709,-0.048089982166510725,-0.13356286581661247,-0.29112101422641756,-1.5807189731704931,1,right
17.512999999999998,-0.6943309301453005,0.9109008266966501,0.0354498914695876,1.4700731654058838,-0.3840860846523717,-0.048427048712666246,-0.13346290962081642,-0.29193296076410247,-1.5809523513460333,1,right
17.514,-0.6555175157832147,0.9688275688746496,0.05045973786332661,1.4711711686693696,-0.3913580168557241,-0.048653524662864614,-0.13347966882728457,-0.2921791334250965,-1.5811048398201069,1,right
17.518,-0.6119748203661934,1.0159839797079557,0.060703939263704904,1.471642597978477,-0.38168725347542093,-0.047964606583283595,-0.13359622897150447,-0.2902647526871094,-1.580347763290514,1,right
17.519000000000002,-0.569210255454034,1.0531124777428995,0.06628165102515002,1.4703681979183,-0.39156544163203333,-0.04882743007989561,-0.13333515997772738,-0.2940126046531079,-1.5817727985581373,1,right
17.522000000000002,-0.5291448895140493,1.078504110514205,0.06349997245850786,1.4716218683430982,-0.38614693707424746,-0.04824288432750189,-0.13368662867283815,-0.28912916931218074,-1.579935651010393,1,right
17.523,-0.4935196470703651,1.0992689549891503,0.06008074949821322,1.4710943841422495,-0.38057730659377753,-0.048006322295806814,-0.13338624439289803,-0.2932357625447542,-1.5814720865944605,1,right
17.527,-0.4606374940758188,1.1067068797520077,0.058177611157565964,1.470436122114677,-0.40329433689032584,-0.04953474404264929,-0.13340521004635839,-0.2930792808176987,-1.5814267929188437,1,right
17.528,-0.4305722318576153,1.099579937713516,0.054035084893335056,1.4723575358051502,-0.3615574307435044,-0.04658391653871981,-0.13394924331248453,-0.2853697062699246,-1.5785073275727928,1,right
17.532,-0.4080988795605594,1.0864929909731313,0.052534417822717665,1.4696382924490812,-0.4150080579623212,-0.050414624291654546,-0.13259622254930306,-0.30438380705480983,-1.5856876170322978,1,right
17.534000000000002,-0.38627629865463886,1.0488875823764867,0.05799432805183147,1.4720141656019916,-0.37044507907590796,-0.047199323865720705,-0.13484582104798162,-0.27283392916364657,-1.573781650057248,1,right
17.537,-0.37464168807515064,1.0120869911852255,0.06556813140982234,1.47178779658945,-0.37155795478251974,-0.0473125000955929,-0.13187603669715262,-0.31445552948191113,-1.589484519584152,1,right
17.537,-0.3766399771427588,0.9985566043754869,0.06703217834898706,1.4676892746030337,-0.45677828086730554,-0.05337351913422615,-0.11942424892322924,-0.4891452331577958,-1.6554165219127732,1,right
17.538,-0.3784681960030532,0.9513874501721192,0.06740675614621798,1.4779957291754147,-0.24745296686998633,-0.038439241757583384,-0.11645327389589784,-0.5307655891271568,-1.6711161763462778,1,right
17.542,-0.40102166658092464,0.8598725878809382,0.0721229893203312,1.4608215696788296,-0.5944713877265658,-0.06321381818568367,-0.11870537884645319,-0.4992116805153909,-1.6592131051585222,1,right
17.542,-0.4268184150966601,0.803100812702074,0.0755964528666401,1.4835020189850803,-0.13677664439193574,-0.030533203439603127,-0.1173485330793047,-0.5182453389054065,-1.6663967816653344,1,right
17.546,-0.436002857164019,0.7853537274041453,0.07458469090734672,1.5786009521192859,1.7844785173347315,0.10663480000679962,-0.11789718886230731,-0.510492034265166,-1.6634615224912332,1,right
17.548,-0.47791065188007703,0.7393728457406743,0.0722117495691092,1.6012748227662268,2.2421642167181925,0.13931035090599264,-0.11791215145019598,-0.5104034124502291,-1.663447368452521,1,right
17.548,-0.5497237855012682,0.6988697808016406,0.0707993556799999,1.5840945530248938,1.8951690825392422,0.11454096317297029,-0.11761274883667086,-0.5144337090694623,-1.6649414320733142,1,right
17.553,-0.6229398727486786,0.7054664236294363,0.06734543422383707,1.5944505683670882,2.1044502946547015,0.12947835169485256,-0.11796918306935456,-0.5096000174046929,-1.6631436352798412,1,right
17.554000000000002,-0.7041563061625837,0.7402434121700713,0.05603827661322348,1.5902318427932631,2.0192961034677817,0.12339704096320148,-0.11769493549483756,-0.5133751173321625,-1.6645569705350223,1,right
17.557000000000002,-0.784361835055909,0.8050078640632037,0.021610092454642817,1.5901995770977888,2.018106796110313,0.12332611002194205,-0.11783266131411327,-0.5113057785017587,-1.66375393874105,1,right
17.558,-0.8538405957673807,0.8845956630366809,-0.04035719791859836,1.592348807982569,2.0627266291459243,0.12648197163334673,-0.1178249886990039,-0.5118580138327009,-1.6640335345001966,1,right
17.561,-0.9099429267172566,0.9676207054684896,-0.12148473062275095,1.5897907234496618,2.009285256585784,0.12270903890917852,-0.11774229244007078,-0.5122522290038203,-1.6640597824614425,1,right
17.561,-0.938558243528036,1.0639601946369739,-0.1983812912451403,1.5917624258166847,2.05089585097488,0.12563756108380886,-0.11786319393827818,-0.5114958109801715,-1.6639245671947664,1,right
17.566,-0.9278274225602929,1.1721111465672711,-0.22591850944596759,1.5906896740426577,2.0284527272169384,0.12405348493843096,-0.11775737442392789,-0.5122308625544845,-1.6640822427071291,1,right
17.567,-0.8898764627951091,1.2797295947981877,-0.21912009461006576,1.591022360765235,2.0336249166774247,0.12445892196674464,-0.11779912189792859,-0.5116402092122263,-1.6638582648863882,1,right
17.572,-0.8361611190720076,1.3543473578431402,-0.2311496532308216,1.5910636205154585,2.039452958204043,0.12475840648232468,-0.1178604746828453,-0.5121656027514543,-1.6642786276938453,1,right
17.572,-0.7585728626492219,1.3722711123547315,-0.2688720666315546,1.590990667777533,2.02936449954694,0.12423911766170335,-0.11767815204390306,-0.5115531164997048,-1.663540009721942,1,right
17.577,-0.656066620134671,1.332504367295376,-0.31189254928099064,1.5909323813384844,2.0387661561576547,0.12466362030158654,-0.11796032766066736,-0.5123259019582912,-1.6645886503256264,1,right
17.578,-0.5434942992054653,1.2434569377834919,-0.33087602632255997,1.5910397483924357,2.032497304304056,0.12441290587052974,-0.1176574771346538,-0.5115284472202521,-1.6634807877667002,1,right
17.582,-0.4396502035179827,1.1182816852519615,-0.31894578469379564,1.5911838493883197,2.0353349992601504,0.12461689838577476,-0.1178357243398733,-0.5119475693291056,-1.6641050961272548,1,right
17.583,-0.36532755095824,0.9764954430892542,-0.29309961826945763,1.5903886384336485,2.0349293824469585,0.12422347404394891,-0.11797377810827603,-0.5125147665826019,-1.664721260121461,1,right
17.586,-0.3310859535381349,0.8367133089408698,-0.25978252522986667,1.5921290150036307,2.0342963126113833,0.12501184684164668,-0.117343603602342,-0.5103698065138809,-1.6621525741533885,1,right
17.588,-0.336092902995518,0.7069004910672838,-0.22237644624761133,1.5895144959168992,2.0348787033586904,0.12380935561882503,-0.11851744696166602,-0.5142864085259857,-1.6668928451160936,1,right
17.590999999999998,-0.3850380574515979,0.6022497912962688,-0.18597240332485362,1.592325665337399,2.034738274421181,0.1251261767182817,-0.11700833007471285,-0.5092715415199198,-1.6608117528247943,1,right
17.592,-0.45899606734225934,0.5192975186520753,-0.15291251236072917,1.5907013064139013,2.0348250191358233,0.12436463762272547,-0.11826994137730062,-0.5134517225122575,-1.665885697716372,1,right
17.596,-0.5563723266928039,0.4716767464691658,-0.13384683416217114,1.589249223813122,2.0338322875693127,0.12363533342239923,-0.1182311064383566,-0.5133620246803722,-1.665758178155579,1,right
17.596,-0.670552584622863,0.46712913320218713,-0.13070873699315608,1.5955379080693792,2.036793860473617,0.12673549213872137,-0.11583819798532077,-0.5053162732767449,-1.656052526620794,1,right
17.601,-0.7829821673649797,0.48846515190990225,-0.13798909757667677,1.5838780197113103,2.0313714740079014,0.1209882015630828,-0.12172759780556971,-0.5250623748387997,-1.6798948736488324,1,right
17.602,-0.9345015169609532,0.5784974850395743,-0.1681275026438376,1.5988551419914303,2.038421262625598,0.1283772982411421,-0.11195812002417324,-0.4923318536685873,-1.6403679881904738,1,right
17.605,-1.0381030705678578,0.654650964188807,-0.19297503429990953,1.586348169354908,2.032497360289531,0.12220110003466422,-0.12484716461847357,-0.5355004774043602,-1.6925017480528577,1,right
17.605999999999998,-1.0641349265619509,0.6765492441922174,-0.2015675903840986,1.5866843062459508,2.032541019973502,0.12237108157059903,-0.17885313578471498,-0.7167985062311364,-1.911397795658726,1,right
17.607,-1.161017818159376,0.7738147308543346,-0.2364579411669801,1.610548519823766,2.044326228467191,0.13415552126975813,-0.19173856106485843,-0.7599723257330822,-1.963534541065053,1,right
17.61,-1.2773527372723803,0.8997134219018126,-0.2815071652114308,1.5518912789902437,2.0154532447166056,0.10517595059628791,-0.1819848374968336,-0.7272275717493867,-1.9239976472512275,1,right
17.612000000000002,-1.3486448144691376,1.022531832420806,-0.3245622396322701,1.6491521809580152,2.063328467088299,0.1532400406823869,-0.18783379488495405,-0.7470020368613284,-1.9478627742833126,1,right
17.615,-1.3969373757665609,1.117736713057596,-0.35749499121992745,1.520861087909522,2.0001580476249035,0.08983116694290788,-0.18551434354479002,-0.738912050467089,-1.9381183415706986,1,right
17.616,-1.4043027836982431,1.1402429990173377,-0.36418927885325586,0.9824392662693443,1.7345543942244745,-0.17603112259452466,-0.1853752077217293,-0.7388755208962561,-1.9380411983670305,1,right
17.617,-1.4145620282071552,1.222681631990254,-0.3855625947919429,0.8541494396937219,1.6713343892272488,-0.23943152310612875,-0.18673439379921364,-0.743013102153758,-1.9430693869593787,1,right
17.62,-1.4130709578629643,1.3378277043449032,-0.4139501123243598,0.9513982482423731,1.7193061517128507,-0.1914150272614762,-0.1851858662057285,-0.7379986452052945,-1.937000790983683,1,right
17.621,-1.3748039263909857,1.409321696356196,-0.41712189179859227,0.8927784680512848,1.690301648300961,-0.22026197599264902,-0.18626946883125323,-0.7419930818651456,-1.9417970748500697,1,right
17.625999999999998,-1.3282793257635752,1.4816943018602493,-0.41315353669618116,0.9165689236757087,1.70222210551173,-0.20872772809244078,-0.18592025615113184,-0.7396680126339363,-1.9390761669636833,1,right
17.627,-1.2651799242892041,1.5298111843170399,-0.40911833239026396,0.9170114489798076,1.7021840018309748,-0.20820688561036044,-0.185578393844364,-0.7405061406466289,-1.939939261030079,1,right
17.631,-1.1918796968139325,1.5531712627371577,-0.3971000345030731,0.9043938176432671,1.6962098080148837,-0.2147360663755535,-0.18634219503720698,-0.7406340063571639,-1.9402762929611905,1,right
17.632,-1.1227212276588774,1.5616175461612598,-0.37298923633668124,0.9194288203666853,1.7035189343614805,-0.20718293698610635,-0.18557706539085483,-0.7400075303373743,-1.9393742186680962,1,right
17.634,-1.0639833388194202,1.5444101079075767,-0.3370915014431988,0.9078410993636481,1.697596054073393,-0.2126528919408796,-0.18584478076674604,-0.7409226094526221,-1.9404780927590735,1,right
17.635,-1.0220373327298766,1.5082767974434628,-0.29319184202145,0.9138562447137992,1.7012303646341624,-0.21049572212089496,-0.18654417735414341,-0.7396699266852533,-1.9392350542462427,1,right
17.639,-0.9949275402517138,1.4538338060775597,-0.243422713011022,0.9129002198277435,1.699610988496913,-0.20956737584891605,-0.18460902914010646,-0.7414030539634759,-1.940711403431712,1,right
17.64,-0.9828537124090845,1.3945911992037558,-0.18840518310045,0.910639759264556,1.699903012684398,-0.2124016654707954,-0.18761460555568554,-0.7392153384365558,-1.9389895804516588,1,right
17.644000000000002,-0.9805395079500492,1.3338320373652683,-0.13068727132150743,0.9139993806071531,1.7004392255947973,-0.20937314946068042,-0.1843670547357249,-0.7414019943409716,-1.9406490215603933,1,right
17.645,-0.9865451473691416,1.2713686666365165,-0.07712724859361815,0.9112945703450719,1.6990950637849793,-0.21069700556202892,-0.18627288025464595,-0.7402359715743831,-1.9398085099726936,1,right
17.651,-1.0016289234503462,1.2116070109871995,-0.0313288221767276,0.9122352663018688,1.70163788013277,-0.21277229646564189,-0.1878243301100631,-0.7389279714766135,-1.938716132705426,1,right
17.651,-1.019041336711251,1.1523168625039948,0.011129667346659938,0.9134406332815674,1.6974824123680154,-0.2063724297996885,-0.18086556773405504,-0.74409379706104,-1.9428179110715087,1,right
17.655,-1.0333946037996333,1.098688519451722,0.05524780498704223,0.9104610381804976,1.7030982038823586,-0.21650351519022976,-0.19381091379966148,-0.7346454727573541,-1.9353720658641789,1,right
17.656,-1.0386530857470908,1.0491290497890347,0.09948252796295523,0.9140693712019912,1.6973254769670465,-0.2054899498936994,-0.17717341853126856,-0.7467304506993103,-1.9448741333630286,1,right
17.66,-1.0385060203156193,1.0069419136984845,0.13828887424582265,0.9116951882165634,1.700517258946924,-0.2119969679109362,-0.1910704678065714,-0.7366606336315655,-1.9369673948476591,1,right
17.660999999999998,-1.0355117981906088,0.9669492274720565,0.1701343474571202,0.9105479931845604,1.7037152226044467,-0.21716030295451094,-0.19068218369837214,-0.7369040655043542,-1.9371399015397843,1,right
17.664,-1.027589836195744,0.9232838661257627,0.19613294800524286,0.9172274206795943,1.690543927602642,-0.19374042290898674,-0.16421485014506382,-0.7561831400527045,-1.9523257895549377,1,right
17.665,-1.01807431583565,0.8837441131249202,0.2179543455595576,0.9044492229279266,1.7147746311569834,-0.23736738457811551,-0.2292875366713712,-0.7088385466303126,-1.9150630775496602,1,right
17.669,-0.9983348954869571,0.8286359362816371,0.2377190077929986,0.9209969298606848,1.683732770879226,-0.1812777950774479,-0.12138457131179495,-0.7873240485317302,-1.9768197291137528,1,right
17.67,-0.9828747338269263,0.7893673280249197,0.24746855788973776,0.9071246770438393,1.7096162315693206,-0.22813447598279013,-0.26371433833372304,-0.6838052435955229,-1.8953766455911563,1,right
17.675,-0.9771383169877625,0.7788050273292434,0.250064426371342,0.9075869510854693,1.7089662362331308,-0.22681897161138753,-0.8610832543607542,-0.24929626420166617,-1.5534200562561582,1,right
17.676,-0.9546966621474832,0.7371453239379488,0.2572308049738627,0.933805828575656,1.6594789117144682,-0.13759784874142428,-1.0034209943310914,-0.1457734210982833,-1.471988539783725,1,right
17.676,-0.9245975270824216,0.6849622771540349,0.2651070144419777,0.8692413512455801,1.7810359076120017,-0.3569620380740517,-0.895508334041371,-0.22425969923509897,-1.5337283416811909,1,right
17.679000000000002,-0.8931696761879835,0.6355930984828835,0.2744631047230055,0.9763323368440591,1.5795232962862569,0.0067819840176645,-0.9605815251911095,-0.17692949327533147,-1.4964762241518277,1,right
17.68,-0.872582756541219,0.5969907324072141,0.28126841995204666,0.8350744283346592,1.8452963255669101,-0.4730078995377183,-0.934135001514572,-0.1961678399029569,-1.5116719706236452,1,right
17.684,-0.8689291123119396,0.5872523262289895,0.28410525105735907,0.242214546967227,2.960914338805088,-2.486887806495692,-0.9336967287844666,-0.1964813761745414,-1.5118021186980277,1,right
17.686,-0.8521879395587881,0.5538386341998471,0.2877210834553171,0.10099624656170406,3.2266457468023004,-2.9666951183247274,-0.9476696256176651,-0.18632507581236346,-1.5039730442739092,1,right
17.687,-0.8402878363200805,0.5210217394897676,0.2858825167073745,0.2080256825989073,3.025211004801431,-2.6029160313515187,-0.9309513882829117,-0.19847864558401396,-1.5133766268979214,1,right
17.689,-0.8304349915480279,0.5178033567202907,0.2824166188873043,0.1435111288940321,3.146668815422373,-2.8223304603544066,-0.94394125473363,-0.18903327299843387,-1.5060125464096537,1,right
17.69,-0.7853754541352376,0.5013534258161612,0.2625299697027198,0.16973563277937112,3.0972719050449227,-2.733053526864599,-0.9370295176528932,-0.19406520013079448,-1.5101084068379391,1,right
17.694000000000003,-0.73612619759886,0.4776421341440044,0.22197245062209417,0.1700945926685295,3.096587567930455,-2.7317790342783628,-0.9383911064263977,-0.19305949895065055,-1.508879419106897,1,right
17.695,-0.7183411194716791,0.45347006023269726,0.20081930477957044,0.15644349920414224,3.122392008250097,-2.7786402203799834,-0.940645859445137,-0.19144585300142625,-1.508362672537916,1,right
17.699,-0.7251307664571942,0.4208978118267981,0.2056011728715766,0.17267974780293494,3.0915890542673043,-2.7224670632275223,-0.9369469458039583,-0.1941040577036921,-1.509530907762883,1,right
17.7,-0.7414410279014636,0.39443836011806677,0.21812460951487603,0.16020537035703275,3.1154191344606756,-2.7662769418916167,-0.9403469467468046,-0.19165664048090097,-1.5083409452796694,1,right
17.703,-0.7611689531764554,0.3808662454695088,0.23580253473837662,0.16676179814296804,3.1027283286858527,-2.74259040883537,-0.9383357048016878,-0.1931198221518678,-1.50949912753559,1,right
17.704,-0.7857843397894058,0.375845311375605,0.2505656761225127,0.1653392076970486,3.105557958676565,-2.748030549756846,-0.9384858100263405,-0.19296313730660775,-1.5080099821331687,1,right
17.708,-0.8104900314220902,0.37685675456170276,0.25119742124117517,0.16382066973700593,3.1087149435099626,-2.754391063274369,-0.9401531736530484,-0.19185872700197176,-1.5102617397930616,1,right
17.709,-0.8301978308833018,0.37750064228045643,0.23889971985043684,0.16597444708773557,3.10369562570331,-2.7432064606127655,-0.9371844611533995,-0.19385658994816468,-1.5071785783752571,1,right
17.713,-0.8471664717695193,0.373831105517769,0.22361734765351202,0.16475819597092625,3.107649458102404,-2.7539978692735465,-0.9404385440916758,-0.19166157590920163,-1.5104134759726753,1,right
17.714000000000002,-0.8644965921894883,0.3715541529068227,0.20961408472131998,0.16459053360030482,3.1059215861702625,-2.7463979647952224,-0.9384171938776525,-0.19303291011295307,-1.5086261964202086,1,right
17.719,-0.8824446063343738,0.3702792217591925,0.2016271837122776,0.16544290162636882,3.1059468883693864,-2.750013877229486,-0.9373748034571456,-0.1937046232291998,-1.5066815673218366,1,right
17.719,-0.9038728025515903,0.36771826428447396,0.20512573471745574,0.16546253946247358,3.1059234330337233,-2.75000506324782,-0.9430819656115839,-0.18992936602003896,-1.514529825979435,1,right
17.722,-0.9298765943296523,0.36619455654899735,0.214185615193387,0.16272925575884584,3.1080462165190834,-2.747209686838968,-0.9322920587662707,-0.19708147762114575,-1.5000959065065853,1,right
17.723,-0.9562116659334128,0.36475775550911105,0.21876436463190818,0.1694613626732589,3.102282608306853,-2.7519471959677304,-0.9461919958349488,-0.1878638821899109,-1.518601047677706,1,right
17.727999999999998,-0.9836262803466175,0.36253870920186126,0.21560955373227386,0.1590181998409268,3.1116324884846382,-2.7462392788876726,-0.9345707480870573,-0.1955730566915162,-1.503165871069731,1,right
17.729,-1.0106585408197803,0.3613058940183197,0.20738783608418637,0.17038451522102407,3.101226984608103,-2.751529611194449,-0.9349530447139687,-0.19531145128695132,-1.5035352315697057,1,right
17.732,-1.0318973235860054,0.3607131319967083,0.1994738113153205,0.16374279442170486,3.1073766734474875,-2.7487259023224833,-0.9568861763550219,-0.18078495431665742,-1.533119586337021,1,right
