time,gFx,gFy,gFz,ax,ay,az,wx,wy,wz,subject_number,foot
0.7190000000000001,0.07942558959145367,1.0211111260096888,0.14128644478313362,-1.7139031044883588,0.2527993473608119,-0.08000284834520315,-0.31060017336238444,0.18509593132270488,0.8908018616949558,4,left
0.72,0.08520581889701996,1.0193531547390091,0.14524501961889152,-1.7138956748763239,0.2528009093284511,-0.07999603126844954,-0.31059945258289734,0.18511282874637958,0.8907941311466048,4,left
0.72,0.09207901845108753,1.0169421347473038,0.14782525977407648,-1.7139042221688474,0.25279911220934037,-0.08000387486847492,-0.31060093674080624,0.18507805828436563,0.8908100371477675,4,left
0.721,0.10206366135204317,1.0140614976189497,0.1506992178435877,-1.713898250504293,0.25280036806678763,-0.07999839326977984,-0.3105988565423289,0.18512677212177725,0.8907877539284208,4,left
0.726,0.11187120876678845,1.0136356978395349,0.1540883228220561,-1.713896272013433,0.2528007834159262,-0.07999658128038392,-0.3106009037707751,0.18507885718140443,0.8908096700327967,4,left
0.726,0.12376251879515415,1.010613461982154,0.15630988576937,-1.7139117486442677,0.2527975303174668,-0.08001077834024828,-0.3106000241970259,0.18509939350387697,0.8908002799196797,4,left
0.732,0.13681469842028204,1.006821820962484,0.1571004712140276,-1.7138799090642218,0.2528042237630309,-0.079981565821577,-0.31059828871688433,0.18514012640402017,0.8907816417041569,4,left
0.733,0.14812669699177888,1.0085043851903708,0.1550907019595742,-1.7139245102323126,0.2527948466788078,-0.08002249175242361,-0.3106038765267647,0.1850091743391577,0.8908415493228858,4,left
0.736,0.15954634471873136,1.0099141374341924,0.14931033779762337,-1.7138806489745722,0.25280406930862653,-0.07998223851668596,-0.31059425381235506,0.18523457317792819,0.8907384414540105,4,left
0.737,0.17108314599641755,1.0120767481475308,0.14359399132847006,-1.713899432129599,0.2528001177456109,-0.07999948820790116,-0.3106060618600537,0.18495810560944642,0.8908649030499972,4,left
0.741,0.18581874457682476,1.0167667952890165,0.14049990050906686,-1.7139367550743223,0.25279227464021947,-0.08003371430722986,-0.31059664270464404,0.18517846204663438,0.8907641189407547,4,left
0.741,0.20034525503828232,1.017351405732282,0.13551106086426395,-1.7138168278950732,0.2528174844696772,-0.0799236921013467,-0.31059657765176996,0.1851803951390497,0.8907632090916301,4,left
0.746,0.21273495874194703,1.0181280079884978,0.12697406883185253,-1.7140232148922336,0.25277409533064255,-0.08011305943996627,-0.3106140091857621,0.18477165002924695,0.8909502152304307,4,left
0.747,0.2271806576361437,1.0211462677728216,0.12142363562877367,-1.7137701044275329,0.25282731216996707,-0.07988079382376703,-0.31057414010643525,0.18570577630565827,0.890522887118017,4,left
0.75,0.24023853508334087,1.0201059292710233,0.11752798680761047,-1.7139717878791132,0.252784900561818,-0.0800659092909174,-0.3106336441458861,0.18431220522812602,0.8911603567659827,4,left
0.7509999999999999,0.25271548627300033,1.0188906306610273,0.10996030720237476,-1.7139736868407887,0.2527845181931357,-0.08006755654186795,-0.3105701786449008,0.18579781877173798,0.8904808294279756,4,left
0.7559999999999999,0.26358009514191694,1.0196106939986762,0.10478188944827946,-1.7135992814733811,0.25286321227013386,-0.0797241273934046,-0.3106069059496416,0.18493935247612436,0.8908734179929677,4,left
0.757,0.2718609598615448,1.0185536252149539,0.10259638792675735,-1.7144546938058818,0.2526833873574855,-0.08050894143546564,-0.3106383862831038,0.184199594720991,0.891211965735782,4,left
0.76,0.27992778449833,1.0168279611011357,0.09847123143219808,-1.7131787410464538,0.2529516431189893,-0.07933815489492227,-0.3105002363182452,0.18743766499475817,0.8897305914137293,4,left
0.7609999999999999,0.28465857590988153,1.0153542535612488,0.09570913608543707,-1.7145387348286099,0.2526656880878937,-0.08058622789731734,-0.310756593484524,0.18143241045432545,0.8924777005252087,4,left
0.764,0.2908058209521738,1.01447787297437,0.09380040091630355,-1.7137532583681716,0.2528308964274412,-0.07986509611919967,-0.3104272624001001,0.18914367503625254,0.8889503897141714,4,left
0.765,0.29929078919659474,1.014601763986653,0.09055514695694128,-1.7130751367487906,0.2529733593820919,-0.07924345926664182,-0.31070243379940565,0.18270558891630345,0.8918950047972478,4,left
0.77,0.30574586915068697,1.0146818734956367,0.08665454066972113,-1.7160407679899354,0.25234997922679675,-0.08196402100419381,-0.31069445329161927,0.1828806397397204,0.891815670456938,4,left
0.7709999999999999,0.3119553999305554,1.012691961820876,0.08216726120969589,-1.7105418585630334,0.2535060001376537,-0.07691872182098754,-0.31017103368128307,0.19515486540999827,0.8862000067059373,4,left
0.775,0.31837496049342406,1.0093671278010474,0.07844965671579132,-1.7176018813079537,0.25202165416037264,-0.08339712647747732,-0.31145861285470655,0.16498471512755974,0.9000018790649402,4,left
0.7759999999999999,0.3225534611707179,1.0089288329684223,0.07275500321716381,-1.7117090014483802,0.253260803605659,-0.077988633567181,-0.30932293004697275,0.2150094204148488,0.8771183072682406,4,left
0.78,0.3214127726359555,1.0104532797034262,0.06704722708824855,-1.7118658798648243,0.25322738866585204,-0.07813502464608665,-0.3121407081382451,0.1490258561069025,0.9073010582849115,4,left
0.78,0.3212343022621283,1.0115473209133632,0.06459276462579028,-1.7231085005509803,0.25086429138499317,-0.088447925472303,-0.32395886196438994,-0.12792518925988458,1.03399922414185,4,left
0.784,0.3220005214706254,1.014202220784548,0.06002430144289153,-1.695481170995025,0.2566722270019254,-0.0631000706687732,-0.3267780209454828,-0.19391089571403852,1.064181067797405,4,left
0.785,0.3170378087367073,1.0190704220206561,0.05435729172120983,-1.741283602425238,0.24704263777902224,-0.10512798433842976,-0.32464084468758536,-0.1438838730376397,1.0412984780696124,4,left
0.785,0.31521850806756985,1.0222613807995944,0.051326372773812745,-1.68087665383563,0.25974372607225593,-0.049693346999763396,-0.32592785357133836,-0.17405314087401721,1.0551007225141666,4,left
0.79,0.31551068898285994,1.023786351330659,0.05076304207751849,-1.4273178611717738,0.31305652401481154,0.18299328214225577,-0.325409394056253,-0.1617866050954596,1.0494818050106423,4,left
0.7909999999999999,0.3102094108732698,1.0285734803325495,0.051322986511671484,-1.366931745393249,0.32575666235453193,0.23842816590510646,-0.32539074412328406,-0.16159500983901567,1.0494094732996317,4,left
0.7909999999999999,0.30673031834556685,1.0347042197773262,0.052590312004437506,-1.4126973086777763,0.3161287546031247,0.19639981581111635,-0.3256812110347588,-0.1680568162460979,1.0523440466161365,4,left
0.794,0.3061072069449048,1.0397212491111834,0.05628779344770601,-1.385112158017212,0.3219347657600946,0.2217481706807931,-0.3253366516586388,-0.16032193254858482,1.0488267370790525,4,left
0.794,0.30483204025695854,1.0451034684836564,0.05748590130547197,-1.3963249165593583,0.31957303252768665,0.2114349142620145,-0.3255995742649167,-0.16633737581123126,1.0515695275389092,4,left
0.7979999999999999,0.30417828773999883,1.0508827631885223,0.05533499986120838,-1.3964761474365401,0.3195398715977,0.21128845988665118,-0.3254745131932216,-0.16311959328417774,1.0500795725801202,4,left
0.799,0.3013622306071311,1.0567435094790292,0.053978417167502735,-1.390647330142196,0.320776103628754,0.2166977068079342,-0.3254638515654839,-0.16379400850857692,1.0504457739375925,4,left
0.804,0.29502892545301523,1.0634109298423153,0.04948826604530064,-1.3975736488333785,0.31929785223944057,0.2102177227799924,-0.325573179309066,-0.16476505707263023,1.0507907067904125,4,left
0.805,0.2874692230225172,1.0711393608328872,0.044020584990219484,-1.3922622629608576,0.32044532027957806,0.2152652421126734,-0.3254206275332666,-0.16314128286305923,1.0501696727882466,4,left
0.8079999999999999,0.27932356272326553,1.0771449478808683,0.040032496320537354,-1.3950435218360062,0.3198303559376928,0.21254249087686417,-0.32555113652257095,-0.16464499330807353,1.050760497039689,4,left
0.8079999999999999,0.2695126938482319,1.0825798408126734,0.03285683561104652,-1.394444657789884,0.31996918866482316,0.21316508138332976,-0.3255119437889554,-0.16371186924521045,1.0503327801319196,4,left
0.8140000000000001,0.258404189907535,1.0899404966165607,0.0274588025362405,-1.393814720605933,0.32012732583293085,0.21388803176508758,-0.32539750893704555,-0.16391617731746275,1.0506062861227161,4,left
0.8140000000000001,0.24753501730101501,1.0979579866064846,0.02489228229762852,-1.394673750284441,0.3198641951545319,0.21263405206547198,-0.3256987233688183,-0.16438141329948802,1.0504076465580319,4,left
0.82,0.23777363000967242,1.1042356178713977,0.021343145928318187,-1.394260185966254,0.3200931316701383,0.2138150347822781,-0.32523990755403265,-0.16346414659500663,1.0506018821816436,4,left
0.821,0.23015129600655151,1.1062980318610673,0.019727515264721617,-1.3940578764059275,0.31996156185828584,0.21301768521439846,-0.32573070547844357,-0.16448350024525593,1.0504137977660053,4,left
0.823,0.22211947131789966,1.1080927824195217,0.01835954379483436,-1.394526434548463,0.32000175370016093,0.2133711494060288,-0.32544445853939785,-0.16382893007155203,1.0504925143225115,4,left
0.8240000000000001,0.2118875469585041,1.1112499156636222,0.020597889486497892,-1.3945358269549202,0.3200011321904906,0.21336948840046163,-0.3252111578094594,-0.16358970540301204,1.0507089110540697,4,left
0.8270000000000001,0.20293819346525088,1.112332497571277,0.026488330943628347,-1.3931737721416342,0.3200299075050762,0.21316599366567746,-0.32625400560846707,-0.16516858015142116,1.0500048796368784,4,left
0.828,0.19730875231281678,1.110370559709513,0.027550609034705763,-1.3964940735565776,0.31992026304977994,0.21344044567714604,-0.32431631248306614,-0.1621446566113343,1.0512667756226142,4,left
0.833,0.1957582713164104,1.106165636237771,0.028143471353783124,-1.3913697678937602,0.3201199742502939,0.21318799688686502,-0.32680494925628123,-0.1660488783020699,1.049656081542208,4,left
0.8340000000000001,0.19757346494501538,1.103596729201649,0.03111827642254293,-1.3969322518547398,0.3198858615849919,0.21336544479038316,-0.3247274880904305,-0.1627810038896068,1.05099710149134,4,left
0.8370000000000001,0.19909092872904177,1.0986296779757896,0.034367064833809795,-1.393686585644196,0.320028151256404,0.21329195396488088,-0.32478387571474787,-0.1629022662404136,1.0509753672417816,4,left
0.838,0.19964777551238333,1.0894798632140996,0.03727868546725928,-1.3908744597437759,0.3201526864759469,0.21324181707845416,-0.32874353264396095,-0.16902519305936622,1.0483698668413655,4,left
0.8440000000000001,0.2031101365891586,1.081093983049544,0.040103987059976004,-1.4032180587316136,0.31959762825074006,0.21342802437431777,-0.3190120704191623,-0.15393770664428147,1.0547573527796512,4,left
0.8440000000000001,0.2100325944709225,1.069906068020206,0.044770621179848744,-1.3802908371391385,0.32063554152235374,0.21311557208603232,-0.33514576002583296,-0.1789625659769895,1.0441700933858562,4,left
0.847,0.21403884918387855,1.0621048326944176,0.04577197576541629,-1.4097550896215076,0.31929661909173856,0.21349430894906146,-0.3138674353985225,-0.145955159740149,1.0581354458264935,4,left
0.848,0.21535977470302176,1.0603904996467244,0.045456850799698204,-1.385147015526218,0.3204180376014096,0.213186986806977,-0.22453149412998233,-0.007443005321578093,1.116763342681475,4,left
0.848,0.2216621392165458,1.053347626479018,0.04744210945624473,-1.3858085593943419,0.32038494727419325,0.21319989199237865,-0.20325660818840113,0.025558506133650627,1.130732586415948,4,left
0.853,0.22953328673543988,1.0434707925450044,0.04718980394442071,-1.432761936948494,0.31824918301582833,0.21375657139192575,-0.21938657799505662,0.0005400252323709224,1.1201411193682032,4,left
0.8540000000000001,0.23631997305616653,1.0351008007605706,0.04841556285449655,-1.3173558795841755,0.32350584440354546,0.21238784273402428,-0.2096536985313306,0.015629934962227823,1.126526995310515,4,left
0.857,0.24676965035636855,1.025992492018435,0.049226518344495984,-1.508707263315567,0.3147846654630376,0.2146551703395418,-0.21362570110180218,0.009485857342921,1.1239354783305975,4,left
0.857,0.2534563346553037,1.0204803714086539,0.04698868428160971,-1.2563135435310453,0.32629194783094567,0.21166622465667612,-0.21365552862160384,0.00941010682259996,1.1238836690580079,4,left
0.858,0.2551304887760374,1.019549053861115,0.04550501426689779,-0.19678798216163013,0.3745080093001688,0.19923233158356116,-0.21161614677322432,0.012612723932504311,1.125267800822631,4,left
0.8640000000000001,0.26170185625340947,1.0144700686196355,0.04337276151439086,0.055613759376441974,0.3860130338125787,0.19625136109777402,-0.21406686759497062,0.008773488109579713,1.1236141884442676,4,left
0.8640000000000001,0.2703730111066019,1.0069045164935932,0.04025465376313255,-0.13576022130878349,0.37730498217696073,0.1984951758494694,-0.2121455287401024,0.011769365484263274,1.12489458046029,4,left
0.867,0.2772832030630701,1.0044505771091363,0.03596698006729605,-0.020308167160354385,0.38252472803608806,0.19717588569361028,-0.213220948685451,0.01013470035805428,1.1242274551534193,4,left
0.867,0.28189496061598823,1.0010991309295112,0.03229245099436796,-0.06733438746215731,0.38045888099936676,0.1976524993094318,-0.21288274697326767,0.01055366478795741,1.1243250560579034,4,left
0.872,0.2842464624470081,0.9956752009781736,0.02863007333682205,-0.06790709749813367,0.38032747715947746,0.19776506583431153,-0.21277723578038937,0.01089852253230888,1.1246084122621633,4,left
0.872,0.28710172505517173,0.9936935588978204,0.022036971808101546,-0.043372033777306834,0.38154812785060177,0.19737298270552173,-0.21304623948565726,0.010259277779876858,1.1241692373623717,4,left
0.877,0.2871926965324002,0.9917516412354803,0.018285625663621883,-0.0728314842335806,0.38016251447998073,0.19776350899696846,-0.21276422800697187,0.010873482316390532,1.1245635742476254,4,left
0.878,0.28491376979892813,0.9846145076054884,0.017857411275727646,-0.049780242553320794,0.3811237831571339,0.19758081490117693,-0.21306706576836898,0.010405593871228417,1.124366902511682,4,left
0.882,0.2826291296682261,0.975597661028988,0.016375916049836188,-0.06241851580521097,0.3808318469014441,0.1974461791126106,-0.21262441932183662,0.010763578306976742,1.1242686499797183,4,left
0.883,0.2783596965236427,0.9694893294026669,0.014955019606651299,-0.05915700716099121,0.38049248949160497,0.197895023063535,-0.21333521266001265,0.010411589342168348,1.1246901900060946,4,left
0.8859999999999999,0.2721971947715166,0.9612928647825811,0.01592942686651826,-0.05640189198366617,0.3812162485926187,0.19726522255349027,-0.21234693367456806,0.010825129052603133,1.1240143294085034,4,left
0.887,0.26025967927327376,0.9514598001649472,0.01976932210324454,-0.0616636760569815,0.3804998928164507,0.1978031458555657,-0.21338695150762083,0.010404982729019581,1.1247432825849883,4,left
0.8909999999999999,0.24449646154519178,0.9424360485716969,0.023274944234499884,-0.056328947839739775,0.38073836337277334,0.1977447373983308,-0.21280736625667013,0.010615044381808316,1.1243087647717078,4,left
0.892,0.23028378422496637,0.93148461429249,0.028095912907338615,-0.06068367089932612,0.38142505521427345,0.19691260510965933,-0.2122023519219653,0.01095837411158628,1.1240012522997975,4,left
0.897,0.21510106035475773,0.9217504382355248,0.03735248012881703,-0.0573346781595219,0.37955550178677,0.19889170958863625,-0.21467742771118115,0.009721171832293785,1.1254559901275547,4,left
0.898,0.20019664052558744,0.9114379099327435,0.046969907644058916,-0.060005469032063434,0.3824501335193982,0.19591202337658567,-0.2101187991141923,0.0119678973400237,1.122739397173223,4,left
0.9009999999999999,0.18550666777717448,0.9008523066953446,0.05522700318395769,-0.05800914199939231,0.3793259726513225,0.19909833740753813,-0.21596492267216097,0.009093396953332894,1.1262306351058884,4,left
0.902,0.17310400355360667,0.8928556911068372,0.06327145340142393,-0.05859228497792539,0.3811565773195919,0.19725069007033558,-0.2110877200354625,0.011489359100647113,1.1233164232799817,4,left
0.9059999999999999,0.16662334458030953,0.8837114369614958,0.07112514852974225,-0.06086813673198936,0.38265541911804,0.19567851619424476,-0.21120750303100747,0.01143998027181672,1.1233970666125899,4,left
0.907,0.15991409400959833,0.8764204504222777,0.07918430136262396,-0.054179034925246325,0.37595012705444897,0.2025968880049766,-0.22054619573396045,0.006819471544166615,1.128943384346441,4,left
0.9109999999999999,0.15263597883415408,0.871402765531488,0.08750832018092679,-0.06581148952836162,0.3884189428886277,0.18975789984693073,-0.19760844086011198,0.018158972425034406,1.1153136370415733,4,left
0.912,0.148588808461534,0.8662714932774767,0.09497870717342326,-0.05115281365963904,0.37239712445899587,0.20624678306840574,-0.2356348216705287,-0.0006393212981772494,1.1379063561652418,4,left
0.9159999999999999,0.1476572156375226,0.8646732094030227,0.09838388829988387,-0.06327396738070712,0.385776131520398,0.1924800585151954,-0.18548067061905413,0.024157117095856145,1.1081147338221444,4,left
0.9159999999999999,0.14746094165289267,0.8639770764312313,0.09957228765672382,-0.06312468875589393,0.3854108896304226,0.19285388002838091,0.0250813763514132,0.1282411911829207,0.9829807153719796,4,left
0.9159999999999999,0.14505241078293457,0.8611553176447726,0.10246611603753013,-0.039535936623118356,0.35990921769345485,0.21910083646035164,0.07523326019975315,0.15304306430644768,0.9532037127409121,4,left
0.9209999999999999,0.14527283874621033,0.8582378157125463,0.10532079854288218,-0.09725691143144555,0.4225912007059429,0.1545877516116098,0.03720933270636845,0.13423888978947532,0.9757806120097212,4,left
0.922,0.14840654929027203,0.854856755374735,0.10901769328553351,-0.0016484863659461772,0.3186637974855634,0.26155333063383357,0.060148019274367234,0.14557615704879528,0.9621448568741245,4,left
0.9259999999999999,0.14838609518580195,0.8528331523807398,0.11227779983544232,-0.1277221857618111,0.45574007290851315,0.12046679544907954,0.05080119242610699,0.14097514725795712,0.9677436262817077,4,left
0.9259999999999999,0.148640147097787,0.8527185420254678,0.11284950553976136,-0.6569784426661759,1.0312595240584075,-0.4717667255868333,0.05069891277734307,0.14088381025988309,0.9677114021365323,4,left
0.927,0.15153764768365352,0.850680541280525,0.11550915797072599,-0.7830432030781103,1.1683415289680823,-0.6128542521454685,0.05555101780043778,0.14333993490634295,0.9649590282417569,4,left
0.934,0.15406966083590423,0.8481570563145666,0.11946593135664388,-0.6874753140933958,1.0643881473671089,-0.5058841798768252,0.049729887933973205,0.14040552148094881,0.9682890982908856,4,left
0.934,0.1583282267541618,0.8473864493290433,0.12120113702837101,-0.7450906437058913,1.1271378320703025,-0.5704089727956829,0.05427772904802354,0.1426781053099789,0.9656420668649931,4,left
0.935,0.1648873277463216,0.8462800598209796,0.12320090725140435,-0.7216951917277612,1.1015122884320194,-0.5441405959436378,0.051781198181961856,0.1414923350344842,0.9672351540463031,4,left
0.9359999999999999,0.1707731225380837,0.8450430750851726,0.12512600551805358,-0.7212805714827552,1.1013170814912736,-0.5437961761404226,0.05245533776181255,0.1416699606056319,0.9664818988129729,4,left
0.9420000000000001,0.1763864016026757,0.8445443223352337,0.12432518815519054,-0.733661624899979,1.1145295443508156,-0.5575341044144081,0.052915810241374615,0.142165552988972,0.9668154604173554,4,left
0.943,0.18234732518480085,0.8441665128491421,0.12292658191550929,-0.7188947165528742,1.0985770751290223,-0.5410572086599148,0.052021981155614,0.1413949724036819,0.9666017387845608,4,left
0.945,0.18801060209824927,0.8452044647329722,0.12234140194575893,-0.7302942628302693,1.1111951536071754,-0.5539220126749917,0.05289370020509082,0.14208791977360047,0.9666774968535295,4,left
0.946,0.19305306148716628,0.8467673172681442,0.12075594941297271,-0.7243423856295935,1.1040174248984578,-0.5469219429157786,0.05218189392971464,0.14173836431478776,0.9671055674474632,4,left
0.951,0.19735199768909528,0.847602491018649,0.11878647837565169,-0.7253518476208469,1.106327794852445,-0.5486344460554058,0.05284078561804706,0.14157797146739232,0.9656128937835198,4,left
0.953,0.20087865748445527,0.849280900123121,0.11742892001192712,-0.7274877608945916,1.107163367952274,-0.5503100406419971,0.05204370880777747,0.14229484996612618,0.9686032417226426,4,left
0.955,0.20455861353833232,0.8501096074151928,0.11540389565151482,-0.7242541256335508,1.1048320648322154,-0.5472608093567084,0.053063082047203794,0.14114149250980063,0.9642428202039908,4,left
0.956,0.21032068782718416,0.8509900290398145,0.11260620659465925,-0.7269127794376473,1.1077345254340076,-0.5502418761946686,0.052007987498401874,0.14238661175171236,0.9688726273145853,4,left
0.96,0.21440665404762743,0.8550446460121226,0.10904634694219126,-0.725862813110977,1.1043916551572472,-0.5480079776334379,0.05256777405840176,0.14164252487900858,0.9662266577313232,4,left
0.96,0.21334748204446194,0.8578827600041914,0.10494364163855455,-0.7249648646811265,1.1084443954871444,-0.5494221822276444,0.05329735299282128,0.14112327704562266,0.963800531703833,4,left
0.965,0.2126015270461005,0.8579247683535189,0.10190165440173608,-0.7274657784021541,1.1036616581747687,-0.5486123402304506,0.05050861534710224,0.1435956991212553,0.9741814542694732,4,left
0.966,0.21127672865300898,0.8610213763619644,0.09905720289986175,-0.7243747755206774,1.1082978125836347,-0.548999906434279,0.05560751613340498,0.1389745151504172,0.9549718497798482,4,left
0.9690000000000001,0.20560659738332732,0.8652021633288776,0.09623103312309256,-0.7264456884267697,1.1059291866389165,-0.549095093786233,0.04907644736889217,0.14491638431408554,0.9796297168881958,4,left
0.97,0.2020173879049377,0.8662962620288677,0.09418034672783593,-0.7273450684586463,1.1029231445179288,-0.5481849682601925,0.05452261867582936,0.1399526207587347,0.9590456807861267,4,left
0.978,0.19861052179337169,0.8673541920339511,0.09407443784274927,-0.7217747386805784,1.1142999225403676,-0.5503374989316474,0.054399833691303835,0.14009935996606426,0.9595933591263166,4,left
0.978,0.19056467453475634,0.8668106202284634,0.09491347777241507,-0.7324910731457565,1.0936221697644588,-0.5467783384078261,0.04393360356152951,0.14952344813005655,0.9988787135394385,4,left
0.9790000000000001,0.18305435253793972,0.8648340812106129,0.09208660310918415,-0.7185916441913285,1.1200214861598385,-0.5511922097639042,0.06962993707379946,0.1263457536330055,0.9023269959027429,4,left
0.98,0.17468150280282568,0.8639673638362537,0.09015759658904227,-0.7302543253392472,1.0980467355320733,-0.5475737928637952,0.02703088168712498,0.1647789797401067,1.06241689774063,4,left
0.985,0.16746470232419228,0.861970403131908,0.09222857719609828,-0.7298481710694913,1.098541289473612,-0.5475687751317486,0.08321904375172988,0.11408566695272016,0.8512539605780658,4,left
0.985,0.16704003891698505,0.860523444165789,0.09340821512203716,-0.7078505027962524,1.140708741643645,-0.55474170617839,0.31908000570753414,-0.09868615598206333,-0.03495379256682793,4,left
0.986,0.16352256229966117,0.8599103829736989,0.09544066770489225,-0.7620488682278848,1.0372124341282145,-0.5372615076781293,0.37527052506669273,-0.1493780297349419,-0.24611247497738742,4,left
0.9890000000000001,0.15470648307095314,0.8595593040089069,0.09923817756435477,-0.6721362511731432,1.2087571260236403,-0.5661862250276262,0.332672024633908,-0.11094577208745607,-0.08604856030128288,4,left
0.99,0.15118671182925544,0.8606276426761326,0.10144051429775919,-0.7907482746784154,0.9825139609314566,-0.5280584194849083,0.3583563887528717,-0.13412614315518387,-0.18252628676159088,4,left
0.995,0.15012404024666487,0.861787477989645,0.10333315225998779,-1.2885515805589063,0.0327824536957827,-0.3679380699158766,0.34792129495575513,-0.12469259324523241,-0.1433818120087301,4,left
0.996,0.14602560426859182,0.862015841631956,0.10792800837467634,-1.4071663800091865,-0.19344467230429713,-0.3298260899089931,0.34774666535679855,-0.12456334136625238,-0.14263533049038515,4,left
0.997,0.14227976302562376,0.86186283357361,0.11349531922738182,-1.3172404527296657,-0.021937498992398843,-0.35871340086968506,0.3532550427662583,-0.12950433004338752,-0.16342089258754705,4,left
0.9990000000000001,0.14006779460393998,0.8629528881106563,0.11707921381550263,-1.3714741829576593,-0.12536898042222208,-0.341298537336438,0.3466771793766316,-0.12358226899128183,-0.13866666852207923,4,left
1.0,0.1387107993874339,0.8632810572878633,0.11895732477772653,-1.3494112143141943,-0.08329121737496593,-0.3483801448839061,0.35176813885470815,-0.12820023729978033,-0.15772412963444538,4,left
1.003,0.13650858566854332,0.8632862089648567,0.11989342581549217,-1.3490952819291522,-0.0827020597230483,-0.3484726676106852,0.3490844077949285,-0.1256985214932057,-0.14787232551479546,4,left
1.004,0.1320570548940363,0.8661773310725795,0.12006627856473823,-1.3606688579372401,-0.10473369217188691,-0.344793622356679,0.34958725269509494,-0.12629099886297712,-0.14936195114648637,4,left
1.01,0.12929618607731236,0.868624230632862,0.12046922211227659,-1.3468078773428769,-0.07837611604459599,-0.3491689045030787,0.35047439831175864,-0.12692090626195915,-0.15318557501852412,4,left
1.01,0.13063279318697185,0.8693955674271532,0.12218900331649768,-1.3576009931014266,-0.09885315950513254,-0.3458101700041357,0.34908479506340184,-0.1258031710727064,-0.14757352625686024,4,left
1.015,0.13216044355633202,0.8704752977210439,0.12397551636484945,-1.351782498659857,-0.08786153298983576,-0.34757236349720866,0.35027038439755853,-0.12687401133078774,-0.15202519844697016,4,left
1.016,0.13261975044571347,0.8707630861902173,0.12602266013823263,-1.3531111472442539,-0.0903511319636841,-0.34719111851993345,0.3497061125353983,-0.1261125607612355,-0.15062856020549484,4,left
1.018,0.13471628145259545,0.8700791385527062,0.12991728957491044,-1.3546525495570596,-0.0931984938539226,-0.3467885634563393,0.34952579591001093,-0.12652666380548966,-0.14829711304269622,4,left
1.0190000000000001,0.13716019680853134,0.8685112143961866,0.13272247018004119,-1.351988206926461,-0.08841135003876352,-0.34734786833175535,0.35031245695642743,-0.1263758855286689,-0.15372042036138625,4,left
1.023,0.1405162401869839,0.8668581006935114,0.134132025700873,-1.354482435637622,-0.09266239848259675,-0.34705702698012864,0.3492844246442848,-0.12636573479812452,-0.14722711572070962,4,left
1.024,0.14557346465288107,0.8664059772665023,0.13733559733804407,-1.3528166383273539,-0.09010587339163917,-0.3469660206970367,0.3500054501191991,-0.12648619642098793,-0.15145659170195444,4,left
1.0290000000000001,0.14938576438502943,0.8645225237659863,0.1391732032712638,-1.3535407288164696,-0.09099230579887405,-0.3472325037753593,0.3502320668915858,-0.12623373719474323,-0.15361741736206633,4,left
1.03,0.15515453654509465,0.8623212538119616,0.13764327538489157,-1.3535370875799404,-0.0909809024609981,-0.34723815757122084,0.348511675128218,-0.12668128248927274,-0.14142052016421525,4,left
1.033,0.1613715528116206,0.8625856789689621,0.137095131027006,-1.353160959618012,-0.09118141792046819,-0.3464327621392407,0.3518743230852871,-0.12600662247702415,-0.1646876249354975,4,left
1.034,0.16429342647416217,0.86226077361542,0.13544628227342131,-1.3536124022725669,-0.08994475523370192,-0.34840444357870537,0.34749444449991196,-0.12681692344417872,-0.1345773719599177,4,left
1.038,0.16784066051200608,0.8624138325352138,0.12960759917047748,-1.3532750268998024,-0.0924308428174209,-0.3453549903722298,0.3511772530154792,-0.1261641339714738,-0.1598149427332421,4,left
1.0390000000000001,0.16908876426046593,0.8651165046216964,0.12383704857604562,-1.353438328653194,-0.08940580398330725,-0.3486689917949474,0.3510370493384489,-0.12614525972326432,-0.15897651955478082,4,left
1.042,0.1689323218068107,0.8672391475687968,0.1195564425340011,-1.3534064418469711,-0.09127343257588286,-0.34673383874818675,0.34412242301157714,-0.1274871722591695,-0.11126568708973847,4,left
1.043,0.16916015477012664,0.8708134581629086,0.11525720858933605,-1.3534061789635357,-0.09293335550445725,-0.3450577370027678,0.3611764191249588,-0.12424182874430068,-0.2287599762415509,4,left
1.048,0.1646311748391161,0.8780260520016894,0.10948595061840025,-1.353334052538385,-0.08552487625604982,-0.35241837733308023,0.3328778429353795,-0.1296026959853777,-0.03386022781883556,4,left
1.0490000000000002,0.16262731839533306,0.882262879138674,0.1051512655202494,-1.3535390653439667,-0.09940163498747248,-0.33874438194712486,0.37021178778493347,-0.12253915317626625,-0.290968923575584,4,left
1.053,0.16266076603907814,0.8828906388015036,0.10327002086517838,-1.3532268151283766,-0.08148790193058603,-0.35631896293419696,0.5268878914657689,-0.09286060978347146,-1.3700256083209494,4,left
1.054,0.1563407179618196,0.8868231277713592,0.09805963081853492,-1.3535078789184243,-0.0964848724196194,-0.3416391027925741,0.5642240024256568,-0.08579883259398366,-1.6271577936930601,4,left
1.055,0.15026405233107082,0.8929131833244381,0.09290219774596518,-1.353506723480678,-0.09608451296124917,-0.34203718654615783,0.5359180172270976,-0.09115331099036862,-1.4322062110532006,4,left
1.058,0.14518116620527016,0.8974731115433847,0.09122051827731306,-1.3529162828688528,-0.06740087488406124,-0.37003931730206185,0.5529890638465667,-0.08792310410977561,-1.549784414624526,4,left
1.0590000000000002,0.13765775315697595,0.9030419370406421,0.08971022346056945,-1.354372989412586,-0.13792523545428262,-0.3012062940418095,0.5460452225752568,-0.08923864976836782,-1.5019649589711108,4,left
1.062,0.13226464540246383,0.9112156569468274,0.0888413977184006,-1.3519488753026803,-0.020967038578752394,-0.41534107660096775,0.5459431677424949,-0.08925465928809109,-1.5012313664876462,4,left
1.063,0.13062942118524978,0.9164888065297894,0.08901023904267757,-1.3551530917845387,-0.17525391492898007,-0.2647929436828703,0.5495910623275178,-0.08856934525753117,-1.526421819812243,4,left
1.063,0.12986723998012387,0.9177153971981631,0.08863482688388255,-1.3687440721902266,-0.8229411949137337,0.36709225256164885,0.5452212388888837,-0.0893901851124902,-1.4962295917058457,4,left
1.068,0.12865397987370608,0.9221727677721385,0.08733682385725108,-1.3719617397359996,-0.9772463663521023,0.5176415805252464,0.548625437326481,-0.08875155020611342,-1.5197714233278903,4,left
1.069,0.12907676252773878,0.9298734751868839,0.0869464866720864,-1.3695037134668988,-0.8602568427799724,0.4035100772309663,0.5467906714309032,-0.08909655691607465,-1.5070933773743094,4,left
1.072,0.12938727933586358,0.9359129338650575,0.08675321789629212,-1.371023454969146,-0.9308145237225023,0.47232641377242474,0.5472038074439056,-0.08901356729028136,-1.5098552789440478,4,left
1.073,0.1283091116655464,0.9404944933090993,0.08442835453794625,-1.370339925139672,-0.902112331412831,0.44436195946013657,0.5477067262240416,-0.08893333467926935,-1.5135877177967187,4,left
1.078,0.1293583458860409,0.9458814393794054,0.08243677122800518,-1.3704446229187186,-0.901695632948452,0.4439051147438069,0.54683668471058,-0.08907251171911712,-1.5071323960985077,4,left
1.078,0.13140892037584767,0.9516791903349405,0.08382412511996129,-1.370649525575604,-0.916761075645736,0.4586513692493981,0.5476612604301738,-0.08894757146497878,-1.5133799450194996,4,left
1.081,0.13288134133187116,0.9566134178353037,0.08341718045626348,-1.3703186684382658,-0.8987228877903587,0.44103297743257613,0.5471039919852393,-0.0890283183813867,-1.5090886450976861,4,left
1.082,0.13547357641659813,0.9610352278749142,0.07853145754921914,-1.3707070999825426,-0.9127578485348701,0.4546844601817786,0.5473350012641185,-0.08898429345426905,-1.5106755095593118,4,left
1.087,0.13743056674773957,0.9627942703241142,0.07819438514859434,-1.370246801643184,-0.9052154243949055,0.4474568703077675,0.547387200542284,-0.0890204181289817,-1.5118765368600182,4,left
1.088,0.13790618620423695,0.9612762254276165,0.08277253328454107,-1.3708016823786708,-0.906892576723932,0.4488685635970178,0.5471407505414128,-0.0889620966614654,-1.5082561570218926,4,left
1.091,0.13929848031770575,0.958963271511597,0.08640748162067999,-1.370207940828922,-0.9089656233581644,0.4511660806170546,0.5474788311470707,-0.08905457990851984,-1.513453347853987,4,left
1.092,0.13969273559866197,0.9550941713885619,0.08949215129443283,-1.37064167405211,-0.9054389267366194,0.4475064002799911,0.5471576465717665,-0.08894869041806522,-1.5081832364664702,4,left
1.1,0.1371753245456347,0.9485333865212154,0.09143930956008116,-1.3707147561738364,-0.9086975619531117,0.4506834308903199,0.5473436566580668,-0.08900960807820288,-1.511231012805887,4,left
1.1,0.13163468560208313,0.9403771390518318,0.09656190144909002,-1.369728696055436,-0.9066104382319933,0.44905376612876235,0.5474169990467983,-0.08907914852990242,-1.513259909891714,4,left
1.102,0.12435982589287294,0.9337489374501244,0.10583750305965176,-1.371896954555826,-0.9073433775116573,0.44884011150343694,0.5469833587359296,-0.08879731732020218,-1.5036063380158537,4,left
1.102,0.11902780198302476,0.9274058510397294,0.11226480292577098,-1.3686925307913191,-0.9076716882954863,0.45054563977237294,0.5477931836972765,-0.0893184151148835,-1.5215470719019,4,left
1.107,0.11484809679495629,0.9179691013229923,0.11898736445254547,-1.372097142649566,-0.9068013786794126,0.4482201096674724,0.5467605025240972,-0.08864842965234065,-1.4985604097744278,4,left
1.107,0.11244789661213558,0.9093757981050614,0.1278624012230128,-1.3701379970013865,-0.9076532291934936,0.4499039573616308,0.5476194129219719,-0.08920766724681145,-1.5177275789964018,4,left
1.111,0.1108438138418111,0.9004356248046748,0.1334521838795961,-1.3684242051417486,-0.9073025645088293,0.45029790014901194,0.5475868692402928,-0.08919593125059712,-1.5171471834637134,4,left
1.112,0.1054472774533678,0.8907303072677741,0.13316362677927948,-1.3758779112357713,-0.9068354204936091,0.44662283450214063,0.5459884766284568,-0.08811819386024636,-1.4808646485877301,4,left
1.1159999999999999,0.09506368842579974,0.8870478879803377,0.1313435570751194,-1.3620668204839173,-0.9081749062248421,0.45389906511135175,0.5499243615385877,-0.09076244907021283,-1.5700875965409584,4,left
1.117,0.07908606097806654,0.8865607714498012,0.13800925774719885,-1.3797954196551387,-0.9062841265139049,0.4443901971336004,0.5433989127433858,-0.08638059297401998,-1.4221585286644751,4,left
1.121,0.0686064512837708,0.8854826245284266,0.14384610592319164,-1.3649990388896796,-0.9079352759275485,0.45239835905759945,0.5520039845251025,-0.092158073942479,-1.617258986139333,4,left
1.121,0.06714091266743527,0.8848874263005527,0.14744491967789758,-1.365390668072674,-0.9077781539091586,0.452074623475064,0.5880967743028753,-0.11644310081857628,-2.4360481262028766,4,left
1.122,0.06056456753522496,0.8848711402222345,0.16104114112410903,-1.3936262158396113,-0.9049284050257653,0.4370895704032998,0.5966990281165265,-0.1222168796177141,-2.6311231180774355,4,left
1.126,0.05350422181422114,0.8824845040699816,0.16673513659312172,-1.3242432842788658,-0.9120962096462977,0.4740749993153794,0.590178324245717,-0.11783870931670744,-2.483233277083424,4,left
1.126,0.05314920757252604,0.8765335427022413,0.16569238465065989,-1.43927204925037,-0.900148810992105,0.41269430859183115,0.5941093612275247,-0.12048562036386043,-2.5724253517036813,4,left
1.1320000000000001,0.05391261859025291,0.8744428924206749,0.17277191909779555,-1.2875602403259134,-0.9159316670749076,0.4936746555072018,0.592513240283506,-0.11939226176205496,-2.536136675323333,4,left
1.1320000000000001,0.05451945417574098,0.8749466948020768,0.17450411705861948,-0.6506345558670297,-0.9820668231943955,0.8335260222777388,0.5924840828785977,-0.11941257709273745,-2.5356264479214436,4,left
1.133,0.05139030712750147,0.871448082347659,0.17172962142133769,-0.4989395249984195,-0.9978574076563572,0.9145069999408778,0.5933315135196278,-0.11992710832835113,-2.554647410826902,4,left
1.135,0.044200287070724015,0.8694885330123397,0.16892166693066024,-0.6139498645783787,-0.9858888092291884,0.8531131024475676,0.5923185388881653,-0.11930008119063622,-2.5318633007652034,4,left
1.136,0.0356590411595073,0.872947730068363,0.15917000006890958,-0.5445609946288062,-0.9930989068173947,0.8901426333611517,0.5931044934230845,-0.11980554006398271,-2.5496108566023743,4,left
1.1420000000000001,0.025912243903391342,0.8780418343848002,0.14842310632060568,-0.5728547659420875,-0.9901831468314275,0.8750683883247647,0.5926893427413595,-0.11948014480262482,-2.5400271060811432,4,left
1.143,0.019065491335776365,0.8824358703585355,0.14109161435368628,-0.5731197898871871,-0.9901054272299672,0.8748754626510249,0.5927640420680235,-0.11967853397284312,-2.542250408188685,4,left
1.145,0.013257610263862076,0.885929561331811,0.13090304726866767,-0.5585060000964412,-0.9916928709559624,0.8827449852880909,0.5929131366923326,-0.1195239579236333,-2.544725205482071,4,left
1.146,0.007769488626076475,0.8897510193861145,0.11896776934334258,-0.5760514467889399,-0.9898028977997798,0.8733130730874378,0.5926739671418493,-0.11967561310313697,-2.54041097708078,4,left
1.151,0.007167405563767517,0.8951297793638611,0.10930059834631281,-0.5623218526461644,-0.9912583387643745,0.8806695589528208,0.592891836433121,-0.11957310416046552,-2.544468708175721,4,left
1.151,0.007865470351480677,0.9010270229209534,0.09562581449851554,-0.5699271431382784,-0.9905225120939299,0.8766669713593046,0.5927704943258676,-0.11948925941045681,-2.5417067188233116,4,left
1.155,0.011468487874084254,0.9044733760453181,0.07989957052218652,-0.5677152660524296,-0.9905763034566352,0.8776661777796608,0.5927563635902229,-0.11994179379734742,-2.543030147152301,4,left
1.156,0.020384561154861047,0.9051853180271565,0.06795002936757517,-0.5666198999173233,-0.990993005050526,0.8785624785470569,0.5929099954975257,-0.11898929532606435,-2.542761231155508,4,left
1.159,0.0298660798270088,0.9061598924034975,0.053357499776885114,-0.568958535029866,-0.9903787403624712,0.8769322692795762,0.5926518176983031,-0.12039071673116747,-2.542502638201124,4,left
1.16,0.042235473192584874,0.9055480526762707,0.03899889211631136,-0.5666127787243803,-0.990918278497195,0.8784886600611855,0.5929323417133273,-0.11890036047719996,-2.5429009809073126,4,left
1.166,0.05628798600128173,0.9042328592707078,0.02775823863065998,-0.5687683837605461,-0.9906967756405993,0.8773407277797447,0.5927618810349674,-0.11975584606469528,-2.5424770051998484,4,left
1.166,0.07058992508651782,0.9038258819110596,0.014044462657429459,-0.5662354532909872,-0.9904118856334921,0.8781284045497115,0.5926567642553904,-0.12052143426469157,-2.543072207480442,4,left
1.17,0.08636365714231647,0.8989003141748064,0.0014503185294978864,-0.5698804638180881,-0.9912856875009565,0.8774724936864599,0.593184996273663,-0.11721675318195401,-2.5420393537626174,4,left
1.171,0.09868256744966121,0.8939162929593778,-0.010548463016613678,-0.5649559905497437,-0.9899288667923095,0.8781769576518175,0.5921933589243477,-0.12333721208932787,-2.543671524725864,4,left
1.175,0.11138043157310336,0.892205917247719,-0.02145598935997059,-0.5701102438591541,-0.9913851203071414,0.8774770718951255,0.5934689883922106,-0.11547981234039478,-2.5416386792489813,4,left
1.176,0.12406066111370616,0.8900864158210398,-0.028162922961219743,-0.5672825964610696,-0.9905280706249936,0.8778007257768115,0.5924036081723796,-0.12203927729610385,-2.5433111413148293,4,left
1.18,0.13421359431945348,0.8910977036602274,-0.033805452916863404,-0.5640988005403238,-0.9898668750121746,0.8784794375209855,0.5924351508827737,-0.12186354403273929,-2.5433622304140044,4,left
1.18,0.1472988785483706,0.8919937979133891,-0.03649939905399879,-0.5768117862487562,-0.9928874853170406,0.8761635608714928,0.5944562693469211,-0.10934904025893968,-2.5398547014724118,4,left
1.1840000000000002,0.15839059481930362,0.8917836321809356,-0.037505917392918746,-0.5534549297327502,-0.9872629367009382,0.880340009138368,0.5894868221609365,-0.14010697962795993,-2.548364508375679,4,left
1.1840000000000002,0.16906776520835126,0.8959834968916753,-0.03481905416581174,-0.5833982193461611,-0.9944901141077801,0.8750041470013654,0.5977251700618988,-0.08910807288998925,-2.53428081954429,4,left
1.189,0.1781778594780499,0.897551172540362,-0.02950862100847345,-0.5584177921598374,-0.9884546603846058,0.8794474010247223,0.5868612901040648,-0.15637704902862726,-2.552858901742911,4,left
1.19,0.18028810940935522,0.8980355818443139,-0.02775241509463381,-0.5590225600651251,-0.9886254737356345,0.8793698568461163,0.5412372097050375,-0.438721901699834,-2.630935103437144,4,left
1.1909999999999998,0.18730962614631844,0.9040049199635319,-0.021959900315869325,-0.606894028011614,-1.0001089360292819,0.8707586523024671,0.530378149121322,-0.5059942482092498,-2.649532445418613,4,left
1.195,0.20084650619673317,0.9086478108551137,-0.013910673330507935,-0.4893116364281214,-0.9718756360642812,0.8918723969449468,0.5386112823386378,-0.45499169652607496,-2.635427910862759,4,left
1.196,0.21548571140803535,0.9136228561387192,-0.006402541944618551,-0.6842525669912563,-1.0186894330860303,0.8568794015090409,0.5336398535562461,-0.4857482434289705,-2.6439298204700634,4,left
1.199,0.224341705571396,0.9186851252299244,0.0014260410596185966,-0.4271227492954041,-0.9569426485261213,0.9030324500814866,0.5356782649751262,-0.473245847004789,-2.6404913548315254,4,left
1.2,0.22618492704645682,0.9199619037372241,0.0035991103713738297,0.6521201137550361,-0.6977570705943625,1.0968657893179372,0.5356725976012517,-0.4730440709491345,-2.6403938070532167,4,left
1.2009999999999998,0.23681215808175204,0.9250320843137483,0.009175565772998372,0.9092536573413846,-0.6360107619434541,1.1430258569071703,0.5346605707803336,-0.47964086982035065,-2.64227941503533,4,left
1.204,0.2508864187049008,0.9310983785603876,0.02075016407665771,0.7143298392394197,-0.6828259458453507,1.1080191874085155,0.535883069288394,-0.4717463009834178,-2.640034282240862,4,left
1.205,0.26018058620800455,0.9346656354733995,0.029237790736632806,0.831835806343626,-0.6545857138828233,1.1291515790997027,0.5349143608807679,-0.4778827833630235,-2.6417581226877505,4,left
1.209,0.27166700879546213,0.9406259609002489,0.03630164686872496,0.784132105840279,-0.6660847714111127,1.1205211677719547,0.5354882080528025,-0.4746100527675422,-2.640907397960804,4,left
1.209,0.28017368057763015,0.946525115380862,0.04222512480200462,0.7832695107124144,-0.6662313071695493,1.1204552894631723,0.5352361368275736,-0.47527277637379506,-2.640915629633515,4,left
1.214,0.2837371444698793,0.9532481835928676,0.04737976542388378,0.8085370303789379,-0.6602232349069328,1.1249055630583487,0.5353188935158465,-0.476305469713953,-2.6415031891502334,4,left
1.214,0.2848757179830015,0.9612911011981091,0.05597086682321192,0.778411005823203,-0.6674324239442391,1.1195330498969134,0.5352886471124803,-0.47459766936185194,-2.6406599544409506,4,left
1.219,0.282929333932593,0.9658453298586498,0.06475652876467376,0.8016551651160903,-0.6617984083853874,1.1237803916618851,0.5352782442245847,-0.476172396542544,-2.6413914607317768,4,left
1.22,0.27907240163284996,0.9697206891302739,0.07290284296450981,0.7895404584325736,-0.6648741642426399,1.1213690721024179,0.5354340526390327,-0.47522156023818174,-2.6411307842502163,4,left
1.224,0.2721341456405425,0.972646691492066,0.08375928995513618,0.7915563441249195,-0.664103626543572,1.1221368887292793,0.5349601895177998,-0.47535221489969226,-2.6406181889020677,4,left
1.224,0.26440185250049875,0.9692323702359621,0.09689285850472659,0.7959652709017173,-0.6633962040803971,1.1224309695104369,0.5358895461056639,-0.4760037586371892,-2.642053184172699,4,left
1.229,0.2535809174387376,0.9617343093657498,0.11576214568285925,0.7893282265775837,-0.6647100078914656,1.1216357251121316,0.534539897616318,-0.474804341151498,-2.639848844928316,4,left
1.2309999999999999,0.23547866736885348,0.9519768119798574,0.13707421192070113,0.7947507824582184,-0.6634052256530778,1.122612920486488,0.5359717959200453,-0.4761251161932399,-2.6422111782509736,4,left
1.2329999999999999,0.21611234502526877,0.9374121173826124,0.15842394982184443,0.792685217736627,-0.6644211567711036,1.1215065408026796,0.5351552623999651,-0.475295392164073,-2.6408265134009477,4,left
1.234,0.19438787896023801,0.9181154037494154,0.1848474704874326,0.7906801010775097,-0.6637146560335689,1.1228272443471174,0.5343978209257647,-0.4749106147002396,-2.6397283018953477,4,left
1.238,0.17068566537029956,0.8975266658823355,0.2073901354628469,0.7960398668177404,-0.6641998265023961,1.1212822999430676,0.5376250526080508,-0.4771349749727858,-2.6446925097439586,4,left
1.239,0.15044767338981896,0.8787709919002906,0.22393895344975462,0.7894597085887194,-0.6638907208318313,1.1227736797586214,0.5316559489765048,-0.47291290069549063,-2.6354560058426086,4,left
1.244,0.12440581725231394,0.86158976224737,0.2383726600524086,0.7938425355524907,-0.6639298425329587,1.122016131137169,0.5393170201784634,-0.4783552657327317,-2.6473253823286784,4,left
1.244,0.09481990459001383,0.8472920950649272,0.2442288421248732,0.7958148911283089,-0.6643972172055636,1.121039294629366,0.532922604425841,-0.47380419044284394,-2.6374092083735112,4,left
1.248,0.0656728359650538,0.8398721182070701,0.24333831784807097,0.7838518324562296,-0.6631517196043644,1.1247171325914875,0.5330901930939254,-0.47395836802447966,-2.6376974527070427,4,left
1.249,0.030227994440946003,0.8374389434951403,0.23968252052718902,0.8068240267691804,-0.665272619109287,1.1180374359033962,0.5453010793662598,-0.48253177900334243,-2.656550023082137,4,left
1.253,-0.00537515718650341,0.8395623412238045,0.23434079213951914,0.7770437367724196,-0.6626171940289705,1.1265640482921269,0.5152946507956054,-0.46142570904875674,-2.6101799175874323,4,left
1.254,-0.045562185428892246,0.8493021892649808,0.2268510831460141,0.802024363477302,-0.6648056361521766,1.1194663868435613,0.5650450604650261,-0.49642559412723947,-2.6870841071104805,4,left
1.2570000000000001,-0.074213013041637,0.8576280493242134,0.2171113642063837,0.8011664544209851,-0.6647899773412885,1.1196270121015333,0.49942458064351697,-0.4502660900968089,-2.5856277773379586,4,left
1.258,-0.08002928983836864,0.8604814937518763,0.2137607922197101,0.754017955580917,-0.660500876991249,1.1332451356922508,0.22397571794145021,-0.2565283336018007,-2.1598861670995952,4,left
1.2590000000000001,-0.09992000317832546,0.8707996858279092,0.20865790480976812,0.8701639193990156,-0.6709805221460273,1.0998177729076006,0.15835424825546235,-0.21038838147938324,-2.0583794775719273,4,left
1.263,-0.12005716646317989,0.8882228702062789,0.1872621296678506,0.6774934443030459,-0.6536274808502265,1.155226980683048,0.2081058657179803,-0.2453598054395763,-2.1353629692081624,4,left
1.264,-0.11899485366834427,0.8967743140903657,0.17166346760450518,0.9316543164105582,-0.6765092033424465,1.0821449955059854,0.17809935983510333,-0.22427157236509693,-2.088925687122682,4,left
1.268,-0.12010466862989935,0.9004690841995591,0.16668394853580987,1.9983513114281377,-0.7725891863933562,0.7753585929933855,0.1903076927244205,-0.2328617939189329,-2.1077787348381563,4,left
1.2690000000000001,-0.11706768300690437,0.9146489841827273,0.14159892463279533,2.252495348282646,-0.7954759336775727,0.7022637929900832,0.1904814427970481,-0.2329441540129213,-2.1081870146441695,4,left
1.2690000000000001,-0.10354257473458318,0.9352349042781398,0.10394606320033786,2.0598375401025817,-0.7781181163824478,0.7576926055937201,0.18407765843178997,-0.22852459109568962,-2.098001806933792,4,left
1.272,-0.08512929451298842,0.9567799317741965,0.06825443889731955,2.1760100818602215,-0.7885933543285952,0.724250184798046,0.19174872637983054,-0.23380034535025085,-2.110260162684516,4,left
1.273,-0.058396879074748054,0.9783978771007051,0.025602738218086136,2.128760651699726,-0.7843271106901848,0.7378642320044646,0.18577406962738985,-0.22971636853441155,-2.1006309718022735,4,left
1.2770000000000001,-0.024930909326343034,0.9985790170665186,-0.014720464438934976,2.1280928466394244,-0.7842654945751031,0.7380616305370105,0.18899557370977998,-0.23193123323709527,-2.1057792902120887,4,left
1.278,0.01559860615333629,1.022186885262291,-0.045848806753498464,2.152822566294009,-0.7865172515895116,0.7308888228364249,0.18826149666862735,-0.23131459228814416,-2.1049793216410766,4,left
1.2819999999999998,0.0579551727916857,1.0485562662239052,-0.0742353898060611,2.1232650737946512,-0.7838019972140482,0.7395182745900057,0.187401915868046,-0.23103334963047323,-2.1025748499093133,4,left
1.2819999999999998,0.0968949306292231,1.077817577478325,-0.09772141235129042,2.146191360699169,-0.7859427374953292,0.7327421852177078,0.1888896054311976,-0.23152283957363773,-2.1067258742621195,4,left
1.287,0.1330052389774109,1.1154583117436188,-0.11626687797167048,2.1339212742304206,-0.7847623761876354,0.7364515924274148,0.18749105471832989,-0.23122236674155633,-2.1022933287212773,4,left
1.288,0.16172460351579995,1.165672691830279,-0.13060338929285026,2.1366835250267693,-0.785043619275092,0.7355792617386192,0.18843015436916066,-0.23133830017655216,-2.105554666130614,4,left
1.2919999999999998,0.17920668218355978,1.2322021155180112,-0.1324942200916171,2.1398184653713685,-0.7853899792220232,0.7345246341462914,0.1880236941931187,-0.23104762645628255,-2.104942504734786,4,left
1.2930000000000001,0.18502875923873197,1.3179410971766492,-0.12539972694350177,2.134649446969391,-0.784718174286323,0.7365047741689302,0.18800699390253522,-0.2320461156722124,-2.1015592740219367,4,left
1.298,0.18162794987499614,1.4240308374213504,-0.13013585938506322,2.1390643108417065,-0.7854709564623006,0.7343848433736528,0.18826876177014923,-0.22992151474537767,-2.109636303592662,4,left
1.298,0.16536199613982855,1.5382858305284492,-0.1535875457560707,2.136635387865473,-0.7848166430074128,0.7361267127076158,0.18793020616720102,-0.23312758184527305,-2.0976673279861178,4,left
1.301,0.14100807634161985,1.644298647956933,-0.17265971044230755,2.1372776766698514,-0.7852213244546306,0.7351100475783642,0.18822218026300866,-0.229661373424935,-2.1103198178321216,4,left
1.3019999999999998,0.1399708817539227,1.7254961227602479,-0.18152122447048955,2.13726245750695,-0.7852238751614422,0.735107787708464,0.18805276146819383,-0.2316636329697032,-2.103008193143839,4,left
1.307,0.1706353121383128,1.7687151083128594,-0.22317716842189073,2.138141856783525,-0.7846576492311188,0.7363966447348551,0.1880595034364158,-0.2334971139494918,-2.0969414050977173,4,left
1.307,0.22620461508137962,1.7657786170477212,-0.3011552774212849,2.1352565425507954,-0.7858712221079917,0.7337017643276149,0.18822772438791255,-0.22561206474943646,-2.123797760047498,4,left
1.3119999999999998,0.2905015236329678,1.7232633164285063,-0.3594097988476014,2.1402820070482425,-0.784127010218493,0.7375156594491985,0.187905990761822,-0.24022807316534853,-2.0739775038194783,4,left
1.3130000000000002,0.3072987947036597,1.6781260139033658,-0.38564973197595454,2.1345028627299483,-0.7859467896850825,0.7335700960635063,0.18830633483625714,-0.22145141161930193,-2.1379291969085346,4,left
1.3159999999999998,0.2600589423672085,1.6330253273831197,-0.39786705785285986,2.1379779591553127,-0.7849102886916766,0.7358128252170448,0.18797807339609854,-0.23713137278295723,-2.0845486203958137,4,left
1.317,0.13744756451230403,1.6132685834950764,-0.39650186579320146,2.1410254220885987,-0.7840129009524068,0.7377246774564974,0.1880025122533217,-0.23671762891518983,-2.0860168782697075,4,left
1.3219999999999998,-0.04856939962142899,1.6437576179607816,-0.3717974228471934,2.127517638122063,-0.7879068977420509,0.7293928869557051,0.18856126717921834,-0.20677271297454325,-2.18770064318014,4,left
1.3230000000000002,-0.24867635784779,1.7094508720283703,-0.3387187020262032,2.1527263187139964,-0.7807072109360098,0.7448044091887513,0.1871765210243697,-0.2803658881542946,-1.9377577435196995,4,left
1.327,-0.4862766224952772,1.8660362670683117,-0.3530529281402456,2.120246417205457,-0.7899345260512673,0.7250414542028192,0.18947125230564443,-0.15834456759340038,-2.352172374362736,4,left
1.328,-0.6514008039663468,2.0035518599281783,-0.3896111156254999,2.1474144708321843,-0.7822467584202251,0.7415338582167831,0.1864474708062244,-0.31929062995889557,-1.805565260195119,4,left
1.329,-0.6880850026969434,2.044137126383208,-0.4018392082975605,2.146672902967028,-0.7824288817958731,0.7410699251203914,0.17375322258796022,-0.994812630769624,0.4888616459100933,4,left
1.331,-0.7936452715189389,2.199767210134559,-0.44134301878013904,2.094800538501296,-0.7971426264267145,0.709688241381937,0.17072536172229014,-1.1557440178676572,1.0354858891903251,4,left
1.3319999999999999,-0.8978129978917235,2.425949698574457,-0.46135599691870377,2.2223481066225936,-0.7610340999609597,0.786844845729185,0.17303276616797997,-1.033757309020507,0.6210281130308715,4,left
1.3359999999999999,-0.8384143390284836,2.5214649382752885,-0.385243427112358,2.010820445278581,-0.8208603625517,0.6588997885498058,0.17162044299291093,-1.1072901664001686,0.8710511433349568,4,left
1.337,-0.7744364071913838,2.5392825196247335,-0.31629761504782805,2.2898658707116706,-0.7419928166706646,0.8276766247597911,0.1722248712752778,-1.0774293837820887,0.7692491236154175,4,left
1.337,-0.749516945898441,2.5228602613799063,-0.3013262775146961,3.4610182124007034,-0.4104853396526845,1.5358122846340903,0.17219133027439393,-1.0769260060926684,0.7679152385404445,4,left
1.3419999999999999,-0.6265505192087459,2.401503167802428,-0.2957093548834189,3.74011800531791,-0.3316882567990649,1.7046238187355147,0.17191394358148893,-1.0926613191574737,0.8211992749035915,4,left
1.3430000000000002,-0.4552856974812206,2.1782313920826164,-0.33931511273019055,3.5285170917504023,-0.39143698297150537,1.5766453687511286,0.17230391499944397,-1.0739209227080662,0.7572236571887787,4,left
1.3459999999999999,-0.32183434842008085,1.9156440872450253,-0.4088819703312675,3.6560933998860747,-0.3553040661638017,1.6537730026999622,0.17191185051053623,-1.088351597496905,0.8072771644877819,4,left
1.347,-0.2238412863143478,1.6495522701810592,-0.42224978661030976,3.6043107820466824,-0.3702612008466131,1.622546135154563,0.17226133752945771,-1.080826383101737,0.7799277052516771,4,left
1.35,-0.18020322358780488,1.411734025086814,-0.3658188662571224,3.6033057169985003,-0.3699132979870253,1.6217693314517816,0.1719807296697855,-1.0821734201597415,0.7866991643997638,4,left
1.351,-0.1847853079709267,1.2172381875408154,-0.2311669400210798,3.6309079345985964,-0.3629905579872261,1.638694126509265,0.17213801445237142,-1.0846318672659918,0.7932984545025106,4,left
1.3559999999999999,-0.210393276160471,1.0649779037114047,-0.007956282729712681,3.5979252889217843,-0.37144972241453555,1.6185208395704997,0.17220800370943828,-1.0810116401779482,0.7809869577650677,4,left
1.3559999999999999,-0.2174907524899643,0.949712695175141,0.2674072538695698,3.623481648815537,-0.36459325771367723,1.6340718258104112,0.17177883986247877,-1.0837338186327072,0.7934812302221825,4,left
1.36,-0.15050515895056,0.8430870274143971,0.5368900109067274,3.610104267442581,-0.3691197304005699,1.626179006557769,0.1726562634374456,-1.0830023190422018,0.7835726345768976,4,left
1.361,0.008730781689002577,0.7264610423474316,0.7835881577916926,3.612213357565123,-0.36613827116323094,1.6268258052373068,0.1713925478686762,-1.0816913591403017,0.7901959054498946,4,left
1.365,0.23527813286478205,0.6042197547059199,1.0033333033515686,3.6175994861547043,-0.36871921286816567,1.6311637097684115,0.17271968944880234,-1.0841472326036445,0.7867293330401783,4,left
1.3659999999999999,0.47530233812717665,0.4824885453107775,1.1703664436012122,3.6091627471846826,-0.3660713521404959,1.6247366095701898,0.17196324220712514,-1.0821875509373164,0.786897187958034,4,left
1.371,0.6825397077785927,0.3715199279966934,1.2509576447063457,3.6167732558289254,-0.36793096274768944,1.6303948669094703,0.1712890635188738,-1.0816373836305364,0.7909069182779612,4,left
1.371,0.8262905010630301,0.28280045068485615,1.2299369167922123,3.6128380105296625,-0.36907999455084983,1.6280248611537729,0.1741929572654124,-1.0864497526978165,0.7815171430061068,4,left
1.376,0.8821427699769513,0.219169645095049,1.1324608427326872,3.6113809192303306,-0.36204769445675267,1.6251837197636747,0.16882142495326696,-1.0768236847508557,0.796551497616167,4,left
1.3769999999999998,0.8358725621173767,0.18969819250913067,0.9781641047281697,3.6186530272497546,-0.37700282403687446,1.634059994678048,0.17571230447314232,-1.0894961349539714,0.7783032537207659,4,left
1.381,0.6964359762226349,0.19387109028768096,0.8189661941382653,3.606860232507552,-0.35495984583138335,1.6202474748140197,0.1699628000301577,-1.0787815838146861,0.7930844578589956,4,left
1.382,0.5273638645400711,0.21580460166611254,0.6740373357725666,3.619607358738813,-0.37840819896193945,1.6350780965929559,0.1701143227248781,-1.0791914958402131,0.793080094123731,4,left
1.3840000000000001,0.3832900362997522,0.23719692045293495,0.5310872326290178,3.6119644443046535,-0.3649384133505434,1.626341139823305,0.18108605522429932,-1.0993972764043298,0.7641593982227758,4,left
1.385,0.28258922639143197,0.25103733014578644,0.37966680963120947,3.6067514543412806,-0.3529377699550904,1.6196412371084246,0.15412677804510252,-1.0495175540385504,0.8345320342730385,4,left
1.39,0.23718629224219592,0.2684970015539018,0.14649026397309434,3.631817165757577,-0.40482083778074796,1.6503242377281457,0.1988213828701485,-1.1323272459978562,0.7181943153264779,4,left
1.391,0.22442856433368874,0.2790708619461616,-0.019798504847293827,3.584926319380634,-0.3087181243858882,1.5931766408786383,0.13987399763294667,-1.02304416034426,0.8714699709155194,4,left
1.3940000000000001,0.2329670789192233,0.28821187834484063,-0.0658061164404964,3.645227608585387,-0.43209349287059995,1.6666123467415055,-0.10757670879800756,-0.5643685212964471,1.5148569238614484,4,left
1.395,0.25934273418055565,0.3143318807458396,-0.2231038981320943,3.5948479766866033,-0.32910207737894237,1.605281225957342,-0.16651424997183153,-0.45503544911681715,1.668021058738891,4,left
1.396,0.3290751779052782,0.3769269332774843,-0.42104266017081116,3.596354048066259,-0.331856142651172,1.6070303321419117,-0.12183535620208934,-0.5379404678758701,1.5519160479375624,4,left
1.399,0.43543403555930604,0.46882166678069753,-0.5524976799157373,3.6919505508961947,-0.5283524155463002,1.7236852896505885,-0.14878076002504673,-0.4879352249013604,1.6219376893256263,4,left
1.401,0.5471306694319882,0.5686754118551445,-0.6885434505549282,3.4568186014731106,-0.045428762382260846,1.4368571914425452,-0.1378106506131504,-0.508262788576269,1.5934349778296566,4,left
1.405,0.7534916124952098,0.7368616216051701,-0.835789079632302,3.8467194807946266,-0.8461200742728641,1.9124537152037917,-0.13768032223006435,-0.5086118727941268,1.593077879954771,4,left
1.405,0.9210835574304321,0.8688555937978144,-0.9322714625513946,3.332444364543748,0.20995888256910494,1.285157902286525,-0.14337967345659264,-0.4978234525596162,1.6079272209504656,4,left
1.406,0.96823380599436,0.905653170471379,-0.9615800813186065,1.1741403510621604,4.641993202972131,-1.3472909347399293,-0.13656342530113474,-0.5107706650357469,1.590157722280179,4,left
1.41,1.1602965309946907,1.0478308110224979,-1.034447200554604,0.6599244125588384,5.697848764373594,-1.974449690571564,-0.14185690656379285,-0.5006524227881355,1.6039705449334125,4,left
1.411,1.4337075364111491,1.237245489524755,-1.1124706547885912,1.0497163187519538,4.897649245534758,-1.499139458932905,-0.13899457691539363,-0.5060897415361281,1.5965082949603204,4,left
1.4140000000000001,1.6398793432455203,1.3554657987525345,-1.113365505134895,0.8147192206429894,5.379778984202456,-1.785535135958934,-0.13971661474973826,-0.5050075430604467,1.5983324938879062,4,left
1.415,1.833832867866827,1.4425378301069443,-1.0828624831048805,0.9101998925452206,5.184307223931388,-1.66939604896686,-0.14028743153799772,-0.5031236553809042,1.5999815259934065,4,left
1.421,1.958916949729397,1.463106850856442,-1.0065457957292834,0.9117359264285356,5.180568817762073,-1.6672102106640738,-0.13929764485930554,-0.506379743953679,1.5971241899798296,4,left
1.421,1.99593884097827,1.4247695493507115,-0.8830623188472548,0.8614888729107664,5.2839948406738015,-1.7286285389544989,-0.14012879741353299,-0.5030959611974397,1.59963422291524,4,left
1.4240000000000002,1.9599441857936741,1.345054494175872,-0.7259517927450563,0.9214388886718543,5.161406669440504,-1.6557791924491854,-0.13962409154136374,-0.5054207190219322,1.5980434184205392,4,left
1.4240000000000002,1.8566892329800804,1.228797275064983,-0.5235883247195778,0.8751067339222556,5.254904390013725,-1.7114237438350635,-0.13999219163049875,-0.5047503287834136,1.5989973915968978,4,left
1.4280000000000002,1.7198892465297297,1.1090872107396517,-0.30073901410447806,0.8995360182929882,5.207564987215486,-1.6831175013563384,-0.13937855058451976,-0.5033120028332846,1.5979215331094778,4,left
1.429,1.5569174053822663,0.9925930357752516,-0.08241818324920495,0.8947591915321926,5.213909597378532,-1.6871167033441208,-0.1405800781135293,-0.5069715077939538,1.5998582312661473,4,left
1.4340000000000002,1.386968228275842,0.8936510078052431,0.11772854180133174,0.8872811728420359,5.232025768425433,-1.6976932717187982,-0.13874090507810077,-0.5015986915756724,1.5968478461978926,4,left
1.435,1.22023275863475,0.8196412434815784,0.2847511458856738,0.8988523301027811,5.208292480480483,-1.6835943528301838,-0.1407634836362588,-0.5072114898208164,1.6002177931943713,4,left
1.4380000000000002,1.061041837419182,0.770697266387022,0.4208322217111111,0.8894523515512465,5.222465115015947,-1.6923552049282122,-0.13959536301990422,-0.5039670030937129,1.5982723788888675,4,left
1.439,0.9089047611083613,0.7548797134940572,0.5286225005162957,0.8933940048360602,5.226089941539051,-1.693725296196773,-0.13845155685637006,-0.5014254253873562,1.5962386340564443,4,left
1.444,0.74645619168405,0.7721906466728172,0.6134008904143353,0.8951891204661349,5.204923834063339,-1.6823213207158254,-0.1432805785443364,-0.512879474647255,1.6046773951539248,4,left
1.445,0.5648806292090808,0.8196221054303942,0.6877954731170935,0.8898940657682047,5.234428340426513,-1.698600798017563,-0.134333563505791,-0.49162091723208445,1.5890506276352214,4,left
1.4480000000000002,0.3474364828239531,0.8987589384982095,0.7401022183480278,0.8946808834480273,5.213838025803381,-1.6870905165723222,-0.14583375038200458,-0.5188973496775235,1.6091457368728523,4,left
1.4480000000000002,0.1091587353655407,1.001055038753639,0.7746395637163391,0.8951680248131266,5.203547673587315,-1.6815982434082541,-0.1362270417924077,-0.49613444327494355,1.5923558515510399,4,left
1.454,-0.1458224572683548,1.1156348388466446,0.7676399135874724,0.8853542368933681,5.264328302515512,-1.7149859363945559,-0.13647400526576559,-0.4967792344857457,1.5927728176428777,4,left
1.455,-0.41306387078993895,1.2342280674462194,0.7021557304432486,0.9057947550926753,5.147020573314674,-1.6503427214384703,-0.15485034296718225,-0.5400647083584745,1.6249476861251004,4,left
1.4580000000000002,-0.6537149147711643,1.3361774331500076,0.6001653398395659,0.8785515222251364,5.299684503808036,-1.7345559270361688,-0.10969169342763069,-0.4336501882457857,1.545894139749136,4,left
1.4580000000000002,-0.8903367265289583,1.4220735131267865,0.4352309424779072,0.9017258425325874,5.171365726496834,-1.663736276921024,-0.18456996120755875,-0.6100913046371406,1.6769712916013315,4,left
1.465,-1.0298094111144447,1.4645268187991372,0.3077903685646317,0.9007175004739657,5.175584313670528,-1.666093863505902,-0.08580029266439719,-0.3773698456867354,1.5040721126434362,4,left
1.466,-1.0534924071401668,1.466929712648153,0.2722621504771382,0.8572419751463605,5.418885587861595,-1.8003196724946489,0.3287977410994437,0.5993708079127366,0.7782316178517665,4,left
1.4669999999999999,-1.1309505179781423,1.476430561534243,0.1602937870621966,0.9647866331779598,4.819547024919981,-1.469621057894817,0.4275762065442035,0.8320880631070295,0.6053188958209532,4,left
1.4669999999999999,-1.1704555738042839,1.4339474504965852,-0.01623207128432415,0.7861347968403197,5.813909078439532,-2.018306013262233,0.3526857443872672,0.6556564574633523,0.7364176539865284,4,left
1.4680000000000002,-1.1344843554018034,1.3756553969460084,-0.10218163606124864,1.021955507470344,4.502051684206114,-1.2944197219505131,0.3978502550008046,0.7620551299137961,0.6573450507281602,4,left
1.473,-1.1270020665868845,1.3579391236038842,-0.13015621145834358,2.0117068641314093,-1.0046244949685283,1.7442064095570782,0.37948594248294487,0.7187908068304623,0.6895220912678607,4,left
1.475,-1.060194317651404,1.2757964025891764,-0.20564223806622262,2.247676875901808,-2.3166081417697346,2.46815747395513,0.37920004734804025,0.7181247162766904,0.6899683061566867,4,left
1.476,-0.9392140674361983,1.1527567721581748,-0.2842875497861756,2.0687367403692023,-1.3219359546053648,1.919304281450933,0.38887303073822144,0.7408987787729915,0.6731093245545033,4,left
1.479,-0.8165214254860218,1.0551426107754573,-0.2989052350093423,2.176668967751188,-1.9218372380796098,2.250323917484179,0.3772937883854685,0.7136354494878542,0.6933071657986685,4,left
1.48,-0.6793026334912484,0.9731589832320808,-0.2726292273973949,2.1328035953230433,-1.6777218562177212,2.115613801824592,0.3862991669682214,0.7348433892544238,0.6775730674592636,4,left
1.483,-0.5609335757610834,0.9285018567270332,-0.22910381399432056,2.132015660061607,-1.674408367089426,2.113819427540906,0.38148214480451315,0.7234817005403938,0.6860687941572094,4,left
1.483,-0.4563207770052706,0.9085787534632689,-0.2051316785529862,2.1553690505051537,-1.8021071531329167,2.1842148888149358,0.38249115898437486,0.7259039983318929,0.6841012974984663,4,left
1.4869999999999999,-0.35425661477569936,0.9015624141056113,-0.21997109907416745,2.1273291053259564,-1.649214105932919,2.099945290059247,0.38394610113823613,0.7292528384508221,0.6818999732956132,4,left
1.4880000000000002,-0.2579811413456146,0.9101848779813784,-0.26649029531510104,2.149261696851494,-1.7681925025207819,2.1655018782537674,0.3815135849423217,0.7236193846307082,0.6857344926903364,4,left
1.492,-0.16205612104670888,0.9259084667132758,-0.33565958937317936,2.1374861421362548,-1.70398700657287,2.1301141773097356,0.3837661035926334,0.7288482545895274,0.6821289551301228,4,left
1.493,-0.06954554247381696,0.9508324917388618,-0.3997902211460652,2.1397405450256617,-1.7190786904617281,2.1385245972504006,0.38236912654498745,0.7255566579390377,0.684577662117084,4,left
1.4980000000000002,0.023283574915642754,0.9787217998707777,-0.45717079981341646,2.144066861173852,-1.7349344364222734,2.1470081739983886,0.38267244833484715,0.7264153160347184,0.6834197174463275,4,left
1.4980000000000002,0.10924284351474203,1.0015160651460482,-0.5072356524159995,2.1365915486276625,-1.7074809463004206,2.1323166617104925,0.3833748759261587,0.7277405096101265,0.6836225735249633,4,left
1.5019999999999998,0.18522394371650802,1.0122238396309335,-0.5407306009061407,2.144227729164987,-1.7326321077271958,2.1456338842726566,0.38199268646983664,0.7249762558266665,0.6839052743586442,4,left
1.5030000000000001,0.251724982275307,1.0109606327614322,-0.5659068566659888,2.13877335531998,-1.7160968318734608,2.13695725426493,0.38352843668991604,0.7280695931630503,0.6834947619325785,4,left
1.507,0.2948892552583217,1.001415628463345,-0.5849653456063377,2.1402150283040235,-1.724244153675238,2.1414565346053402,0.38254268029258354,0.7260506993121418,0.6839042956469241,4,left
1.507,0.3115629194888825,0.9818091944828558,-0.5940709861382228,2.144132999994122,-1.7204178160641015,2.138515580550437,0.3821801664370278,0.7254574827358122,0.6834041414697121,4,left
1.5119999999999998,0.30424879448745074,0.9572471427178502,-0.5841139167706546,2.1343777154824632,-1.724690681605169,2.142769987564516,0.38456437210860184,0.7299313171481732,0.6841961521914304,4,left
1.5119999999999998,0.2686083272476918,0.9349779451790201,-0.5543378277226283,2.1487422465932386,-1.717277895002866,2.135849454277196,0.37999871569994687,0.7212956727013582,0.6829798604232902,4,left
1.516,0.20347355010938947,0.9197193169736979,-0.5154802933848033,2.133679276842206,-1.7265579038306567,2.14398805992966,0.3858937957635533,0.7324602961202964,0.6844844679142748,4,left
1.517,0.12485830054911656,0.9095804462135373,-0.47288519974216053,2.1423818326044346,-1.7212110351650112,2.139292407580484,0.38095879278938954,0.7231086999292391,0.6832522267084749,4,left
1.5219999999999998,0.02962246862382053,0.9104124123785892,-0.4289505838073938,2.149344882301875,-1.7135445550411696,2.1335623102620853,0.38114352660700024,0.7234800113596317,0.6831954324674661,4,left
1.5230000000000001,-0.07518363319092919,0.924040532114038,-0.3878934570608937,2.118182688000561,-1.7431379107734521,2.1564654283095424,0.39038658619361183,0.7409238955493702,0.6858388382571087,4,left
1.527,-0.17043556306206534,0.9421637972900077,-0.35312252370258845,2.175999015704624,-1.688454469974378,2.114096263788248,0.36760723882001556,0.6979096739036943,0.6794496602370623,4,left
1.527,-0.2861799144954066,0.9751014504808927,-0.3185466058621681,2.1018154128380857,-1.758923263764604,2.1686440351982483,0.40539295668503467,0.7692651110339437,0.6900135193529047,4,left
1.5319999999999998,-0.36273928623573,1.001242208401709,-0.29860868655691214,2.1637120156315515,-1.6999782822464233,2.1230352858926187,0.355551642073895,0.6751448822202264,0.6760841903444252,4,left
1.5319999999999998,-0.38131002353255594,1.010096284379265,-0.293831878721488,2.162014053377775,-1.70124897763632,2.124106267077608,0.14644627807762317,0.2802503940344152,0.6174194906799628,4,left
1.5330000000000001,-0.44748410596564897,1.0371379337881705,-0.2767210823755065,2.044150288441925,-1.8150246335888998,2.2117957102015806,0.09661256694368245,0.1861455647940276,0.6034762823514408,4,left
1.536,-0.5241509919496593,1.071188912661291,-0.2518812353283033,2.3338206837098854,-1.5356275391435554,1.9963731318691482,0.13438594576535628,0.25748333789821326,0.6140643200871464,4,left
1.537,-0.5739095044960574,1.097926377541445,-0.21640897503435894,1.8535840134261772,-1.9989004431962003,2.3535848825897876,0.1116180364716979,0.21446633100071152,0.607648400904351,4,left
1.5430000000000001,-0.6101224918778791,1.1139157199394378,-0.18790863814668912,2.4869648084455767,-1.3877697246792784,1.882367013172805,0.12085835300179341,0.23195816044845263,0.6103088993244119,4,left
1.5430000000000001,-0.6166871464849686,1.115813625960584,-0.18101205025847808,5.146438795318298,1.178434813246353,-0.09564893769437538,0.12102892636891685,0.23222142018554065,0.6102600238366661,4,left
1.544,-0.6389715212781988,1.1254395226936902,-0.15610902371968619,5.779833995922058,1.7896969478553872,-0.5669223736169675,0.11613028883781328,0.22302866431707455,0.6089806449033801,4,left
1.547,-0.6671369182061482,1.1327804371265646,-0.12503390714683016,5.29946585561703,1.3261959360596285,-0.20966165349267107,0.12196909331934513,0.23403022433360138,0.6105768890146179,4,left
1.547,-0.673798951132977,1.1283742098261715,-0.10778024704231753,5.589540787772172,1.6058432987736726,-0.4250218730376822,0.11746497530850011,0.2254740222090434,0.609238056712347,4,left
1.551,-0.6759990469735159,1.1221166691084319,-0.09449408959797215,5.470882509625904,1.4919118434986847,-0.33761327186033263,0.11981165767851491,0.23006695059271354,0.6101426318976493,4,left
1.5519999999999998,-0.6678126786604899,1.1100265425294256,-0.09033482644896168,5.470328722571814,1.4905572010654897,-0.3359924151728434,0.11942232590054297,0.2290540913056542,0.6096089059311389,4,left
1.556,-0.653006878935903,1.094712382426777,-0.08851544727223233,5.531037410100445,1.5499581445973476,-0.38234603247067367,0.11856662531950511,0.22777870187570806,0.609889487792199,4,left
1.557,-0.6294535417771683,1.0772252228119832,-0.09114320094482548,5.457471387440233,1.478616097686114,-0.32711090676240384,0.11985371276923758,0.229937861648579,0.6098356232772926,4,left
1.56,-0.5939296512534313,1.0596690018130386,-0.09874897972621478,5.516071040052208,1.534454818591913,-0.36967569011868495,0.11880282490853808,0.22795081878068338,0.6095375623323046,4,left
1.561,-0.5514032524794037,1.0470867838405542,-0.09968182194953644,5.481959548488172,1.5038174566597862,-0.3475954177624032,0.11920185679609627,0.22920824986709937,0.6104177333727783,4,left
1.565,-0.49785543831623524,1.036663228189213,-0.0978206830789361,5.494261511644012,1.5117609815401312,-0.3510751664503007,0.11959326360229117,0.22879597742882007,0.6087716049281668,4,left
1.5659999999999998,-0.434405312314012,1.0267830217264726,-0.09433938906933204,5.496127567052102,1.5183822424018523,-0.3594208950717568,0.11855040915190856,0.22854429466521853,0.6110985811201497,4,left
1.571,-0.35817122956235314,1.0168081025384104,-0.08802946815158705,5.486945296386509,1.505678213459942,-0.34704446503051894,0.1198300338020718,0.22912971123603343,0.6086651390914091,4,left
1.5719999999999998,-0.273127463203685,1.0098039739081774,-0.08506539557032541,5.500371008443412,1.5185990256888398,-0.3569819145079513,0.1189780503107519,0.22857877484737876,0.6100395659086222,4,left
1.5759999999999998,-0.1880646154979025,1.005644735135108,-0.08570052023871966,5.481974033490575,1.5079803908706,-0.3535881051463654,0.1185938100294082,0.22876521519146448,0.6113225475992956,4,left
1.577,-0.10184525123917249,1.0024082056644859,-0.08895099153360742,5.5074433514533085,1.5162543567352342,-0.3490156632674344,0.1209214547990661,0.22916933882087093,0.6058888558919869,4,left
1.581,-0.017287926681515582,1.0025229556444128,-0.09147246283253571,5.475284506577181,1.5095437537155387,-0.36017917707640823,0.11645219516453857,0.22813164655290277,0.6159227986254439,4,left
1.5819999999999999,0.06426600645832364,1.0006317190235285,-0.08549170162549587,5.507430531053906,1.5146361446174477,-0.34668909026131284,0.12224594329493474,0.22956797618405683,0.6030542543602875,4,left
1.585,0.14002328779574788,0.9966278854011381,-0.07893949562472133,5.4902889098132555,1.5130756680974993,-0.35555030235959584,0.11738578954433582,0.2283249465861357,0.6137909067148549,4,left
1.585,0.21043160333306374,0.9906811267455529,-0.07645881813874761,5.471059337657483,1.5074346253632358,-0.35987274778659395,0.11755317728238435,0.22842630022665078,0.6135106186652284,4,left
1.59,0.2748853822149602,0.9801244645597799,-0.07734713832976631,5.547001332087003,1.5241969097850112,-0.33483660316317304,0.1267251736906118,0.23061640251325125,0.5930106483507027,4,left
1.591,0.3238263730829043,0.969071858227208,-0.08259439516730827,5.408107561072501,1.4949835989625295,-0.3827137606271067,0.10412968615446141,0.2251354449097297,0.6433819615297292,4,left
1.594,0.36581267909538984,0.9504152961999407,-0.07500341111967669,5.585753937859012,1.5318202680294601,-0.3207130976399736,0.14161362144838152,0.23426014363527894,0.5598699772344702,4,left
1.595,0.39206733544679295,0.9355813228787936,-0.06388587612947602,5.437742057291038,1.501351767602674,-0.37269972029732595,0.09216535281798523,0.2222111890541583,0.6700193554514635,4,left
1.6,0.39745109111716903,0.9316018469871281,-0.059363361733265084,5.441291503325127,1.5017384896573334,-0.3709409514590143,-0.1153651892806029,0.17168909464529108,1.1323809842118744,4,left
1.601,0.4149061978075134,0.9141526186439577,-0.04370239969800323,5.724734795672191,1.5610010173151772,-0.2727449580590321,-0.16481494327620097,0.15963742553566396,1.2425288879477818,4,left
1.601,0.4358817677720518,0.8893495078463217,-0.03255877094283166,5.028727162876972,1.415973525430751,-0.5146147508194157,-0.12732511918109543,0.16877310345862645,1.1590202086397965,4,left
1.605,0.4429140944055824,0.8674896426996506,-0.030817113411367433,6.1824890444872205,1.6561981642014512,-0.11337886968426963,-0.14993516151035352,0.1632647769871579,1.2093860727762782,4,left
1.605,0.4476883520993463,0.8523545263273145,-0.026042925068702472,4.660775072356001,1.3394278011076006,-0.6426940657589302,-0.14073722969434938,0.16550386356349528,1.1888932952987843,4,left
1.61,0.4482611452734936,0.8481771449166373,-0.02585997345415835,-1.7269766799904662,0.009472380599218344,-2.8639944204928076,-0.14060475755348664,0.1655390540918945,1.1886058714327237,4,left
1.611,0.4488848261002833,0.8370314017658451,-0.02200841803977754,-3.2486736694573044,-0.30728716058492433,-3.3933553950411213,-0.14543157235464113,0.16435947878081425,1.199346077552177,4,left
1.611,0.45216604819464107,0.8265523393161446,-0.01284843336229037,-2.0949828723402013,-0.06712510054360489,-2.99203077495188,-0.13965013435493412,0.16577185543741138,1.1864823354950502,4,left
1.615,0.45121678930075293,0.828385270823917,-0.011561503523749444,-2.790810791899111,-0.2119768622253149,-3.2340206117497066,-0.1441528715731485,0.1646716419091392,1.196498716949272,4,left
1.6159999999999999,0.4506846146235283,0.8324964059109542,-0.014514977127969493,-2.507691454108685,-0.15304696152602157,-3.1357025937871446,-0.14172527641585833,0.16526421304231076,1.191096592879903,4,left
1.621,0.4512489049534983,0.8402764737412858,-0.016344852876520065,-2.503702117388421,-0.15219271179244936,-3.134015098834953,-0.142277718016072,0.16513242686109192,1.1923392876815793,4,left
1.621,0.4502597347559573,0.8527862237604136,-0.021835404142234636,-2.652138844253786,-0.18313287161444283,-3.1860526678328984,-0.1429271798172536,0.16496584208111542,1.1937482737710232,4,left
1.624,0.4490906700079432,0.8666919817673922,-0.02865938076264246,-2.4743265567345536,-0.14607469819998278,-3.1238099888072224,-0.1418033865596972,0.16525370431128936,1.1913094348747566,4,left
1.625,0.44582860266022856,0.8825297318981371,-0.027994518926425044,-2.612814402685853,-0.17492274249558987,-3.1721467785261646,-0.14286052954942519,0.1649790578396335,1.1935854148351983,4,left
1.629,0.44163167033920697,0.9015932086492084,-0.02673534334102838,-2.5381151788782894,-0.15941255386544337,-3.1464999758035574,-0.14215031366912664,0.16516563372785126,1.1920661362749467,4,left
1.63,0.4365811100017238,0.9195026237085965,-0.03042116003902986,-2.555234381026211,-0.16284710148697412,-3.1513814224148917,-0.14245653405906855,0.16509120921300013,1.1927488840416731,4,left
1.6340000000000001,0.43000412901944984,0.9330335501179303,-0.03231175580009531,-2.574937594095615,-0.16717231600310278,-3.1600788608007777,-0.142473951237857,0.16506175790770308,1.1926711288022727,4,left
1.635,0.4263989663187633,0.9456095054515912,-0.034833814966951135,-2.5407892209338945,-0.15978841780317005,-3.1459407387671154,-0.14226572044225055,0.16516997918098497,1.192473531298822,4,left
1.639,0.42286296076962415,0.9548976796873219,-0.03860277483476081,-2.5728390732642303,-0.16668009701755226,-3.1588894617976413,-0.14253718257636497,0.165018149464413,1.1926810728686195,4,left
1.64,0.41734438828187403,0.9608961100782786,-0.03702359549191975,-2.5512952194216476,-0.162197100508512,-3.1514121787979867,-0.14229975637433218,0.1651672902552622,1.1925755733692358,4,left
1.6440000000000001,0.41222417152944124,0.9659463314341751,-0.02992425993408384,-2.560885539555585,-0.1637853092588023,-3.1514069383663292,-0.14243747315938596,0.1650810506821957,1.1926376683103443,4,left
1.645,0.40462393353416504,0.9666707583246832,-0.02433096193333771,-2.5604671155643466,-0.16463170937570837,-3.1588958645991467,-0.14244107623100627,0.16503457390982806,1.1924349475051266,4,left
1.6480000000000001,0.395786163401837,0.9664266401583811,-0.023708578825462054,-2.55594303503365,-0.16229676250451114,-3.1459333675172108,-0.1422763465112728,0.16527388099786905,1.192990685501624,4,left
1.649,0.38678194281655065,0.9692931913097852,-0.020097911562478487,-2.5617234989149185,-0.16498578001774927,-3.1600847356568122,-0.14258919568134398,0.16482845385337552,1.191976295017406,4,left
1.6540000000000001,0.3760475099331384,0.9727552378269861,-0.010685111502698663,-2.556871431982491,-0.16311652082269074,-3.151381793834333,-0.14219709230761263,0.16539790303095997,1.1933003996599603,4,left
1.655,0.3677268247883718,0.9763211761639706,-0.0009997632254218195,-2.560182981101952,-0.16306749444209712,-3.146487625763182,-0.14252000746652405,0.16492381387584526,1.1921848270301139,4,left
1.6580000000000001,0.36190601482220774,0.9791971884370892,0.0055883190087859256,-2.5579535557844464,-0.1658397987487938,-3.172175009964369,-0.14249933619182936,0.16493899661959804,1.192189099679497,4,left
1.659,0.3562547065736333,0.9803688341542224,0.009909915242175844,-2.559878272070806,-0.16023647213764508,-3.1237678118552816,-0.14193483944767887,0.16583186387004978,1.1944287987435156,4,left
1.663,0.35506327574576513,0.9817949519919676,0.015879993633118872,-2.5578976987501667,-0.16753563356056972,-3.1860969047575396,-0.14333111209016383,0.16363623531715418,1.188942249113246,4,left
1.6640000000000001,0.3557836051939719,0.9850039830613926,0.019998918341469468,-2.5593592487111563,-0.16139901271315943,-3.133992889085631,-0.14101717499592292,0.16727568581101954,1.1980426020249177,4,left
1.6680000000000001,0.35357760945483446,0.9881355412112345,0.019989703225726786,-2.5600702017370462,-0.16172818863311045,-3.1356685707441123,-0.14406607132706833,0.16247658882536423,1.1860315704530815,4,left
1.6680000000000001,0.3525390904566266,0.9885977558070953,0.019694852153357603,-2.5548017546940454,-0.17289651818236046,-3.234146770768729,-0.15683522240398823,0.14232313779127742,1.1355712606650297,4,left
1.669,0.3516160517901098,0.989971209377739,0.017439802484449596,-2.5668852673892153,-0.14525205453634016,-2.9917894972191656,-0.1598794800635665,0.13752457641801286,1.1235506151982717,4,left
1.6740000000000002,0.3495991389740095,0.9938796011096903,0.013593274619563315,-2.5470509862711546,-0.19114014993183012,-3.393705427416287,-0.15757271430231623,0.14116497551199084,1.1326636849043532,4,left
1.6740000000000002,0.3492525223740476,0.9949508043919786,0.012620740075534303,-2.573227893773002,-0.13060663180526155,-2.863578999812908,-0.15896327119881654,0.13896371399206497,1.1271728909019756,4,left
1.6780000000000002,0.34892639651197743,0.9950160390059367,0.01250560648657319,-2.683824442379396,0.1232110085624177,-0.6387081613734098,-0.1583978454823598,0.1398696620338104,1.1293949927283014,4,left
1.679,0.3478341556630381,0.9972358415523795,0.008050246197523078,-2.710154467119467,0.18373046824607642,-0.1086229791387013,-0.15838967417549094,0.13986415433965735,1.1294484225474042,4,left
1.68,0.3424156963292031,0.9973058128871702,0.0015755432978425635,-2.690154523658927,0.13785757587007388,-0.5104942781956227,-0.15868625927305444,0.13941376296937774,1.1282533253528548,4,left
1.683,0.3329789296992997,0.9973225009536911,-0.0031493664155342917,-2.702175027859436,0.16550785031696533,-0.26812005493464125,-0.15833087767662907,0.1399670686554077,1.1296679169691801,4,left
1.683,0.3263929968479155,1.0000128516892604,-0.007844707887467186,-2.6974561032998334,0.15428901347216467,-0.36674623313559906,-0.15860837812166773,0.13951476460971268,1.1285935021296056,4,left
1.6869999999999998,0.3198986915528416,1.0013825957048872,-0.014395766079975107,-2.6969846923214162,0.1540684747281692,-0.3681034902503221,-0.1584570589658515,0.13979983016987801,1.1291198879028959,4,left
1.6880000000000002,0.3116990400697439,1.0019652365782115,-0.02241108179612704,-2.700141509949027,0.16004936044834278,-0.31645605543222854,-0.15849477735999518,0.1396608273179123,1.1290948850398947,4,left
1.694,0.30624693035775263,1.0022858039124065,-0.027867148483502878,-2.696472806825539,0.15290524306293726,-0.3783304582760938,-0.15852982765169554,0.13970285832966495,1.128803568754754,4,left
1.695,0.3017538385305537,1.0010242964620768,-0.03023426660950773,-2.699125914283516,0.15844173724021512,-0.3301195077242186,-0.1584649898707172,0.13972767268599912,1.1291818800316302,4,left
1.6980000000000002,0.29459480936232163,0.9996314766300426,-0.033804610120445666,-2.6983461186841438,0.15553614226665563,-0.35619720777421593,-0.15852927682625392,0.13962550705091997,1.128928943549024,4,left
1.699,0.2857165685350289,0.9988340969525804,-0.03741618490092809,-2.6969880350132125,0.15601427202449408,-0.3500454984852367,-0.15847933324724442,0.13984805253681593,1.1288992239889364,4,left
1.702,0.2766926082670166,0.9980797246813315,-0.038395653461359716,-2.7001819248954693,0.15714431743515653,-0.3435094806872895,-0.15851392856021077,0.13946511306464873,1.1292816853874217,4,left
1.703,0.26601170963039816,0.996838342859648,-0.03926638523888423,-2.6960880000535203,0.15536234194218512,-0.35500135410333467,-0.15849030390976326,0.13999211536782355,1.1286003019553643,4,left
1.7069999999999999,0.2566303995171798,0.9945868516377165,-0.04338826496577791,-2.699436231278293,0.15697438828210242,-0.3441593369614858,-0.15850526979039675,0.13944656352867138,1.1293672535402517,4,left
1.7080000000000002,0.25160454339734084,0.990784632605397,-0.05015634244884168,-2.699088027041709,0.15612099979172245,-0.35166669441016674,-0.15850345714663266,0.1397508282616513,1.1288968795671261,4,left
1.712,0.24669564989399762,0.9876939915384467,-0.056681371668117944,-2.694069267270584,0.15587555668069003,-0.3477274719163579,-0.15848062754676423,0.1400471751970958,1.1285760292575495,4,left
1.713,0.24472769000863742,0.9849322117983268,-0.06261915480828512,-2.70591190289676,0.1572908771799689,-0.3492414904496306,-0.1585413470905941,0.13881314802768724,1.1301364000737397,4,left
1.7169999999999999,0.24866434566247486,0.9826017412888796,-0.07151560790987607,-2.6881546280695874,0.154974880133736,-0.3487759765798193,-0.15843795209699657,0.1410866729199366,1.127205713858539,4,left
1.7180000000000002,0.2527210078626351,0.9834965156693564,-0.0811375250435486,-2.707101731871939,0.15748195938143922,-0.3489385765138775,-0.15856746580553432,0.13817293767284178,1.1309822659805595,4,left
1.722,0.2582917585542144,0.9830315846648271,-0.08722653496855018,-2.696126928580717,0.1559728897789941,-0.3493717518612136,-0.1584606050352631,0.1406028182770933,1.1278236100774683,4,left
1.723,0.26582532437054407,0.9827238844080509,-0.09294055408627766,-2.686798778592151,0.15497123770909318,-0.34713317783911446,-0.15846166660523694,0.14054145279506275,1.1279181913932055,4,left
1.7269999999999999,0.2707292832691166,0.9851173946169303,-0.09485014367788688,-2.727841340372702,0.15984509747263853,-0.3526553931616446,-0.15867039542814176,0.13589669911563795,1.1339170623832957,4,left
1.7280000000000002,0.27620029823920933,0.9851110455176015,-0.09271242778889957,-2.651686723195543,0.1507175362554314,-0.3431853728206995,-0.15815980559851334,0.14730601742452837,1.1191591688263198,4,left
1.734,0.2802553459419572,0.9860696757787316,-0.09371690889807197,-2.7494839925334995,0.16245840629660818,-0.3551730929817385,-0.15900574227415526,0.12839219190036588,1.1436338343323964,4,left
1.735,0.2797463445593865,0.9885919065445228,-0.0949786142665463,-2.6678309543639065,0.1526472162599505,-0.34523391808562043,-0.15788983665112136,0.15333727885811665,1.1113494685564977,4,left
1.7369999999999999,0.27890815922434864,0.9883573867947723,-0.09443753544942354,-2.6700625289130437,0.15294658668179525,-0.34523701453276273,-0.15321044576751153,0.2580634862862069,0.97585092791985,4,left
1.7380000000000002,0.27721911741478844,0.9876056706048058,-0.0926188084260092,-2.825695106228376,0.17154633493345994,-0.3650642431272506,-0.15209368944009083,0.2830060257797211,0.9435650638820571,4,left
1.7380000000000002,0.2755963282152574,0.9864144696015793,-0.09126981364153705,-2.4431370190715795,0.1257879680262159,-0.3166419680127297,-0.1529402943081959,0.2640953555447858,0.9680423521659132,4,left
1.7409999999999999,0.2737341210550992,0.9843849347480742,-0.09345690510449556,-3.077452393102704,0.2016715177093113,-0.3968515030178893,-0.15243094788667327,0.275504308497437,0.9532815268862677,4,left
1.742,0.2701153455679923,0.9843804347207592,-0.0956741707543676,-2.2407806330853903,0.10157596020723458,-0.2910570306775949,-0.15263478191122787,0.2708533266003889,0.9592823358561363,4,left
1.746,0.2677942766320158,0.9836178100220031,-0.09333491983198897,1.2709742327062026,-0.3184746051153221,0.15334400425984027,-0.15264514487144148,0.2708073088442023,0.9593776342558584,4,left
1.7469999999999999,0.26663801470487597,0.9803978719437435,-0.08373925715067942,2.1076665580766907,-0.4185745149898298,0.2591803247191764,-0.15252593285482902,0.27321362519222986,0.9562140377033969,4,left
1.7480000000000002,0.26655487650591964,0.9772662137974559,-0.06916612414291633,1.473328913582153,-0.34268625981147527,0.17892550606645935,-0.15266651539768283,0.2703253020243559,0.9600003967463854,4,left
1.751,0.26798052293544594,0.9722337889532991,-0.0576895177572995,1.8558786094122648,-0.3884428233947308,0.22733058475534612,-0.15256062926390795,0.2725842465797719,0.9570564039442809,4,left
1.7519999999999998,0.2697900479523899,0.9681332669429776,-0.05645128503555501,1.7003196918638765,-0.3698587207336731,0.20765349482589418,-0.15260657902282979,0.2713367287113343,0.958629264569209,4,left
1.756,0.2687048710992388,0.967096406368957,-0.06165063020268036,1.6979295310673623,-0.3695257038760579,0.20732732346350138,-0.15262226941575685,0.2716908652841168,0.9583041562202559,4,left
1.757,0.26687370117836956,0.9661498459430753,-0.06098891905177633,1.779810028165878,-0.3793851224413964,0.21772974835029824,-0.15255922741363226,0.27188741926426196,0.957820695165962,4,left
1.761,0.2674945778662659,0.9683057332955244,-0.05212139849446852,1.6817861592347148,-0.36759624388033574,0.20528069525231088,-0.15264387568722718,0.27148269734405206,0.9586253994016266,4,left
1.761,0.2642335604123109,0.9718962321726767,-0.0423306170428584,1.7580387318732003,-0.3767444882597882,0.21494983279394053,-0.15257285695951783,0.2718845111636451,0.9578815076011722,4,left
1.766,0.26124808054517124,0.9742771102504969,-0.036646663949043014,1.7171903345885675,-0.3719119268499588,0.20982362987944359,-0.15258824203522459,0.27153018489677133,0.9583380331903608,4,left
1.766,0.26245557270691944,0.978022727260004,-0.03475427802807167,1.7258923062896758,-0.372780670959741,0.21078629917352193,-0.1526693568036247,0.2719168364941183,0.9582530998150613,4,left
1.771,0.2608084085893626,0.9824836343309735,-0.03346345623501504,1.7379464499001185,-0.37451867528343763,0.21255169647832914,-0.15246819521199717,0.2713857338162119,0.9579910525921418,4,left
1.7719999999999998,0.25894669391694736,0.9851989476564809,-0.03149797495459865,1.7176742908253597,-0.37173071141053204,0.20969075307083992,-0.1527720971325906,0.27209359771252883,0.9584912534410833,4,left
1.776,0.2592290728934453,0.9851596517484891,-0.029664250362656654,1.7364886118401253,-0.37427053017286,0.21230773075872889,-0.15244738754307052,0.27135474839632256,0.9579376341841699,4,left
1.777,0.25750575118273855,0.9863857547683018,-0.02894853997911625,1.7246539045208573,-0.37285746456069757,0.21081239262231272,-0.15263618690696135,0.27175678999186165,0.9582897412293693,4,left
1.78,0.25170530653755085,0.9885284859599062,-0.02766020747802695,1.727714487360506,-0.37268695666848856,0.21076019660763712,-0.15279321004841978,0.2722264532913999,0.9584338062064619,4,left
1.781,0.24558831508408321,0.9884539011928102,-0.02452801320658549,1.732540483590056,-0.3744904593380538,0.21237545160793575,-0.15209652357756503,0.27037252682677704,0.9575421555421971,4,left
1.784,0.24203851137064974,0.9879693397158621,-0.024946654422869665,1.7225099437706852,-0.37146137554814673,0.2096072962758403,-0.1533903579188139,0.2737742196535907,0.9592430166340936,4,left
1.786,0.23763217980703885,0.9859441821194687,-0.026159363589135332,1.7337300292721007,-0.37475348291846206,0.21262506964288833,-0.15172845170354735,0.26941452618417105,0.9570482125876262,4,left
1.79,0.23504075473972824,0.9854329708250912,-0.02114714720397163,1.726414145408028,-0.37275168654898416,0.2107760138013809,-0.1531163240333753,0.273050783869554,0.9588852025361606,4,left
1.791,0.23511632377018243,0.9861702477973509,-0.017581316122152184,1.724233048583474,-0.3715195499442321,0.20970386384712605,-0.1530775469468728,0.2729653185805352,0.9588182104486095,4,left
1.795,0.23404023015847714,0.9835159097529736,-0.016542178245503136,1.7405316067887049,-0.37771970713507896,0.21525024735086773,-0.15043453947019358,0.2659894734438225,0.9553712938427366,4,left
1.795,0.23211028213675156,0.9842785966864157,-0.014212885305500526,1.7090864802430183,-0.366075630854996,0.20481024589015906,-0.1569327406759011,0.28311971899767985,0.9638645407325284,4,left
1.8,0.23045125774329409,0.9867136679923522,-0.015367526009558444,1.7497377820908215,-0.3810599786167309,0.21825030222707753,-0.1461571632238569,0.2547213247660636,0.949775881668128,4,left
1.801,0.231716750028516,0.9847536363677803,-0.01746141917200678,1.7156880940726795,-0.36853691520840137,0.20701590926457628,-0.16037134421815374,0.29217781045716373,0.9683608360046659,4,left
1.805,0.23137175781278752,0.9852234031567749,-0.018821529087207363,1.7170372720691685,-0.3689270134488172,0.20737358650959437,-0.22002778367817455,0.44942207899626474,1.0463385675114634,4,left
1.806,0.22890456133269477,0.9871924666370891,-0.021364913805298015,1.7805630644499084,-0.39263849426571984,0.22861936957719034,-0.2342451138021407,0.48687876685219683,1.0649259231427295,4,left
1.806,0.2276771063393199,0.9878601364172331,-0.0245164616275867,1.6239180619457074,-0.3342980114125378,0.17633678532891378,-0.2234645791089943,0.4584808361039222,1.0508325023378908,4,left
1.8090000000000002,0.21864572733786058,0.9912222415594419,-0.026466248810826227,1.8837764615503625,-0.4310452036797707,0.26303980928977844,-0.2299669749135067,0.47560858205822054,1.0593324249667484,4,left
1.81,0.2099036063769753,0.9930007072222136,-0.024897706580539344,1.541008725789574,-0.30343424003638375,0.14867787877547373,-0.22732395022995122,0.4686384441120336,1.0558783265849732,4,left
1.814,0.2087787813273152,0.9930106350684669,-0.023633458197593105,0.10287925610770227,0.2321356210666378,-0.3312800272289769,-0.22727764824973057,0.4685440271773278,1.0558162316609239,4,left
1.815,0.19899714182381995,0.9948856255987809,-0.023732443788494123,-0.23985177207679603,0.35974239731347835,-0.4456350527923887,-0.22868236410677364,0.47219045510718277,1.057654651070624,4,left
1.815,0.18569002315936495,0.995713795579147,-0.025905234782845295,0.01997538596274176,0.26299862460421564,-0.35893951366844734,-0.22699612238405992,0.46782396271153953,1.0554478669147378,4,left
1.821,0.18005052733338134,0.9967407359923778,-0.028127567191013864,-0.13671473523975053,0.32134476548404545,-0.4112248892042165,-0.22831450180519663,0.4712224078723509,1.0571735016404502,4,left
1.821,0.1751441581329362,0.9957285426371403,-0.026857077879401996,-0.0729953278198356,0.297610144385528,-0.38995442831215416,-0.22760634851916436,0.46938856353325253,1.056246963004164,4,left
1.825,0.17350419007650453,0.9913070019534881,-0.032370832178814174,-0.07202139925423644,0.2972644158172896,-0.3896499174355953,-0.22774463539173223,0.46981803964396274,1.0564256988754326,4,left
1.8259999999999998,0.17824703614233586,0.9879845829028189,-0.04181108861831002,-0.10556615231475538,0.3097282012278927,-0.40080802543885774,-0.2279973194747167,0.47027541726100447,1.0567621774361098,4,left
1.83,0.18237444504807537,0.983816774925198,-0.045591321824212536,-0.06537631732552021,0.29479746173251653,-0.38744400192386913,-0.22756065647440804,0.46948342296679463,1.0561809061028415,4,left
1.831,0.18433933063102298,0.9811313472307259,-0.04906024377684879,-0.09669910617885251,0.3064284728057533,-0.3978510686350577,-0.22800391927268743,0.470211604149229,1.0567730935965285,4,left
1.834,0.1867084008076099,0.9821338225021438,-0.05396711968036538,-0.07982736076689106,0.3001590865449896,-0.3922396898013445,-0.2276886806339878,0.4697314360575232,1.0563508973903004,4,left
1.835,0.18718690670434804,0.9830503391047324,-0.062144931722286266,-0.08355050462265454,0.30157432783865473,-0.3935217149144533,-0.22777567943787305,0.46996397347762997,1.056464466527409,4,left
1.84,0.18377948596496418,0.9856179722839945,-0.07140238001168117,-0.08838212916355086,0.3032832757393903,-0.3950088592379193,-0.22798687424629369,0.46986975248869756,1.0567594401824407,4,left
1.84,0.18136947066737424,0.9899833123429259,-0.07921585229401723,-0.08002744308529006,0.30032652106233315,-0.3924355475915934,-0.2274558902441142,0.4699574042284558,1.056022264570431,4,left
1.844,0.18179689483150657,0.9942193513390539,-0.0913167321426551,-0.08804746009581602,0.3031241565442837,-0.39484890034966413,-0.22823670234100973,0.4697969978665214,1.057107118144431,4,left
1.845,0.18090171144149653,0.9987912155064087,-0.10394630014289444,-0.0825731407980316,0.3012359423116997,-0.3932315334024743,-0.2274193469061733,0.47000734133192906,1.055970342790998,4,left
1.848,0.17793932320515016,1.0031815230602301,-0.11251282771206854,-0.08468948603195378,0.3020255247182107,-0.39393974124057396,-0.22789164789397226,0.46988620833149986,1.0566270823801742,4,left
1.849,0.17438212080062088,1.0083546147597517,-0.11789412199146156,-0.08583711984550632,0.30217377320922656,-0.39393396879821285,-0.22826606778592978,0.46969459714410267,1.0571508517501766,4,left
1.855,0.1708312421931722,1.0139107908500025,-0.12576016051642439,-0.0820486084456206,0.30140055904441143,-0.3935579330476047,-0.2265853991314906,0.4704203537000372,1.0548045096343146,4,left
1.8559999999999999,0.16722163459404166,1.0182214268489544,-0.13684926075266793,-0.08742809151512249,0.30245279809465114,-0.39402810327653826,-0.22970400092707705,0.46907999251424726,1.0591578006257305,4,left
1.859,0.16266170199428548,1.0226325779658496,-0.13643168310127185,-0.08205416948866315,0.30146535238501343,-0.393647287978493,-0.22570265217000113,0.47080837954531873,1.0535723514499213,4,left
1.859,0.15751359908930845,1.0261565446357268,-0.12718376353687458,-0.08516199956918401,0.3020369494722097,-0.3938681393536916,-0.22904142834003455,0.46936204566522427,1.058232562338444,4,left
1.8630000000000002,0.15125453838964145,1.0293833001238615,-0.11900632724538869,-0.08704605841663315,0.30223365040365413,-0.3937936230010314,-0.22894872776036546,0.46939223521688495,1.0581045686550308,4,left
1.864,0.14344430556162208,1.0328531905319924,-0.10946689232475643,-0.0777740381059324,0.3009905342802093,-0.39377800422978027,-0.2225944517826389,0.4721887227512742,1.0492314482600271,4,left
1.868,0.1345573700004763,1.0337704885295067,-0.1042445652169344,-0.09501769829408516,0.303314004154288,-0.3938228455717558,-0.23821279281687296,0.46532180685370056,1.0710384871044303,4,left
1.869,0.1225996357756819,1.0372652628136756,-0.1019649651717448,-0.07294488213291622,0.3003562310033384,-0.3937886180351131,-0.2123188881204391,0.4767084647543316,1.034885885590778,4,left
1.8730000000000002,0.11461166826343952,1.0420357911439693,-0.09959890806212872,-0.09133836410671459,0.30281280483048745,-0.3938052886315139,-0.2464702052494184,0.4616869772283966,1.0825657311279264,4,left
1.8730000000000002,0.11315320204225737,1.0436631313544966,-0.09921725359429376,-0.0907654114767194,0.30271850469782113,-0.39378108428994085,-0.3898310434783223,0.3986140930975215,1.2827368577057792,4,left
1.874,0.10583571309333487,1.048031208081178,-0.09371264550509363,-0.05602968115970653,0.2981593929051656,-0.39385858682935,-0.4239782043966651,0.38358878565550203,1.3304081973309474,4,left
1.8780000000000001,0.09632005420772163,1.053458077652519,-0.0844159302552368,-0.14145154991076853,0.3093818282125232,-0.39368069345696644,-0.39808944202336677,0.3949812782268893,1.2942656435474658,4,left
1.8780000000000001,0.0912979362293371,1.0588524764858422,-0.07452322384068448,0.00016219727452152638,0.2907820659321418,-0.3939842066254049,-0.4137072066714649,0.3881099064918815,1.3160731899028884,4,left
1.883,0.08762981569064265,1.0632526944828198,-0.06685667491518682,-0.18659183717461178,0.31530222620785864,-0.39357056803755003,-0.40734272867925925,0.39090511147899065,1.307175712385939,4,left
1.883,0.0868165643005506,1.0646515923003605,-0.06440414547017481,-0.970423299952945,0.41820356098068034,-0.39183556754522486,-0.4072751283690861,0.3909463624731393,1.307104247789825,4,left
1.8840000000000001,0.08619897678002193,1.0686405082434351,-0.058513920174772485,-1.15712521723993,0.4427038304881352,-0.3914010545604881,-0.4105753943591477,0.38947752192952323,1.3116801074771158,4,left
1.8880000000000001,0.08555439661044315,1.0731342102765498,-0.049702589027852205,-1.015583423176428,0.42413138575576265,-0.3917323448558038,-0.4066155434486819,0.39123662382716384,1.3061827766779326,4,left
1.8880000000000001,0.08789595404603853,1.0776207727182334,-0.04125534231416324,-1.100971603565502,0.43534147276204344,-0.39154464959641755,-0.4097103904043763,0.38986759064951493,1.310490391048055,4,left
1.893,0.09189363771296671,1.0814966736462908,-0.03172395475667723,-1.0661624953491666,0.4307533065346607,-0.39158515236089364,-0.40800756585156006,0.39060250293972254,1.308086020826491,4,left
1.8940000000000001,0.096911923205599,1.0812529379362916,-0.024704338255169267,-1.0658233600974851,0.4307498007876918,-0.39166588812307473,-0.408476542794496,0.39044252057499135,1.3088270600746506,4,left
1.899,0.10387352872518049,1.0812249774665248,-0.018257347639988895,-1.083820798508131,0.43305355176939586,-0.39151181541397173,-0.40877275692735937,0.3902321961378237,1.3090922102349771,4,left
1.899,0.11263845780055295,1.078634983263544,-0.010771502923595449,-1.062218304220097,0.4302762419455529,-0.3916729461856489,-0.40818547721090825,0.3905888337670612,1.3084543001684494,4,left
1.903,0.11849212330476647,1.0746783737836494,-0.00462745185674943,-1.0791179939829703,0.4324693205574428,-0.391586447813068,-0.40876199401222235,0.39025678537159403,1.3091141239423458,4,left
1.9040000000000001,0.12197889346542624,1.0745976171010967,0.001561795069793682,-1.069767096941003,0.43119227355499423,-0.39151148340077235,-0.4082772164881183,0.39046951077614683,1.30843601498403,4,left
1.9080000000000001,0.1272940627944106,1.0736334443965923,0.006064030516622911,-1.072464309113156,0.4317064852217123,-0.39181462886950263,-0.4087573722517269,0.3904034289113124,1.30937556601892,4,left
1.909,0.13176931253073304,1.073776291576214,0.004467516841679195,-1.0738537067751222,0.43161281531037526,-0.3912788972221604,-0.40814255632010155,0.39034192589288597,1.3079020064748281,4,left
1.912,0.1347319851581069,1.0759488491883726,0.001009495457918364,-1.0709256437756243,0.43156729239957825,-0.39193898512258774,-0.40894421566723904,0.39048469210695314,1.309939034409645,4,left
1.913,0.13920412032357882,1.0782312710534314,-6.454497885401234e-05,-1.0738520125455486,0.43168119808957356,-0.3914114550797272,-0.40811111606040396,0.3903228388381108,1.3077974424975034,4,left
1.9180000000000001,0.14372119817340695,1.0833990199301766,-0.004310650731977107,-1.0711996515991826,0.4313308912013816,-0.39141281486039936,-0.40855855609419545,0.3904316285547791,1.3089876293030438,4,left
1.9180000000000001,0.14580205438399046,1.0888965063771707,-0.01248784020865332,-1.0742435481505834,0.4322312591415329,-0.3923725054774163,-0.40911241567657336,0.39045034482887325,1.3102479271711296,4,left
1.922,0.14830097065447126,1.0953080753881395,-0.019349617384020884,-1.0699249846619936,0.43051942090760903,-0.3901733569301049,-0.4069636188203748,0.39024510535696555,1.305115495135797,4,left
1.923,0.15370218066347852,1.1058745644570749,-0.028446832972718817,-1.0757360142550456,0.4329906416364766,-0.3934555414335096,-0.4108990191542309,0.3906484652432815,1.3145648282312274,4,left
1.9269999999999998,0.16015864125345888,1.1197722407828983,-0.04165065564114313,-1.0696586686187755,0.43037125132985254,-0.3899563811970099,-0.4058567605606241,0.3901247841024611,1.3024463784762879,4,left
1.9280000000000002,0.1646422721953717,1.1356256363552528,-0.05446198013245189,-1.072984827552668,0.4318611111966467,-0.39197863474904693,-0.41006202209075104,0.39056516953379483,1.3125580667798982,4,left
1.935,0.16657561693754985,1.1584761582897982,-0.06867008680608941,-1.076771019125884,0.4332638248909209,-0.3937197322565498,-0.4099649564961483,0.39054288356247546,1.3123064898489705,4,left
1.935,0.1685954273208795,1.1835229321982055,-0.08072004235270946,-1.0617043440908676,0.42731760339376784,-0.3860963460016301,-0.40189086807593766,0.38973465658439954,1.2929510827718105,4,left
1.9369999999999998,0.17054609840611124,1.204597334978895,-0.084415259117175,-1.0893750203668413,0.4383113174199998,-0.40023465185375395,-0.4217167710829266,0.39173586813153183,1.340500145174175,4,left
1.9369999999999998,0.1689980509476904,1.2382746867160142,-0.08443833466942315,-1.0539042435236026,0.42420082017634786,-0.38208018665633053,-0.3888488011659137,0.3884108311630462,1.2616654385109558,4,left
1.942,0.16657668716415142,1.2625642643100274,-0.08343531240403076,-1.0834941773180236,0.4359806636775073,-0.3972365804808256,-0.432202184668826,0.39280194258348133,1.3656514498270642,4,left
1.942,0.1666024770299005,1.269454815584581,-0.08204001317908002,-1.0827837806246343,0.435667552680418,-0.396825927369725,-0.6141963305589124,0.4111946009091094,1.802144690269372,4,left
1.943,0.16362932806603897,1.2962146323970778,-0.08495143628714016,-1.0260609100438245,0.4131808230916524,-0.36792693211709704,-0.6575547925185425,0.4155982771671245,1.9061442265685735,4,left
1.946,0.15793853881660452,1.3313299329692394,-0.09378275388855273,-1.1653760317802564,0.46844977046632613,-0.4389578148248057,-0.6246799511633839,0.4122531296517326,1.82728986797737,4,left
1.9469999999999998,0.15177310830523003,1.3710724260835083,-0.1049626605617229,-0.9344067284992642,0.3768037757768885,-0.32118493916291746,-0.6445086413552916,0.4142722514108269,1.8748511415587386,4,left
1.952,0.14570152957825178,1.4017538524572166,-0.11220897583087686,-1.239060021633513,0.4976969010761927,-0.4765272079127943,-0.6364427246474893,0.41346153543996045,1.8555076258790453,4,left
1.953,0.1444030372676855,1.4085104078730188,-0.11220799515373338,-2.5179302936024337,1.0050933630838585,-1.128572405269924,-0.6363213596510364,0.41341281630171695,1.8552059796155471,4,left
1.953,0.14201609152781103,1.4362510195881832,-0.10646974143058116,-2.822616994802364,1.1260213530733183,-1.2839160702418242,-0.6405668394219672,0.41391655264562743,1.8654090595908555,4,left
1.956,0.13820626143349557,1.4766754346011064,-0.09428376769685581,-2.591601304393981,1.0343216304224176,-1.1661409989175737,-0.6354778140761008,0.4132979946636545,1.8531751162283157,4,left
1.956,0.13864183377914518,1.506179209505965,-0.07691123599973101,-2.730938955536147,1.0896329270654292,-1.237173733519422,-0.6394458687645215,0.41380133306444145,1.8627197559004132,4,left
1.962,0.142990717106495,1.5373371506740408,-0.06164464134553909,-2.6742611949047213,1.0671544389490941,-1.208274746831637,-0.637308483489599,0.4135415146895327,1.8575817134852777,4,left
1.962,0.15536825330612752,1.5678780484764676,-0.05076742186738332,-2.6734037752238597,1.0667455089433464,-1.2078607334021338,-0.6377761303515898,0.413502003864588,1.8586798261232258,4,left
1.966,0.17387493567832651,1.5991239516247666,-0.041831486929974064,-2.7032445126072973,1.0787252564188474,-1.2230246208850617,-0.6384001885974162,0.41384396607676976,1.860251781602595,4,left
1.9669999999999999,0.2012559308739565,1.6287205288250077,-0.029067368619658807,-2.6674740181979786,1.0643376002558238,-1.2048593512563708,-0.6373205324373242,0.41325491163988404,1.8575330351368375,4,left
1.9709999999999999,0.24244185626474474,1.65516251036786,-0.004754195830727225,-2.6953668138479188,1.0755959332838705,-1.219008525918416,-0.6383632656651086,0.4139488983677738,1.8601924290453702,4,left
1.972,0.291588893865861,1.6815642439705956,0.019932936413980317,-2.680343673771648,1.0695535117949273,-1.211380114707426,-0.637648165477058,0.4134075327289017,1.8583510438746456,4,left
1.976,0.345627094740213,1.7088891848539036,0.023418695135429907,-2.6836217768422195,1.0706912066821288,-1.213112794568178,-0.6379158959920068,0.4134304338820915,1.8589920313235102,4,left
1.9769999999999999,0.3923801466873743,1.7446395249070648,0.0028688655121180727,-2.6880321902405457,1.0729640292089497,-1.2151635178777518,-0.6381024541509253,0.4143194707893093,1.8596737566623431,4,left
1.98,0.4134137873792065,1.7916319861477321,-0.03514899152007971,-2.6804025151257918,1.0690372921664855,-1.2116145907572642,-0.6375283542611067,0.41227287800348306,1.8577614783225371,4,left
1.9809999999999999,0.3986465445863716,1.846784040849261,-0.08251268304395093,-2.687782198788951,1.0730682034181211,-1.2149585956005722,-0.6383504894822813,0.41532251896084493,1.8605319132328328,4,left
1.986,0.3438091659786021,1.905846714738054,-0.126477345248202,-2.682715678419389,1.0701794488849208,-1.2127090342862334,-0.637519619304506,0.4120761643027464,1.8576878192090724,4,left
1.9869999999999999,0.2508208572640499,1.9657243097686583,-0.15735659064825874,-2.6845961797481976,1.070916754005911,-1.2136708953653093,-0.63800016848857,0.41395194818986825,1.8593322627744933,4,left
1.9909999999999999,0.12578889294054846,2.018857137569177,-0.16152636152241542,-2.685985165864981,1.0730999422123355,-1.2137597731662133,-0.6383134687955824,0.41555872282273476,1.8605077151525986,4,left
1.9909999999999999,-0.019586569118771505,2.0587793281844005,-0.1322517086863833,-2.6817734885478712,1.067701030938406,-1.213027501753415,-0.6368116850722854,0.40851350898999705,1.8550500858102204,4,left
1.995,-0.1719679765839037,2.079736830449401,-0.08368097057169935,-2.68781471380278,1.0756577560377643,-1.2139968128366347,-0.6396032037203517,0.4215796545097973,1.8651867820935348,4,left
1.995,-0.31447897028004657,2.0713114911283137,-0.028242638453693243,-2.6816954868004834,1.0673048279476731,-1.2131268187762063,-0.636027209010657,0.40480269012662606,1.852190989051865,4,left
2.001,-0.4270454895696677,2.04297761669352,0.02649397244108329,-2.68523312308532,1.07212891589445,-1.2136309806719694,-0.6390086696202322,0.41880924350772475,1.8630311844410197,4,left
2.001,-0.49985408951367055,1.993603484118345,0.07527886111419575,-2.6875776236069377,1.0760170422852708,-1.2137045819281091,-0.6389177382397939,0.41842682471794523,1.8627127368450838,4,left
2.005,-0.535049704901944,1.9263528799462357,0.11802752561076475,-2.6764080637360563,1.0586598971874417,-1.212915819251482,-0.633276959168854,0.3917302234584322,1.8421502798155036,4,left
2.006,-0.5390906602894477,1.8637055868339345,0.15403943771888595,-2.697163716149446,1.0908571634777018,-1.214401144684215,-0.6471487701737775,0.4573505190708177,1.8927087453322966,4,left
2.01,-0.5215120732425027,1.7920506999798145,0.18701318608007594,-2.6705753921410427,1.0495474398731037,-1.2125246649181158,-0.6241494940691245,0.3485510159165909,1.8088828835827044,4,left
2.01,-0.506725647344775,1.7439869819420637,0.2070476126273199,-2.6927398467481973,1.0840098916455552,-1.2140764878827461,-0.6544835622845193,0.4920476219698272,1.919442277488672,4,left
2.011,-0.5036866347093776,1.7343420260706999,0.21019193829641958,-2.6920791567782474,1.0830806749159483,-1.213998938351275,-0.7818157547483116,1.0940702762786918,2.3834600401726256,4,left
2.015,-0.49396344737716913,1.6982269436920703,0.22213975462817503,-2.650101177204773,1.0174145438743243,-1.2111962507821437,-0.8121534751570567,1.2374907644511046,2.4940113541624287,4,left
2.016,-0.48350703679832224,1.653685682006244,0.23586694215190157,-2.753306389120678,1.178769133192199,-1.218108663987091,-0.7891437438991952,1.1288566663634727,2.4101970645537456,4,left
2.022,-0.4827412215579855,1.6273478476632823,0.22692188958740278,-2.582214104610025,0.9112889419680437,-1.206654160334718,-0.8030370884558773,1.1942141164570086,2.460748830301873,4,left
2.023,-0.4827080512448628,1.6097207030423948,0.21604719507703868,-2.8078446258600716,1.2640355886567733,-1.221749581387492,-0.7973619246283845,1.167850794285437,2.4401780419722767,4,left
2.024,-0.48315658741479045,1.6054128365758507,0.2127139537730141,-3.75497365953539,2.7451938437014354,-1.2850561096136144,-0.7973132496280644,1.1671564269893446,2.439891327184597,4,left
2.025,-0.4825976510654388,1.5904572496067937,0.19237563808902075,-3.980542339081857,3.097844709922713,-1.3001316674444188,-0.8002595226982336,1.1812858986557102,2.450674969315969,4,left
2.026,-0.47328606400630846,1.5706099574772814,0.1553192253551018,-3.809530793651675,2.830473636020014,-1.2887057068280225,-0.7966868436347562,1.1647916597972068,2.4377493017748195,4,left
2.029,-0.4492272923435242,1.55504191139894,0.11688403739921317,-3.9127124654669485,2.991848195801596,-1.2956013141302853,-0.7995358365762113,1.1769835484726756,2.447830091769264,4,left
2.03,-0.40704552452064713,1.53139116331871,0.07905835456055382,-3.870613535892028,2.9258784030896163,-1.2927788373636817,-0.7978954841846619,1.1714288811635472,2.442371351288111,4,left
2.0340000000000003,-0.34838565078412864,1.504944192088213,0.04228663027227822,-3.870280554897282,2.925629330451387,-1.2927782706829756,-0.7984216340419902,1.171216372271859,2.443652050765629,4,left
2.035,-0.2714110960850483,1.4709447862566105,0.013063031218108671,-3.891921122475938,2.9590951543954453,-1.2941921708012187,-0.7986680443567382,1.1745335304063969,2.4450574548921797,4,left
2.039,-0.17733243739491616,1.4290490615777247,-0.0009109168077074422,-3.865921958886434,2.9188046451439598,-1.2924874416348557,-0.7979836095411981,1.171317222614791,2.4425679486230387,4,left
2.04,-0.07398976601278853,1.3803005510890378,0.0005841320871790921,-3.8862980877975404,2.950512405163189,-1.2938347614634698,-0.7988996806399468,1.171653920238894,2.4449643040395035,4,left
2.044,0.0352495589310981,1.3206091582191257,0.015481054798998164,-3.8749113705866183,2.9323946534581955,-1.2930457586286774,-0.7978410710494764,1.1757763897285778,2.443258909833643,4,left
2.045,0.1471055311149367,1.2557527682548573,0.04054162034429498,-3.878452135382219,2.938930050677159,-1.2933734294960693,-0.7989674364068305,1.1674858990585035,2.4441528662643206,4,left
2.05,0.2597643204064908,1.1846488261975474,0.06814565822095639,-3.8796466019339526,2.939080877797771,-1.2932960446333044,-0.7979663025971241,1.1772664658377718,2.4439269747557244,4,left
2.05,0.3710884143551878,1.1081149248115083,0.09623661863720359,-3.8767023819959783,2.9365820180308764,-1.2932923979206497,-0.7984426616626112,1.1711342018296484,2.4436859128313433,4,left
2.0540000000000003,0.4806262056880416,1.0295234135752929,0.11953126426313535,-3.8797652762332038,2.939694168267671,-1.2933430507269792,-0.7990685978897306,1.1668607755672369,2.444261221073896,4,left
2.055,0.5916396093311458,0.9513072164224471,0.12666218539866253,-3.876555966709788,2.934660435583336,-1.2931272504161553,-0.7967836692504253,1.1877010532674568,2.4433964142825086,4,left
2.059,0.6956328294253298,0.8799588346060987,0.11843474554331712,-3.881111992276718,2.9448972587480156,-1.2937175353698098,-0.8008883720619293,1.1484295882159803,2.4445178454706946,4,left
2.059,0.7881038397996956,0.8129796382784911,0.0960332512969356,-3.8738877078457485,2.926488342459934,-1.2925814755726774,-0.7956770418309144,1.1991320672657881,2.443292746935838,4,left
2.066,0.8677850134483311,0.7557409405153328,0.05540854061967541,-3.88390164067838,2.952756993452728,-1.2942253200600438,-0.8000015981817676,1.1566859048494367,2.4442221240585065,4,left
2.0669999999999997,0.933633297305375,0.7132899563012405,0.0086298189003442,-3.873368741738953,2.9249765849985705,-1.2924824152620036,-0.7999087032099608,1.1579346789765919,2.444280914052019,4,left
2.069,0.989200599499627,0.6790004449116482,-0.028837702670099996,-3.879230106457297,2.9406768520792763,-1.2934744709932051,-0.7916166109420067,1.2386871351539182,2.4423506766711025,4,left
2.07,1.0349883528666406,0.6525088369426745,-0.05606744113714274,-3.8853950196874245,2.9559503867709775,-1.2944039753371193,-0.811953539775056,1.0400291217305042,2.4469430456610075,4,left
2.073,1.0840912780500869,0.6276551120013579,-0.07134942150546691,-3.8602350485313064,2.8919536551484635,-1.2904576656871316,-0.7782567345557678,1.3694966654729999,2.439404723244,4,left
2.074,1.117630820699944,0.6115899222470937,-0.07729361301830098,-3.9065659678851485,3.0101223370151198,-1.297754209901437,-0.8226888662538233,0.9348925712939219,2.449305242700647,4,left
2.0780000000000003,1.1267869560058763,0.6073266822810917,-0.07846129846481487,-3.8471481721655976,2.8585027998493877,-1.2883899400582242,-1.0092156003922075,-0.8893905558160968,2.490905560875487,4,left
2.079,1.1592333865203863,0.5927594941079496,-0.07182312899576795,-3.8967243026182095,2.985037346788133,-1.2962059094849927,-1.0536308333483597,-1.3240057578390365,2.50076420889906,4,left
2.08,1.2065919707704134,0.5720493635074164,-0.0609136996968026,-3.8954935712277194,2.9817858888469986,-1.2960013560963608,-1.019963684242866,-0.9945055314387096,2.4933031477246335,4,left
2.082,1.238882891882715,0.5565064588693469,-0.035335960186746174,-3.8005960287410705,2.7399391507799757,-1.2810746688571375,-1.0402672841135536,-1.193232169160951,2.497799546544453,4,left
2.083,1.2670078000790044,0.5420319841000278,-0.01876618977164946,-4.033711462244227,3.3341639965407923,-1.317754354469709,-1.0319975909923351,-1.1123686780635067,2.4959524107129853,4,left
2.088,1.2963889774355284,0.5299325499583231,-0.032882194914001656,-3.6472330038549674,2.3489717159947716,-1.2569406391351055,-1.0319119815679985,-1.1112580020730978,2.4959883036523918,4,left
2.089,1.3235750174525305,0.5219413115899163,-0.027749744588751395,-4.1569795821560955,3.6484066093981853,-1.3371507419573052,-1.0361816738650376,-1.1535868632718747,2.4968256911799376,4,left
2.089,1.3283253228302514,0.5189760380439032,-0.038766667902771675,-6.296342877859646,9.102233409001961,-1.6737542014866602,-1.0310804591605107,-1.1029003940138213,2.4958481038321993,4,left
2.093,1.2980750304815365,0.5218074682822935,-0.08708577623101756,-6.805989082483198,10.401490497909357,-1.7539429406522433,-1.0350346203071188,-1.1423521125434482,2.496573226113685,4,left
2.094,1.2703263652829484,0.5247936158857313,-0.09173817731998551,-6.419745095423953,9.416710239601912,-1.6931767946703395,-1.0328925375483027,-1.1210668536132302,2.496162976041297,4,left
2.0980000000000003,1.2738238695920696,0.5185690990216214,-0.07308820887284137,-6.652455983790389,10.010230245508884,-1.7297786499235919,-1.0334667500355348,-1.1260317175132912,2.4964217129511126,4,left
2.099,1.2708430791317626,0.5075282192045918,-0.07316874179010283,-6.558117374828296,9.769349327300276,-1.7149538700564717,-1.0338003631982433,-1.1313939564869981,2.4960745239366746,4,left
2.103,1.2392682501824934,0.5000802794423185,-0.0881787853633325,-6.556298073882196,9.765091297176376,-1.7146493497443713,-1.0332206692057433,-1.1221106681406758,2.4966709681336505,4,left
2.103,1.2082413035721729,0.49027781755301225,-0.11631370733534471,-6.606226496194738,9.892211226773554,-1.722513141737548,-1.0336431129898034,-1.1306741384717078,2.4958751297869526,4,left
2.1069999999999998,1.1861488941839826,0.4741997652588082,-0.12643001456224007,-6.547071911699328,9.741080236299254,-1.7132205451851936,-1.0334253344212367,-1.1250119015261577,2.49653601223192,4,left
2.1069999999999998,1.159890182014335,0.4566857046064262,-0.11684609858559389,-6.592149106361445,9.857048550594147,-1.72026464957297,-1.0337041170896568,-1.1277088356283742,2.496603966356048,4,left
2.112,1.1208247203962785,0.4413706867376832,-0.11144282562707192,-6.569390186346469,9.797216542123092,-1.7167671926908579,-1.032940178507541,-1.126784944309803,2.4951189553851165,4,left
2.113,1.0703249311619816,0.43052938854246514,-0.10674653447259264,-6.572340518830982,9.806961523604363,-1.7171289581591238,-1.0345347921927401,-1.1274155701102393,2.498479578529038,4,left
2.117,1.0138129322565936,0.4239044165812225,-0.0934327581831822,-6.581174286700512,9.827709256848575,-1.7186006298070127,-1.0321205937625237,-1.126130463129153,2.4934578111364827,4,left
2.117,0.9524638864696581,0.41725663232943133,-0.07245732595471877,-6.5697200840666135,9.798492224404482,-1.7167988479219367,-1.0347410444749698,-1.12795723286903,2.4988221455010073,4,left
2.122,0.8960882024884724,0.4117446348833542,-0.0510613096625087,-6.576393003107549,9.818794436491547,-1.717697822073189,-1.0332270765261036,-1.1269060382810614,2.4957215892500653,4,left
2.123,0.8478081823234381,0.4060233870262848,-0.03701394627527278,-6.578525644025406,9.816712138596856,-1.7183788126767783,-1.0318197006829146,-1.1249893047263162,2.4930294863939384,4,left
2.127,0.8046005170564422,0.39375060446794824,-0.02352577498836269,-6.5677383657499275,9.80042796636225,-1.716165847001688,-1.0378475647525485,-1.1320710708571642,2.5047893119186764,4,left
2.127,0.7721661499374306,0.3776669991862086,-0.00153920411335656,-6.582587312796594,9.826327542752038,-1.7190523495297843,-1.0266744496000362,-1.119001428194239,2.482978844002251,4,left
