time,gFx,gFy,gFz,ax,ay,az,wx,wy,wz,subject_number,foot
10.297,-0.08189354475460439,0.9720239918557748,-0.2549038926418298,-4.228710697044855,1.3341934894795748,2.0979220380412587,-0.07127986485746499,-0.7242092311172146,-0.6842233050432708,3,right
10.298,-0.07881480314153413,0.9782297321431597,-0.25702347271900405,-3.9183014359986004,1.2671464218491422,1.6480628668898283,-0.08331166844852292,-0.7460885760771072,-0.6783408015041863,3,right
10.300999999999998,-0.07802923726207739,0.9801720473112916,-0.2578714212090357,-2.614691286217163,0.9858483206410691,-0.23977909751782794,-0.07840866980767519,-0.7372024266230992,-0.6807291325187905,3,right
10.302,-0.07088880885864,0.9831670296882962,-0.25466856757067696,-2.3043054002043224,0.918818145745217,-0.689586126022968,-0.07835562239475868,-0.7370429238376905,-0.6807722751625374,3,right
10.302,-0.06257582940851461,0.9873551731120676,-0.24655145327847167,-2.5396451499444326,0.9696314459616894,-0.34858251321387246,-0.08090000876340621,-0.7417576665797261,-0.6795054854679521,3,right
10.306,-0.05982533767681106,0.9855036127006706,-0.23010030168862805,-2.3976230819943765,0.938985509488274,-0.5542435755966124,-0.07784722568951813,-0.7361203727150823,-0.6810196731397716,3,right
10.307,-0.05520938759222273,0.9830532139051794,-0.20615227128802766,-2.4556084881112676,0.9514610348246253,-0.470554921954307,-0.08023247082500196,-0.7404948435665384,-0.6798443421232874,3,right
10.311,-0.05067084541556706,0.9830142407121505,-0.18887492738032963,-2.455996483007225,0.9516186078978923,-0.4694114562865858,-0.07892261335119605,-0.7381842754228611,-0.6804672311754475,3,right
10.312000000000001,-0.051893512402020975,0.9822556776323793,-0.17936396341469252,-2.4262972251915693,0.945110396124698,-0.5132204149242627,-0.07927735175256007,-0.7385990854598151,-0.680349999527328,3,right
10.315999999999999,-0.057758860592453026,0.9830537416442638,-0.16960079415333876,-2.462003637690975,0.9529107789054069,-0.46073540411361613,-0.0795169734094043,-0.7394311339572721,-0.6801364043753284,3,right
10.317,-0.06627795868201361,0.985660179983629,-0.1648215677639736,-2.4339903701151546,0.9468251720123094,-0.5016359211033428,-0.07905044450342041,-0.7380968229494065,-0.6804825597215397,3,right
10.32,-0.07302592443346817,0.9895929994327908,-0.16759651824582095,-2.449724445103606,0.9501428456233364,-0.4794921532051059,-0.07950585893386611,-0.7393122269528927,-0.6801658965979988,3,right
10.321,-0.07837106368480243,0.9947904872385612,-0.16642551830485514,-2.444655764885855,0.9492987630753478,-0.4847647157552514,-0.07913248396571726,-0.7386365594558773,-0.6803476556992809,3,right
10.325,-0.08229614902526941,0.9989996233392129,-0.1561345603672042,-2.4433449949991,0.9485869537740614,-0.4902192120150136,-0.07948144507963935,-0.7385532686312357,-0.6803511452540473,3,right
10.325999999999999,-0.0836277926106871,1.0024126642146394,-0.14467124958150906,-2.446990444919155,0.9498990480593125,-0.4805808308241206,-0.07905569869602025,-0.7394196523070251,-0.6801614483803297,3,right
10.33,-0.08746390254765862,1.0056022213263263,-0.133034143772131,-2.4430982957707057,0.9486406842817932,-0.4896904503234078,-0.07960180315487797,-0.7379652741042457,-0.680487937465049,3,right
10.331,-0.09485637468680998,1.0078291956095007,-0.12168289376336838,-2.4475182211048114,0.9495908724182293,-0.483319409270838,-0.07903621463558724,-0.7395458072964315,-0.6801317984998141,3,right
10.335,-0.10326549432233512,1.008011079588914,-0.11539562853768645,-2.4406488514077003,0.9488839467156863,-0.48682964830951647,-0.07933686127690114,-0.7385849530884439,-0.6803504028242233,3,right
10.335999999999999,-0.1105226439471641,1.0067742468039582,-0.11217955848316853,-2.4519597711370307,0.9495528319190162,-0.4851616183624861,-0.07972560699276363,-0.7379925964224112,-0.6804753117033725,3,right
10.341,-0.11582929751631446,1.0065932336439167,-0.11408190087425302,-2.4361368874890292,0.9487815640389173,-0.48612858637923906,-0.07823632873422207,-0.740971195119718,-0.6798246263022139,3,right
10.342,-0.11961650021184954,1.0049331449399912,-0.11575695432278252,-2.452808759624677,0.9495616780446303,-0.4853808658071221,-0.08095999333343824,-0.7353776550301279,-0.6810501477878907,3,right
10.344000000000001,-0.12272329015391782,1.0017910437182764,-0.11239543994820925,-2.443484362748011,0.9491774483505725,-0.48536554673918536,-0.07747116557147826,-0.742575684649105,-0.6794722259192735,3,right
10.345,-0.12764023571242708,1.0008750291416195,-0.11259079493142947,-2.4339173711637296,0.9485163314292404,-0.4875689928290028,-0.08038050008742373,-0.736560044381207,-0.6807914008664662,3,right
10.35,-0.13303049826727628,1.0007544047455905,-0.1137389663185093,-2.473284664825474,0.9508699602633179,-0.48155359951273274,-0.08031470067051938,-0.73674725379553,-0.680748808768626,3,right
10.350999999999999,-0.13741251965618892,0.9994122074814954,-0.1119107635533686,-2.4007285615395584,0.9466022833817243,-0.49205476992032515,-0.07472437521638498,-0.7481379320725229,-0.6782557119262342,3,right
10.355,-0.1423845035497375,0.9969501680503382,-0.10667385661775641,-2.4937940517456063,0.952060735986208,-0.4787171533193357,-0.08844976629327397,-0.7201122430641886,-0.6843918166742733,3,right
10.356,-0.14922765064189358,0.9950190870710848,-0.10101880167474427,-2.4161372626886957,0.9475119733113823,-0.48979333340977205,-0.06569596336519004,-0.7665875941945974,-0.6742154375627925,3,right
10.36,-0.15379195046986782,0.9942291404714957,-0.10153966488248911,-2.418086728553947,0.9476025505138062,-0.4897200650657539,-0.09570820121030987,-0.7052862036986554,-0.6876385241149731,3,right
10.360999999999999,-0.15444782064427356,0.9949549147514597,-0.10139654699263384,-2.566667189620925,0.956384203931896,-0.46785523793534894,-0.2216912981700028,-0.4480128170498676,-0.7439617646312482,3,right
10.362,-0.1590064232670524,0.9942669347511467,-0.10078244479247248,-2.2016498294225846,0.9348370581139211,-0.5213309524787477,-0.25170480392001776,-0.386714703253055,-0.7573836147841132,3,right
10.365,-0.163437655804351,0.9888994416414236,-0.10430073164599715,-2.8068254003892465,0.9705551622895442,-0.4327322982364387,-0.22895114700046243,-0.43318592533693406,-0.7472099507350705,3,right
10.366,-0.1624291052735667,0.985808167258665,-0.10513081246640958,-2.0085975543175616,0.9234416764278613,-0.5495908467171929,-0.24267064025968058,-0.40516095607973845,-0.7533416856105095,3,right
10.369000000000002,-0.1615372764148019,0.9864721309003954,-0.10499238209598674,1.3420869219322045,0.7256608565346412,-1.0403987974786433,-0.2370959484767455,-0.4165591304543935,-0.7508542092791768,3,right
10.369000000000002,-0.1591759310863449,0.9850094772675457,-0.10628052292713241,2.1403489222732146,0.6785392329634852,-1.1572906152471,-0.2370039155694243,-0.4167273627588223,-0.7508062431497203,3,right
10.37,-0.1548828856602692,0.9824687130100158,-0.10421270523740342,1.535136405992056,0.7142661447937926,-1.068655957485546,-0.2399449356070246,-0.41074121220172544,-0.7521277439008425,3,right
10.373,-0.14984013894440684,0.9818942290372246,-0.09904287350661008,1.9001396858234307,0.6927223363077372,-1.1221180114251583,-0.23643196026646385,-0.417907027813077,-0.7505542254620028,3,right
10.374,-0.14111844174723176,0.9842850275871531,-0.09615612337606946,1.7516818540387502,0.7014748077503804,-1.1003725228648147,-0.23915229407924404,-0.4123326768527711,-0.7517653692126405,3,right
10.379000000000001,-0.12975409811771563,0.987522520673865,-0.10086687118340903,1.7494685718796479,0.7016281891652159,-1.1000424420305759,-0.23771543491114136,-0.41532675011591424,-0.7511396541779201,3,right
10.38,-0.11564434812515785,0.9908517262889774,-0.10832760064874943,1.8275035910757444,0.6969893655773591,-1.1114868715389756,-0.2379898316130235,-0.4146635776841579,-0.7512335903799345,3,right
10.383,-0.09758432528285305,0.9962123829092333,-0.11203088210838097,1.7340614986808955,0.7025375155654905,-1.097782514876335,-0.23845656129559448,-0.4138366459336872,-0.7514774802193065,3,right
10.384,-0.07885304794112366,1.0020810815996013,-0.11415364476378012,1.8067800318034979,0.698231107122375,-1.1084420020242653,-0.23772001305944265,-0.41524017992230466,-0.7511201342671135,3,right
10.388,-0.06035296400108079,1.0067621544240042,-0.11425473417167567,1.767736285330708,0.7005077781288416,-1.1027413594293303,-0.23835330871949445,-0.41394580406456155,-0.7514030234000095,3,right
10.389000000000001,-0.04019932824033725,1.0107660716073825,-0.11329595188396502,1.7762613084056813,0.7000946776478505,-1.1039306090417325,-0.23804140164361287,-0.41477012111636824,-0.75131553828255,3,right
10.394,-0.02067220902387722,1.0138246892778413,-0.11473122428712296,1.7873809090612245,0.6992830406183421,-1.1056629614272202,-0.2379691458454376,-0.41448969851452533,-0.7511645290770985,3,right
10.395,-0.003958332582015008,1.0151793050322697,-0.11855284059351297,1.7685060328508475,0.7005877591692062,-1.1027702310546665,-0.23835340332655192,-0.414343397089611,-0.7515133490111475,3,right
10.399000000000001,0.009213363650004105,1.0164041930575891,-0.12533355305977317,1.7860850168941642,0.6993981488563529,-1.1054475711415304,-0.23784263981601983,-0.41470595235403307,-0.751096361758211,3,right
10.4,0.016894987696405152,1.018739938181274,-0.13305176699084267,1.774790301261309,0.7000635414996156,-1.103794169700535,-0.23820552770456116,-0.41435794664046055,-0.7513674699176036,3,right
10.404000000000002,0.018334330409388803,1.0223847550778227,-0.13943697603599187,1.7783995409511806,0.7001324085628314,-1.104131817662713,-0.23830765933438153,-0.4144886536226956,-0.7515073576616005,3,right
10.405,0.016809994993604874,1.0290085450158137,-0.14105083011969,1.7814290908299704,0.6993092248330229,-1.1050123156725222,-0.23747204715028145,-0.4147111640859992,-0.7507222018726264,3,right
10.408,0.016940567481896707,1.0346038544587186,-0.13565734542893054,1.774208640125485,0.7006967865815268,-1.1033029241928614,-0.23911343212945677,-0.41411083455281916,-0.7522189487423407,3,right
10.41,0.01656701170595594,1.0350650373059571,-0.12742662521551082,1.782408496988894,0.6991878408832897,-1.1051989607357735,-0.23697288169986744,-0.4149492728202396,-0.7502826745585085,3,right
10.413,0.015611247130845099,1.0346693252550527,-0.11784785380494889,1.776876824663243,0.70010672742964,-1.1039870813445445,-0.23877362139448646,-0.4142208328902643,-0.751904792963112,3,right
10.413,0.013952174044494104,1.0330294238202118,-0.1115480545848008,1.776041471048425,0.7006661707171334,-1.103518592087274,-0.23870399878766219,-0.41428433495700423,-0.7518527207857835,3,right
10.418,0.007372932522316221,1.0294094210423903,-0.11114632124291063,1.7861343461458592,0.6978367694422976,-1.1065120535384119,-0.2353260793505715,-0.41555677687641235,-0.7487817829798545,3,right
10.419,0.002318409641281692,1.0278092843618045,-0.11164935701457979,1.7662562067836896,0.7031528782988661,-1.1007904683804886,-0.24365839364105488,-0.41236611006427915,-0.7563407274775396,3,right
10.423,-0.0030989860457553077,1.0243597297402425,-0.11313456226292845,1.7920398397456079,0.696311009641063,-1.1081753628702309,-0.22983232329424802,-0.41768000012607853,-0.7438046609155143,3,right
10.424000000000001,-0.01182707686814637,1.0195207749995148,-0.11446896489383714,1.7704112147217173,0.7020296511346333,-1.1019947975912179,-0.2480720456370894,-0.4106627100770688,-0.7603392928458648,3,right
10.43,-0.014031489202631293,1.0188931338744676,-0.11565979307484786,1.7713961982621609,0.7018498683121017,-1.1022209790135844,-0.3246284468268833,-0.3812371840991205,-0.8297618666380168,3,right
10.431,-0.016341805864030487,1.0195927740014807,-0.11674511440928934,1.811321614892353,0.6910265928993768,-1.1138124685156483,-0.3428671471044348,-0.37421909088389865,-0.8462930243520761,3,right
10.432,-0.02197608894292444,1.0191963331134946,-0.11448963966424473,1.7127241193493195,0.7176593129404248,-1.0852530098430373,-0.3290396851535571,-0.3795389483313705,-0.8337595991517077,3,right
10.433,-0.024120531642239495,1.0177802996222334,-0.11161312716639663,1.876316824022226,0.6734919550052016,-1.1326231690750421,-0.33738126591605244,-0.3763305533055663,-0.8413239315277476,3,right
10.433,-0.025896858545608054,1.0164321863656103,-0.10960979806933346,1.6605397714054662,0.7317511300936701,-1.0701415746411618,-0.3339814417339068,-0.37763734254642445,-0.8382323648490414,3,right
10.437000000000001,-0.0255050178544049,1.0154041161696319,-0.11035741388971299,0.7553372260158095,0.976248262129336,-0.8079555897916164,-0.33394676674980484,-0.3776518137467929,-0.8382192266853462,3,right
10.437999999999999,-0.024409838552983218,1.0120915346994157,-0.11386638587457495,0.5396367368163913,1.0345099958726256,-0.7454832877115982,-0.3357071526416626,-0.3769737615651576,-0.8397898862303697,3,right
10.439,-0.02721243145134821,1.0081808437630184,-0.11666540410583225,0.7031347010731266,0.9903371659098219,-0.7928425758768534,-0.33359460254626805,-0.3777868967605743,-0.8378994025279407,3,right
10.443,-0.030412246850848153,1.0066867707202882,-0.11965928146033714,0.6045478637014878,1.0169784097477321,-0.7642821885228639,-0.33524653040808317,-0.37715129761065785,-0.839386515430981,3,right
10.443,-0.034694006445641294,1.005897226005362,-0.12238640499985137,0.6446611331180676,1.006144573874895,-0.7759010587074238,-0.3343347418161232,-0.37750196281398696,-0.8385387112496167,3,right
10.448,-0.04020907556636874,1.0040809683466443,-0.12464286463204129,0.6451838566240649,1.005974323389692,-0.7760643398341718,-0.3345925714163477,-0.3774029424883253,-0.8388402743902217,3,right
10.448,-0.04434291726604145,1.0034535318383968,-0.12411962593051702,0.624264512569789,1.0116898577195843,-0.7699771531994997,-0.33473810273364546,-0.37734681957639415,-0.8388555931870378,3,right
10.452,-0.047467499660084664,1.003829469735845,-0.12047070972437401,0.6492837713439943,1.0048378916599554,-0.7772650742440563,-0.3344400123030658,-0.37746156025844424,-0.8387283253194815,3,right
10.452,-0.04916250736812754,1.0034494213401395,-0.11770491955157318,0.6298433007301634,1.0101828548430296,-0.7715927369513811,-0.3347355165457926,-0.37734787732222297,-0.8388823226265105,3,right
10.457,-0.0496478285224191,1.0024091989312915,-0.11237993128040388,0.6403440165294644,1.0073056736156962,-0.774652405518693,-0.33447643534370675,-0.37744753025640376,-0.8386463322355097,3,right
10.457,-0.048930516989352926,0.9988195242749841,-0.1079251878975695,0.6377673525780709,1.0079219201583896,-0.7739412887908612,-0.33475607319280914,-0.37733992768210967,-0.8391113858981538,3,right
10.462,-0.04667109523073,0.9952243091272914,-0.1097075868371207,0.6354787093158982,1.0087980528305789,-0.7731641294939773,-0.334374782856384,-0.37748672696279706,-0.8382824681202158,3,right
10.463,-0.0421737233286007,0.9926911263148067,-0.10894723752057969,0.6394409072405454,1.0072830559270303,-0.7745089647831481,-0.334881841556395,-0.37729144086696575,-0.8394629442418569,3,right
10.468,-0.0345210903663138,0.9871367679253937,-0.10454442726924515,0.635983706282533,1.0087628395780186,-0.7732654375024848,-0.33435284760378703,-0.3774952209434851,-0.8382151412830461,3,right
10.469000000000001,-0.025141331617593667,0.9829491883368585,-0.09928065776583744,0.6381612176621745,1.0077393329588955,-0.7740892819269196,-0.334640260904301,-0.3773844431679587,-0.8389193494556497,3,right
10.470999999999998,-0.014056394431927993,0.9812099563856457,-0.0901531297119203,0.6368180564753839,1.0080984155056492,-0.7737018745717641,-0.33497821546709194,-0.3772543934267122,-0.8396089010343023,3,right
10.472000000000001,-0.0019637774954594173,0.9768453104212003,-0.08123003778347268,0.6384481801970723,1.0084655645916727,-0.7738158022887047,-0.33364693140294294,-0.37776701591122486,-0.8367266090013031,3,right
10.475999999999999,0.00908665764280966,0.9721917536199385,-0.07853110086242693,0.6354564314522522,1.0074281151540065,-0.7737680709269756,-0.33608900699921734,-0.37682653279910716,-0.8420469036104788,3,right
10.477,0.021091994617120448,0.9690958771090805,-0.08407558662341638,0.6400910889870202,1.0089296448449778,-0.7738888622130643,-0.33295945869193444,-0.3780319041246568,-0.8352216388899638,3,right
10.481,0.03622780897948641,0.9663672797419298,-0.08785144593412253,0.634923333874531,1.0073901857736691,-0.7736943790407997,-0.33556940338351593,-0.3770264758806729,-0.8409162812337054,3,right
10.482000000000001,0.05255593600139767,0.9646432307513338,-0.08371366189553202,0.6379075977996957,1.0082803324202358,-0.7738061952133046,-0.3355088180609621,-0.3770502464349164,-0.8407734119194239,3,right
10.485999999999999,0.06655457939199078,0.9640472747874332,-0.08203091162097442,0.6409802116825354,1.0089119795431207,-0.7740476482634937,-0.3304998899970034,-0.37897879892469666,-0.8298804573759293,3,right
10.487,0.07804403527782915,0.9637905923799452,-0.08228311609269778,0.6281785514201983,1.005971960454883,-0.7731783679088968,-0.342798699471095,-0.37424260699990397,-0.8566383065173923,3,right
10.491,0.08773393531931212,0.9657111299506268,-0.08034890032626373,0.6518889854158816,1.0114329822394454,-0.7747814741984598,-0.3224107455164314,-0.38209453304858376,-0.8122795255526982,3,right
10.491,0.09204317339899365,0.9689704174969491,-0.07955686234805565,0.6214000002469331,1.00443201764543,-0.7727105547679152,-0.3493009040220513,-0.37173778055050194,-0.8707839020781134,3,right
10.495999999999999,0.09348742637834094,0.9695685815446387,-0.08134190935055466,0.6468756417209229,1.0102716603074013,-0.7744455323778061,-0.4621993671198676,-0.3282624584931294,-1.1164180587054786,3,right
10.497,0.09788968781734356,0.9711371543822093,-0.08488229649982953,0.64623197545489,1.0100992751130378,-0.7744125207334529,-0.4890886545860622,-0.3179049379774052,-1.174916135957853,3,right
10.498,0.10304913783681585,0.9759589559782416,-0.08667715068063461,0.5974466795908202,0.9990252804348397,-0.7710422919760367,-0.468701643091354,-0.3257576954340127,-1.1305641720418944,3,right
10.501,0.10824059077699713,0.97990829590611,-0.09004668390947128,0.7173284557592283,1.026254701454513,-0.7793169460510423,-0.48100081080734625,-0.32102181790324635,-1.1573246074582388,3,right
10.502,0.11230783878213058,0.9815771313922109,-0.09857910215480077,0.5185460267694444,0.98110808433341,-0.7655942870941614,-0.47598875707203236,-0.3229476174539633,-1.1464090576301476,3,right
10.507,0.11284958560947918,0.9817831136083774,-0.10533435605293823,0.7807588771205658,1.0406527571253266,-0.7836995131671124,-0.47593489727771143,-0.3229773135602212,-1.1463148129355998,3,right
10.508,0.11191813162287625,0.9819011975504797,-0.10731043038948224,1.8813359533115697,1.2905487887143718,-0.8596989377757132,-0.478535198724911,-0.32196338747086384,-1.151939731026181,3,right
10.508,0.11248641134337575,0.9813872030737082,-0.10888159814253044,2.1435622761198045,1.3500876781035314,-0.8778088062373288,-0.47541525332849216,-0.323177223132842,-1.1451839051241923,3,right
10.511,0.11490757239991947,0.9789351195673315,-0.1116070101098675,1.9447792508864603,1.3049509642854282,-0.8640826136035966,-0.47785318497840873,-0.32223308362750985,-1.150474223287403,3,right
10.512,0.1130639899470812,0.9767431550751376,-0.11470126746107615,2.064605965370555,1.332169850786916,-0.8723500829720936,-0.4765136558613768,-0.32273844733845647,-1.147532337619526,3,right
10.515999999999998,0.10771716050009025,0.9777681878994628,-0.1175159526630942,2.0159711066161927,1.3211017243075531,-0.8690073889241632,-0.47687817185598164,-0.32263179670323716,-1.1484139156310635,3,right
10.517000000000001,0.10110913346558958,0.9816412345651461,-0.12112310265877342,2.015071954836662,1.3209344996468921,-0.8689223969810271,-0.4771198176661152,-0.3224806918761864,-1.1487872208804584,3,right
10.52,0.08625155613337974,0.9859217451721785,-0.12758885607411935,2.040859311254553,1.3267525025766478,-0.8707260884560131,-0.47664699298632185,-0.3227339733531609,-1.1479455541387749,3,right
10.522,0.06725528089369652,0.9915469420949989,-0.13615496125353438,2.010128120040016,1.3197908751421856,-0.8685940074605911,-0.4771092692228502,-0.3224992074126193,-1.1488021861119773,3,right
10.525,0.05133004865113609,1.0008418563992454,-0.1429255579338541,2.0338164276111472,1.3252018897503701,-0.8702100180419412,-0.4767275834792673,-0.32264568926850057,-1.1479705036934051,3,right
10.525,0.03765173122615095,1.0075296126855822,-0.14160282296148985,2.0215145367764467,1.3223042119880843,-0.8694243294008719,-0.4770903173512557,-0.3226112718899182,-1.1490362483080574,3,right
10.53,0.026812180730400162,1.0041343285657418,-0.1315216470064992,2.023479263145808,1.3229304150093464,-0.8694499733962404,-0.47664132736179543,-0.3225436099915344,-1.147427259032253,3,right
10.530999999999999,0.018188075125792562,0.9944428258869741,-0.11542388377474505,2.0280874236852755,1.323755609705883,-0.8699032743031848,-0.4772201502056072,-0.3226795833844758,-1.149629724575615,3,right
10.536,0.010924495865605115,0.9817761547803813,-0.09797441329459129,2.0212295478123545,1.322374788644302,-0.8693219735284414,-0.4766200283318111,-0.32252812383535867,-1.1473185232602128,3,right
10.537,0.003274808022243407,0.9668831629364384,-0.08961795452422205,2.0267590660462123,1.3236319584242835,-0.869702895974012,-0.4769400838887258,-0.32262591244799077,-1.1485960763804908,3,right
10.540999999999999,-0.007700513234522551,0.9567806024456458,-0.08379985521985986,2.024817617354609,1.3228636746261713,-0.8697686775518796,-0.47734832619461104,-0.32265925378505544,-1.149984608338319,3,right
10.542,-0.020848326973961773,0.9532439287817353,-0.07279775572321603,2.0223950085891813,1.3230618673143697,-0.8691445777992943,-0.47577819512031727,-0.3224299777504631,-1.144377379918638,3,right
10.546,-0.03121313052272382,0.9533447012279515,-0.06808072516451022,2.0284250145654177,1.3233148090576887,-0.8702425304699151,-0.47865104893359556,-0.3228701673849983,-1.1546918552166696,3,right
10.547,-0.03615006964497046,0.9585236570846324,-0.06825084898470096,2.021112594332901,1.3228442771182534,-0.8690109426830841,-0.4749707547464121,-0.3223016452455748,-1.1414656650506458,3,right
10.549000000000001,-0.039299213696985955,0.965002836496845,-0.06879814608820473,2.02593106180902,1.3232510883936253,-0.8697636515395356,-0.47803997923801717,-0.32277752074419797,-1.1525012889377366,3,right
10.549000000000001,-0.035215124277676466,0.9720293729149767,-0.0732521070864365,2.028239926241372,1.3231821984638203,-0.8702847372107084,-0.47796988975014243,-0.32275966957977775,-1.152228893708616,3,right
10.555,-0.023066428985604508,0.9830851028705596,-0.07426553955888598,2.0147313306750476,1.3227093539040853,-0.867768364625281,-0.4720742916870065,-0.32186884093368034,-1.1310967878399483,3,right
10.556,-0.011802092279283496,0.994710492782561,-0.06585405314283131,2.0405881293957897,1.323769619421083,-0.8724909208247595,-0.4865502559850817,-0.3240639867794064,-1.1830090034775353,3,right
10.56,0.006951197824099608,1.007570021705671,-0.05529203143209675,2.007095529152715,1.322341483432602,-0.8664064945143333,-0.4625514622063378,-0.320423221466001,-1.0969394518847029,3,right
10.56,0.02305093223821604,1.0159137301520067,-0.050876495647602445,2.0351816259950275,1.3235629408017484,-0.8714951612508748,-0.4942067016086401,-0.3252249543703861,-1.2104705493906838,3,right
10.564,0.02661894684357326,1.018026516547745,-0.0507868993399655,2.034227233577432,1.323483866972508,-0.8713429556142142,-0.6270918414354689,-0.3453756346495659,-1.6870235857875882,3,right
10.565,0.03695538544126807,1.025135317875375,-0.049855473905068594,1.981187579977067,1.3212762432497485,-0.8616779592656834,-0.6587521160491241,-0.350175327871894,-1.8005753426860132,3,right
10.565,0.049379281604206945,1.036077067930841,-0.04816557458173743,2.1118370496895364,1.3267708987921045,-0.885455196867206,-0.6347462919526217,-0.346537427176708,-1.7144753261265273,3,right
10.569,0.05853548962589322,1.0485840047227724,-0.05217398381830339,1.8951017272327608,1.3176317267232052,-0.8460218837286916,-0.6492257897118828,-0.3487310823422632,-1.7664077764529502,3,right
10.569,0.06683163833072228,1.0556659083019062,-0.05938915554546821,2.1810228325263985,1.329700858784673,-0.8980395947366333,-0.643336706329816,-0.3478377370245763,-1.7452905729736337,3,right
10.574000000000002,0.06996984662153646,1.0582196173813583,-0.06093486284720769,3.380968624583259,1.3802946167075534,-1.1163583390203935,-0.6432448794232705,-0.34782850986642866,-1.744946535826566,3,right
10.575999999999999,0.07609562571405837,1.0725131029886994,-0.060990309972406793,3.6669252108224275,1.3923811125815433,-1.1683838163747582,-0.6463514520946831,-0.348289450987398,-1.7561165669680001,3,right
10.575999999999999,0.08413433737334466,1.0930987136633732,-0.05654671329086488,3.450115652784635,1.3832105360072702,-1.1289370666364433,-0.6426262456819616,-0.34773900984541417,-1.7427169526929442,3,right
10.578,0.08902751567332647,1.1121154562894535,-0.04235063965860722,3.5808774950847013,1.388742739678141,-1.152728938694681,-0.6455328171392573,-0.34816543765455826,-1.7531797647192373,3,right
10.579,0.09244075039084101,1.1286791189034964,-0.028572376654721135,3.527703411911707,1.386505293319301,-1.1430550560915558,-0.643968211030479,-0.3479343696479957,-1.747552070961872,3,right
10.584000000000001,0.09575005887194216,1.1408184739724059,-0.02147536146071681,3.5268633850525983,1.386428831561545,-1.1428974130654006,-0.6443018160911644,-0.34799710994484945,-1.748715140763583,3,right
10.585,0.09988748701107755,1.1541339834963633,-0.021792801794166775,3.5549255148169774,1.3876958264260804,-1.148013537207218,-0.6447827377675073,-0.3480308321928193,-1.7505465695810698,3,right
10.588,0.10359292661950348,1.1712768138083194,-0.02884180080600874,3.5212818917535706,1.3861607839270773,-1.1418772093346172,-0.643950939499989,-0.3479722361726514,-1.7473800256905678,3,right
10.589,0.10552280868841347,1.1946972640807454,-0.03880687725163117,3.5475286232467553,1.387381497335411,-1.1466677683540638,-0.6447656212730581,-0.3480129106114964,-1.7505266572219562,3,right
10.595999999999998,0.10609629838297013,1.224411397214229,-0.05307219107146237,3.53340135378851,1.3867370273433441,-1.1440908685153175,-0.644200999688379,-0.3479933375666405,-1.748322526277219,3,right
10.597000000000001,0.11207135035345575,1.257138276910622,-0.0717937385981236,3.536415714611315,1.3867678166126576,-1.1446261344137807,-0.64439608071109,-0.34802352310481544,-1.7490204918621344,3,right
10.597999999999999,0.12187972770443325,1.2920873416771146,-0.08655689674459464,3.540749426722286,1.3872601233849087,-1.1454570376204636,-0.6446111755403836,-0.34793356316495183,-1.7501245133152379,3,right
10.599,0.12986047107653453,1.3276092737461367,-0.10199603264184648,3.5332558243051064,1.3864115124083383,-1.1440205155540044,-0.644011788750064,-0.34812276034286027,-1.7472149025589943,3,right
10.603,0.13965077169162834,1.3668479289640163,-0.12719409150985256,3.540589664878156,1.3873738920533318,-1.145444615101051,-0.6448808617426856,-0.3478367386225544,-1.751465411952906,3,right
10.604000000000001,0.15169243781205644,1.41187313118657,-0.15589776334918823,3.5355097102426205,1.3866392180056284,-1.1444487788721225,-0.6439877217165014,-0.34814665006946016,-1.7470538049876074,3,right
10.607999999999999,0.16737363444919065,1.459007024091148,-0.1860395720325113,3.5372716180401795,1.3867088591653687,-1.1447687040629226,-0.6445040286211823,-0.3479676992626736,-1.7496036432479118,3,right
10.609000000000002,0.1948013283722259,1.50991943019283,-0.2100042542373134,3.539178321710782,1.3877547710113864,-1.145248475314271,-0.644875687145905,-0.34780206278992026,-1.7515386494477168,3,right
10.614,0.2396170280806541,1.5624296362056813,-0.2196985806898673,3.533847229414781,1.385323658333344,-1.1439748820408142,-0.6431543702217729,-0.3485120806198758,-1.7427308431198154,3,right
10.615,0.3002587803371068,1.609105607755673,-0.2186344820867572,3.5415736130396662,1.388940758753583,-1.1458336339998243,-0.6463510233387031,-0.3471962369855426,-1.759080752469969,3,right
10.618,0.37256640797215634,1.652560776676358,-0.20041552798474893,3.5336376322739165,1.3850976227665517,-1.1439068295026673,-0.6422527740209423,-0.3488866017151,-1.7381098751236963,3,right
10.619000000000002,0.44981974152846826,1.6906163123597766,-0.1693685690151981,3.5382260563238135,1.387318240104955,-1.1450206896856365,-0.6456709819290458,-0.34747522754081966,-1.755605568183701,3,right
10.624,0.532083749800168,1.7305443911092344,-0.13168751899382458,3.541515899937819,1.3892045208763513,-1.1458597856564636,-0.6455716974015338,-0.3475116760199721,-1.7551084688016971,3,right
10.624,0.6106587236745924,1.773356823804722,-0.09293029703569591,3.526257007708134,1.3809133538216272,-1.142030844085673,-0.6390845753161112,-0.3502092805178617,-1.7218561469258176,3,right
10.629000000000001,0.675758082038538,1.8091049671458368,-0.0574979920227513,3.554596995286086,1.3962907829129545,-1.1491393635109461,-0.6550329978080947,-0.34358095664917554,-1.8035987235630628,3,right
10.63,0.7441658150733034,1.8615731847748058,-0.009929630117596412,3.5182632499986277,1.3765486109506098,-1.1400218306772985,-0.6285918647465543,-0.3545702197097481,-1.6680743500851882,3,right
10.632,0.7887027623339665,1.8980666505886206,0.018492946537213447,3.5485693456351006,1.3930271650503105,-1.14762884624643,-0.6634641948454209,-0.34007604492837473,-1.8468170573280283,3,right
10.633,0.7996867774785479,1.907966550086565,0.024861511318621583,3.5476847120586337,1.3925848016929463,-1.1474106734233236,-0.8098373378484329,-0.27922361121046335,-2.597088989606947,3,right
10.634,0.8353012249477233,1.9540453515069693,0.052000556373236,3.4901800312456777,1.361157157125743,-1.132958748687616,-0.8447044219887075,-0.26473049138709975,-2.7758111152293323,3,right
10.638,0.8748093132331737,2.014465932678779,0.07662573508893879,3.6315650499165564,1.4383969530381289,-1.1684887463388793,-0.8182704020546465,-0.27571883461137114,-2.640314166430483,3,right
10.639000000000001,0.8783388554186227,2.082652726318603,0.10323066742237016,3.3971454763522058,1.3103254215543965,-1.1095794270547685,-0.8342158921255647,-0.269089291867054,-2.722046947094691,3,right
10.642000000000001,0.8752522542771234,2.137764021881683,0.12901638197969534,3.7063431845760864,1.4792753665751177,-1.1872781606210607,-0.8277204386985104,-0.2717923003471973,-2.6887584156189943,3,right
10.642999999999999,0.8714625354592712,2.151602973127642,0.13678954511010874,5.0046289206306716,2.18927530238111,-1.5134212078133213,-0.8276460919976039,-0.2718182023314762,-2.6883643821053305,3,right
10.642999999999999,0.8485380444050692,2.2038671364808673,0.17175148744138924,5.3139502951757835,2.3584354548904334,-1.5911235249205058,-0.8310229301354668,-0.27042108431731837,-2.7056921585034504,3,right
10.648,0.8091031558355319,2.278965613022474,0.21336415316565632,5.079245030117011,2.2299057524900863,-1.532203394485148,-0.8269728892520687,-0.2720983338777959,-2.6849136506218896,3,right
10.65,0.7602605013429637,2.331613456558305,0.23431655420141517,5.221117169615697,2.307876338469392,-1.5677564779927047,-0.8301357181225371,-0.27078614172261883,-2.7011338331978014,3,right
10.652000000000001,0.7056485142925195,2.3863507995126145,0.2546307733594189,5.162947150748442,2.275518176675579,-1.5532667801002424,-0.8284030140237737,-0.2715120476173293,-2.6922685027647963,3,right
10.652999999999999,0.6508558609844606,2.427145182561342,0.2630017967201055,5.162753102646149,2.2759523237522417,-1.5530960552619986,-0.8288629782818395,-0.271303189041598,-2.694574021507399,3,right
10.658,0.5972753504562756,2.455205723958624,0.257976779986631,5.192662249021213,2.2920752919006553,-1.560662119890805,-0.8291978279739793,-0.27119419478560913,-2.6963803227013874,3,right
10.659,0.5467879405772229,2.474424104927211,0.24506032190330662,5.1559828511446355,2.2715616427515473,-1.5515515432922848,-0.8285584918689896,-0.27142304760935454,-2.692992835960785,3,right
10.662,0.5002236792022479,2.4743546190491132,0.2149030968899865,5.185847779083657,2.2893619763599977,-1.5587198625187795,-0.8291787585479918,-0.27119448776181676,-2.696260178662513,3,right
10.663,0.45053608457802985,2.467664334146614,0.15134797775661427,5.167715697384841,2.2769175744127876,-1.5547402490541722,-0.8286840853523225,-0.2714006802620063,-2.6937254385002367,3,right
10.665999999999999,0.38867049257349207,2.4486119330632734,0.05478400090818892,5.174806831167221,2.283897160429672,-1.555815735472864,-0.8291156373418078,-0.27116627949020844,-2.695774040826223,3,right
10.669,0.308934533632074,2.4113002423740815,-0.07129621233141392,5.17594246284956,2.2820463934676773,-1.5566636686960256,-0.8286220060499148,-0.271496650097528,-2.6936171896813343,3,right
10.669,0.20674656743072703,2.371567509236596,-0.24984641265934127,5.168953521725649,2.2782017364264564,-1.5549129846487864,-0.8292404712693382,-0.27105324117695007,-2.6962303654882893,3,right
10.674000000000001,0.07732255924367207,2.33036696706166,-0.4430194945945384,5.180843530428578,2.2892909569606146,-1.5568559582842998,-0.8286030961233835,-0.27151631475333726,-2.6935568979026483,3,right
10.675,-0.06459735798186496,2.285117538120762,-0.5441067496565302,5.164220245700459,2.2697194868722326,-1.5550656127521032,-0.8289367517530947,-0.27126398228926263,-2.6949244156276526,3,right
10.68,-0.19039248629683972,2.234793144863553,-0.5008021549715005,5.184403538956092,2.296390708016745,-1.55657706119041,-0.829396010308173,-0.27097248017353437,-2.6969822683972637,3,right
10.681,-0.2815336698695851,2.1755015011337298,-0.3558092095702685,5.164920403561199,2.2690724623770695,-1.5554763442436847,-0.8276669054961807,-0.2721259486190761,-2.6894139848201966,3,right
10.684000000000001,-0.33409295260190713,2.116857722838093,-0.20070825351774196,5.175140953968197,2.284286218339009,-1.5558520713983612,-0.8308229887592948,-0.2700101508328189,-2.7031909585818603,3,right
10.685,-0.3651112498500332,2.050179174567801,-0.10827925994579597,5.186133320741568,2.2986056791249636,-1.5567235171856804,-0.8267815938136875,-0.2727200079962618,-2.6855572399034697,3,right
10.687999999999999,-0.3906826510686888,1.9789329696989364,-0.06492424626681861,5.142631567868639,2.2384803185402733,-1.5540655057335049,-0.8301512687078467,-0.27046282027279955,-2.700257773392007,3,right
10.689,-0.42264085864627604,1.8938961270288313,-0.01847850486463353,5.221964161102573,2.3492393018634017,-1.5586582571209897,-0.8300769926386204,-0.27050909499196674,-2.6999443837380888,3,right
10.694,-0.46470064928748495,1.7806152127206758,0.035956398031569,5.120690760146853,2.207354161916637,-1.5529095201939276,-0.823595480115801,-0.27485512204165563,-2.671630699636683,3,right
10.695,-0.5137761614132637,1.6736269900569236,0.0849067364139954,5.204988752951014,2.3256552322467194,-1.5576467758772043,-0.8395069512820945,-0.2641968902467669,-2.7411279772878414,3,right
10.698,-0.585043841277493,1.535854300748153,0.10400601738003705,5.202916050807389,2.322602080297302,-1.557569327628785,-0.8131291925771319,-0.28185503495256115,-2.6259162887821645,3,right
10.7,-0.6354420024132907,1.4344950678566069,0.09727461792124431,5.041796163504921,2.096734796645653,-1.5484448373371082,-0.8479220978629265,-0.25857573665437156,-2.7778874073564417,3,right
10.7,-0.6456160347420816,1.418986797743596,0.0947275742854082,5.437437250594847,2.6516155531786225,-1.5707817791947374,-0.9939765790152907,-0.16071855105951868,-3.415803991614903,3,right
10.703,-0.6821866007947472,1.3107711439279073,0.07104112019987746,4.781617276688644,1.731744575702075,-1.5337864289800445,-1.028773735211721,-0.13745760288324887,-3.567802741927784,3,right
10.704,-0.7142954537221371,1.2044151839533925,0.043070678769857464,5.6465663433455,2.9449557479740966,-1.5825671266184465,-1.0023913752542644,-0.15509589514494834,-3.4525611512998737,3,right
10.709000000000001,-0.7131713480680821,1.192513613125259,0.0380934140863219,9.27693545253428,8.037872790360328,-1.7872320095293808,-1.018301104442834,-0.14443010818821606,-3.522047081298828,3,right
10.71,-0.7221369316411173,1.1062594460766064,0.02204251405035422,10.141865528502834,9.250985052680395,-1.8360121609756217,-1.011834832979004,-0.1488420002332081,-3.493832517448112,3,right
10.71,-0.7275276301806606,1.001729898169742,0.012590769772268154,9.486125070543256,8.331253345622912,-1.7990322148700917,-1.01172775388615,-0.1487465639630453,-3.4933058270018744,3,right
10.713,-0.7316235410909133,0.9353788644569441,0.015006372492883236,9.881565101150436,8.88606055003243,-1.8213169127761386,-1.0151444696348668,-0.1466925563488914,-3.5083122154110313,3,right
10.713,-0.7558941246401543,0.8619670438712246,0.0008339246623654886,9.720807667829025,8.660073834981173,-1.8122986319308143,-1.0110562218542438,-0.1492000943902445,-3.490373898003365,3,right
10.719000000000001,-0.796095361474082,0.807151437268697,-0.018371558454290775,9.718242768848322,8.657435009837481,-1.812064923452461,-1.014232539744845,-0.14717158266824276,-3.5042823581485156,3,right
10.72,-0.8562305459158093,0.7541532304618468,-0.04356557495605895,9.803016168328988,8.775016043214634,-1.8169683719576453,-1.0125436253914897,-0.14849881001145449,-3.4969755041848867,3,right
10.724,-0.9337906524327664,0.698444081746503,-0.0799228305894713,9.701557018003507,8.634005258213758,-1.8111264014005046,-1.0128733461318014,-0.14764762600204773,-3.49819099184507,3,right
10.725,-1.0208285521389984,0.6386244830988804,-0.11577106584489076,9.780435618955835,8.744094798547716,-1.8156252046796189,-1.0134302423746253,-0.14835962395209262,-3.5010100691038852,3,right
10.729000000000001,-1.114049880976669,0.5629694811515273,-0.14460688409925132,9.738324103682096,8.683891831184251,-1.813356415870766,-1.0125188509250218,-0.1476392488720525,-3.4965550369266625,3,right
10.73,-1.2124202119349419,0.48611911125663937,-0.15752222851122405,9.746955600977415,8.699619541586234,-1.8135059796982893,-1.0133558410319767,-0.14813930253501761,-3.500588766671573,3,right
10.732000000000001,-1.3121179242500411,0.4099321719315163,-0.14344377677222664,9.760041694703087,8.711749148738441,-1.8148235115651756,-1.0128640055249503,-0.1484781727287769,-3.4984441039434833,3,right
10.732999999999999,-1.4051932743368285,0.34281451456017403,-0.09940949401205006,9.738319168485782,8.688914635673825,-1.8128878363327865,-1.0128903809626038,-0.1464927439384991,-3.497857614173685,3,right
10.739,-1.4860662953602088,0.28817858846532685,-0.038987140658565594,9.758378511016932,8.710966824178378,-1.8145853341441254,-1.0133219458027996,-0.15070045142885558,-3.5013457896960922,3,right
10.74,-1.5504046444433401,0.24665545549353396,0.0232147190230804,9.74615160298308,8.693759604560896,-1.8139013014845378,-1.0125601958417576,-0.14450241421096116,-3.495627237176366,3,right
10.742,-1.5945728722412795,0.2291441732433861,0.09010919922837035,9.748179008425069,8.707899886490711,-1.812963732091975,-1.0133943911417054,-0.1510947101902741,-3.501819764174222,3,right
10.743,-1.617743452234424,0.22755171312569727,0.17015820159423917,9.75576227921252,8.69272453915179,-1.815794693948891,-1.0128773871001648,-0.14730923847444227,-3.498089377905374,3,right
10.748,-1.6295878793569494,0.24258706063611324,0.26001994225515374,9.741524703351377,8.711259610944827,-1.811406746095765,-1.012604422729071,-0.1439301117486234,-3.4956263079534216,3,right
10.75,-1.6448873910253312,0.29488097641023153,0.33904883696927535,9.757245242449946,8.692263332803714,-1.8161147861565323,-1.0140822971276817,-0.1585284120412888,-3.507639407705034,3,right
10.753,-1.6636841590109515,0.3765299480880076,0.4046527263447759,9.747304523529408,8.702035669694551,-1.8133464774386343,-1.0112898413854219,-0.13149064998182108,-3.485136619010893,3,right
10.754000000000001,-1.66494883635422,0.44962354491475137,0.4698648430439818,9.742988458670332,8.716428659259357,-1.8111988667399537,-1.014887932195546,-0.16619985408475257,-3.5140840779919555,3,right
10.758,-1.637388702585532,0.49128434959712675,0.5046195222049216,9.768834480041981,8.663203167031023,-1.82098786196482,-1.0118778325248616,-0.13722742224112344,-3.4898924262838404,3,right
10.759,-1.5875437404934063,0.4964032650790833,0.48076735207378724,9.719652126300948,8.760153540612041,-1.802764446078525,-1.0119808565642834,-0.13799635037144786,-3.490635731632702,3,right
10.762,-1.5279322052513495,0.4702101663687235,0.42721424691953147,9.783078774296712,8.636051186919556,-1.8261788290056828,-1.0176530458417905,-0.19328810922330902,-3.5364833894102095,3,right
10.763,-1.4845745209537382,0.4278974940138037,0.3730441458024464,9.73002446949515,8.739511328997938,-1.8066266889962566,-1.0036831740700438,-0.05740831355348604,-3.423682593453222,3,right
10.767999999999999,-1.4475202028507979,0.37984383314578013,0.32558087424568694,9.73187306113237,8.737295826349742,-1.8071766421903148,-1.0268562589619896,-0.28269514433635357,-3.6107495911830627,3,right
10.769,-1.4233997544493595,0.3542366514855004,0.3031397236981843,9.831658038165369,8.538069901791252,-1.8443867411137134,-0.9962868614260464,0.014453341211551951,-3.363996283321834,3,right
10.769,-1.4247994482680486,0.3509353702955017,0.3030521271582326,9.585938470230502,9.02708425290917,-1.7529083405952117,-0.8681121392503374,1.261845939904271,-2.3286997717019515,3,right
10.773,-1.3830580428959256,0.3290743704415663,0.2957895863523828,9.993436342114688,8.21640442432221,-1.9045837015960032,-0.837549219864059,1.5589994708086528,-2.0819687896011243,3,right
10.774000000000001,-1.3355054846835888,0.30977300901942867,0.28737421622983783,9.456000615117492,9.285746438061011,-1.7045335047633208,-0.8607007207854291,1.3336949785547652,-2.268968580185328,3,right
10.777000000000001,-1.3222736892589806,0.3096296060421979,0.2856299692300168,7.200727714465966,13.775163701127646,-0.8648573222384073,-0.8467798084613363,1.4696159204688874,-2.156311089117072,3,right
10.777999999999999,-1.248563636040819,0.2920665280579531,0.2744234915101931,6.663553965602267,14.844832658502673,-0.664841388886251,-0.8523688167331895,1.414253161657145,-2.2019244946631034,3,right
10.777999999999999,-1.1317889379207133,0.2629018384287254,0.2627169352571127,7.070626826581326,14.033628406654948,-0.8164582895946396,-0.8525797134037434,1.4135774700094195,-2.2029618008593412,3,right
10.782,-1.016216823570289,0.24317777074858601,0.25815494379211745,6.825300891564549,14.523112815271002,-0.7250415516659244,-0.8494718711056877,1.4424638791023965,-2.1785167576918942,3,right
10.783,-0.8897985553213712,0.2285028536890124,0.2499730242413426,6.924992323681875,14.323813830932004,-0.7622184285052431,-0.8530961888623151,1.4077808047121039,-2.2075065118755317,3,right
10.786,-0.7749801133441274,0.21661125135822912,0.23944853042795974,6.926351565234679,14.320922823719897,-0.7627355169193379,-0.8504244544900939,1.4349178389170074,-2.185375490386221,3,right
10.787,-0.6720414185304997,0.2061440583394581,0.23214467366354555,6.874551836449493,14.426018204285807,-0.7433140430948078,-0.8515755613085636,1.4200423752749067,-2.196453580252718,3,right
10.792,-0.5872288391776392,0.19316301775114444,0.21868075593976655,6.936038452181365,14.299454656657566,-0.766493946470765,-0.851831786147664,1.4238760968153965,-2.1954563452409026,3,right
10.793,-0.526394623821017,0.1810404624379082,0.18546804902149497,6.888975960978003,14.399013662352601,-0.748565518466023,-0.8507001241576873,1.4271270729626262,-2.1900780148328414,3,right
10.797,-0.47874980992099614,0.1737475943129464,0.1336755317058284,6.913531894449627,14.344337485293561,-0.7581092397684924,-0.8519730575607887,1.4209265046915915,-2.1973607509792115,3,right
10.798,-0.4488612538752365,0.16491092610643593,0.07354764123595625,6.908286643811857,14.357272525456523,-0.7559834446084908,-0.851333076940328,1.427207037816081,-2.1921659154583106,3,right
10.802,-0.4286610534514098,0.15151941808367247,0.022596844461632484,6.902832992258956,14.373036740279737,-0.7536135986682649,-0.8506800212874175,1.4220910750475868,-2.1924517719912857,3,right
10.802,-0.4101327251195259,0.1313194180865716,-0.005567281828358503,6.90998313665879,14.342993023068868,-0.7573697400437758,-0.852971496637285,1.426009024849808,-2.1982515954461537,3,right
10.807,-0.3966174153178169,0.09785121597248307,-0.0172294985204905,6.907152784463682,14.3758512212327,-0.7544318515276747,-0.8492715992658562,1.4229017516900635,-2.1873265270729294,3,right
10.808,-0.38864129052491914,0.05544663892275686,-0.015340379350430327,6.904311273308851,14.348111535040141,-0.755685296412062,-0.8533188200644178,1.425212494513308,-2.1998049215707587,3,right
10.811,-0.38852549070689163,0.007227373589976358,0.0022911388046215732,6.909310467064637,14.364778759426917,-0.7557041998181837,-0.8509110868898837,1.424548874214559,-2.1920362727088536,3,right
10.811,-0.4015568933464865,-0.05009885187157486,0.022402987145637283,6.909399807289838,14.364835339775828,-0.7557213016378668,-0.8490509233083847,1.4218890398989343,-2.1870765581665843,3,right
10.815999999999999,-0.43002343879691074,-0.1118313618327686,0.036920426813375914,6.895745707047656,14.342637412640784,-0.7540551607175565,-0.8575893384124788,1.4296781817440674,-2.211988028246598,3,right
10.818,-0.47314651690304427,-0.17152712763990705,0.0441369214538366,6.928798428180037,14.389685502404252,-0.7585511223996217,-0.8416606193117571,1.4161428832930176,-2.1650309280463405,3,right
10.82,-0.5294868411165576,-0.22613010323986993,0.033697960066821665,6.877967015815528,14.32253019327196,-0.751277014179166,-0.8621481700551603,1.4331953696078061,-2.225601332909843,3,right
10.821,-0.5901539677396965,-0.27350439348168426,0.00784128283612918,6.933044254748762,14.392346635059795,-0.7593627414791688,-0.8450290418444721,1.4190968572180758,-2.1749148894006636,3,right
10.825999999999999,-0.6504464929161018,-0.31344746746192265,-0.029809169671524527,6.900936453684979,14.352573231267918,-0.7545849587848258,-0.8455163248213393,1.4192668284661363,-2.1764737528396916,3,right
10.827,-0.704159028849487,-0.3431467524082487,-0.07188683707384898,6.873139589949357,14.31852343789916,-0.7504220978571625,-0.8780959780272515,1.4467133503981011,-2.2726280970211947,3,right
10.83,-0.74347048878611,-0.36198492809244276,-0.1063801566730874,6.99513229541044,14.466859772038102,-0.7687677240158955,-0.7979833217066077,1.3795579488446346,-2.036015988467647,3,right
10.831,-0.7808105576852323,-0.3692578072015187,-0.1414072483627119,6.768569218548982,14.192420466851903,-0.7346239386670295,-0.9308290815581796,1.4907914522977626,-2.4284427276365426,3,right
10.835,-0.8055139703063945,-0.366481110814936,-0.16364746600757804,7.059713470689802,14.544362074154611,-0.7785505014248522,-0.7555980495100886,1.3441135184975415,-1.9107802284338584,3,right
10.835999999999999,-0.8107123258795284,-0.36486325957918714,-0.16877177291010845,6.816552007042338,14.250743204479775,-0.7418413389673193,-0.020104829083005343,0.7282887135034425,0.261866197483358,3,right
10.837,-0.8314605581467193,-0.35009550939289213,-0.18096703004904505,6.823123608390921,14.258709973357604,-0.7428308693935683,0.1551371183342174,0.5816080894322633,0.7795836605449604,3,right
10.84,-0.8591865025334572,-0.3180157999398257,-0.19270155330846156,7.286980797380642,14.818187672809547,-0.8129024912122861,0.022272109098741742,0.6928245228116687,0.3870533427492494,3,right
10.841,-0.8774254183920038,-0.2855298201638604,-0.19602183660980055,6.146818683799494,13.443179244996575,-0.640653620104878,0.10240662528592503,0.6257410007373249,0.6237990773610178,3,right
10.845,-0.903666713065403,-0.23410118209215838,-0.1918105092264225,8.037313684258748,15.722889049650883,-0.9262711846933351,0.0698118200096741,0.6530319632201189,0.5275198815250899,3,right
10.845999999999998,-0.9196608512517658,-0.19390180825353898,-0.18457775271648813,5.543736142898952,12.716031965883921,-0.5495311893356333,0.0693208452450946,0.6534391677284501,0.5260144615193463,3,right
10.845999999999998,-0.9232956634820695,-0.18403234209466698,-0.18274832681870423,-4.922563927168606,0.09429457337017277,1.0317366787510782,0.08647432424261145,0.6390785478594178,0.5767965650227829,3,right
10.850999999999999,-0.9416724846365545,-0.14170458219417353,-0.17590254707475916,-7.416017827889188,-2.9126861558854977,1.4084513105070586,0.06591627045467621,0.6562945646490808,0.5159156940667187,3,right
10.853,-0.96267750146302,-0.08180984721963303,-0.16798039995759,-5.525809960219995,-0.6326713531362729,1.12289566055367,0.08194281463532727,0.6428697083394126,0.5634064008918604,3,right
10.854000000000001,-0.9754240921587923,-0.037503632876861544,-0.16751110799907543,-6.665479738571116,-2.008235375537645,1.2950328644091167,0.07330962093660537,0.6501013570595895,0.5378406287483672,3,right
10.855,-0.9863478106590027,0.011072270816918823,-0.1635576745256535,-6.20229870922926,-1.447951112222591,1.2251219468804444,0.07520789609421896,0.6485198334270922,0.5433237933756907,3,right
10.86,-0.9927295295237694,0.055402769537653315,-0.15503621869674308,-6.195020402518155,-1.4408845071722032,1.2239548078165914,0.07770163573305379,0.6464056148282048,0.551089831149391,3,right
10.862,-0.9928738578662528,0.09311590220819124,-0.14588561826026256,-6.438596198605894,-1.7338814042829223,1.26078399626594,0.07338781270971165,0.6500639075601777,0.5376596885421889,3,right
10.864,-0.9890503050790339,0.1302978954758909,-0.12992581958859575,-6.147787432956282,-1.3817239880370258,1.216906061072175,0.07754081647389556,0.646528885502198,0.550770012407616,3,right
10.865,-0.9833521632180712,0.15843643116853512,-0.11016480363744083,-6.372816714380299,-1.6578071259562397,1.2507166489603267,0.0746996612854984,0.6489541862185568,0.5417060342580005,3,right
10.869000000000002,-0.9732009711768967,0.17697707342533436,-0.09378246318605818,-6.253736392966504,-1.5060831846382554,1.233048627918229,0.0757820515878762,0.6480483143733665,0.5448975968308605,3,right
10.87,-0.9602885789688247,0.1911766938513455,-0.07644495939035112,-6.277658250072704,-1.5448978120506658,1.2362664666731082,0.07644534034088427,0.6474061930712747,0.5481014694564532,3,right
10.875,-0.9451665528616596,0.1980745155247115,-0.05979904303938345,-6.313315851049911,-1.5799524424492364,1.2419696579079362,0.07433248778762305,0.6493738524973693,0.5390160005007458,3,right
10.876,-0.9240970992189311,0.19333584834068618,-0.04664322976379482,-6.257204747509547,-1.512217000241294,1.233495180088338,0.07734574812682174,0.6465543254902766,0.5521600526484328,3,right
10.88,-0.9027895491478717,0.18296644732757467,-0.030497607830822088,-6.303892904804684,-1.5832609647317335,1.2399623249330471,0.07431758338940114,0.6494061489964369,0.5386917749246192,3,right
10.880999999999998,-0.8809541462572601,0.16689089406118512,-0.011682264168576276,-6.282246400859529,-1.5234659934950523,1.2380323510584756,0.07606926946415926,0.647756444181659,0.5464799598334112,3,right
10.884,-0.8550806075653765,0.1458133853093752,0.0046814337777599906,-6.277322224736738,-1.567790369595902,1.2352888296933626,0.07717095083063674,0.6466768307248534,0.5519864381119546,3,right
10.885,-0.8290780436272354,0.12556285844855497,0.017292974167152066,-6.298966256158725,-1.5403086926530651,1.240690262712288,0.07182077682380325,0.65184574454177,0.5263237611666758,3,right
10.888,-0.8027211994877296,0.10309629060813105,0.026075269010641715,-6.2780887362785265,-1.546094834719813,1.2363048533986836,0.08176913307761152,0.642237235253508,0.5739942466766621,3,right
10.889000000000001,-0.7735592504334079,0.08134767217228221,0.03489419349372747,-6.277723786830993,-1.5723370405153632,1.2351873106008233,0.06902867256180138,0.65454740245834,0.5128817770332523,3,right
10.894,-0.7449492991449504,0.0636758420449082,0.04520533098785748,-6.316540412307424,-1.5023547642294548,1.2456991189249185,0.0796498581810858,0.644282093721485,0.5638579633088617,3,right
10.895,-0.7154610928116886,0.04999194670791951,0.05105036854775016,-6.2337010590627004,-1.6190564241306955,1.2245660369482854,0.07931884943234424,0.6445984583486523,0.5623464513884227,3,right
10.898,-0.6831595920270727,0.041632641399660254,0.05408921559935258,-6.344891869847643,-1.4750121731854182,1.2524293781665805,0.059251021413038216,0.6640126987327755,0.4656983436176723,3,right
10.9,-0.6545515637452808,0.03483901805615802,0.056418930103017725,-6.24999425655661,-1.592782294409523,1.2288563159925396,0.10860891285769475,0.6162627008226265,0.703353014193868,3,right
10.902999999999999,-0.6240239700834972,0.03754480961843894,0.05201880308172613,-6.254372964911461,-1.5917517739081677,1.2297646376949394,0.02677372939672825,0.6954350223558486,0.3093138815195819,3,right
10.904000000000002,-0.6038789810419034,0.043961459052802326,0.04687095207173128,-6.4319539735524245,-1.363186252300087,1.2742123070446543,0.13470387412894358,0.5910135045569549,0.8290228838848509,3,right
10.905,-0.600362002543827,0.04430294504119193,0.04713026751664397,-5.992229362506749,-1.9211026220493386,1.1644805018848539,0.587600808151749,0.15288242015751108,3.009991196261028,3,right
10.908,-0.582363145312063,0.059220260855183726,0.04270303600901429,-6.722884476550898,-0.9979074295123964,1.3466533754527699,0.6955131211317447,0.04847806177126994,3.529643996578882,3,right
10.909,-0.5666200274946606,0.0747491206632278,0.03647760489754549,-5.758361453894208,-2.2146814338299725,1.1062534673091935,0.6137096749733268,0.12761367523066444,3.135714599740555,3,right
10.913,-0.5652505117855019,0.07793116071428977,0.03674413602818352,-1.7100575198266097,-7.321940256980404,0.09716196911524666,0.6630308253266752,0.07992087825421917,3.373219089803529,3,right
10.914000000000001,-0.5512268272980574,0.09631783777872888,0.03058947583590331,-0.7450457254712954,-8.538194820457036,-0.14330362987459916,0.6429898737419737,0.0992642196436329,3.276726568996442,3,right
10.915,-0.5365152041521852,0.12182402449310287,0.016921073266278966,-1.4767049953622189,-7.616134823138684,0.039012134343314346,0.6426617457522055,0.09964462598560607,3.2751189844292203,3,right
10.919,-0.5263090455321706,0.14403254004576027,0.006897793801732063,-1.035497852330683,-8.17223466712067,-0.07094701918035204,0.6532301957868871,0.08935835447381849,3.3260418166741315,3,right
10.92,-0.5133873458423621,0.17059005195482457,-0.004056522191284508,-1.2147957554314965,-7.945990552668939,-0.026210676080441246,0.64060296337296,0.10160088373392229,3.2652211876857233,3,right
10.924000000000001,-0.5043481577887354,0.19342369472805537,-0.015176066130924482,-1.2177991741467606,-7.9427614329049145,-0.025573126827361528,0.6503897153071441,0.09218592657898927,3.31232246001502,3,right
10.924000000000001,-0.49612191271821043,0.21312614192928428,-0.01957261884548104,-1.1230170262134416,-8.061445297739091,-0.04903843826033607,0.6452021181201143,0.09703417348091031,3.2874306428665845,3,right
10.929,-0.48778704412808765,0.23340137417655005,-0.023399141226227962,-1.2364115846635042,-7.919287231387497,-0.02093206360110393,0.6462270394951342,0.09633594384173468,3.292211214835029,3,right
10.93,-0.4793909332006526,0.2512506749863028,-0.028211246446052104,-1.1483157883673631,-8.02998308542953,-0.04282052735638388,0.6478572766637124,0.09439898546808351,3.3002526301605837,3,right
10.932,-0.4733580413694158,0.26674727561059797,-0.02832834443816665,-1.195160656459272,-7.970344102485322,-0.031018531945592228,0.6452475558095844,0.09721054740948765,3.2875328461663225,3,right
10.933,-0.47303852314092276,0.28129083326561655,-0.029301045687410668,-1.1860029099212097,-7.98384995764097,-0.03371330307988948,0.6475248180357034,0.09500990693773471,3.2984978193828915,3,right
10.939,-0.4729845467881374,0.30013623706039216,-0.030102047142097802,-1.1705840422417046,-7.99989443032443,-0.036845377699043204,0.6463316465726145,0.09563225412573795,3.2930354335637415,3,right
10.94,-0.4697700421932073,0.3227657502257757,-0.024591660153283783,-1.1958253275068857,-7.972239314524356,-0.031426444717884666,0.6462360253064008,0.09694063092246186,3.2919270111340393,3,right
10.943,-0.46032312481516713,0.33833669142969225,-0.02303022037437604,-1.1726428518774608,-7.998143149643528,-0.03650921457241557,0.6473725442131215,0.09402710809708029,3.2983668588216553,3,right
10.944,-0.4473109523327313,0.34479988197274347,-0.03365884768401509,-1.1862806316465742,-7.980928488735051,-0.03310443639424219,0.645797384964314,0.09748495802998594,3.289750694462339,3,right
10.947000000000001,-0.440424363254173,0.34697473992182704,-0.047498866835532116,-1.1854972451639787,-7.988053611388408,-0.03458785697314784,0.646951282092914,0.09525081124842627,3.295903172958452,3,right
10.948,-0.43720653238519014,0.34811733660612865,-0.0524659392641151,-1.1736535148102898,-7.988951938977614,-0.03459562457056493,0.6471879951586655,0.09405938264572512,3.297556274932787,3,right
10.953,-0.43365967711088094,0.3515079218709128,-0.051944342665397145,-1.1945873466450387,-7.9834964968985505,-0.03377018684406709,0.6447537910039202,0.10062879623304777,3.2835872924087957,3,right
10.954,-0.43318164521291574,0.35640686631252794,-0.05057323986920603,-1.1716636160903047,-7.990078974884524,-0.0348017870966679,0.6495982445310307,0.08812528661495683,3.3110834073662527,3,right
10.958,-0.4344052120938038,0.3639478527498092,-0.047118664089707586,-1.1858691013406597,-7.9850644497789,-0.03396617299621142,0.6432589324268967,0.10429635651388158,3.2752045781983856,3,right
10.959000000000001,-0.4374170162363259,0.3746331992441915,-0.04648394616771367,-1.1933578086540426,-7.986739520027755,-0.03443208784123693,0.648601176095156,0.09074618035836263,3.3053987285296573,3,right
10.962,-0.4422189746144478,0.38965259833007604,-0.04996632470745728,-1.1527979755200743,-7.9892273967157585,-0.034335037145694955,0.648380061374725,0.0911904893442727,3.3042117132292486,3,right
10.963,-0.44703721422429177,0.4063546235531121,-0.05635173715870794,-1.22942140787822,-7.982839988254786,-0.03416417274517716,0.638397306924654,0.11682230018913219,3.2476221555013174,3,right
10.967,-0.4542329859720948,0.4212612635390284,-0.06345256106340334,-1.1307184133280308,-7.991441643470236,-0.03446274737981496,0.6630437449390052,0.05370884493273056,3.3872449197336096,3,right
10.968,-0.4623799395073007,0.4433812457134517,-0.06933730268909652,-1.2132475626363974,-7.984095979216484,-0.03418080640766716,0.622138108746706,0.15839864130426512,3.155545946924442,3,right
10.972000000000001,-0.4675001370123013,0.46141081896815717,-0.07243448833569416,-1.2105254668604855,-7.984920412762604,-0.03431245695009567,0.6761061769834883,0.020294578700175293,3.4612238864118012,3,right
10.972999999999999,-0.4699579460677354,0.4669889449638438,-0.07172446002306107,-1.054762487271307,-7.996882311529742,-0.034444972234404195,0.9025944422227414,-0.5592923009567043,4.744078039512598,3,right
10.972999999999999,-0.4746064891789413,0.48518835294528556,-0.07132987327280493,-1.4381827736248947,-7.966736787066185,-0.0339713872847673,0.9565625333291364,-0.6974056279271397,5.049759482040881,3,right
10.977,-0.4816439795607682,0.5157734396672595,-0.06541427845777481,-0.8023082619274877,-8.01692093284132,-0.0347969584253523,0.9156478985445791,-0.5926971232211999,4.818013501083691,3,right
10.979000000000001,-0.48547460414034316,0.5317115147326187,-0.05602208874638995,-1.6410325828769117,-7.950697507528747,-0.033701383611684545,0.9403261127579581,-0.6558375283823895,4.957787903443323,3,right
10.982999999999999,-0.486828547259234,0.5378527226391865,-0.053123753474088285,-5.160887637451549,-7.673690386697095,-0.029296618891361762,0.9302779112650087,-0.6301755470867259,4.900895329234041,3,right
10.984000000000002,-0.4877647706021251,0.5564863241985512,-0.04547689113060946,-5.999546724173402,-7.607501004030725,-0.028206348481376604,0.9301538367292514,-0.6297537858863542,4.9001494600972455,3,right
10.984000000000002,-0.48803611314579315,0.5792006132811213,-0.031893778251234954,-5.363744029734832,-7.657669933462421,-0.029031142175734263,0.9353919930933476,-0.6433055531486966,4.929879890656824,3,right
10.987,-0.4906622228780744,0.5966369486086904,-0.025330038243548243,-5.747186774202417,-7.62743383788422,-0.028537800513922115,0.9291125512871281,-0.6270905295961653,4.894251990117658,3,right
10.988,-0.49665697857908686,0.6147934308238624,-0.024734226188609976,-5.591198717803442,-7.639675752559212,-0.028725582992689097,0.934012467587764,-0.6396916823617086,4.922031354361939,3,right
10.991,-0.5071938277148702,0.6302018139540118,-0.029200304360463152,-5.588966942831778,-7.640003145722869,-0.02876252366201623,0.9313395276846328,-0.6329787197545271,4.906944741466178,3,right
10.992,-0.5251783318805227,0.6458167198133783,-0.04017819035297237,-5.670788236052026,-7.633285709914624,-0.028596998410934313,0.932023005054919,-0.6343206672354296,4.910645988777692,3,right
10.995999999999999,-0.5465561507193509,0.662731177777411,-0.05303910848343485,-5.57279615879621,-7.641367243161638,-0.028803854812665543,0.9325900684128827,-0.6364725319562621,4.914150562148114,3,right
10.997,-0.5699690236938082,0.6755063424733359,-0.06742110418713777,-5.649101626202022,-7.635008406834969,-0.028627610106655797,0.9315407854441253,-0.6329276041510441,4.907848215457701,3,right
11.002,-0.5983559715085607,0.6909627459515413,-0.0842673215016983,-5.607957168530661,-7.638394226671815,-0.028712910931067544,0.9325483855826449,-0.6361915354524117,4.913841630923848,3,right
11.003,-0.6278959831310349,0.7104066949725134,-0.10058574977969875,-5.617373577777633,-7.637953137037692,-0.028769625143909298,0.9317831457419895,-0.6342393379119654,4.9095098785978575,3,right
11.007,-0.6577224164604951,0.7289420959115206,-0.11501023088830364,-5.628232313494642,-7.636144168636342,-0.0285379297400771,0.9323629679970613,-0.6344510891466919,4.912262517916943,3,right
11.008,-0.6873412639516743,0.7473078959039418,-0.12666865862583687,-5.609442679446182,-7.639260486513042,-0.028935761474273666,0.9318003225605334,-0.6359184819741934,4.910290289682849,3,right
11.011,-0.7135860960719842,0.7659559673506194,-0.13504520283793153,-5.627040591478986,-7.635869708915729,-0.028455212312357422,0.9324571378815708,-0.6332619016913718,4.912198488622698,3,right
11.012,-0.73838425669361,0.7855281260318823,-0.1378806974841114,-5.615259236761618,-7.638394549241119,-0.028835171478553134,0.9317909101407587,-0.6361812052010776,4.910356656934578,3,right
11.015,-0.7605908755342621,0.8036951803069848,-0.13473597995380898,-5.620455177507764,-7.6379997518661185,-0.02883194425848368,0.9321222100552866,-0.6343563984498075,4.911116946767517,3,right
11.015999999999998,-0.7762294255460298,0.8207202372747859,-0.12979168831952503,-5.620261083644497,-7.63505255073503,-0.028154851195350966,0.9326736771097701,-0.6334660774901834,4.913278463961436,3,right
11.020999999999999,-0.7847207851064896,0.8389522273590199,-0.12128026634493985,-5.6178475516916855,-7.642012269407257,-0.02970562022540921,0.9306953037160208,-0.6384809078256436,4.906283508686599,3,right
11.022,-0.7873856129040426,0.8549051559147736,-0.10799323216843994,-5.6207843163655005,-7.631681815335083,-0.02739304480854137,0.9342857804435631,-0.6289780628270483,4.918811279065311,3,right
11.025,-0.7827274778076785,0.8703508531766144,-0.09483263369418642,-5.618533869665796,-7.642625703626269,-0.029857252712061886,0.929692906538037,-0.6412269812609735,4.902824165646482,3,right
11.026,-0.771976417555746,0.8851487384585839,-0.08291030420482777,-5.619844928820109,-7.6362996840570325,-0.028433189854575644,0.9335203598013904,-0.6309802166021319,4.916131607361221,3,right
11.030999999999999,-0.7544258541678943,0.895347842693176,-0.06820398959445283,-5.619017404962378,-7.631006671546198,-0.027208884535116624,0.9334436173899368,-0.6313334444216968,4.9159241676891074,3,right
11.032,-0.7310204344079052,0.9020665451375872,-0.053813058840107245,-5.620101274659862,-7.654383710286276,-0.032571876822637645,0.9260568533338072,-0.6506281072469291,4.890046276831483,3,right
11.035,-0.7065129165069666,0.9066462079580437,-0.03949982674361581,-5.618220756784295,-7.611015399634201,-0.022625307335887142,0.944181438411728,-0.6031098973972554,4.953473065226405,3,right
11.036,-0.6703771612515256,0.9126344056792693,-0.015186422029834497,-5.620793717172075,-7.666695145195055,-0.03539768550103507,0.9141375269824732,-0.6819274093189429,4.848351909009054,3,right
11.040999999999999,-0.6435382463786115,0.9168958262879665,0.0017799117897106661,-5.618577296795424,-7.620208691019484,-0.024733716932488974,0.953765488028151,-0.5779569043535316,4.987006269693207,3,right
11.042,-0.6352109409608058,0.9186719460998567,0.006233972791870808,-5.6184194552266415,-7.621501570866191,-0.02502502370094696,1.1201329940228195,-0.14174507403018663,5.56918569134611,3,right
11.043,-0.6105879919997683,0.9249982966791659,0.02267964262122087,-5.623551341226014,-7.710029117087116,-0.045352243627832814,1.1597658318212478,-0.037768214193806125,5.707865879931183,3,right
11.045,-0.579830386699722,0.9352300418804589,0.04102647269754771,-5.611119367420075,-7.492388517670127,0.004614790371021664,1.1297166421491756,-0.11659259911856756,5.602716765317732,3,right
11.046,-0.5470646748130998,0.9483431396224218,0.052504628024767366,-5.631725624874177,-7.85327664622982,-0.07823689190575117,1.147839227259287,-0.0690770132948604,5.6661329763391715,3,right
11.050999999999998,-0.5208979429288321,0.9564197889753224,0.060550196652291,-5.604521353724966,-7.377235481738935,0.031048624135916907,1.1404699512808838,-0.08834885063950254,5.640347674233231,3,right
11.052999999999999,-0.5149990252929169,0.9587556462314974,0.061085545845601524,-5.489680062486855,-5.379288701930016,0.4897480190429978,1.1403555717374667,-0.08875117789022863,5.639940948527854,3,right
11.052999999999999,-0.48877802982571206,0.971288636192804,0.0634801633415226,-5.462470690566541,-4.903160454083229,0.5990456226286989,1.144236996476431,-0.07843402459512788,5.653534181733809,3,right
11.056,-0.45013785461051675,0.9930615102844272,0.06536970618631026,-5.4830849254426575,-5.264184702361598,0.5161750466925548,1.1395903689201612,-0.09075302294882942,5.637262409989751,3,right
11.057,-0.41816953910580323,1.014251667652534,0.06550595520221991,-5.470646341731365,-5.046431522214755,0.5661577061672092,1.143204056667186,-0.08121996292274103,5.6499131344837235,3,right
11.06,-0.37690611668254187,1.0384147740246095,0.06881724780988666,-5.475777875744917,-5.134952507763433,0.5458313993912169,1.1412718022681356,-0.08617456144349689,5.64316232067811,3,right
11.062000000000001,-0.3387296050536953,1.0718842793128491,0.06601719115051177,-5.475632786086996,-5.136463913656998,0.5455097565572706,1.1416746387530718,-0.08547817186680737,5.644536878590993,3,right
11.064,-0.3043831518723379,1.1104260131694086,0.05785944709577612,-5.473388478748593,-5.089500479143172,0.5562399360298725,1.1422620742244494,-0.08331926549339283,5.646653422707146,3,right
11.065,-0.2670382737256374,1.1502802341987803,0.04651407826634298,-5.476001204821804,-5.14585963327475,0.5433732507392994,1.141281462672652,-0.08664853745849854,5.6431468184892,3,right
11.069,-0.23250313174509074,1.1935430236931754,0.02691581336531785,-5.474081251225156,-5.1018185195147385,0.5534132060782098,1.14218898157226,-0.08366519359757449,5.646382715260752,3,right
11.07,-0.19774470022504628,1.2379952798709004,0.0037678828258926253,-5.475182308928936,-5.125486989611663,0.548009770982359,1.1416284284224185,-0.08512948310591442,5.644421257966792,3,right
11.074000000000002,-0.16202670100092728,1.280783933510063,-0.01686806781825459,-5.474387726980424,-5.120760149128664,0.5491554721201283,1.1417433366643657,-0.08594806028060886,5.644712475598999,3,right
11.075999999999999,-0.127992201690037,1.321061630156097,-0.03480977109805693,-5.475591900430828,-5.112604359849645,0.5508335373054358,1.1420408371092856,-0.08260941040105674,5.646007813305504,3,right
11.08,-0.09478312998698715,1.3563054074714114,-0.046840124179850826,-5.47352584677261,-5.1267007637672135,0.5479317265887376,1.1414627957249222,-0.08794142610180922,5.643604986752871,3,right
11.081,-0.06206944424819089,1.377495516968784,-0.04779029652138211,-5.4762361275943086,-5.112502526344047,0.5507811718579121,1.1421040954332453,-0.08219220931081839,5.646255111062299,3,right
11.084000000000001,-0.03311937444827706,1.3817600289611653,-0.04087391476356979,-5.474003491725448,-5.122545020544104,0.5488025260226626,1.1416939249890712,-0.08561712141208658,5.644583816936253,3,right
11.085,-0.005176622693353408,1.3720603403650238,-0.03009139184763916,-5.473810152393126,-5.119625547787031,0.5494757022610297,1.1415362894878027,-0.08805833579070327,5.64383307076016,3,right
11.089,0.02284572266392121,1.3481821268395566,-0.015511825890712351,-5.478672451242021,-5.113510860362862,0.550272983879563,1.1425471780218714,-0.07653839419358689,5.64825104893707,3,right
11.089,0.04679999688011517,1.3119915102585202,0.0014132881528629401,-5.467655079131207,-5.129106057468263,0.5480786770953017,1.1406142496375795,-0.09805248048465315,5.639850279778647,3,right
11.094000000000001,0.07546260670759021,1.2607191976763947,0.0195243437536726,-5.484112068149242,-5.106218073134953,0.5512656121829298,1.1431096893193708,-0.07039450310955042,5.650688310440782,3,right
11.095,0.10449297596308213,1.2037364693142303,0.03448974987847497,-5.466540154068987,-5.130116866616985,0.5479831061287881,1.1410203474004128,-0.09349685709088662,5.641613159958938,3,right
11.099,0.13665080762253703,1.1386611847353239,0.051048717197470915,-5.476692742311782,-5.116303120077773,0.549880904365365,1.1410988759700544,-0.09282269547896,5.641949855148455,3,right
11.1,0.18082578331656252,1.0661216307515562,0.07000789196746998,-5.485508517195327,-5.1055032843682175,0.5512624641376571,1.145012277826131,-0.048934739159428385,5.658972812792069,3,right
11.103,0.2252084345263518,1.000799526419752,0.08740815364974303,-5.44700957881734,-5.15420193727825,0.5448869550064422,1.135366320499266,-0.15686056061867049,5.617009579074937,3,right
11.104000000000001,0.2908708302272897,0.9178248796630399,0.11377638926198813,-5.518402156669028,-5.063819351700413,0.5567265827044419,1.15136826874806,0.02209627915794639,5.686634697883289,3,right
11.109000000000002,0.3459862751048059,0.8587572072592249,0.1306941617523405,-5.426724670862059,-5.179781984653035,0.541545313620327,1.1302594976889728,-0.21394422015611578,5.594777641182549,3,right
11.11,0.35993122978977593,0.844537861986378,0.13613013100356863,-5.503266104873477,-5.083014284944202,0.5542092294922147,1.0417395575292567,-1.2047575972914526,5.209917982688274,3,right
11.110999999999999,0.42104476890867815,0.7950410248706097,0.15071467039447367,-5.501194206901666,-5.0857453660216105,0.5538412277790901,1.0206353992389907,-1.44079535029141,5.118092298837986,3,right
11.114,0.5138979478152397,0.7358878066698553,0.15869726765451014,-5.355236591655491,-5.269776930661458,0.5298036704365932,1.0366253200377695,-1.2618276906691304,5.187606248780863,3,right
11.115,0.5856287772637594,0.7053407262250925,0.15343780489637032,-5.7139851189862405,-4.817368725044208,0.5889031864205481,1.0270023888910267,-1.3698034909352719,5.145903640078683,3,right
11.12,0.6828889002807409,0.6877131916951812,0.12145512502917809,-5.119169092991507,-5.567472694403536,0.4909152146081151,1.0308809615329486,-1.325804972063517,5.162475272603686,3,right
11.120999999999999,0.7492312452379496,0.689421915078243,0.0882344896926093,-5.9037015759022236,-4.5781099719540475,0.6201581625846291,1.031000102056007,-1.3253014218217922,5.163406319488253,3,right
11.120999999999999,0.763135238043037,0.6950137673640261,0.07763125118540118,-9.195853009935142,-0.4251981369785093,1.1627360806789582,1.028880013785047,-1.3482130171126436,5.153780604219696,3,right
11.123,0.8155065540536408,0.714052990510156,0.026274346599582374,-9.980152650549599,0.5642072879786896,1.2920054153496374,1.031371741708306,-1.320677715291305,5.164790137943047,3,right
11.123,0.8758367387647611,0.755521912474862,-0.05916984617901297,-9.385844948628304,-0.18601715685205678,1.193953689038669,1.029504161892489,-1.3422638061135523,5.157014967708617,3,right
11.129000000000001,0.9012491036622661,0.8034511643715703,-0.15225122666392665,-9.743781098042732,0.266636558657916,1.2531670472815888,1.0303713496359552,-1.3303506378804462,5.159673632710518,3,right
11.13,0.9201884371595707,0.8582306086175853,-0.27888847802768074,-9.59886017024099,0.08221587687613871,1.2289671059064697,1.0304239105410504,-1.3335632740025722,5.161816794350469,3,right
11.134,0.928936819818521,0.9148370278889238,-0.4133336883548122,-9.595808518202908,0.07995970251705911,1.2287767506013523,1.0297950284663875,-1.3359401703240636,5.156733656652488,3,right
11.135,0.9314134051593242,0.9652634959180103,-0.5313608055037664,-9.67275333929873,0.17633655189705594,1.2413234517662122,1.0305523719169352,-1.331178503248149,5.161898762101238,3,right
11.137,0.9391881718051638,1.0051043927130707,-0.6280054391530038,-9.581924919864768,0.0604008295228958,1.2260871721089117,1.030109477360389,-1.3361693894010855,5.159989381547744,3,right
11.138,0.94724704453822,1.033885258918481,-0.689022680036341,-9.65062865601963,0.15144451555493005,1.238269414310139,1.0298840105398894,-1.3318003822364357,5.1555365300207345,3,right
11.142999999999999,0.9558492641692454,1.0515578907594394,-0.7155413971825935,-9.616751942259178,0.1011727728619112,1.2312064122861663,1.0309507952164234,-1.335609109681248,5.168110928342113,3,right
11.144,0.958985577393957,1.0571832770607728,-0.7165621049443986,-9.619885195454735,0.11437311727191452,1.2335384493108053,1.0291652401331919,-1.3321024944383857,5.148508077940548,3,right
11.148,0.9466831475605102,1.05415059459231,-0.7036753159839604,-9.634601148852646,0.1255651232094189,1.2345163633657743,1.0311395367001936,-1.3350439959593947,5.169713380924264,3,right
11.149000000000001,0.9203994677704259,1.0466103873289998,-0.6824510283208238,-9.616982892496061,0.10327462872424684,1.2316001002136563,1.0299514977324973,-1.3338795097890195,5.1572549862261186,3,right
11.152999999999999,0.8797012422805269,1.0370302291076081,-0.6472635565986451,-9.625174946842353,0.12728638788990437,1.235635202805268,1.0290744320409972,-1.3312119196695158,5.147156135884414,3,right
11.154000000000002,0.8241291569310215,1.0247703643683481,-0.5975695219969853,-9.633204792315343,0.10615857120104821,1.2308221909191213,1.0331838487464804,-1.3398158510588685,5.192534075111229,3,right
11.158,0.7629163681247992,1.0118085708921485,-0.5365444278164584,-9.609520330180993,0.12291101116481469,1.236073549679125,1.025499342031949,-1.324587093166296,5.108102942490129,3,right
11.159,0.6943273654393722,0.9980335980320133,-0.4660357112055665,-9.639923961680655,0.11155694060707282,1.231324744209484,1.0353888588866744,-1.343876775595523,5.216614297993358,3,right
11.162,0.6210509824664119,0.98510628724903,-0.39240685592197655,-9.619725835739718,0.11479688947902296,1.2336357190459388,1.0271242909382732,-1.3278890199734712,5.125985997701325,3,right
11.163,0.5444871505078039,0.9712289626786939,-0.3168411562604662,-9.607853405361894,0.12458197982673523,1.236538433306018,1.0273596079113476,-1.3281378725139728,5.128493078606945,3,right
11.169,0.4664520744969486,0.9514855307618346,-0.2555240510112882,-9.671504680582082,0.09651753756012801,1.2257570024540536,1.043086616152241,-1.359108687384734,5.301155937231549,3,right
11.169,0.39452708622368904,0.9282126733954961,-0.2163783515179212,-9.550055243238408,0.1442603342223598,1.245191596696139,1.0044167936162554,-1.2832603425625095,4.876700418513803,3,right
11.174000000000001,0.31452937044641893,0.8951263954084915,-0.1729811503906596,-9.707512455899085,0.08486561709784723,1.2204836684711637,1.068535961124101,-1.4089059629804774,5.580484813275549,3,right
11.175,0.2656562895467357,0.8711936834625276,-0.14658982319756797,-9.575417019721462,0.13363514617072353,1.2410078504103519,0.9839655698192881,-1.24323555592377,4.652201975716453,3,right
11.177,0.2527333025842631,0.8641426828981998,-0.13988773834839216,-9.579541998632408,0.1330214119483066,1.240537015078308,0.6289316534052218,-0.5474526408151107,0.7555890345046689,3,right
11.177999999999999,0.21042368362878913,0.8407865117519859,-0.10948808471311394,-9.830407855345111,0.038719075038272724,1.2012481871582203,0.5443697890585069,-0.3818245530637183,-0.17266663417893047,3,right
11.179,0.1652101330772638,0.8121445937812337,-0.07500823559201451,-9.212829045655006,0.26923700891723173,1.2976663594516848,0.608481484984696,-0.5074047533942276,0.5310959935848827,3,right
11.183,0.12985545833896275,0.7919558287257864,-0.04254355557084044,-10.237262412315296,-0.11236848743577985,1.1378651360710765,0.5698019408430625,-0.43160853635929075,0.10660227665775729,3,right
11.183,0.10129664213936873,0.7782642950841547,-0.015720325719552772,-8.885831803312815,0.3906747410949468,1.3486221226034507,0.5855723596117195,-0.4625878626086286,0.2794183420661948,3,right
11.187999999999999,0.0946167028570102,0.7755852156002631,-0.010026333038113521,-3.213173554443667,2.502157088099806,2.233265797615668,0.5857228301189811,-0.4627226239726599,0.2816329909826239,3,right
11.189,0.06337987011705223,0.7698214482541341,0.011266036023642527,-1.8617078689725979,3.005060846586809,2.4440662374066897,0.577573064151631,-0.44697513269693834,0.19139418671536357,3,right
11.19,0.011846816790275126,0.7760013565001616,0.04030683422563747,-2.88625886583612,2.6237722551585985,2.2841972715825403,0.587356819259283,-0.465929780731953,0.2995548985261511,3,right
11.190999999999999,-0.03987857651059977,0.8078298323376174,0.05722176817233642,-2.268412260568669,2.8537595759548107,2.3806709847482654,0.5797020566535797,-0.45102344584886556,0.21520595902131737,3,right
11.192,-0.10032537219802312,0.8583649513986895,0.08042756283194,-2.519734081234361,2.7601689308530273,2.3413867416813394,0.5839389068037937,-0.45950523959143397,0.2610442300087259,3,right
11.196,-0.155487824283452,0.9356029732758571,0.10783080490889835,-2.5232666877269407,2.7588337298216183,2.340804914768955,0.5827143340129195,-0.4565260157117557,0.2497364606130246,3,right
11.197000000000001,-0.20682403634386398,1.0333007855555438,0.141392061901579,-2.391709433321379,2.807989365267534,2.361569210599371,0.5820893026534881,-0.4562987732048215,0.2392055635514285,3,right
11.202,-0.23893034816856198,1.1372162625822213,0.18707176671440778,-2.5490193343184817,2.7490199376963256,2.3365210111705346,0.5834106291052295,-0.45766491111446117,0.2582105172050805,3,right
11.202,-0.21803191553736792,1.2290738775144003,0.2422066971784611,-2.4269119549848512,2.7950756202595732,2.3562903356324494,0.5820889037487138,-0.4560494562427476,0.24011509887910856,3,right
11.208,-0.13948205076394674,1.295138367378868,0.3085230252742386,-2.4923520146747644,2.7701104512060226,2.3453680258583622,0.5832904825386789,-0.4584125382633828,0.25327114801636696,3,right
11.209000000000001,-0.02074498767991602,1.3508607188645296,0.3848088013624357,-2.4775778129093244,2.7758726810784613,2.3479797357165157,0.5819044790637666,-0.453889632671306,0.24471716837092328,3,right
11.210999999999999,0.1331586656059622,1.4107665686612885,0.472523414714339,-2.460754762018669,2.7826593745406862,2.351214638819225,0.5838769017030299,-0.4618838192973471,0.2511500201384387,3,right
11.210999999999999,0.33321222512470655,1.4734336886589623,0.5640234110434941,-2.4887437208471757,2.7705489503070346,2.3448838558138076,0.5812206110690571,-0.4505192026696553,0.24469451942930687,3,right
11.217,0.5695514701380299,1.5388880686119264,0.6331777684906,-2.4643999684806763,2.782527959357462,2.3520646623722703,0.583998976569036,-0.4625292018331921,0.25099131309275696,3,right
11.218,0.8379080028842464,1.6127043758461865,0.675094848297324,-2.4783809413553124,2.773742059364979,2.3457328485109907,0.582477786337428,-0.45575537669773325,0.24827671358364087,3,right
11.220999999999998,1.1288636616098175,1.6873509563182654,0.674985724428605,-2.474115433601736,2.7781856133597556,2.349706709369596,0.5807496294061432,-0.4490974517145421,0.2413609716816725,3,right
11.222000000000001,1.4091688633211965,1.7551389792227234,0.6202579720211967,-2.474192318583548,2.7781833423672366,2.349724952311015,0.5876305652060676,-0.47689460008937473,0.26413802849459245,3,right
11.225999999999999,1.6321019416056297,1.83023519809568,0.5612962156170958,-2.471084174596335,2.774037621103831,2.3440691645682428,0.5749929071855988,-0.42558750981087734,0.22324923900539856,3,right
11.227,1.7328234230667376,1.9174946831285968,0.5099349075951833,-2.4828379620465113,2.781779675463002,2.3562673646106442,0.5911927210771738,-0.49141259387010794,0.2754495971389934,3,right
11.231,1.7254183131575758,2.0077768390746296,0.4570953725622669,-2.4614728007111366,2.7716565326652765,2.338668494261543,0.5776793679157441,-0.4364826424184512,0.23199220984976235,3,right
11.232000000000001,1.590931087088182,2.0802281521833574,0.41232683702419515,-2.4864874326011748,2.781613287428158,2.357078602553817,0.5780025157483354,-0.43788041011613543,0.23269903969061254,3,right
11.235999999999999,1.339268939445366,2.1244954868823602,0.38436404244036076,-2.471319091233244,2.7761291564437105,2.3465551796409074,0.6039098442691402,-0.5429082259626937,0.31710515845544607,3,right
11.237,1.047394034776695,2.1419729290523373,0.3707575346823042,-2.457943202643821,2.7715044215609765,2.3375230049279585,0.5402827150000333,-0.28487197375871076,0.11019667672295602,3,right
11.24,0.6446652578657591,2.1274881795201197,0.2905541538346932,-2.5173380375290204,2.791406982416022,2.3769025877733183,0.6457669176385743,-0.712674123210719,0.4531203974806042,3,right
11.241,0.36019851406075887,2.114263702892433,0.20686260992001632,-2.4063690404910867,2.754810917758882,2.304007548494398,0.5066341755289967,-0.14841644578970015,0.0008135482746118861,3,right
11.245999999999999,0.29017489010051356,2.103823071366002,0.17580468560697493,-2.5494261791251605,2.8015826907885044,2.3975129563984057,-0.0774319986562563,2.2202195097738673,-1.8983927747471143,3,right
11.247,0.048410517657012195,2.0676318369213535,0.04741901279640922,-2.4297485935200163,2.7626393309747383,2.319498736576939,-0.21657191546148444,2.7844648520916433,-2.350767139166317,3,right
11.247,-0.2433923864796675,1.9966895189754503,-0.12113764265724664,-2.43294818557614,2.763678720145757,2.3215919922984583,-0.11107914023996437,2.356687163971877,-2.0077668859899696,3,right
11.251,-0.38703735135862316,1.8969025573080738,-0.21623812123346936,-2.6616874013376406,2.837807611826796,2.470325373227949,-0.17470618631647303,2.614689120466349,-2.2146599309166555,3,right
11.252,-0.5047395628391858,1.7810846973146146,-0.2830630350817948,-2.0993466176423774,2.655712366041946,2.1048242952665746,-0.1488186918876368,2.5096982033817747,-2.130470665053404,3,right
11.255,-0.5625324183547664,1.6058185115951564,-0.33169155313686,-3.031877716543672,2.9575425579552723,2.7107873124860618,-0.14844891688440337,2.508275269250703,-2.129280246081845,3,right
11.255999999999998,-0.5797244767587388,1.4751243924900241,-0.3569483742008013,-1.8017632267101105,2.559500316683865,1.9115666921741223,-0.16203228776191847,2.563197888944554,-2.1734446150909275,3,right
11.255999999999998,-0.5896789233614415,1.4405998915132012,-0.36750798726834855,3.362233545597271,0.8880908367675925,-1.4437695026127462,-0.1457587987220283,2.4974343385308666,-2.1205232458324543,3,right
11.26,-0.5798766276737644,1.3103996115745815,-0.40377029190477454,4.592464091541027,0.4900605806285655,-2.2429978435263953,-0.15843558554927092,2.548614164313941,-2.1617547174668545,3,right
11.261,-0.563961144393307,1.131820306799888,-0.4721029176053658,3.6597150714888946,0.7919511020882976,-1.6369517711921207,-0.15160100306594643,2.5209962559886696,-2.139524031936334,3,right
11.264000000000001,-0.5191456017624919,1.0081411362976649,-0.5278878302597446,4.222335225634852,0.6095913054698749,-2.0027142684940875,-0.15315074977529958,2.5274760336900686,-2.144554580800263,3,right
11.265,-0.4478597308898531,0.8876603938012249,-0.5509304895293939,3.993338120164053,0.6842984411937882,-1.8534631044214875,-0.15499586202399634,2.5343302030549775,-2.1505885001208314,3,right
11.27,-0.3610951326598415,0.7945163775418862,-0.5173687944086665,3.99024286176424,0.6844512284788917,-1.852119504836952,-0.1518024305393065,2.5224621921536934,-2.140142632453231,3,right
11.270999999999999,-0.2721776194095463,0.7204720036019876,-0.41675293407357267,4.110131582458527,0.6464928125092284,-1.9293506257455384,-0.15481581546356832,2.533354300569977,-2.150018634557912,3,right
11.275,-0.2006971075051338,0.6485310652930714,-0.26773380013765724,3.9664135849841102,0.6926413449998625,-1.836260595877965,-0.15278631371834495,2.526182847951625,-2.143356981026093,3,right
11.276,-0.16170235383511625,0.5913503817108536,-0.11591907495687243,4.078504556229319,0.6556502477302288,-1.909653120803326,-0.15364786288725601,2.5296858844480457,-2.1461581195339345,3,right
11.28,-0.1699636292748229,0.539035870467198,-0.02360762656930459,4.017748855363063,0.677617847385195,-1.868357557706392,-0.15375418633114168,2.528152976618262,-2.146619719739717,3,right
11.280999999999999,-0.22792675878141977,0.5041834580818164,-0.022611412416874123,4.032191269487456,0.6689730986427156,-1.8808790129043267,-0.15303702245569825,2.5297335795871474,-2.1440224246865323,3,right
11.284,-0.3324425623224507,0.4936529703219494,-0.09147093016430158,4.047404769558302,0.6689211888142521,-1.886913311276512,-0.1539967594663304,2.526928604141487,-2.147539186287627,3,right
11.285,-0.4712630456790431,0.5060290016795151,-0.17986437373773467,4.020335858167015,0.6737987442641927,-1.8723947690338352,-0.15311982742193336,2.530511897062665,-2.144265586586496,3,right
11.289000000000001,-0.6296943970737842,0.5434077178469361,-0.2662980695769065,4.046323731062935,0.6653524318885966,-1.8893084432137441,-0.1536280090689453,2.5284469036108757,-2.146161551109721,3,right
11.29,-0.7941475241330402,0.596410282004368,-0.3495133584122415,4.027741791564226,0.6785732008397106,-1.8715379193531922,-0.15374221572388214,2.52535538512525,-2.146744166974843,3,right
11.295,-0.9512701696718298,0.6513373857587232,-0.421099162798504,4.038026349827639,0.6587771718612778,-1.891237504420242,-0.15282334362293654,2.5371899670716367,-2.1428344849464462,3,right
11.295,-1.0926569239628545,0.698932686395729,-0.48129147295107705,4.034015820746677,0.6846395304317355,-1.869214450524453,-0.15454804149910178,2.5153246360193817,-2.1501509818185047,3,right
11.299000000000001,-1.2101075143829991,0.7344845150211612,-0.5271358160625266,4.034146273466385,0.6584141411524788,-1.889995285988608,-0.15236056688245989,2.543512510504856,-2.140845674875579,3,right
11.3,-1.3040708860853583,0.7494153438017279,-0.5522902831495309,4.036847233781028,0.6726634433863067,-1.8797975664270967,-0.1541741699726141,2.519926069453264,-2.148571256101274,3,right
11.305,-1.3736697277212144,0.7411778285785819,-0.548127467511242,4.030544143711699,0.6877563974613067,-1.865381281587141,-0.15409184824952604,2.5204360808859105,-2.148258784459205,3,right
11.307,-1.4163569868392745,0.7185823028934735,-0.5120927353084312,4.042209318979383,0.626889241223557,-1.9180929649323546,-0.15077701506663693,2.565976338086714,-2.1339822339756584,3,right
11.309000000000001,-1.4372814366352666,0.687707801615584,-0.45554005630582856,4.024331750146244,0.738537931237725,-1.8227944395101583,-0.15894860024708668,2.4541294956764186,-2.1691416362455938,3,right
11.31,-1.4348687350172202,0.6580159139322337,-0.38472708292449476,4.045942646485313,0.5956256746724771,-1.9442726394354193,-0.14540340831556603,2.639599794215904,-2.110863771310658,3,right
11.312999999999999,-1.4261943789654103,0.6375846255651405,-0.3380586100871282,4.028454050762976,0.7147343335665381,-1.8432403654416776,-0.16326017696714318,2.394921620988425,-2.187697220028161,3,right
11.314,-1.4231720389688371,0.634888349369636,-0.32958454374876156,4.028092278503584,0.7118344180319265,-1.8453744586227945,-0.23814343701686969,1.3677925416161094,-2.5101141740128226,3,right
11.314,-1.410646424087624,0.6419716779599659,-0.3174165249003563,4.063671341335263,0.48386462058139096,-2.039614391152974,-0.25598752111191636,1.1230699606943617,-2.586911438718822,3,right
11.318,-1.3953600552235954,0.6589329670343762,-0.31579019973888184,3.977406119058477,1.043699536786257,-1.5630775258216836,-0.24246084692324915,1.3085834490386419,-2.5286708551146964,3,right
11.32,-1.3789035501070315,0.7245946520850011,-0.33673785483890606,4.120019130056386,0.11567300812902953,-2.35285010499843,-0.2506206716999181,1.1967720818280725,-2.5638517613961573,3,right
11.323,-1.3653746367745059,0.7827616556553421,-0.34836201111743403,3.932039982667572,1.339641359051066,-1.3112834186693783,-0.24729532099364496,1.2421175015985146,-2.5494317139315044,3,right
11.324000000000002,-1.361365822509589,0.8009581376754057,-0.35008000659382765,3.143754227355405,6.478556506124603,3.061882845593966,-0.2472590154844862,1.2430230403965028,-2.5494188853389903,3,right
11.324000000000002,-1.3396203487451668,0.8741026521837226,-0.3406698697075684,2.9558574787227667,7.702555256217176,4.103457730971846,-0.24898791639199408,1.2188884563482123,-2.556722129091434,3,right
11.328,-1.299952275552271,0.9773768623292252,-0.30093211275737775,3.098096791397204,6.774390841936788,3.313647923372522,-0.24690817752840913,1.2475984874052597,-2.5478282820776665,3,right
11.329,-1.2522721014267486,1.058910428309734,-0.22106426275637014,3.012805540022165,7.334585146657192,3.790281858174864,-0.24854295170567603,1.2255518137276873,-2.554984129202678,3,right
11.333,-1.1870227609706765,1.1418057903942116,-0.10880268687055569,3.046602484647081,7.1059577451360285,3.5958642773551825,-0.2476316627717125,1.236836749464729,-2.550682229516564,3,right
11.334000000000001,-1.107434339208711,1.2094663406287745,0.012023696096684414,3.0486870448673145,7.103960544239213,3.5939740792714394,-0.24789362933795625,1.2353415078288719,-2.5524613194489767,3,right
11.339,-1.013581761192457,1.2602788231549082,0.1226875345680172,3.0288022478096064,7.222184968951244,3.694767411714622,-0.24804948456862994,1.2306251090890767,-2.5523338086759817,3,right
11.34,-0.9047451381047544,1.2958176699261201,0.21007524026517035,3.0514110917842507,7.079641003477865,3.573388805198453,-0.24770869253452704,1.237356949385846,-2.5515028978621923,3,right
11.343,-0.7809887512288334,1.3079572474104049,0.2618132728459333,3.0356807000244554,7.192081957403957,3.668901254320627,-0.24808607559680101,1.2321996573537501,-2.5531332363480455,3,right
11.344000000000001,-0.6448315495067583,1.3051207745523494,0.2825909515223737,3.0405491302291483,7.128706814900168,3.6155120991432907,-0.2477202174594457,1.2333950869738406,-2.5503780608460764,3,right
11.349,-0.5069261750534986,1.2896195106994748,0.28787127769949156,3.045921519967443,7.148108073546634,3.631092328531033,-0.2480896497383765,1.2370645967571283,-2.5546652277102604,3,right
11.349,-0.36856543802370284,1.2647570647099595,0.2913577494030681,3.034306538137195,7.157074649650159,3.639862680243441,-0.24770284039442034,1.2293357876612916,-2.54897709684899,3,right
11.353,-0.23333419230787306,1.232394682012302,0.30063685890920044,3.0458447591622724,7.135058959240297,3.6202195403869935,-0.248055052080777,1.238399902867728,-2.554781775884237,3,right
11.354000000000001,-0.1085268441324016,1.1988227242960914,0.31376901732209317,3.0419455227942542,7.160962115456723,3.6422530339412837,-0.24789191964259497,1.232609474146018,-2.551601711280992,3,right
11.357000000000001,0.0013627121287947165,1.1671116654186737,0.3279640965530437,3.031034851464571,7.133345238063284,3.620441163537071,-0.2476257130182233,1.2293377262515217,-2.54831968548314,3,right
11.357999999999999,0.09026759915093534,1.1365099853050293,0.33364092557707703,3.0608795475948662,7.164435490903897,3.6430390101381596,-0.24855905389498548,1.2468292423777214,-2.5616856259485763,3,right
11.362,0.15533307032260465,1.1113396674092193,0.31965513555208025,3.014626386970118,7.129331759653191,3.6189231586653783,-0.24688296628182538,1.2136414014550736,-2.537134408208848,3,right
11.363,0.18899164657958945,1.087386404975113,0.28396560874560867,3.0645674292932386,7.162626981044674,3.6411204975218263,-0.24901529666410588,1.2565264148049977,-2.568573820962492,3,right
11.367,0.19428401051790598,1.064812051882432,0.22722830264904179,3.03528469473277,7.146154559668771,3.6306473948224554,-0.24724367405480527,1.2206096631359502,-2.5423635667507645,3,right
11.368,0.1737653345039049,1.0425740091991116,0.16449716773343548,3.0113692659145945,7.1233571584991795,3.614305788438806,-0.24727825480082224,1.2217578538182519,-2.5430152048531447,3,right
11.372,0.13497002560458649,1.016484761950292,0.11221451939314488,3.1184847517085856,7.207268602410039,3.672333318015955,-0.25069181357950887,1.2897756329063683,-2.593145919715046,3,right
11.373,0.08967159756145879,0.9918132993349674,0.06902617834944097,2.919256072453173,7.055399436888326,3.567905587525367,-0.24232135195669308,1.1223415635412621,-2.470015798097103,3,right
11.377,0.01933044709498771,0.9690981941076743,0.03935877370965983,3.175289753539672,7.249060034111185,3.700852037689641,-0.25619212676777836,1.4000511258236576,-2.674137096771714,3,right
11.378,-0.029279707455734306,0.9551769233679167,0.0299395160987478,2.9614418811184633,7.087946409378592,3.5903383062420247,-0.2379000232330447,1.0337185268055686,-2.404917012888158,3,right
11.383,-0.04226487692244787,0.9534475884463706,0.02930861871456528,2.967389836006947,7.091444021099161,3.59260255554132,-0.16109951288462893,-0.5038177943349532,-1.2747808910362113,3,right
11.384,-0.09303201489081608,0.9493089922217529,0.03125479585633725,3.3747360018478996,7.400955564904339,3.8052693282765575,-0.14280923193719874,-0.8701573120410987,-1.0055689721601448,3,right
11.385,-0.15671452835002453,0.9442134844302852,0.03727374391852088,2.3732834340723032,6.6414527280932765,3.283599210684452,-0.1566765523293424,-0.5924199009040483,-1.209675052276466,3,right
11.387,-0.21653725402134436,0.9475264788642086,0.037666528392376476,4.033849433997911,7.900288650708202,4.148176923024761,-0.14831059177329697,-0.7599232505738083,-1.086564185071103,3,right
11.388,-0.26156950046826705,0.9516657806986344,0.03502347665168094,1.8435058730738794,6.240038636852967,3.007917790190576,-0.15171986604465226,-0.6917816043758487,-1.1366775816459724,3,right
11.392000000000001,-0.2732712407064061,0.9531951800664205,0.03393342785174164,-7.349884520728071,-0.7292267139422857,-1.7785016988431328,-0.1517564333391518,-0.6908005906236507,-1.1373353363018612,3,right
11.392999999999999,-0.3181349167623071,0.9587910240305841,0.020861594295164196,-9.54030017902152,-2.389492195433208,-2.918793091864898,-0.14998775252397895,-0.7265571761609844,-1.1111412479434366,3,right
11.392999999999999,-0.38174962253737016,0.9691975590350188,-0.006277226596904757,-7.8796405454352065,-1.1307413796192223,-2.0542671460426036,-0.15210992112884458,-0.6837323125502673,-1.1425334158567013,3,right
11.397,-0.4329438672407577,0.9815081795286598,-0.043094829303522056,-8.8811188040256,-1.88987712535475,-2.575617001592364,-0.15045164833984034,-0.7170786745879767,-1.1180604221440205,3,right
11.398,-0.49197601862211343,0.9947220466822414,-0.08741768491318017,-8.473917260008362,-1.5811647651448213,-2.363698890564624,-0.15136276890150355,-0.699110434241339,-1.1313336582120408,3,right
11.402999999999999,-0.5434900721312639,1.0088840744342444,-0.131755792466135,-8.467581889763267,-1.5764444267908202,-2.360246605681251,-0.15111490054489313,-0.7031865550371417,-1.1281209767265161,3,right
11.404000000000002,-0.5905829059695785,1.0225946345028833,-0.1742697464779344,-8.6820462783169,-1.7389134359841476,-2.472125237371809,-0.15095039578355748,-0.7080061842567706,-1.1249515976631652,3,right
11.408,-0.6334517046034478,1.034235444390272,-0.21164544222179849,-8.42532242990834,-1.544399993994998,-2.3382424509243664,-0.15127219033175057,-0.699692545924458,-1.1306049147896373,3,right
11.409,-0.6609067732704004,1.0431088891293567,-0.23495734062274515,-8.62499048912716,-1.6957145433255447,-2.4422890345663184,-0.15095759487978566,-0.7074818609090181,-1.1252440189339665,3,right
11.411,-0.6759146535692299,1.0461154830207824,-0.242261252797387,-8.518141411725235,-1.6146613414747741,-2.386874738175118,-0.1512172383140623,-0.7022960137928493,-1.1290585122477281,3,right
11.412,-0.6765638934938525,1.0454318102782825,-0.24065249673471398,-8.540637398504348,-1.6319089050457545,-2.3979108967902647,-0.15097074932453253,-0.7044686622624492,-1.126787280858054,3,right
11.415999999999999,-0.6628286487324555,1.042499455620856,-0.23484765318216222,-8.57268453464024,-1.6558675669828151,-2.41575847065399,-0.1512755540917851,-0.7046789581233517,-1.1281739163472118,3,right
11.418,-0.6354726529415629,1.0344787141423,-0.2285140647292086,-8.519012457272344,-1.6155900902452973,-2.3863875218044397,-0.15088276780944482,-0.7031257986088043,-1.127016352109755,3,right
11.421,-0.5973471506364924,1.0268977075063515,-0.22694418372789216,-8.568745827735917,-1.6529654765718522,-2.4134184457596084,-0.15128993565223303,-0.705012264300378,-1.1280806668774876,3,right
11.422,-0.5538001846687994,1.0201341985933627,-0.22504127086877657,-8.537767936815097,-1.6294817503695604,-2.397302700102614,-0.1510729075103791,-0.703557719117522,-1.1277336268871692,3,right
11.425999999999998,-0.50089648513858,1.011374946017086,-0.22014652361629733,-8.544891451720748,-1.6354768697227002,-2.3988918672386896,-0.1507955650131843,-0.7041097505169067,-1.1261073537541413,3,right
11.427,-0.4376780144144605,1.0045833618959226,-0.21625860560719462,-8.55955637248133,-1.6452322691229861,-2.4113686668259526,-0.15186156493059905,-0.7046497234839291,-1.1310524136774505,3,right
11.431,-0.3699992032857635,0.9978276741207258,-0.211911067924035,-8.530267900357382,-1.6250611021743357,-2.3888977761115937,-0.1499113708605666,-0.7031148590230614,-1.1222737899377788,3,right
11.432,-0.2938223658266208,0.9915312870253146,-0.20504580468880612,-8.562870140847334,-1.647610061791702,-2.4135700245116216,-0.15240947020232692,-0.7052053828602661,-1.1334580606536204,3,right
11.435,-0.21386352765604152,0.987992565752068,-0.19479373849487797,-8.541852606556148,-1.6329295174532485,-2.398181048166067,-0.1503264459532958,-0.703411646338586,-1.124156390039948,3,right
11.436,-0.13041252071248544,0.984279719208075,-0.18262890623987912,-8.534533196998392,-1.6284570448527615,-2.39053171031614,-0.1503733327962139,-0.7036461395738973,-1.124271763006691,3,right
11.440999999999999,-0.0458952535488474,0.9812361855734408,-0.17263917580375082,-8.584241763503378,-1.661423596928483,-2.433199950210062,-0.15437619363262878,-0.7064563900057463,-1.142455871981525,3,right
11.442,0.027337163020508704,0.9806030890611953,-0.16743937073217816,-8.48886622203304,-1.5978703661580398,-2.3524145655807396,-0.1445490244770082,-0.6993300709764199,-1.0979220121160322,3,right
11.447000000000001,0.10429559256743423,0.9829413562548799,-0.16480689041485466,-8.61204952512352,-1.6800169157829181,-2.456515788682448,-0.16083975138221418,-0.7112022729939276,-1.1717201533098605,3,right
11.447000000000001,0.15373491350241963,0.9848985743998916,-0.16445467955429352,-8.508918930072978,-1.611219221579082,-2.369461367904509,-0.139352979211749,-0.695538432173466,-1.0743835351044089,3,right
11.45,0.16514627764341913,0.9861241168184177,-0.164113759654881,-8.512825004716479,-1.613919438584087,-2.3723842471157326,-0.049147106654914285,-0.6300544700712064,-0.6656221182559063,3,right
11.450999999999999,0.20119625267618715,0.9916009964090561,-0.159309264464972,-8.705819923142972,-1.7423490236572532,-2.5365094791945113,-0.027660168962173732,-0.6144133116939587,-0.5682672566241609,3,right
11.450999999999999,0.24432622985218466,0.9986677026062868,-0.15337772149147494,-8.230146074418368,-1.4257015047803323,-2.1324530975950102,-0.04395058291806103,-0.6262615021344251,-0.6420855032275057,3,right
11.456,0.2703059079204565,1.0054919011227224,-0.14188848647038874,-9.019177544322009,-1.950965682824288,-2.802552329849613,-0.03412522466649985,-0.6191239744847477,-0.5975578497281946,3,right
11.457,0.2883074186402146,1.0097069959515648,-0.12971502517527927,-7.978416456162011,-1.2581332034451347,-1.9187038107153966,-0.03812389854048927,-0.6220194947694029,-0.6156791667751542,3,right
11.460999999999999,0.28997882471174197,1.0101709077092185,-0.12502475827346723,-3.6114458119527635,1.6488711937924465,1.7905418850849681,-0.03817739383216118,-0.6220731015760523,-0.6159314358509319,3,right
11.462,0.2977971919475141,1.0130910952955827,-0.11409861732108109,-2.5708033961145498,2.3415799084537996,2.6742622536165808,-0.03608681620318183,-0.6205366519010669,-0.6064320497732631,3,right
11.462,0.30671829914484705,1.0175399138097188,-0.09800631201584739,-3.3597177952501727,1.816457320139527,2.004327713887593,-0.038590036503045495,-0.6223735544864795,-0.617814995403297,3,right
11.465,0.30117153143874353,1.0210755426131655,-0.08470122810591121,-2.8839550005419072,2.133128549092603,2.408344587501744,-0.03664209096998722,-0.6209433265487301,-0.6089473200436075,3,right
11.465,0.29434592422845285,1.0224251820404961,-0.07206494373063332,-3.07745851603399,2.004310900678067,2.2439496020626004,-0.03769342036865439,-0.6217121395215583,-0.613729442220343,3,right
11.47,0.28244720259192263,1.019212789762209,-0.06266015154129938,-3.0803255276549497,2.002483137929018,2.2417341734373037,-0.03744566339573881,-0.6215460274334692,-0.61264122491835,3,right
11.470999999999998,0.261334228917549,1.0152297208160417,-0.05550218862552975,-2.978640504678183,2.0699998962621398,2.3276725388508663,-0.03718768919047169,-0.6213180810291015,-0.6113596065322278,3,right
11.475,0.23227534230641023,1.0141465161585912,-0.049544593102796075,-3.100439574413933,1.9891663831518331,2.224809732167534,-0.03763445826115378,-0.6217106608536715,-0.6135788307050207,3,right
11.475999999999999,0.19834309379764237,1.0140493658408458,-0.045707029406314784,-3.0055586921928175,2.0520834383396265,2.304824807406547,-0.03722600491834867,-0.6213313867308197,-0.6114886481294148,3,right
11.481,0.1628740384778708,1.012205200729262,-0.04374592244897377,-3.056692369369566,2.01814980576461,2.2616368485306735,-0.0374940649609984,-0.6215915281905948,-0.6128942882880749,3,right
11.481,0.12175267553092865,1.0104509864682192,-0.04908019370572511,-3.045189045070811,2.026013504928166,2.2718956819865506,-0.03736060909457001,-0.6214954218274933,-0.6122910974177556,3,right
11.485,0.07835544650603297,1.008225355455481,-0.06042464992833723,-3.0311496867232646,2.0346941678120736,2.282257479042325,-0.03742835750118689,-0.6214229670699241,-0.6122439962806423,3,right
11.485999999999999,0.035736950225274386,1.00333885610963,-0.06886902533274386,-3.0554330838633375,2.019674886790967,2.2643185007512088,-0.037346758899452284,-0.6216412571521173,-0.6126837311030007,3,right
11.49,-0.008348055023303309,0.999153621801789,-0.07886239417286736,-3.0324107097936848,2.0335946428471563,2.2805795102215107,-0.03748550857783844,-0.6213282128515087,-0.6121046812693987,3,right
11.491,-0.050233261353645337,0.9957240785636223,-0.09216821521676499,-3.0479740144305785,2.0243551938150732,2.269984748791689,-0.037315009058911976,-0.6216454055004784,-0.6126197195958184,3,right
11.495999999999999,-0.08706150050313652,0.9912948150336348,-0.10028741997174655,-3.041536811521393,2.0286498553235517,2.2754758203567524,-0.03741332414488372,-0.6214620187623259,-0.6123210876352507,3,right
11.497,-0.11630210819015291,0.9855135525766477,-0.10417300840655208,-3.040020799491165,2.027580678358678,2.271895315895442,-0.03754799148406277,-0.6213401873089608,-0.6122902502926493,3,right
11.5,-0.13956098985822912,0.9766450096300652,-0.10567837093633309,-3.0470281723569377,2.027666303822601,2.27706789417684,-0.03702313369702235,-0.6219201924026252,-0.6127183766141167,3,right
11.5,-0.16151639226019338,0.9675188647110605,-0.10652848219651283,-3.0373991877390436,2.026989090459546,2.268651149736429,-0.03799338738714926,-0.6208423220659527,-0.61191001314219,3,right
11.505,-0.17736097973538822,0.9611080953926009,-0.11131512456721843,-3.046570879251078,2.028439114813529,2.2785519994616634,-0.036743254659101346,-0.6222232807108712,-0.6129289450742832,3,right
11.505,-0.19137117995033412,0.9542698448556473,-0.11791193700981911,-3.0412592743533766,2.0276085483899466,2.272841065309076,-0.03778901582748835,-0.6210718206130412,-0.6120872356783573,3,right
11.509,-0.20130116827981615,0.9472494789509841,-0.1278543231813228,-3.039106166678295,2.025280635283687,2.2658600619768294,-0.03776550552927737,-0.6211066993393444,-0.6121329706978584,3,right
11.51,-0.19991192751696013,0.9439160584798385,-0.1390011989457072,-3.051670784386391,2.0333831177751858,2.2937483143836768,-0.03575013978767021,-0.6232862449413825,-0.6136383809891202,3,right
11.515,-0.19823885142779707,0.9412723185470113,-0.14687329526471,-3.0282117487965197,2.018459706607044,2.242161525125949,-0.040700587578566705,-0.6179265151452815,-0.6099219668173318,3,right
11.515,-0.18634107952103052,0.9386436784067693,-0.16287736506011952,-3.0581351951124045,2.037756928411182,2.3085724639856746,-0.032491515600484494,-0.6268127585225222,-0.6160809883266336,3,right
11.519,-0.17111729960738087,0.9386529674302848,-0.17654493076294808,-3.033242243937279,2.021584319487717,2.253051165648766,-0.04332100028393818,-0.6150929042513387,-0.6079640572261352,3,right
11.519,-0.16648983158608566,0.9386618350103393,-0.18022165798350556,-3.0341777424907557,2.0218554409904756,2.2543382979357895,-0.08877846749788962,-0.5659066898052867,-0.5739334374353364,3,right
11.52,-0.14988476258681022,0.9397509397421993,-0.19498929395330616,-3.080540115248562,2.0534098883793748,2.3611276415768643,-0.09960954084445672,-0.554188258223882,-0.5658250475271325,3,right
11.525,-0.12776504945417605,0.9434879721814147,-0.20763463616825423,-2.966379562816524,1.9759752014496212,2.0988148767943997,-0.0913992899628865,-0.5630724332882694,-0.5719726294870351,3,right
11.526,-0.10348187049044386,0.9501441745388156,-0.2101287881612561,-3.1556566941224347,2.1043824937751827,2.533758053688678,-0.09634717159031674,-0.5577139919886679,-0.5682604879206836,3,right
11.536,-0.08148821906376025,0.9563068563423749,-0.21542216140165,-2.9060479591368322,1.934968152573351,1.9600175035957244,-0.09434145006874757,-0.5598947801912234,-0.5697804974410139,3,right
11.537,-0.07682010951470075,0.9576548016512092,-0.2167617419486444,-1.8590388407788851,1.223451278654591,-0.44879660303855595,-0.09429982290357145,-0.5599244043646874,-0.5697840949743328,3,right
11.537,-0.06177059462870246,0.9613090651090667,-0.22013044070034682,-1.6094776414070868,1.0539669642601261,-1.0226124167490673,-0.09536945139463403,-0.5587825446531927,-0.5690113896440232,3,right
11.537,-0.03875577842872523,0.9665077945162815,-0.2275612608183652,-1.7986804571266668,1.1824836433062278,-0.5875515857007676,-0.09409818534517592,-0.5601513619689997,-0.5699508801916663,3,right
11.538,-0.025121043672411122,0.9690933780402496,-0.22901127155453144,-1.6845814037940388,1.1049584535895736,-0.8499616855629024,-0.09507266779027983,-0.5590835242255766,-0.5691967175070686,3,right
11.538,-0.009879314517015573,0.9716408123508673,-0.22475266725637372,-1.730947264179852,1.136507715836278,-0.7431779403326368,-0.09457722388440357,-0.5596629083749883,-0.5696471486267122,3,right
11.538,0.004574917556987486,0.968797754307363,-0.21730464264210414,-1.7317636162338115,1.136954299016184,-0.7417020488250876,-0.09463652633214341,-0.5595240743811577,-0.5694654869170983,3,right
11.542,0.017608341477999088,0.9621423508460519,-0.2111025099978877,-1.7071308821168683,1.120398564696746,-0.7976354731265836,-0.09485368893961602,-0.5593807692382858,-0.569471549897664,3,right
11.543,0.02881377406745543,0.9586875877660983,-0.2049864273466087,-1.736683550045925,1.140241625341028,-0.7306374070049882,-0.09454903390923472,-0.5596373222737456,-0.5695650851466009,3,right
11.548,0.033261859557976114,0.9575899969174363,-0.19934928317010447,-1.7135918521314415,1.1247775305239136,-0.7828057411372213,-0.09477724235124403,-0.5593897190859998,-0.5693930813488709,3,right
11.548,0.032647272151676725,0.9592209317842555,-0.19795450433430056,-1.7259970467396584,1.1331144993004338,-0.7546653512289618,-0.09473675388702701,-0.559569250880825,-0.5696730956481312,3,right
11.552999999999999,0.029097278622663356,0.9628967545588819,-0.19577055263140375,-1.723535525800985,1.1312409258684144,-0.7611575188235511,-0.09454593887005755,-0.5594655794431089,-0.5692451582789613,3,right
11.552999999999999,0.02474526087217563,0.9668425097449801,-0.19028497074646367,-1.7192218849259389,1.1289408797830993,-0.768449225419805,-0.0949304082563728,-0.5595122233213938,-0.5698089682084082,3,right
11.558,0.021004580541318617,0.97116069227478,-0.18527259875218588,-1.726673487436385,1.132923316078976,-0.7558243260544841,-0.09448400702270399,-0.5595020842840401,-0.5692351780177741,3,right
11.559000000000001,0.018654973608794437,0.9747144021800951,-0.1801621562485237,-1.7191555972438664,1.1291384351865021,-0.7675837400905305,-0.09476648150695005,-0.559481307136322,-0.569548499178747,3,right
11.562000000000001,0.017891516935330247,0.9781933771247945,-0.1732203263477672,-1.724479241290012,1.1317020135623126,-0.7597460763443649,-0.094933674962021,-0.5595462197588046,-0.5698752491172332,3,right
11.562999999999999,0.01752382655906355,0.9804628498152991,-0.16624311539461603,-1.72295062528356,1.1306527774435917,-0.7633045576493194,-0.09406112884862516,-0.559415046342587,-0.5685496656972252,3,right
11.569,0.01594934999492343,0.9812794954745382,-0.15781047173433413,-1.7196316445371798,1.1303551424854872,-0.7627539104821848,-0.09571262014837556,-0.5596220082255303,-0.5709834291046514,3,right
11.57,0.015222457432590769,0.9833893140708848,-0.14974654346666966,-1.7280649821851997,1.1316136751676904,-0.7620559166128746,-0.0935799011153681,-0.559369592013121,-0.5678670238144512,3,right
11.572000000000001,0.015229656205806298,0.9854561355540324,-0.14494075833510833,-1.7156821562245947,1.1298700560720711,-0.7626432760907835,-0.09536569346576898,-0.5595742852217842,-0.5704653781136544,3,right
11.573,0.015645883565193388,0.988131617218166,-0.14251389396689992,-1.7286201203100262,1.1315508657328648,-0.7626197628526423,-0.0953090242673897,-0.5595784702658559,-0.5703999578266423,3,right
11.577,0.017855939637723903,0.990908228407166,-0.14455190859342082,-1.721142045378566,1.1305777697848267,-0.7626397292093461,-0.09192588352485857,-0.559162675411699,-0.5654320871170442,3,right
11.578,0.019517538143623264,0.9920777806933057,-0.14614122568478335,-1.715276132339325,1.1301337656247739,-0.7613205741115923,-0.10025363175964436,-0.5601697565827468,-0.5776359952700179,3,right
11.583,0.025127898545288394,0.9928249977535553,-0.14541858070989652,-1.7416988340079287,1.1325880433118432,-0.7653641162050019,-0.08644066806581199,-0.5585067630487794,-0.5574029818176891,3,right
11.583,0.03243367114723107,0.9917070366652725,-0.14742516529623312,-1.6926608821461133,1.1280112037775323,-0.7579509919070573,-0.10466249103900171,-0.5606960939176031,-0.5840908326201537,3,right
11.587,0.03510381610027753,0.9919730434053896,-0.1480195685417519,-1.7555792460753397,1.133855222155578,-0.7675812243216986,-0.18113672351842194,-0.5699057079047747,-0.6961079051199011,3,right
11.588,0.038985454471008166,0.9945917194421147,-0.14572263106997685,-1.7030746425098546,1.128991469205748,-0.7594899303238956,-0.1993615697583723,-0.5720883396196216,-0.7228001555205807,3,right
11.589,0.04453716391805733,0.9946674072735225,-0.1451795424051164,-1.7045548250185631,1.129164163559063,-0.7595708841321713,-0.18554310469748328,-0.5704366568399427,-0.7025608447742346,3,right
11.593,0.04945263827747005,0.992743096480931,-0.14694562673392075,-1.80441516512333,1.1382623341337927,-0.7755925832844668,-0.1938775089698025,-0.5714321044710464,-0.714768387368079,3,right
11.593,0.05393357248642511,0.9888127087979711,-0.14813015786944683,-1.5589276903830047,1.1158697132066733,-0.7363152629439502,-0.19048893158710203,-0.5710219338885687,-0.7098050812516132,3,right
11.597999999999999,0.05851856860631313,0.984918167292417,-0.14856826583857274,-1.9659517883349462,1.1529938218593028,-0.8014510592960835,-0.19043307936721302,-0.5710338369727874,-0.7097223405133964,3,right
11.599,0.061657934817973416,0.9847003812475957,-0.15016898174805265,-1.429101634502068,1.104038372832563,-0.7155039240980414,-0.19222641166677185,-0.5712115960705879,-0.7123515330213096,3,right
11.599,0.06241042698523344,0.9853194379141365,-0.15066809432091655,0.8243008320193168,0.8986567068860123,-0.3545049719869723,-0.1900753028061717,-0.571005822048796,-0.7091969189142898,3,right
11.603,0.06654446877556541,0.9837145630602179,-0.149399862509776,1.3611586894614784,0.8497192900632332,-0.26852982947785775,-0.19175493638806024,-0.571155849457871,-0.7116610978178197,3,right
11.603,0.06865726479135659,0.9808191631169952,-0.14784306473407616,0.9541033956610392,0.8868139605231109,-0.33369338180694247,-0.19085161785466676,-0.5710694441090955,-0.7103362265929043,3,right
11.607000000000001,0.06430214342952417,0.9804441121068229,-0.14680335043261633,1.1996686751195886,0.8644490865302288,-0.29443660498769963,-0.19103783372629557,-0.5711360608986289,-0.7106054675172162,3,right
11.607999999999999,0.05931291154464821,0.980936094504462,-0.14933986419434597,1.0996690440417174,0.8735394722871291,-0.31033919511245045,-0.1913330034716779,-0.5710295205388262,-0.7110492171521958,3,right
11.613,0.04932248347087735,0.9794178391819311,-0.14925679296036315,1.0983770421801395,0.8736804817840318,-0.31066400896572194,-0.19082273818038986,-0.5712125784581856,-0.710282092434676,3,right
11.613,0.034533826396708475,0.9786781601339312,-0.13710162998152914,1.1507011126585955,0.868900936724103,-0.3022330043867709,-0.19133024570563237,-0.570973842467728,-0.7110497087177976,3,right
11.617,0.01966390314563661,0.9755285301611649,-0.12094993330160196,1.0878510145958393,0.8746126624797971,-0.31218912151599476,-0.1909745109196982,-0.5711699665294514,-0.7105092908684849,3,right
11.618,0.0004799407554625266,0.9701991366763618,-0.11043571309494851,1.1370665542710496,0.870182857314687,-0.30465837642140736,-0.1910865310807342,-0.5711855732109337,-0.710673211545688,3,right
11.622,-0.01999667528236849,0.9677763933696102,-0.10631620444011441,1.110108196642345,0.8725434585309553,-0.3083691487355501,-0.19126735511186382,-0.5707640839052055,-0.7109739991867834,3,right
11.623,-0.03797903258064421,0.9665530552065906,-0.10988669627256609,1.1168788096179254,0.8720446318590409,-0.30803073786361185,-0.1907920336548226,-0.5717197997826832,-0.7101956328651811,3,right
11.627,-0.05696031149323802,0.9686645058501873,-0.11778973542834031,1.1232641922287794,0.8713684134847774,-0.30641281467034287,-0.1914867069720656,-0.570292336399802,-0.7113357250248178,3,right
11.628,-0.07350931217611631,0.9737328839238202,-0.12741258725213633,1.1111718463488243,0.8724699446725139,-0.3083438135405171,-0.19076529473056947,-0.5718163247466902,-0.71014834345291,3,right
11.630999999999998,-0.08587906494127273,0.976309222833539,-0.13693094151272495,1.1236212993851986,0.8715092104001154,-0.3074567631921244,-0.19118236401789945,-0.570935802822317,-0.710834802977855,3,right
11.632,-0.09628665127431589,0.9769239747794279,-0.13868960956017085,1.113481742348694,0.8720356891596747,-0.3065511426532819,-0.19149933614118786,-0.5701716395109105,-0.7113640941761719,3,right
11.636,-0.10141847674090085,0.9763780975846449,-0.13298807126505893,1.1205955936182916,0.8719805436422026,-0.30918577772330513,-0.19005694710241083,-0.5735093041528955,-0.7089665868387491,3,right
11.637,-0.10275080353738109,0.9752601362580943,-0.12467445225139621,1.116541577124312,0.8717177011128776,-0.3058116763119743,-0.1927346958541475,-0.5673199320068578,-0.713417037433139,3,right
11.640999999999998,-0.10356719010060834,0.9733879825675706,-0.11720766553466587,1.1170820019998688,0.872033743931864,-0.3080499304754831,-0.18929976459851508,-0.57526778611634,-0.7077073537710203,3,right
11.642000000000001,-0.10397945137338982,0.9702614558210277,-0.11564391905994312,1.1213428017882543,0.8719604407761352,-0.3093715846012653,-0.19216594783983765,-0.5686323559302614,-0.7124720882981755,3,right
11.647,-0.10313169794582552,0.9695890600969225,-0.11732832265047573,1.110706221366463,0.8715514918455161,-0.3023042376088281,-0.1920835943651732,-0.5688113646720871,-0.7123357713582079,3,right
11.647,-0.10031339119887231,0.9715751445750332,-0.12160552578610648,1.1280962401155405,0.8725225767449324,-0.31578494778019994,-0.18663813966315834,-0.5814662041435461,-0.7032801963070274,3,right
11.652000000000001,-0.09832665920775142,0.9736353784089165,-0.13040311674771818,1.1068034061693477,0.8711813648252777,-0.2983088161871037,-0.2000264353504449,-0.5503626734690671,-0.7255443444488494,3,right
11.652999999999999,-0.09404443087830552,0.9768762724087927,-0.13713898946807956,1.1241357999201238,0.8723412376105772,-0.31297010170916006,-0.1778278141340887,-0.6019337009888859,-0.6886284513122022,3,right
11.655999999999999,-0.08896987012184746,0.9805019732983687,-0.1390403244444144,1.1240523376215696,0.8722753713778486,-0.3125109949669015,-0.2071072344251489,-0.5339117336610643,-0.7373203522782177,3,right
11.655999999999999,-0.08669520976954137,0.9808189310701594,-0.13970265035833315,1.0902872016478407,0.8701273521129577,-0.284670676652905,-0.32999271713847367,-0.248388290781349,-0.9416790845630785,3,right
11.657,-0.0781657894317028,0.978770799552136,-0.13957700854938568,1.1725858003335814,0.8754686058057292,-0.35321065972602206,-0.3592723118374307,-0.1803662354461164,-0.9903730134532522,3,right
11.661,-0.06738749351528951,0.9785097222528157,-0.13519291533473643,1.0364630837050797,0.866583348402633,-0.23951422600590355,-0.3370734180341682,-0.2319374004995607,-0.9534539503272305,3,right
11.662,-0.06460442880675155,0.9789702057860125,-0.13050672000197883,1.2158439294536918,0.8783168729187902,-0.3895064037864393,-0.3504619390901319,-0.20083375615769944,-0.975720720677203,3,right
11.665999999999999,-0.06323432577612992,0.9797617106628819,-0.1281814733960806,1.9687782430989367,0.9275816488973166,-1.0190895423727575,-0.3450164977432465,-0.2134885887763172,-0.966665297328233,3,right
11.667,-0.06060130795457353,0.9825994010416051,-0.12194196318479829,2.1480649158552927,0.9393220132527085,-1.1690984194628307,-0.34493370629137415,-0.2136678186931255,-0.966523893135004,3,right
11.668,-0.06326821910345831,0.9851753608034491,-0.11746686712523371,2.0121464248920247,0.9304200283780906,-1.0553675202849424,-0.34780084515776283,-0.2070319061112241,-0.9712997334653383,3,right
11.67,-0.06889975231346473,0.9891570095500526,-0.11926455480429435,2.094121295457664,0.9357915048091648,-1.123958713579477,-0.34436455300539814,-0.21498044704226504,-0.9655742292936976,3,right
11.671,-0.07465430314326385,0.9943666325770693,-0.11801561349416871,2.0607654735993934,0.9335999230991228,-1.0960585852291571,-0.3470436490447878,-0.20879039514303166,-0.9700403484744919,3,right
11.675,-0.08338092891218506,0.9967107721955373,-0.11241624259741978,2.0603005470288425,0.9335822862130737,-1.0956481738190944,-0.34560067712202547,-0.21212835349497383,-0.9676360505960575,3,right
11.675999999999998,-0.09201843075022022,0.9960188181043094,-0.10851450295668477,2.0777802088609176,0.9347094352005676,-1.1103036818584062,-0.3459165138615779,-0.211364763887393,-0.9681521646182207,3,right
11.681,-0.09900488077364814,0.9921723698402134,-0.10342720651708318,2.056839932159834,0.9333553105325638,-1.0927533133178953,-0.3463372496895884,-0.21048239077200953,-0.9688812246049764,3,right
11.681,-0.10518674687212073,0.9886598958785306,-0.09263370856829285,2.073150870950825,0.9344164522846481,-1.1064145863259194,-0.34560952195293454,-0.21200956689288347,-0.9676204385885152,3,right
11.686,-0.10949202624650994,0.9853476381280765,-0.07849916364786692,2.0643473861498336,0.9338239258975414,-1.0990687513931137,-0.34631194197243537,-0.21057819421347795,-0.9688505982539635,3,right
11.687000000000001,-0.11504497245017531,0.9801652887169424,-0.06460794900804806,2.066377982317711,0.9340070548487258,-1.1006986765830806,-0.34583044863872003,-0.21153702336173455,-0.9680004319313481,3,right
11.69,-0.12243499378550843,0.977594554564543,-0.05748801849120272,2.0686745856143487,0.9340714282863469,-1.1027401056839101,-0.3460112112774919,-0.2111155679943707,-0.968300602846905,3,right
11.690999999999999,-0.1333381888111946,0.97522329429841,-0.05597146223352774,2.0646820377952837,0.9339154080071118,-1.0992523590642325,-0.3461346964563349,-0.2111253846524177,-0.9685976771389198,3,right
11.694,-0.15113722366893884,0.9728163191475838,-0.05228886328108594,2.068433439573541,0.9340770941249384,-1.102508526600523,-0.34575277391516174,-0.2113347284411159,-0.9677529408543386,3,right
11.695,-0.16787437759607346,0.9754295148759129,-0.04730322908326032,2.0658954061656463,0.9339099523952654,-1.100385614832052,-0.34629933757265685,-0.2110762813982786,-0.9689745553305541,3,right
