time,gFx,gFy,gFz,ax,ay,az,wx,wy,wz,subject_number,foot
6.872000000000001,-0.8359515964022975,1.4507581897358444,0.6073514449504811,4.504167981899599,-6.686899027422291,2.128833829552374,1.231177455012503,0.6326239699858924,-5.1317835816582935,1,left
6.875,-0.9066951545030034,1.4537393253807422,0.70385167445343,4.474377015404231,-6.862892668755331,2.1029270013109045,1.353460180767104,0.5910778113278674,-5.189435854542937,1,left
6.876,-0.9226138721990687,1.4453453423531313,0.7575273231844697,4.5476953386530505,-6.430680029529222,2.1658994057454306,1.2797618979175167,0.6162171265119823,-5.154888883701378,1,left
6.88,-0.890754318775067,1.4151768044916024,0.80481029766394,4.426074520398583,-7.147121773612556,2.0618240104737247,1.309654062914384,0.605836937017362,-5.168548434264073,1,left
6.881,-0.8429253130534604,1.3861616986470353,0.8255013430125326,4.586532860987498,-6.202251353691171,2.198935443189039,1.3102402121568595,0.6059606872426919,-5.169438440809694,1,left
6.885,-0.8239931836341841,1.3765921620796027,0.8255930500017425,5.259751252247095,-2.23571834100021,2.7743846350682984,1.294346369102506,0.6110391723787882,-5.161339871846627,1,left
6.886,-0.74838914908694,1.3399850865954486,0.8127179167567037,5.420262651519224,-1.2909554145242812,2.911408016564391,1.3132637877850981,0.6047512910665954,-5.170520610162001,1,left
6.8870000000000005,-0.6262028030073647,1.2948330684898037,0.7619885052895128,5.2985754028201475,-2.007235635062747,2.8075329265475295,1.2987152342737844,0.6099670784235005,-5.16416753371567,1,left
6.888999999999999,-0.5253522405097732,1.2747390496525601,0.673237510440265,5.371903857552031,-1.5751389431273495,2.870169509865015,1.306207238289447,0.6065401368901426,-5.16606420072581,1,left
6.888999999999999,-0.43153730251537464,1.27032884050645,0.5488815170582111,5.342237413414502,-1.7511881372473979,2.84471370366807,1.305128095480078,0.6084260095453358,-5.168372510657369,1,left
6.894,-0.365717889055842,1.2923314473498095,0.40368727975820246,5.341449953553203,-1.7531445215013628,2.844290708297531,1.3021350965883065,0.6075784744081976,-5.1635057349522615,1,left
6.895,-0.3323190149975718,1.3365836029941875,0.25124782193286166,5.357610656303226,-1.6617092121239077,2.8577427545502454,1.306479624927789,0.6075887756355636,-5.168308324939227,1,left
6.9,-0.31734067078826134,1.388527089485604,0.09686946934914244,5.338362246662564,-1.7713942806339262,2.8416477651347543,1.3030792399162274,0.6087570757447137,-5.166729082833372,1,left
6.9,-0.3127681324534809,1.4394683375430117,-0.039981281761482954,5.353177135153379,-1.6857134992452558,2.854151585176412,1.3040404695332262,0.6056730991325829,-5.162074472057888,1,left
6.904,-0.30651589636960397,1.4811021936425675,-0.15290504778014213,5.345730422830938,-1.7327152501694212,2.847504971273578,1.3060630786678487,0.6112876171271808,-5.174700936903568,1,left
6.906000000000001,-0.2998717160614916,1.5083582086656282,-0.2376174738040006,5.346159660058566,-1.7200965031929338,2.8487986029078347,1.301559843393199,0.6034165332678287,-5.155164367187212,1,left
6.91,-0.2893847304318995,1.5140019832964868,-0.27670500638235024,5.350603898934921,-1.7112862622761094,2.8509975141027493,1.3069040778447043,0.611622475031515,-5.176246522400554,1,left
6.9110000000000005,-0.26903678927974684,1.497316461844378,-0.2695054077676556,5.344100771003747,-1.728289637371558,2.8474020896276073,1.3034515651449117,0.6070051790194277,-5.163894167392925,1,left
6.915,-0.23388781001446773,1.4567183837061533,-0.2261068228836254,5.3497932466591855,-1.7117367954691538,2.850702718994114,1.3016091222622654,0.6026390707254441,-5.153778330793285,1,left
6.916,-0.18769211303366573,1.3941623449615705,-0.16070338589080946,5.347542737085323,-1.7251442312696461,2.8487671581402108,1.3117640455215713,0.6210351197081199,-5.199031004542336,1,left
6.919,-0.13626046411020104,1.322343035207695,-0.09079107177389137,5.344261114055559,-1.7129766981938173,2.848859228306014,1.2924374833235164,0.5870880187774126,-5.114878767771952,1,left
6.92,-0.08006649257185199,1.2519984894748224,-0.02011857967403513,5.354026552430545,-1.7274333306492968,2.8505839805109416,1.3174318690155327,0.630616566211146,-5.223016064741107,1,left
6.9239999999999995,-0.028955212890015576,1.1895522914264123,0.05275493779641626,5.338915784046531,-1.7090639026938188,2.8475474805129246,1.2964899515909072,0.5943033307162493,-5.132705382664916,1,left
6.925,0.018625037374120804,1.130581354725966,0.12516677194662534,5.355124978743974,-1.7280508344905232,2.8508707827028954,1.2971730463540436,0.5952445039180323,-5.135197183098401,1,left
6.928,0.06101364318950396,1.0786495765278694,0.19165257657963314,5.3455999949178805,-1.718020055467643,2.848814216096921,1.3367958516907519,0.6645968415188324,-5.307273376764605,1,left
6.928999999999999,0.09601946985905922,1.0420124544185851,0.2484164449293907,5.338179116606481,-1.7047170108347536,2.8477167983894134,1.239239522601935,0.4941989261762132,-4.884266842856523,1,left
6.933,0.14268785551548474,1.008510522945043,0.29945767505107124,5.371948807645854,-1.7553164676690072,2.853625206017006,1.4010561303805746,0.7767014059110445,-5.585649618810965,1,left
6.934,0.1747262154990386,0.9881055500612227,0.32760182163550056,5.309089828264527,-1.6628539824345245,2.842468383936187,1.1875973816915186,0.4040934138734198,-4.660529683452541,1,left
6.938,0.1855907401068006,0.9822896526355777,0.3316286021256285,5.38985542765809,-1.781273031776541,2.8568391953929364,0.2917032648603701,-1.1599952239494695,-0.7772649686340884,1,left
6.94,0.2240715584731166,0.9633142990031068,0.35631031430877136,5.322408165767191,-1.6825336656084724,2.8448233668411222,0.07823943089718777,-1.5325963798962965,0.14783920530937844,1,left
6.94,0.29617962318655255,0.9353727004465959,0.3769851125520073,5.324312679187763,-1.6847319898714161,2.8452186811153464,0.24007495773223367,-1.2501058515706145,-0.553532844223942,1,left
6.944,0.3846326219514832,0.9047903487881745,0.36728826504632583,5.45265977539105,-1.8745685527466365,2.8679009964331676,0.14247319739836428,-1.420490445259833,-0.1304974163242617,1,left
6.944,0.4895975130395552,0.8664118654456745,0.34366247504169845,5.137107419461335,-1.4085276362869887,2.812067596598567,0.18217572724375297,-1.3511468369402402,-0.30267637259160074,1,left
6.949,0.6192300229033781,0.8208979868100631,0.2619967775036691,5.660328525434908,-2.181107532654415,2.904663879006524,0.18275273778516227,-1.3502091033576873,-0.30497792863354817,1,left
6.95,0.7029994326544728,0.7882567372035415,0.1861696748707335,4.970204400520141,-1.162081472040558,2.782527332275487,0.1619105211629869,-1.3864996161581251,-0.2149153097210854,1,left
6.952999999999999,0.7242221101421407,0.7827012262457209,0.16539317560605216,2.073490725904228,3.1158580527683966,2.2699704685233115,0.18687108109634715,-1.3430159183413362,-0.32283645095776237,1,left
6.954,0.7809530414800117,0.7693677288731322,0.08798070335065651,1.383382258434544,4.134959345060114,2.1478409873829634,0.1674375660109665,-1.3769024011104967,-0.23872016928657214,1,left
6.954,0.822912200711112,0.7428524863374912,-0.017764013739140563,1.906586417985424,3.3622980590802998,2.240429621786179,0.17790161122137044,-1.3585629266968926,-0.28429051906145864,1,left
6.957999999999999,0.7910936568013525,0.7304051249904627,-0.08535208274541765,1.5910276406946002,3.82830799643924,2.1845933268961995,0.17554523756304802,-1.3629103792546973,-0.27337855507498526,1,left
6.957999999999999,0.7085785307920548,0.741407369106403,-0.14369121601338125,1.719430885056477,3.6387414756257805,2.20730097420624,0.17270469951774903,-1.3674669481017645,-0.262268976955199,1,left
6.962999999999999,0.5402803420013168,0.7941400991820761,-0.17810975505457166,1.7212145589701704,3.635962152025459,2.207641766464069,0.17758841600995912,-1.3594341699316004,-0.2819629231480709,1,left
6.9639999999999995,0.28361520370793736,0.9015031747323523,-0.16795653642403113,1.6539405801536717,3.7355345291324333,2.1957041250623233,0.17301823784215983,-1.3670198233245245,-0.2633284186104937,1,left
6.9670000000000005,-0.053030091203544766,1.0653827352561283,-0.11058949908743868,1.7345335961148467,3.616286004991416,2.2099970613915,0.1760397021083478,-1.3617420811994028,-0.27643418368716816,1,left
6.9670000000000005,-0.4586909915099907,1.284075574881845,-0.029956978222733615,1.67174913835088,3.709106337066332,2.198873872641699,0.17483199188126317,-1.3645771979803554,-0.26902430389184595,1,left
6.972,-0.8798197795535643,1.5437724424087291,0.03969005154307037,1.7056669019369124,3.6592192894068463,2.2048490795994704,0.17457629396098467,-1.3633624196874077,-0.2728873444258826,1,left
6.974,-1.2634010706041883,1.8209943201007612,0.07951323162716269,1.6977688230618497,3.6702276913951986,2.2035363574553255,0.17567995745432247,-1.3639139096319888,-0.27025487169697415,1,left
6.977,-1.5453328444312455,2.0839344816680914,0.07295515128309833,1.689066199376194,3.684212107621545,2.201850840431225,0.17436895374905198,-1.3635606683220847,-0.2724781176884278,1,left
6.978,-1.6982309892291103,2.302005905838893,0.029361038051138037,1.7042660207617402,3.660373208160121,2.2047186964536682,0.17533889675672396,-1.3633942274657613,-0.27211429518813646,1,left
6.983,-1.740782007219837,2.447128397579022,-0.049945247354080125,1.6899601695285478,3.682610654331187,2.2020454123713655,0.17512264428324564,-1.3650866953188932,-0.26723984374475607,1,left
6.984,-1.676777760396035,2.5168520570019695,-0.1698869124747487,1.6997323296764837,3.668188964085518,2.2037731434350945,0.17434648295757482,-1.3606844236690985,-0.2811072309207626,1,left
6.989,-1.504447391969665,2.5278531274332714,-0.2868549167786999,1.6949580288513872,3.6731773938039822,2.2031917719363703,0.17609681453399811,-1.3683065917075434,-0.25673755479115473,1,left
6.989,-1.2324539644165025,2.4730998825700103,-0.3467307730754796,1.6961196022938807,3.6761757422479673,2.202795718553891,0.17377948773507548,-1.3586403599308503,-0.2877269409947674,1,left
6.992000000000001,-0.8989648547426716,2.3590609565322014,-0.3344095616539829,1.6967211505989404,3.668254500712983,2.2037992741240653,0.17574245634751717,-1.366661979122298,-0.2619780729107293,1,left
6.994,-0.5478136380758141,2.1921566027124877,-0.2636984065198847,1.6956458699740629,3.6773402539107716,2.2026530540519342,0.17558073414904124,-1.3666315879939002,-0.26220500592178514,1,left
6.997000000000001,-0.22953588142232337,1.9968479608800114,-0.17767250581248778,1.6969525814811486,3.671077781646349,2.203436021093818,0.17219377755091386,-1.3507210834213375,-0.3128444331102573,1,left
6.997999999999999,0.011004311303168972,1.8167550335569103,-0.11738238466798566,1.694681272822167,3.670698312066424,2.2035115673233063,0.18064668841331383,-1.389609505880769,-0.18893309366932096,1,left
7.001,0.1880774638420502,1.643766830614401,-0.08616181778729912,1.6990620581034788,3.680572087189815,2.2022010875818925,0.16659799988858165,-1.3251836230684768,-0.3942403608771987,1,left
7.001,0.27595628454181387,1.5443316496878254,-0.0782546485952308,1.6919390829776444,3.660781228627659,2.204806896397821,0.18513140223733737,-1.41016217101516,-0.12345351280818334,1,left
7.006,0.2921135569869687,1.5220767310891288,-0.07336946849082804,1.7008637165661922,3.686522167713795,2.201423380542927,0.2627721074657562,-1.7671255767498437,1.013836554961952,1,left
7.007000000000001,0.3295294885843292,1.4562475995830333,-0.05028030391200587,1.693498406868796,3.6649043953893132,2.2042606788540438,0.2812947062222583,-1.852146249540889,1.2846768600248366,1,left
7.007999999999999,0.3626757700505595,1.3820521314400778,0.0038158962324946095,1.6933615069849446,3.6659903391989532,2.204130432106769,0.26725560522017755,-1.787662457171328,1.0793163011338573,1,left
7.0120000000000005,0.3648849477736691,1.343504805266371,0.07716359571543313,1.708520558902726,3.705554266994695,2.1989027615961705,0.27572040438028,-1.8265772300468426,1.2031895438839326,1,left
7.013,0.3742849429507588,1.2942860081384613,0.14815408708545832,1.6716469686273945,3.6077334347410277,2.2118082485022423,0.27227933127273274,-1.8107278469328008,1.1527751577364258,1,left
7.016,0.40463827281501363,1.2190225773852033,0.2460337657022279,1.732697106005407,3.7700602453587733,2.19040265937478,0.2722237967467288,-1.810505778917344,1.1520861944799528,1,left
7.017,0.43286045053506284,1.1632265285402028,0.31689791815989177,1.6521665615878005,3.555956334464174,2.218629563236785,0.2740427211015455,-1.8188503960053306,1.178479766618235,1,left
7.022,0.4436732491770018,1.1447100742018295,0.33624537639306296,1.314046359929037,2.6575242550613045,2.337272266288977,0.2718585798190043,-1.8088023495712164,1.146870567307384,1,left
7.023,0.4814371372037477,1.0788352727186803,0.4072580812609958,1.2334856779695191,2.4434695865654996,2.3655003249634428,0.27357048435628306,-1.81670101740833,1.1714664950599087,1,left
7.024,0.5398099049807965,0.982775470960919,0.48317558178766207,1.2945177017017486,2.6058016036027976,2.3440621228027023,0.2726360793200582,-1.8123690897357987,1.1582262579837859,1,left
7.027,0.58415339191735,0.9103802069064804,0.5009262239369155,1.2578361661614657,2.507753358412394,2.357078225217144,0.27285409858701215,-1.8133919685884579,1.1612437490837468,1,left
7.028,0.6208438062759807,0.840493608049287,0.5018301715445803,1.272516685379403,2.5479210709512303,2.3516256749144944,0.273118610629731,-1.8146306857963483,1.1647145280269007,1,left
7.032,0.6414339217468188,0.7900742824739266,0.48155399780062974,1.2731619776151009,2.547993197501405,2.35182628345372,0.27262787406757893,-1.8122860631287607,1.158776633888899,1,left
7.0329999999999995,0.6406137266561802,0.7560907960095102,0.4410078144150804,1.2648732592636995,2.527600617812208,2.3543116973782574,0.27314548015282925,-1.814823701931934,1.1642237265527355,1,left
7.035,0.6202188252420682,0.73046357561207,0.38627481232137006,1.2744699750292017,2.5524068326432525,2.3511255775612363,0.2727283156205814,-1.812709574397645,1.160723750030436,1,left
7.037000000000001,0.5853060288109049,0.7185142506790116,0.3102469293266748,1.2675164951459825,2.532489477658089,2.353930342107615,0.2729664915261707,-1.8139620183120706,1.1621353369755771,1,left
7.037999999999999,0.5408826287750355,0.709432389350191,0.22207899747532667,1.27026139109212,2.5443867244800167,2.351795657217094,0.2729672420700723,-1.8139658531604785,1.1621241563459739,1,left
7.044,0.48588081217549417,0.7057886268028634,0.13410440030211923,1.2714382544052731,2.539589358698315,2.353399864071795,0.2726757915171989,-1.8123358866591048,1.1617161901009028,1,left
7.044,0.42627898846498097,0.7052684719426474,0.041418352592802986,1.2678377174957212,2.5397467370892626,2.3521883294185053,0.27327786607594856,-1.8157681378193038,1.161717189972119,1,left
7.0489999999999995,0.3657177192848069,0.7109595675422439,-0.05286295222354244,1.2716865798818402,2.5422201020545154,2.3528107290496276,0.2724322592733326,-1.8108890844385659,1.1624832502338005,1,left
7.05,0.3060098262975856,0.7251887030289073,-0.12333987151040644,1.2700033497677061,2.537678429133667,2.3534189768858864,0.2733029646429397,-1.81594898500793,1.1612178193482925,1,left
7.053999999999999,0.2477816538757718,0.7450688531601886,-0.18666294015083612,1.2673663448803998,2.545063385366744,2.3506830997035912,0.2728097316736209,-1.8130710830147867,1.162092493809559,1,left
7.053999999999999,0.19546108249214095,0.7782975847155673,-0.255415965857395,1.275500829938085,2.5337845834939294,2.3561957853304127,0.2723884592800971,-1.810606890082628,1.1629059887870232,1,left
7.058,0.15678519013260292,0.8221713792506666,-0.3124569771181508,1.2626222402289737,2.5486403657106935,2.3482324128822203,0.27422000033763966,-1.8213327065257592,1.1591726986767696,1,left
7.058,0.1361996582426112,0.8721091906843007,-0.3642954129154838,1.2766243274794418,2.5335231271097873,2.3566260245915576,0.27083478944233863,-1.8014952619102438,1.1662613574302707,1,left
7.063,0.14061560417051489,0.9231896690655765,-0.40239892819264994,1.268349075188889,2.5417775889952177,2.351840471733376,0.2751736541915375,-1.826929746257333,1.1570446099282492,1,left
7.064,0.16486782692810176,0.96532345816073,-0.4242489993439692,1.2617901917644023,2.550386585480968,2.347515374794674,0.2715549150471475,-1.8057142833397244,1.1647898265377399,1,left
7.068,0.2096780580046092,0.9938234695540725,-0.4468915998119143,1.2915573858148628,2.515461675161555,2.366075049382193,0.2716529798950263,-1.8062840419772186,1.164585244794312,1,left
7.068,0.2761074031511812,1.009237573832222,-0.4614783898779019,1.2360994634587077,2.5795843812237087,2.331743596328433,0.2785468363713334,-1.8467204936995634,1.1497157845524797,1,left
7.0729999999999995,0.3417895321920009,1.0098731918882882,-0.4631509533931988,1.3074067260536586,2.4974741375192333,2.375794614816215,0.26160518373308955,-1.7473547695696339,1.1862945118163177,1,left
7.074,0.403558036605133,0.9939400901091519,-0.4585361185432829,1.247827014405234,2.565938560204775,2.339033305685116,0.2896926061169281,-1.9120879452431243,1.1256120954557907,1,left
7.077000000000001,0.43797069006124656,0.980349595563376,-0.4542619363467214,1.2495237289608467,2.5642055898828744,2.3400045681241424,0.2526475670501257,-1.694823298613007,1.2056781070024116,1,left
7.077000000000001,0.44216196467809155,0.974744909094143,-0.4541032437320011,1.3629134518303525,2.433329275527291,2.410163212033382,0.0971517623364933,-0.7827695718625192,1.5418144024785352,1,left
7.077999999999999,0.4517146280636479,0.9555615879134282,-0.45079660916418124,1.084078604435437,2.7548530606873727,2.2377581635902746,0.06010911342943402,-0.565528910244051,1.6219079242421626,1,left
7.082000000000001,0.42549727709161644,0.9253636561879125,-0.4483429477682549,1.5464713832129837,2.2217840257976644,2.523597263279478,0.088192897893204,-0.7302313106681124,1.5611803681339445,1,left
7.082999999999999,0.3864607003422895,0.9079746145504497,-0.4501914448498563,0.9365255979357422,2.9249212028699625,2.146586224373432,0.07125398765103277,-0.6308728072210149,1.5978022353791506,1,left
7.087999999999999,0.37535229866071435,0.9018028668093921,-0.4521240695529286,-1.6232040690869074,5.875851688545618,0.5640111254929027,0.07814874078589046,-0.6713601049362955,1.5829192313771399,1,left
7.0889999999999995,0.3205695850027126,0.884107528532106,-0.4611249941360809,-2.233220519413054,6.579071960726008,0.18700912629529226,0.07823974465811057,-0.6717969236074768,1.5826687829483617,1,left
7.09,0.23505994068521668,0.86410772914276,-0.47929184527720614,-1.770744573824254,6.045930816551733,0.4728360982328318,0.07463523821224259,-0.650790915618787,1.5905398179988,1,left
7.093,0.16404861791197822,0.857027584719903,-0.4972778714985275,-2.04957411656419,6.367357381135504,0.3004356444850746,0.07895479762557303,-0.6759932843393197,1.5811227615657553,1,left
7.093999999999999,0.10093406645116128,0.85300759772258,-0.50562359906735,-1.9363889903524196,6.236909222139392,0.37060958969243313,0.07558744832215045,-0.6562997138642903,1.5884371704635387,1,left
7.098,0.05813157524632583,0.8556632686998493,-0.504440714472747,-1.934219317909911,6.234341827732612,0.37153647820638647,0.0774136023241532,-0.6671241014115616,1.5845548387218207,1,left
7.099,0.033935922810132656,0.8699310801799323,-0.49727396633888415,-1.994503369059905,6.303933147280878,0.3348479602682316,0.07697189950908506,-0.6641690758617649,1.5852961716083072,1,left
7.101,0.030631308981221878,0.8901451311844996,-0.48442873651796864,-1.9224619878114855,6.220787558771305,0.3788150422668607,0.0765353138212594,-0.6622352630556453,1.5866086337895733,1,left
7.102,0.048751090198783806,0.9158430612356987,-0.47250981137638887,-1.9782974721198756,6.2851957956147775,0.34454107150274016,0.07731373433264585,-0.6660321125249823,1.5844731895884383,1,left
7.106,0.07567205617351072,0.9456951177337715,-0.46187458668444487,-1.9490205691438163,6.251531393835119,0.3631238232044597,0.07657569233758607,-0.6623159352286108,1.5864296965238918,1,left
7.107,0.11466036869883561,0.9797371097201153,-0.4516738928000765,-1.9537590564577283,6.256718974183154,0.35864008973446365,0.07710050854346873,-0.6653997806469605,1.5852980410246982,1,left
7.111000000000001,0.16055560483733777,1.0174577553839026,-0.4470285682094984,-1.9653077666842915,6.2705058862443535,0.35417573253051726,0.07678882320604383,-0.6624345982287689,1.585302800887337,1,left
7.112,0.19895724206109594,1.051841922800924,-0.4396036065715098,-1.9471429934838167,6.248984255559394,0.3621243278803503,0.07697779773800406,-0.6661410887350047,1.5864236759946297,1,left
7.117000000000001,0.2253198343630887,1.0808301667345974,-0.42941409276631326,-1.9635574236066862,6.268370218470631,0.35459168923889045,0.07682119263049772,-0.6613469581415077,1.5844804054138115,1,left
7.117999999999999,0.2391920608719466,1.1030461248565187,-0.4170894962665246,-1.954954490297996,6.258457306425367,0.35993335641252544,0.0769648351612272,-0.6663205999450434,1.5866025286979446,1,left
7.122000000000001,0.24103997793903476,1.1087425609156736,-0.3878232491375174,-1.9521770266146055,6.2543941394431,0.35679934778615274,0.07691863601776991,-0.663663173695314,1.5852965533664645,1,left
7.122999999999999,0.23393562832569234,1.0964672067525818,-0.35410597442586095,-1.967140570923438,6.27361199603874,0.3586344833510383,0.07669641183233394,-0.6603010037937774,1.5845659039527829,1,left
7.126,0.2123335775681866,1.0733547887643082,-0.32377601471222106,-1.9427540495199576,6.242563718666958,0.35717279843943506,0.07737050949862487,-0.6732615415790244,1.5884104968414263,1,left
7.127000000000001,0.17403467341313833,1.0443841672887308,-0.277870237153657,-1.9691350591280834,6.276104740677835,0.35849310819120234,0.07617414866909533,-0.6495428324809913,1.5811637487024588,1,left
7.131,0.13280463132117618,1.0113951841393236,-0.22540958758362845,-1.953284619208346,6.256025035456338,0.3581059224972366,0.07769842316487227,-0.6799275192636013,1.5904953687047816,1,left
7.132000000000001,0.09477158576413719,0.9736628513909164,-0.18556456529565496,-1.9426295827965616,6.242181920034879,0.3559120960067994,0.07643049016403039,-0.6545900390521324,1.5826938600785567,1,left
7.136,0.06408456649427263,0.9397574307104818,-0.157550296758139,-1.9941861816908197,6.308439423433608,0.3624679687645136,0.07644670793905256,-0.6551645813470192,1.5829466541124293,1,left
7.136,0.04276215695411306,0.9154222941596969,-0.1359758531757586,-1.8976841880003745,6.184540177346343,0.35086040107629846,0.07892437072077901,-0.7038422332140742,1.5976867813141276,1,left
7.141,0.03231784830572697,0.9003706866211592,-0.11955005502129262,-2.0217983296204887,6.343862825327447,0.36564066399666006,0.07285537194917298,-0.5843303324547371,1.5614075701265246,1,left
7.142,0.04023868891378375,0.9017143809986741,-0.11265129826126657,-1.918098617822514,6.2107588486424845,0.35335294887969887,0.082913259515258,-0.782451797750048,1.6215737444805935,1,left
7.145,0.05111276271804617,0.9107306394851968,-0.11305660478440363,-1.9212203217571189,6.21471953992474,0.3534904010088671,0.06964670231856097,-0.5211341319076467,1.542212988116469,1,left
7.146,0.05484195561457622,0.9153869428793916,-0.11460322421582,-2.1179267608232353,6.467348545877324,0.37755715846288085,0.013953994508925517,0.5759296675218759,1.2091853129458263,1,left
7.146,0.07085310586304364,0.931601681608929,-0.1236656328029155,-1.6340700605851899,5.845994291783121,0.3186376183909402,0.0006857705497165458,0.8372624784794382,1.129830902367582,1,left
7.15,0.10576889954566013,0.9667311009667297,-0.1426412670639809,-2.436430897560726,6.8763388861772885,0.4162636790836701,0.010742911363989745,0.6391210433249901,1.189986250228377,1,left
7.151,0.13013189926005014,0.9901410841325344,-0.15549893199697454,-1.378100105502031,5.517307322398155,0.2875090243199302,0.004683630904428403,0.7586394060070665,1.1537184569363093,1,left
7.156000000000001,0.137265042417911,0.9975613387592557,-0.15698682894318522,3.0637991707760124,-0.1867166660924553,-0.2532097066252593,0.007136690608630857,0.7099899380967318,1.1684524359365378,1,left
7.157,0.16334654331699744,1.0178483991655325,-0.1579811882488278,4.122140732597481,-1.5457210634206404,-0.3819573071686483,0.007193404875214315,0.7093372713900907,1.1686991366953101,1,left
7.159,0.20188878254684672,1.0389091722307815,-0.15317145181669894,3.3197336019644745,-0.5153931517930893,-0.28436056516532227,0.005877367823688738,0.7348007632821542,1.1609218339063614,1,left
7.162000000000001,0.2337592699449803,1.0460199073456096,-0.13787748375213427,3.803708571223803,-1.1368036021703019,-0.3432061941050482,0.007437103340135753,0.7042731114762908,1.1702100273596638,1,left
7.162999999999999,0.27006097569957366,1.0460607292093735,-0.12029688478756613,3.606787825371087,-0.8839842917730996,-0.3192724784272438,0.006248543377717636,0.7280859738296745,1.1630178982271548,1,left
7.166,0.30474292409742665,1.037955166579557,-0.0987484811716879,3.603958234372442,-0.8803710620436571,-0.31895456557843604,0.006838958631941397,0.7151733913401954,1.1668171031506613,1,left
7.166,0.3351463184864975,1.0279233293194665,-0.07610418902902771,3.7073744213220854,-1.0130264915989826,-0.3314163197136236,0.006794719885758743,0.718252381756569,1.1660904218442774,1,left
7.172000000000001,0.3652700922497802,1.017183479203772,-0.05871955706289365,3.583373588554281,-0.854088490354757,-0.316568562959636,0.006493835754910382,0.7214708051598773,1.1648583616368122,1,left
7.172999999999999,0.3864405615344918,1.0036227360703571,-0.041944782199197436,3.6801405856455442,-0.9779369328094687,-0.3280087469778792,0.006894822208803974,0.715731077051087,1.1668040080120692,1,left
7.1739999999999995,0.39505351389145194,0.9927439428535825,-0.02350094851733523,3.627763351878977,-0.9110837449409548,-0.3219636589923364,0.0066155541630050045,0.7212519169643115,1.1651295775504757,1,left
7.175,0.3933353700381583,0.9859573915513573,-0.006368486697508133,3.63981760354425,-0.9263892125797484,-0.32329105661236585,0.006613477660848148,0.7172849425329166,1.1659578083293678,1,left
7.182,0.3818919586424401,0.9817095609085392,0.007498558252991764,3.6539633505721527,-0.9442083264733631,-0.3247290271079453,0.0069652667640278595,0.7195140645801149,1.1661406199672308,1,left
7.183,0.35777862154847556,0.9778391026810449,0.021946406727842014,3.628924754936794,-0.9131665695656338,-0.3225884552661654,0.006318227471527938,0.7185963755348935,1.1651369807574024,1,left
7.186,0.31983386731076824,0.9730941139357652,0.03669810384861101,3.653360416619008,-0.9426330012003159,-0.3240033326703552,0.007052719047484924,0.718693561769283,1.1664743196193352,1,left
7.187,0.27178348115748135,0.9684100098415198,0.04833471590185071,3.6358214915675307,-0.9224560038984272,-0.32378031092377557,0.0065983337467932415,0.7192281820926795,1.1655222673939778,1,left
7.19,0.21716393264572875,0.9665125016982438,0.0621382879645583,3.6444149621377755,-0.9316219550238909,-0.3233031186662218,0.006299891202028552,0.7178523894779472,1.1652591975677968,1,left
7.19,0.15912613801557346,0.966184988006656,0.07743731406472343,3.644402056073516,-0.931588767843471,-0.323287152660898,0.0077780605694159205,0.7204850505207049,1.1674392261580113,1,left
7.194,0.10044310137514556,0.9668586100377216,0.09017919230581808,3.637087459187386,-0.9256636099000146,-0.325224562685355,0.004996123838829958,0.7164033490373204,1.1631533199166344,1,left
7.195,0.043136177067029005,0.9713673926937259,0.10195119535746702,3.650160740504509,-0.9345267511203186,-0.3203551674722588,0.008582931456168874,0.7213559200456445,1.1687441940249799,1,left
7.199,-0.00917688463018399,0.9785631028713614,0.1105562392524154,3.633657694992997,-0.9251568065825284,-0.32798358788252646,0.00558227065936444,0.7173431481760011,1.1640396871126417,1,left
7.2,-0.055710496849024016,0.9887935876054721,0.1144028882022087,3.6494968755808137,-0.9328937041839179,-0.31963906811551923,0.005673085945259853,0.7172639799473293,1.1642239716388947,1,left
7.204,-0.09556589548214525,1.0002317312777271,0.1191677918235958,3.6409049912077043,-0.9291426454863108,-0.324527270299681,0.011369231790530534,0.7254150206714327,1.1730429987672948,1,left
7.205,-0.12723977156672955,1.0128051457718135,0.125021872581679,3.63373329540205,-0.9262097653765331,-0.3287739181505903,-0.0026451188638585478,0.7056522842581214,1.1512846078312013,1,left
7.21,-0.1551781857131393,1.0271059880687416,0.12417631291700522,3.664448906189854,-0.9381820373858063,-0.31011606626063043,0.020596626513921586,0.7383174077575847,1.1873919930758656,1,left
7.211,-0.17060354690647578,1.0328901855765031,0.12045215801610387,3.608129600169266,-0.916805813474894,-0.3447916615512323,-0.010061133760755544,0.6952693349806147,1.139755394843871,1,left
7.215,-0.1742314943411114,1.0343087741327985,0.11917954833593156,3.6800016221914174,-0.9436821381876908,-0.3002162290962945,-0.13873873314023616,0.5144302836487977,0.9398446741373121,1,left
7.216,-0.18897989683352495,1.041373917552709,0.11557456217680084,3.620192459679148,-0.9214936867212273,-0.3374477716674904,-0.16939721144916534,0.4713882869455871,0.8922063998430092,1,left
7.216,-0.2067223470317096,1.0443486510083742,0.10569909338419717,3.621841913930674,-0.9221306949228076,-0.3364574227346742,-0.14615339372199546,0.504025200895563,0.9283220855170928,1,left
7.218999999999999,-0.21747248327013918,1.0412925373627075,0.09312886987894647,3.73546548773302,-0.96390679890209,-0.26537982425864076,-0.16017203754476733,0.48433659820956615,0.9065414070031557,1,left
7.22,-0.2281478144343934,1.036523724203274,0.07934750121296319,3.4562936339569985,-0.8613614680420092,-0.4400657295241648,-0.15446900872493166,0.49235145679839054,0.9154017888184852,1,left
7.224,-0.2303279412735698,1.024227502780334,0.05405209211235404,3.9190594905067946,-1.0312364716574045,-0.15043244629535987,-0.15438668322577648,0.4924597559002714,0.9155287394186308,1,left
7.225,-0.22909125909522937,1.0130946070767253,0.03404137518969773,3.3087611159380628,-0.8072871992699833,-0.5324544292987574,-0.15738023111539629,0.48826269489981494,0.910881101700899,1,left
7.226,-0.22822447457727763,1.009943184870632,0.02883195511019763,0.7475156070082465,0.1322168500717433,-2.1364417260897692,-0.15379418635953845,0.49329323002030034,0.9164469929302914,1,left
7.229,-0.21515064626213104,0.9981058309686386,0.007061894839057508,0.13730856225146115,0.35605225894381587,-2.518489231416398,-0.15658753021680777,0.48937388935110177,0.9121130992619235,1,left
7.23,-0.1919796038966607,0.9778506691715148,-0.02273888584593501,0.5999017754074449,0.1863834593572936,-2.2287695876283222,-0.1550816624093772,0.49148796963691616,0.9144499940055201,1,left
7.234,-0.16233680827010125,0.9610831793248322,-0.04324652400351252,0.32095384906858593,0.28868161733575537,-2.4036530742477558,-0.15542280492599095,0.4910056892240423,0.9139145773875046,1,left
7.235,-0.1253379604016533,0.9445560597650989,-0.06776492937785189,0.43436607021658635,0.2471030335385691,-2.332238087928136,-0.15583002858081774,0.4904418602535179,0.9132995315259662,1,left
7.239,-0.0826456283871558,0.9281143791396547,-0.09189311687937252,0.43611010255381805,0.24644599698570058,-2.331687083485615,-0.1551253660854755,0.49141862970360145,0.9143637475966273,1,left
7.24,-0.03588690572469173,0.9147496289365578,-0.10923226833848457,0.37645370450419186,0.26833893429557776,-2.368518141935438,-0.15579053205360893,0.490499684963355,0.9133679737395168,1,left
7.242999999999999,0.010639237637211642,0.9048009212104053,-0.12193570071330245,0.4478133810159285,0.24216190364064866,-2.3240549053692554,-0.1553424212246266,0.49111712989243084,0.9140340909200455,1,left
7.244,0.056161067337618685,0.8973803147446735,-0.13202483036448134,0.3923841085291223,0.2624842253800006,-2.359214305222298,-0.15553222204936024,0.4908503406496266,0.9137389710578834,1,left
7.247999999999999,0.10202318789635126,0.891576228515535,-0.14114722046409328,0.42199813576562145,0.2516447474995539,-2.339233750333425,-0.15555742895957425,0.4908370545771384,0.9137556504244378,1,left
7.249,0.1486735412530128,0.8889342179169963,-0.14591735405805692,0.41572314438702535,0.2539101932380519,-2.3456314135432645,-0.15539537484350868,0.49101437845040324,0.9138797164692342,1,left
7.255,0.19517105144068703,0.8898117906970262,-0.14548310945932924,0.40709135725716195,0.2571189674394796,-2.348011054397392,-0.15561285228616695,0.49078379205314,0.9137324261636697,1,left
7.256,0.23914281343783916,0.8948375455078418,-0.14226966706536248,0.42138158085866506,0.25184409259377416,-2.3414731782763276,-0.15541322039186828,0.4909844447546264,0.9138393382156349,1,left
7.257999999999999,0.28165884896836807,0.8988784552734584,-0.13939136395527654,0.4084996877931253,0.2565686074116938,-2.3495616308273135,-0.15552891002702224,0.4908680076792341,0.9137771254357734,1,left
7.2589999999999995,0.3202664299662964,0.8995964841006566,-0.13777581851699158,0.41611362759477866,0.25383725698462145,-2.3403212025388975,-0.15555723135423508,0.49086791478182706,0.9138341648059891,1,left
7.263999999999999,0.3533455311757563,0.9049336988517611,-0.136186712334493,0.4146743225180267,0.2542254758322179,-2.3514427371478455,-0.15534085057666913,0.4909981523537365,0.913727559999889,1,left
7.265,0.3806067936109849,0.9131810350870679,-0.12845086269907371,0.41120067557854867,0.25570767428084773,-2.338371526457255,-0.1557467234270517,0.4907501712792439,0.913918369751375,1,left
7.267,0.3973296389757145,0.9186949110031208,-0.10991706004729196,0.41696048063407276,0.2533732858731349,-2.351017804408154,-0.15523149069883477,0.49106025186065816,0.9136639089772459,1,left
7.268,0.4096420408980303,0.9223911132741909,-0.08925160354340916,0.4122530002249324,0.25522822261325756,-2.344573995269177,-0.15565892865457992,0.490805221669398,0.9138808977485557,1,left
7.273,0.4178893525698776,0.9266277419213891,-0.06973437604564015,0.4124841748622494,0.2552533091937098,-2.336335663468085,-0.15563986024805154,0.49082253853895413,0.9138858650761417,1,left
7.275,0.4187209952343286,0.9312557997163469,-0.05314603900711097,0.41938548989502267,0.25223972661145194,-2.3674399311232737,-0.15485683398895295,0.4912641644629812,0.9134243158450986,1,left
7.277,0.417374043032747,0.9327869008100573,-0.04212646631253134,0.4047170710508624,0.25851484482777565,-2.31092576475017,-0.1567870829299539,0.49017097998928016,0.9145515861348917,1,left
7.278,0.40669938780717646,0.9335813514613434,-0.028319094626059384,0.42422643373474916,0.25020933239767784,-2.383072422611625,-0.1535872003384371,0.4919825655462965,0.9126804068933656,1,left
7.2829999999999995,0.39721098761332835,0.9342148720261998,-0.01957129162972457,0.40765324070667586,0.2572489519429134,-2.323016640517257,-0.1578060094217122,0.4895958332768608,0.9151525649990366,1,left
7.284,0.3944072682280092,0.9341677119188749,-0.017850067672340292,0.4085432765401451,0.256894268772346,-2.3243731168729957,-0.17549472352053397,0.4796030388313259,0.925545639372413,1,left
7.285,0.38128395944881943,0.9372831785429308,-0.00955531006767539,0.4389714486294404,0.24390695094284892,-2.4396044409828437,-0.17971086597814537,0.4772203676841852,0.9280240508854583,1,left
7.287000000000001,0.36448627986138815,0.9403704993100732,-0.0001521848621031986,0.36354267452572103,0.27606743894874375,-2.1567657607728608,-0.17651526045334262,0.4790256065916702,0.9261439424825114,1,left
7.287999999999999,0.34425270798931457,0.9424012295411185,0.00842185779685789,0.4888507359885107,0.22265108725773794,-2.6255839785686694,-0.17844167637130337,0.47793766778099905,0.9272763022837116,1,left
7.292999999999999,0.3287883073694544,0.9451752623426348,0.01422494622453586,0.3234787910857977,0.2931438855085452,-2.0072607417232193,-0.17765924422262216,0.4783796089927362,0.9268213983188898,1,left
7.294,0.32511226781926944,0.9471431221180592,0.016372907565503365,-0.37027529277499877,0.5888530359744297,0.5882566488794245,-0.17764568797971125,0.4783867210814021,0.926801513724573,1,left
7.295,0.3077162905069041,0.9487770576767309,0.025426879376644732,-0.5356698546120506,0.6593598955953461,1.2065859062757325,-0.17805978590628435,0.47815394967133035,0.9270625848749111,1,left
7.297000000000001,0.28257202859730013,0.9526547362497894,0.036542921060242255,-0.4102865725887471,0.6059097237680542,0.7377929637975913,-0.17756462838616005,0.47843233755166686,0.9267536721284148,1,left
7.297999999999999,0.2618459077657686,0.9590411661746341,0.046880054143096005,-0.48588579964366446,0.638130330870654,1.020516568545767,-0.17794922721072037,0.4782157246877423,0.9269875784725157,1,left
7.303,0.23765061128077372,0.9633934328276664,0.05545246557783517,-0.45516820493197185,0.6250576074762748,0.9055389832455026,-0.17774466991708512,0.47833240542426914,0.9268825633803212,1,left
7.303,0.21372903964236245,0.9665522534692504,0.05725365085383283,-0.45465332075691356,0.624795915830104,0.9037916338242863,-0.17778489885007429,0.4783058454300637,0.9268567803649075,1,left
7.307,0.1917045370970598,0.9680152440384748,0.05553338858701386,-0.47088683564826445,0.6317748752573606,0.9642836915215621,-0.17785169373134502,0.47827482321070713,0.9269813784124339,1,left
7.309,0.17300632319885875,0.9666418540341921,0.04812984757292184,-0.4514681351190784,0.6234389951217443,0.8918576776994054,-0.17774219602589733,0.4783283835778814,0.9268122015404903,1,left
7.312,0.15840375347107874,0.9680798291684454,0.038065389559016345,-0.4665571927421499,0.6298957773097179,0.9482043972636158,-0.17784281964373333,0.47827818940395134,0.926954953327583,1,left
7.313,0.14510385192846728,0.9681745081481192,0.029375190732969625,-0.4585186348445614,0.6265198679392547,0.9180035981540335,-0.17778327858103143,0.4783118436245776,0.9269206593396642,1,left
7.317,0.13381294129167848,0.9649163989376626,0.018690866274084242,-0.4601282785950729,0.6270439064908755,0.9244732230751063,-0.1777878180819567,0.4782970119023247,0.92676824768639,1,left
7.318,0.12622713157832652,0.9647091895722187,0.008142539074124839,-0.46269865819074113,0.6284184821038488,0.9333164670588427,-0.1778369419588376,0.4782973737030629,0.9271516058765976,1,left
7.321000000000001,0.12497015395715527,0.9644164091316078,-0.0019391294886926883,-0.45846268259083656,0.6262707171784163,0.9184138300302582,-0.17774942372849198,0.4783048187941433,0.9265712858638022,1,left
7.322,0.1274194622785164,0.9606293021066719,-0.009057427134712786,-0.4623634131646261,0.6282061197153582,0.9322554291634486,-0.17784535769830187,0.47829545028725534,0.9271915099079566,1,left
7.327000000000001,0.1305803008448233,0.9605232660408027,-0.009204240838025048,-0.46002607814178154,0.6272123526012856,0.923508761882768,-0.17778575072924596,0.4783031332622039,0.9268306410744138,1,left
7.329,0.13813727046282254,0.9653497450124606,-0.005298191291828205,-0.4602935397040925,0.6268201079014977,0.9258863471465428,-0.17775509605135564,0.4782983205252391,0.9265318869095704,1,left
7.332000000000001,0.15103519821805,0.9665636917823198,-0.00013963677252361523,-0.4620179672440927,0.6287119259398164,0.9291884533524233,-0.1779231582169204,0.4783008114005151,0.9278596037435656,1,left
7.332000000000001,0.16799543811906667,0.9662878138068662,0.003140333667888698,-0.4588863403594651,0.6256514533314559,0.9221701315668988,-0.17760539092798608,0.47829939045809833,0.925393632375431,1,left
7.337000000000001,0.18806494036419047,0.9699488833769201,0.0030665462382731355,-0.4623285987787722,0.6289581571411789,0.9300413190011558,-0.17801475520229534,0.47830070836404026,0.9285609704619733,1,left
7.34,0.2065066623066311,0.9737945594809247,0.00024235418402606301,-0.460175377671597,0.6269776889007068,0.924878295851272,-0.17767249967405915,0.47829951465175197,0.9259162377066715,1,left
7.341,0.22336017011001338,0.9768948138750442,-0.004874165827892371,-0.4591337465541596,0.6256171173552295,0.9234747188026647,-0.1776837627516793,0.47829930937214643,0.9259894454080534,1,left
7.3420000000000005,0.24034649087977156,0.9822731635116833,-0.008984105280772916,-0.46502519790997165,0.6321385896789038,0.934604635590484,-0.17832969743670896,0.47830317582307735,0.9310273953747068,1,left
7.346,0.25269735220085165,0.9895137657761146,-0.014043563228526519,-0.45385928625969035,0.6199425514420115,0.9130644362204046,-0.17673981987550513,0.47829321842656347,0.9186425420797579,1,left
7.347,0.26105372152172096,0.9958341301573745,-0.022052991308652327,-0.4682502724835089,0.6356251797666845,0.9409243410241606,-0.1793763758294445,0.47831062263225443,0.9391780482518106,1,left
7.351,0.2673612740058933,0.9987889330692362,-0.02605021499254634,-0.45621491642707884,0.622524204518494,0.9175848460565035,-0.175898860657757,0.47828674152927714,0.9120914369234998,1,left
7.352,0.2701136755494419,0.9999193508620979,-0.027599533101189393,-0.4566227603874501,0.6229123542239252,0.9185277770597514,-0.16130106440179165,0.4782132335311089,0.7984084844611586,1,left
7.353,0.2725402390892047,1.0029205637276344,-0.033332855464929395,-0.47930072129245244,0.647781146621116,0.9620080898102973,-0.1578236775375258,0.47819023901161717,0.7713224431488113,1,left
7.356,0.277275618957511,1.005232243784179,-0.03895046061837228,-0.4234660351544717,0.5866191822131432,0.8547745070296202,-0.16046059613877944,0.4782030870802654,0.7918559166621902,1,left
7.357,0.28002922049920553,1.0058776406850405,-0.040030551544408086,-0.5160648539382531,0.6880356239092172,1.032663538102001,-0.15886888956858355,0.4782055052167343,0.7794758441016365,1,left
7.36,0.27827678826926716,1.0075744928751464,-0.03905093728384026,-0.3939289621171223,0.5542712004792035,0.7980262166983331,-0.1595189465651497,0.47818628802549523,0.7845055002735681,1,left
7.361000000000001,0.27773906621016964,1.0074166140419654,-0.038770595213261164,0.11863461085753482,-0.0071755153244059955,-0.18644164187440126,-0.15952378629344205,0.4782182031995038,0.7845896457082213,1,left
7.362,0.2772145040331553,1.004924156203303,-0.03815075159394847,0.24075145960319594,-0.1409249543194342,-0.4210282732929186,-0.15918878199231928,0.4781850035167462,0.7819347606089018,1,left
7.365,0.2735826913157323,1.0031291627448304,-0.038535996937565806,0.14817724409076635,-0.03952973456560186,-0.24319915881525173,-0.15959337196818374,0.47820064515415256,0.7851053006547386,1,left
7.365,0.2694052577845798,1.0016054397076686,-0.040502028718927746,0.20400559857223965,-0.10068012028868467,-0.3504356303010531,-0.15927312181624073,0.47822562884587966,0.7826507749372502,1,left
7.371,0.26274113172014457,0.9986837961368692,-0.042239545847752705,0.18128850252182022,-0.07579413285586979,-0.30681044399323587,-0.15945575160218028,0.4781407361202347,0.783946185239228,1,left
7.372000000000001,0.2545124219341335,0.9953978888482387,-0.04768804536401949,0.18098437578829807,-0.07546741993479492,-0.30620397627749485,-0.15939617933695516,0.4782882375959477,0.7837006500770342,1,left
7.376,0.24382270065732414,0.9948425402453223,-0.0532977591643604,0.19285539952535954,-0.08846074011682212,-0.3290412357456166,-0.1593761745996527,0.47810681100835456,0.7832769509681414,1,left
7.377000000000001,0.23047378423156328,0.9966139878156881,-0.05462802461521285,0.17864756947200838,-0.07290975634404895,-0.30170620534449133,-0.15943436527578386,0.47825164140004534,0.7839436234044816,1,left
7.38,0.2186384924529643,0.9983097562932451,-0.055566284222103496,0.18969821107622223,-0.08500360088852277,-0.3229739637705973,-0.15936071358145582,0.4782525242056289,0.7833720829928077,1,left
7.381,0.20465120336449344,0.9985060293819172,-0.05504027470288233,0.1837329944730128,-0.07847368162978607,-0.3114992559340011,-0.15944731584445437,0.47798489065927735,0.783650045010315,1,left
7.385,0.19011332260934843,0.9972255372445691,-0.05579535412831141,0.18515590674725044,-0.08004139694363513,-0.31419571608497415,-0.15934041482283762,0.47859699822116564,0.7837233440329135,1,left
7.386,0.18081008002051646,0.9954971936687068,-0.06118900078156693,0.18657061953532356,-0.08156281495157178,-0.31702761980994787,-0.15946782611873328,0.477683672089613,0.7833644570130947,1,left
7.39,0.17395909089417794,0.9943397023420604,-0.06846587791378103,0.184121271471253,-0.07892791433773916,-0.3121271083843635,-0.15934375979124804,0.4786573640832934,0.7838383747893876,1,left
7.39,0.1687824569308535,0.9949315657310676,-0.07454751336094718,0.18633200684324336,-0.08129085399237916,-0.3166130724556431,-0.15940752681454962,0.4780947075441455,0.7835032587853447,1,left
7.395,0.1679610140692164,0.995238036831353,-0.07419952198349035,0.1848969450958619,-0.07976552096520598,-0.31366582304322743,-0.15948711745243027,0.4776098702651404,0.7834049311227682,1,left
7.396,0.1692212938285692,0.995597630807693,-0.06953854136100099,0.18565588836992658,-0.08059735757733848,-0.31512194729187193,-0.15918426163803462,0.4797321003972052,0.7841868524497075,1,left
7.399,0.17086412599783618,0.9964989241873317,-0.06589206914974396,0.18510757588614396,-0.0799102113278112,-0.3144224423085529,-0.159735100003368,0.47579630268735934,0.7826536271156121,1,left
7.4,0.17487122592870186,0.9961721445151877,-0.06598008162146696,0.18594488232025008,-0.08102493128098845,-0.3152223478889824,-0.15903179192723588,0.48085012597919385,0.7846524414666649,1,left
7.404,0.17760123119657723,0.9990437869898636,-0.07163272547619307,0.18459887496546643,-0.0792559702885503,-0.31384313139103603,-0.1596170981248165,0.4766308606622078,0.7829708367522041,1,left
7.405,0.17659270781411435,1.0048295954146031,-0.07572676481059895,0.18616221127670896,-0.08128232178143668,-0.31555973943443627,-0.15960428484200528,0.4767452505151645,0.783036430226159,1,left
7.409,0.1757481945938042,1.0108305835501958,-0.07525996162956428,0.18525997907949857,-0.08011280202891424,-0.3145707601786244,-0.15848030596898827,0.4847900806065372,0.7861896627463731,1,left
7.41,0.1745023070038137,1.0169266582213954,-0.07357930557249824,0.18419874287585475,-0.07879371447838236,-0.3131710286163506,-0.1612382225496285,0.46501649906790815,0.7784100148976532,1,left
7.415,0.17411928904861945,1.0202886949685885,-0.07421612892658266,0.1884769984818267,-0.08416465013969429,-0.31858785378600135,-0.1566676473030144,0.4978022764277056,0.7913205857812313,1,left
7.416,0.1765077336002852,1.022291845064367,-0.07854099825673144,0.180560407845165,-0.074223708560051,-0.3085782586040089,-0.16269490091748734,0.4545577255914337,0.7742868108952586,1,left
7.419,0.17622971764801465,1.0231908277704136,-0.07872770666739348,0.1907501363150013,-0.08701476742513697,-0.3214755348803183,-0.18800552885912247,0.27304243373837567,0.7028137370678189,1,left
7.42,0.1751300451981827,1.0229977864003414,-0.0794539030969567,0.18223121633565195,-0.07632352302080062,-0.31068894428035726,-0.1940313370422443,0.22979737070906087,0.6857776968382903,1,left
7.42,0.1768442435872667,1.0206910423577233,-0.08662448384455626,0.18243491813294793,-0.0765821761381077,-0.31092018944741184,-0.1894626146666061,0.2625837038127259,0.6986929712160446,1,left
7.4239999999999995,0.1761493939395512,1.0141347269133325,-0.0904927721692366,0.19879897494112325,-0.09710301393439083,-0.3317411641623492,-0.19222010235601678,0.2428103274258623,0.6909062769830069,1,left
7.425,0.1731568540333734,1.0088785422553437,-0.08746584754008482,0.15859488047115228,-0.04668614150729585,-0.2806155048541633,-0.19109304641729913,0.25085333088996487,0.6940678280371619,1,left
7.428,0.16907469105316328,1.0027549093309713,-0.0793813618943651,0.22526128463941472,-0.1302847186427317,-0.36538426045830685,-0.19108826370440682,0.2509716586898415,0.6941265117616668,1,left
7.428999999999999,0.16454054630425974,0.995984705678786,-0.07425201618832913,0.13731827609723107,-0.020008534769045537,-0.25356371184733595,-0.1916609269341425,0.2467467409691338,0.6924460166182573,1,left
7.43,0.16537158738993324,0.9952252085584395,-0.072941580960811,-0.23181527972132004,0.442905157591868,0.21605726762075123,-0.1909716185396469,0.25180620060342385,0.6944547150820802,1,left
7.435,0.1663491963485659,0.9925729692939923,-0.06738779046987489,-0.31976691136125623,0.5531921518592653,0.32790418766695784,-0.19151379812998587,0.2478679565656947,0.6928968187851106,1,left
7.436,0.16304219325847003,0.9889125024499796,-0.06403059166752903,-0.2530956491970796,0.4695820507190979,0.24308161240939194,-0.19120495350809374,0.24998537977122454,0.6937172730832575,1,left
7.439,0.1622623431488301,0.9894149208582957,-0.06438328314359679,-0.29328035664363095,0.5199938649955445,0.2942859889147687,-0.19131421458434833,0.24951608380859655,0.6935757133660839,1,left
7.441,0.16278234415983525,0.9889103651957104,-0.06388996031626096,-0.27697990018041085,0.4995130815748134,0.27337500338793774,-0.1913209659120758,0.24892661664549684,0.6932691630399086,1,left
7.444,0.16355126230277872,0.9908730015539686,-0.06509764231321456,-0.276661168034361,0.49916908584785635,0.2732140666796825,-0.19127313014792188,0.24993324628414673,0.6937567990184463,1,left
7.445,0.16480237312940316,0.9926177767495905,-0.06524177258886871,-0.28532755456588965,0.5099820229921843,0.2839986148698137,-0.19133041642423596,0.24899360944565224,0.6933140978404604,1,left
7.4479999999999995,0.16422663420843456,0.9903425669727527,-0.06118535538993368,-0.275012792324408,0.4970706203312402,0.27098000216930923,-0.19124441874351694,0.2496056004779089,0.693554443219552,1,left
7.449,0.16524217026982435,0.9908682916276819,-0.0560307054108394,-0.2829428313903735,0.5070619373772276,0.2812710509084673,-0.19141175948319789,0.249386522044271,0.6936029528505419,1,left
7.454,0.16705323216060963,0.9900848989670419,-0.05159567226140695,-0.27886526272717715,0.5017979092603073,0.27543050961742105,-0.19111456158994305,0.24927622643789477,0.6932515689333426,1,left
7.455,0.16980761987587273,0.9855400413861419,-0.04776396301557752,-0.2794405907220756,0.5027787716817986,0.277286972933297,-0.19153749064542197,0.24958708812087796,0.6938333207018352,1,left
7.459,0.17484159831284513,0.9826948161803994,-0.046443843633737,-0.28108888778846364,0.5045275500684905,0.27800453411860204,-0.19109047906294713,0.24922845902616414,0.6932025150211539,1,left
7.459,0.17977067160003085,0.979809804606646,-0.044937100971559035,-0.27870681997673774,0.5017940855638665,0.2760735570090432,-0.19134269899140752,0.24947870331419914,0.6935838132492561,1,left
7.462999999999999,0.18573576290518062,0.9761197037731639,-0.04155021266713184,-0.28056072775958085,0.5041210476299598,0.2784415101330753,-0.19159003303719313,0.24948126487567823,0.6938289396898862,1,left
7.4639999999999995,0.18949969467936,0.9724511865726775,-0.03939902688579623,-0.28006157344249794,0.5030247042341602,0.2757677514016422,-0.1905566414498522,0.2491211623835369,0.6926195658032503,1,left
7.468,0.19104727292786244,0.968249616235557,-0.03655745573934812,-0.278901555478291,0.5026452414711846,0.27895143892360585,-0.19246412374384902,0.24985193407106826,0.6948868112955191,1,left
7.468999999999999,0.19468074656108142,0.9644913463816029,-0.03330218598540792,-0.28144246586502686,0.5042273527799545,0.27523272394773146,-0.19001696313658598,0.24889947707883547,0.6919703418737155,1,left
7.473,0.19649443435557606,0.9603273701459303,-0.030214112152509336,-0.27843712825418776,0.5021690106500971,0.27881974232607404,-0.19205893062212298,0.24970032939344758,0.6944069010922069,1,left
7.474,0.19512345370667333,0.9563852675011485,-0.029313211628465664,-0.28037273356853,0.5036075758982455,0.27700003875185353,-0.19200729014561163,0.24965676699577188,0.6943334803539569,1,left
7.477,0.19337407695182784,0.9538749108200972,-0.03215554357075421,-0.28142220514516647,0.5040727391321917,0.27464532814743187,-0.18810226885432202,0.2482015631594925,0.6897130050363987,1,left
7.478,0.1891078701176835,0.9507015185572634,-0.0329038555692209,-0.27568683602048083,0.5006073564751601,0.28350038806839617,-0.19769557718943576,0.25180400610265574,0.7010773763115221,1,left
7.482,0.18274383723343424,0.9492673833795262,-0.03512514541053304,-0.2865934394240609,0.507371660422337,0.2674212234852732,-0.18179123544559586,0.24582443013157032,0.6822339100499022,1,left
7.484,0.17963219308043926,0.9507241819365264,-0.03906064491681201,-0.2724908082478794,0.4985643281619073,0.2879442402612614,-0.20276803215510716,0.2537118805168309,0.7070867379158114,1,left
7.489,0.17832897967572242,0.9500521220066144,-0.03956786000531751,-0.28430682516386274,0.5059683852223147,0.2708625966610216,-0.2908322977627491,0.2867890209430295,0.811414532773066,1,left
7.49,0.17730220178040793,0.9497412492224624,-0.043098350277537854,-0.2839204039660239,0.5056891476825229,0.27124502213869095,-0.31180803470467916,0.29467357545911466,0.8362632787626105,1,left
7.49,0.17602276916046417,0.9505653083788965,-0.04767970977268489,-0.2615660851686777,0.49178089516162915,0.30402892566494233,-0.29590483922813415,0.28869713254699797,0.817424228208576,1,left
7.494,0.17219242958843933,0.9497871679037292,-0.0481546046371225,-0.31660822788627924,0.5260794700355684,0.22356544830044545,-0.3054985848263254,0.2923007674121063,0.8287902813298393,1,left
7.495,0.17060184348995638,0.9509917591437355,-0.049011738270259286,-0.22530696590677704,0.46916818877822974,0.35693430894982514,-0.3015897577362777,0.29083517005942333,0.8241551521660684,1,left
7.497999999999999,0.17038259088105268,0.9520543791368948,-0.0497409160729963,-0.3457486711476009,0.544249117083744,0.18103692054848072,-0.30154630429303697,0.29081397021304783,0.8241132580089767,1,left
7.497999999999999,0.17046590621742713,0.9517967262963651,-0.05125752033619337,-0.8511514423165313,0.8593506675962367,-0.5573371543138874,-0.3035765345337499,0.29158275949616475,0.8265046169244321,1,left
7.499,0.17440281769182842,0.952823660198491,-0.056904312293002635,-0.9715915361848957,0.934434658485178,-0.7332312320040006,-0.3011410601493485,0.2906622301803169,0.8236331545517119,1,left
7.501,0.17641559929608105,0.9542429542471113,-0.06159563555948494,-0.8802975787802626,0.8775094893764825,-0.599877370054644,-0.30304350306956696,0.2913792264312931,0.8258809859438931,1,left
7.502000000000001,0.17633765302401277,0.9555125292127632,-0.06610190209238787,-0.9353206867373534,0.9118442585963085,-0.6803017714064196,-0.30200006943796426,0.29099170550692144,0.8246329510526613,1,left
7.507999999999999,0.17897943106351932,0.9559332548887052,-0.07382716851331556,-0.9130011939107383,0.8978697810601762,-0.647589353726343,-0.30227973971098554,0.29108258632779793,0.8250025929618185,1,left
7.5089999999999995,0.18091153288836825,0.9572674856120528,-0.07743307633776171,-0.9125669694788493,0.897681449916587,-0.6471088119685156,-0.3024762497735969,0.29118065461894327,0.8251693585328885,1,left
7.5120000000000005,0.18079718437739817,0.9587537302755007,-0.07617418223976727,-0.92442980658469,0.9049964652017983,-0.6642865447801252,-0.30209760093275345,0.29100878172089323,0.8248018247050437,1,left
7.513,0.18308625900902578,0.9592392880461001,-0.07328526186485676,-0.9103076824656263,0.8962262130611851,-0.6437235397117178,-0.30246603871903854,0.29117075521744484,0.8251737036422444,1,left
7.516,0.18864566748633105,0.9601926877378226,-0.06719232516626658,-0.9211723170462739,0.9030703124080194,-0.6597165323521127,-0.30216833033741786,0.2910591261551987,0.8248204029121311,1,left
7.517,0.1934106276308881,0.9612468156996421,-0.06254574216142442,-0.9155697733482305,0.8993523548849838,-0.651134129041989,-0.30243684955191386,0.2911163600516685,0.8252584877330218,1,left
7.522,0.19813270496826912,0.9640086332018618,-0.06097320896319809,-0.9163910907715815,0.9002513853475603,-0.6530205355512306,-0.30211967055808764,0.29109689753179235,0.8246086086600817,1,left
7.522,0.2045264773240837,0.9671027076360704,-0.05988048232647938,-0.9186064334434342,0.9011579698240563,-0.6554143813161704,-0.30252180558887337,0.29109927718501843,0.8254939099946093,1,left
7.526,0.2080342787684027,0.9713500935480334,-0.05633948361810552,-0.9153782072067655,0.8995235294882995,-0.6513699592636744,-0.3021063972192213,0.29110170657213996,0.8245659467935813,1,left
7.527,0.20924533991953195,0.9783807836170143,-0.04816302842136026,-0.9179168919240883,0.9011098020064512,-0.6550839681125904,-0.3023254535134924,0.2910924391251213,0.825077177318107,1,left
7.5329999999999995,0.2110674600511519,0.9820982516334779,-0.04076181992850258,-0.9171711106230831,0.8999426858502081,-0.6527506794464433,-0.30261797638411525,0.2911233831939586,0.825641055647434,1,left
7.5329999999999995,0.212321338866222,0.9824839223469745,-0.0362808996032207,-0.9157256054682622,0.900645917961324,-0.6534818979275202,-0.3015076150287526,0.2910517123780936,0.8233752050595747,1,left
7.537000000000001,0.21306131536663048,0.981910155056317,-0.03589386023181179,-0.9189911697236194,0.9002883784630011,-0.654011398501464,-0.3035359981088793,0.29117308522937807,0.8275404682649499,1,left
7.537000000000001,0.21294239280060062,0.979297642187171,-0.03671780600706741,-0.9151043467014394,0.9004165840801354,-0.6528540846568305,-0.3009385467553715,0.2910198763947842,0.8222007651397318,1,left
7.541,0.21238420741123615,0.9779909461197982,-0.032927256130705955,-0.9176219355033595,0.9005119730990034,-0.6539201883704029,-0.3031039089521014,0.2911466413972599,0.82665448382297,1,left
7.542000000000001,0.20555274512629224,0.9783394639965065,-0.027557304204338176,-0.918947114497037,0.9000672862842127,-0.6536036707100729,-0.30305674252884796,0.29114744327590786,0.8265485031595265,1,left
7.546,0.19247985726810862,0.9781012739031744,-0.019506910282962524,-0.9115888748575356,0.9010415791695685,-0.6527096399444517,-0.29889099608134784,0.2908920431409031,0.8180100961492789,1,left
7.546,0.18220984998637613,0.9804809714645186,-0.01136720577827231,-0.9256025388654509,0.899464050489881,-0.6549059167969992,-0.30911573857766006,0.29151460318243105,0.8389776446782793,1,left
7.551,0.1705795070109299,0.9852256477107586,-0.007826400495210127,-0.9074765053870484,0.9014074794941105,-0.6518921247056424,-0.2921670985478665,0.29048393962924923,0.8042193147406189,1,left
7.5520000000000005,0.16219124953850203,0.9867790900796913,-0.005944832646017775,-0.9226635345474382,0.8998190072048953,-0.6544894590700097,-0.3145207919190902,0.2918429269018681,0.8500620659260402,1,left
7.557,0.160526872525118,0.9874921921760511,-0.0045386301390134085,-0.9221697271886469,0.8998103972328985,-0.6542945237871105,-0.40837942401448646,0.29755710402085,1.0425389955275324,1,left
7.558,0.15509675474103923,0.9916633052368088,-0.0033488478283472474,-0.8934322469404778,0.9029771903534655,-0.6496739228891331,-0.4307324236283147,0.2989159919276746,1.088378336603335,1,left
7.558,0.15040903903664687,0.9964800199859736,-0.006529737856089155,-0.9641829104066675,0.8952668567813442,-0.6612100005857541,-0.41378453457012787,0.2978854360082438,1.0536236973029982,1,left
7.561,0.14994841999843897,1.0024281556469834,-0.012702345983890764,-0.8468337094524101,0.9080251307031023,-0.6420164223795866,-0.42400956122728484,0.2985080364902234,1.0745926450965428,1,left
7.562,0.150420787087457,1.0070620123906098,-0.015400279431953212,-1.001627955037866,0.8912040513011525,-0.6673549096825961,-0.4198413276827236,0.2982522806670679,1.0660420078149664,1,left
7.565,0.1502811977868537,1.00723332267675,-0.016674529543142587,-1.651374831694587,0.8205977244965259,-0.7736462005973228,-0.41979951437237933,0.2982538484702467,1.065962347583755,1,left
7.566,0.15018011090241518,1.0105452966843906,-0.01819745047100474,-1.8061623716337092,0.8037723419338378,-0.7989844026797308,-0.4219571998425766,0.2983795147986561,1.0703783237368578,1,left
7.567,0.15400904242111785,1.0146845748348292,-0.02013844543230859,-1.6888104058479194,0.816529020840425,-0.7797764973304668,-0.41936739471644513,0.29822740063097564,1.0650762097552255,1,left
7.571000000000001,0.15619257730272207,1.0154012168686515,-0.021370540260244066,-1.7595993194023805,0.8088425983253468,-0.7913645325470315,-0.4213924752300321,0.2983483000080438,1.0692252438010739,1,left
7.572,0.15574706816250322,1.018322583678644,-0.022432344003912474,-1.730764605774119,0.811948303485081,-0.786636034520208,-0.4202755557145773,0.2982756918294081,1.0669271383415813,1,left
7.5760000000000005,0.15832430794586663,1.021378768853567,-0.02606685841141037,-1.7304311278982014,0.8120406387208439,-0.7866018556031824,-0.4205892175406335,0.2983096599420322,1.0675949586541469,1,left
7.577000000000001,0.15937687066856648,1.0248230393556788,-0.029457200385881725,-1.7454274112738455,0.8103318446999124,-0.7890258598759159,-0.4207718429832151,0.29829517936717254,1.0679270700528272,1,left
7.581,0.1571448586602342,1.0300443707131772,-0.03424173504053603,-1.7274424386521927,0.8123645947065974,-0.7861132679352363,-0.42040115241107073,0.2983040092981291,1.067218955050354,1,left
7.582000000000001,0.15580953003942682,1.0355788811046094,-0.042090579124918336,-1.7414860096545954,0.8108051524056282,-0.7883984665207482,-0.4207676243023627,0.2983012820605683,1.0679289468008872,1,left
7.584,0.15387553991372382,1.0446957331946773,-0.048717170052007985,-1.7337974790177646,0.8115722629599194,-0.787112020677476,-0.4204501549928942,0.29828178337987205,1.0672775882187318,1,left
7.585,0.15238399526220278,1.0537916007973926,-0.052629435450517154,-1.7358267807679564,0.8115704899152067,-0.7875339808830183,-0.420784792504205,0.29834847289606337,1.0680408114816138,1,left
7.59,0.15670636382813707,1.0612783233233483,-0.051303367952407995,-1.7373354237165866,0.8110301611822137,-0.7876260512852237,-0.42033593190834084,0.2982152175833521,1.0669443109874066,1,left
7.59,0.16388510980859727,1.0701614802699777,-0.05114478618774189,-1.7344698633009403,0.8118032006092201,-0.7873472046153877,-0.42092990431418587,0.29840946767551585,1.0684250439531018,1,left
7.595,0.16940170056591428,1.0780558145852592,-0.06213126756030136,-1.7372454066618679,0.8111338021321901,-0.7876498655382048,-0.420310780992711,0.29820317011724484,1.0668752969498476,1,left
7.596,0.17356272509996473,1.0833681736391059,-0.0730152383945751,-1.7350491429725514,0.8113686311615004,-0.787288834312559,-0.4206463197948349,0.2983211582490266,1.0677253913431584,1,left
7.6,0.17700817616115666,1.0890010286863447,-0.07555722295494298,-1.736925251337911,0.811848582176278,-0.7878779483903229,-0.4210455783541713,0.29842911799267124,1.0686833143941636,1,left
7.601,0.18098283447468744,1.0992631938899817,-0.07896978033357147,-1.7348252964539208,0.8105149614426492,-0.7868899394495352,-0.4194782271688772,0.2979666585329226,1.064859072324239,1,left
7.604,0.18457975471704707,1.1115513568094773,-0.0860320060419192,-1.7374339325686763,0.812560768435424,-0.7882779240678153,-0.42235250481996,0.29882270635110264,1.0718851699030099,1,left
7.605,0.18598394857942788,1.1267264023795773,-0.09478593373976399,-1.7347510060011482,0.8103700588236232,-0.7868145577631815,-0.41866892647350495,0.29772355708160836,1.062877530304482,1,left
7.61,0.18664605232809126,1.1452102667816133,-0.10423236403194899,-1.7361464653759833,0.8116512785309248,-0.7876343287708729,-0.42174145529813045,0.29864155984559704,1.0703926089865927,1,left
7.61,0.18750570891610513,1.166697226332656,-0.11466509889589077,-1.7381146476137166,0.8126769399417537,-0.7884676635906593,-0.42166905953783496,0.29861612845232655,1.0702099104617142,1,left
7.6160000000000005,0.1871968182415726,1.1935884295641341,-0.12564650037209457,-1.7307545629473537,0.8080611216639202,-0.78502872988287,-0.4157745122069637,0.2968664322316759,1.0558098857910636,1,left
7.617000000000001,0.18589846189829345,1.219520782462515,-0.13164365830757266,-1.7441765990946054,0.8166420963508153,-0.7913678495920569,-0.4302504283201305,0.3011688115215124,1.091181303136569,1,left
7.62,0.1824606321852446,1.2507792553725237,-0.13442521953348147,-1.7269944787821947,0.8056217801871877,-0.7832378927186694,-0.4062511600233615,0.294033328504283,1.032536611128779,1,left
7.62,0.1799869684354523,1.2734338771250941,-0.1375861697969088,-1.7413157851771892,0.8148190800612951,-0.790019623387819,-0.4379069173922494,0.3034474099772905,1.1098930110030283,1,left
7.624,0.18015363530328493,1.2795416893865563,-0.1370062743171736,-1.7410129869584194,0.8145737400821695,-0.7898540572614765,-0.5707918307570186,0.34295081364667057,1.4346025376048557,1,left
7.626,0.1748943719449141,1.3037292732501342,-0.13349254410242034,-1.7134323612286528,0.7970352578466099,-0.7768681622688669,-0.6024519203651618,0.3523712811228891,1.5119746066669186,1,left
7.626,0.16582543848364756,1.3368749085805365,-0.12812012314817212,-1.781116934987377,0.8401281969056114,-0.8087603713905724,-0.5784465789371864,0.34522585825064755,1.4533068542160923,1,left
7.631,0.15305627927996124,1.3626177178032726,-0.11867939242585342,-1.6689262618605598,0.7686941790222435,-0.755893407027231,-0.5929256213596509,0.34953634424801905,1.488693456348444,1,left
7.632000000000001,0.14092625228527855,1.3792595525656062,-0.11305448585701186,-1.8168936820683435,0.8628967407560726,-0.8256164419926977,-0.5870365015626315,0.3477874364583522,1.4743050690076989,1,left
7.635,0.13695718522554645,1.3829100295636465,-0.11193166951176634,-2.438208235771275,1.2585133211002275,-1.1183871577525637,-0.5869456666873754,0.3477455241655911,1.4740675370820902,1,left
7.636,0.1239044202262357,1.3981070836895526,-0.10465693274131638,-2.5861694961982336,1.3526835611682957,-1.1880986290269706,-0.5900500466463696,0.34869899421810946,1.4816850901115983,1,left
7.636,0.1035839195469091,1.415962698575491,-0.0964263428105508,-2.4739854823427194,1.281284506680644,-1.1352441745630668,-0.5863279892745522,0.34754974057688365,1.4725456094776335,1,left
7.641,0.08796752817212587,1.4236499369975457,-0.09309092232565716,-2.5416726092601687,1.3243907690325007,-1.1671411465238086,-0.5892314272963894,0.3484548667615802,1.4796839308656224,1,left
7.642,0.0690510844219838,1.4335923987938417,-0.09084506515079456,-2.514069838802685,1.3067362406251952,-1.1541137416850868,-0.5876681819295464,0.347972156849529,1.475845386939039,1,left
7.644,0.05234137156479622,1.4406318492444987,-0.09167073011123475,-2.513814662327805,1.3067405566431631,-1.1540374830525413,-0.5880044365149847,0.348036499181931,1.4766300225781603,1,left
7.644,0.04163512767393698,1.4483125001231576,-0.09418384385373452,-2.5280677091687553,1.315579926091256,-1.160691169845441,-0.5884767884498293,0.34829142650451217,1.4779032087639958,1,left
7.649,0.03063415581807424,1.4566216012460393,-0.09326619536507387,-2.510953535688035,1.3049160019328179,-1.1526887117699829,-0.5876597634296788,0.3478514741505463,1.475702030650241,1,left
7.65,0.020515904909835507,1.4632134689303848,-0.08859318127053492,-2.5243463012795373,1.313343259503183,-1.1589728295862218,-0.5884563123879523,0.34832996900086866,1.477899536005416,1,left
7.654,0.013266551975904262,1.4767773862164735,-0.08213586628814948,-2.516927761001218,1.3084212662638883,-1.1554243847195202,-0.587906150853146,0.347973783854269,1.476355062750447,1,left
7.654,0.006254228461230874,1.4925861266318563,-0.07293285975038569,-2.519084057524724,1.3104329656078568,-1.156610439517784,-0.5881013490587669,0.3480301224565287,1.4768302879774682,1,left
7.659,-0.0012922145416969628,1.5074685890143913,-0.0558391776712819,-2.5201554945302296,1.3100153350889323,-1.1568224853298692,-0.588289640505671,0.34844340196315315,1.4776615787167753,1,left
7.66,-0.005273897836555462,1.5278965981677706,-0.03739612271137589,-2.5178701116703968,1.3099093978755847,-1.1561049224415951,-0.5877515264220337,0.34746687423914213,1.4754983681756046,1,left
7.662999999999999,-0.007401936878337619,1.5546783086583968,-0.025584395416321078,-2.520161975469872,1.310293337037776,-1.1568983581812644,-0.5885291777668042,0.34891622213227425,1.4786641320227711,1,left
7.664,-0.008643985841674747,1.5856609006074254,-0.017464472151809768,-2.518058809400334,1.308944415329419,-1.1559049549303955,-0.5877335104722479,0.34738106902698374,1.4753707558738878,1,left
7.667999999999999,-0.006942806442923988,1.6252129994268585,-0.02214566210230137,-2.5205236537474356,1.3125094798854213,-1.1575976148367428,-0.5881934722400752,0.34826820661458213,1.4772743018166112,1,left
7.669,-0.009354076560758831,1.672270463993475,-0.04161168118465065,-2.516982637464528,1.30569469035134,-1.1547147881124344,-0.5885166395363397,0.34901093961140195,1.4787357398313998,1,left
7.672000000000001,-0.022863985476968964,1.721757142570284,-0.06769269226735516,-2.5217637669742907,1.3155414606075306,-1.1587794195808125,-0.5870077104244407,0.34573185357733516,1.4721080729848166,1,left
7.672999999999999,-0.04970880049018676,1.7733689010820848,-0.09280200561419542,-2.5167608999439057,1.305104895650184,-1.1544903913388875,-0.5898104190915197,0.35181442246023664,1.4844100949658614,1,left
7.6770000000000005,-0.09080748153119195,1.8200575848133036,-0.09768074461572825,-2.519503269824396,1.311039882507298,-1.1568992304605672,-0.5862180823323193,0.34400586172395614,1.4686292901518772,1,left
7.678,-0.1418227470989193,1.8590087342326802,-0.08697422255054404,-2.5225998987059177,1.3166251047711377,-1.1593193176526042,-0.5892138282708633,0.3505241109159566,1.4817961471836196,1,left
7.682,-0.20256393561931857,1.8866941400949502,-0.06152278349908573,-2.510248257883519,1.2929515644908327,-1.1492902519208559,-0.589126212853297,0.35034513224650415,1.481422969074806,1,left
7.683,-0.26693265760501184,1.9021152519935187,-0.021473415438506425,-2.5329363118061994,1.3367131717534537,-1.1677878247868707,-0.5834440783302672,0.33792657502704404,1.4563921105434499,1,left
7.688,-0.3263769618357293,1.9071840123810975,0.01636583217607747,-2.503854616188522,1.2805557076216991,-1.1440586782453823,-0.5974134653235994,0.3684521128010644,1.5179248898462894,1,left
7.688,-0.3860897521938961,1.8914204664142686,0.07204511530557547,-2.528110402978255,1.3274210346794337,-1.1638599578922864,-0.5742540235178757,0.3178391657490161,1.4159054075876925,1,left
7.693,-0.41907780272180806,1.8718548419697176,0.11641372847655163,-2.5275367177375543,1.326212041192972,-1.1633588568503956,-0.6047974568274399,0.3845972184878955,1.5504607161054262,1,left
7.694,-0.4242738639773707,1.8643005956268106,0.12870543381281851,-2.481021468429916,1.2366653222616906,-1.125486950213713,-0.7330042663858315,0.6648027772783445,2.115242794558345,1,left
7.695,-0.44383239507079486,1.8372982397907232,0.1769618302849779,-2.595245105875861,1.4566786997670071,-1.2185309448735084,-0.763541841762281,0.7315607486627955,2.2497860382082635,1,left
7.697,-0.45174949445515034,1.783616791986074,0.24217307318325068,-2.4058944488065697,1.091922944847535,-1.0642694371467023,-0.7403901749414508,0.6809483131386049,2.1477831197167587,1,left
7.697,-0.4415915979830347,1.7503355608248072,0.2659459981416534,-2.655626880826329,1.573005181681269,-1.267740123592796,-0.7543568822545929,0.711472384316875,2.209308429836648,1,left
7.702000000000001,-0.4381059993775944,1.7395592844142889,0.2739715053785,-3.7039863667543393,3.5924171893335743,-2.12185717064201,-0.7486642181976741,0.6990566276603016,2.1842599053709075,1,left
7.702000000000001,-0.41288032912282924,1.7046554272887429,0.2890981813987701,-3.9536667298928583,4.073413341341563,-2.325337308118709,-0.7486062690290782,0.6988736892594136,2.183941862633959,1,left
7.702000000000001,-0.37028579221480407,1.6604591422057213,0.2995106951918307,-3.7644148313109147,3.708814143495577,-2.171062190166408,-0.7515538666126175,0.705395961757691,2.197015955899879,1,left
7.707999999999999,-0.3332391100234038,1.6332070581141758,0.2978262061829507,-3.8785096304838267,3.9286383134383573,-2.2641142849093137,-0.7480164870775687,0.6975854609440926,2.1813446514799733,1,left
7.707999999999999,-0.29644453580532804,1.6094413376477341,0.28395442596505127,-3.8321172952081044,3.839245742756616,-2.226251580245007,-0.7507824618714185,0.7036650296801101,2.193567619993895,1,left
7.712000000000001,-0.25738924982562994,1.5864600685961787,0.26291276000737906,-3.831486103121482,3.838014462802794,-2.2257141674645853,-0.7492563449022613,0.7003964519850925,2.1869192161148883,1,left
7.712000000000001,-0.21630288705711448,1.5634295585832452,0.24136039779202756,-3.855658642158459,3.8846640369570524,-2.2455807315205676,-0.7496864942018628,0.7011205457740739,2.1885735344370736,1,left
7.7170000000000005,-0.17587119209142626,1.538886232848585,0.21699384878960096,-3.826866835883379,3.8290308510858835,-2.221770060107885,-0.7499328240656622,0.702031165509333,2.190073174546482,1,left
7.7170000000000005,-0.1331468742938156,1.5113199224220275,0.19342139885741105,-3.849045400759219,3.8719915896329344,-2.2403334800595607,-0.7494304414725415,0.700476360502923,2.1873514719509206,1,left
7.721,-0.08726665822577917,1.478938725108736,0.17598934353433857,-3.837330653644161,3.8491920701897016,-2.230303743553855,-0.7499278189375999,0.7019276861677848,2.189947998704376,1,left
7.722,-0.03984113206418331,1.4431033458537001,0.1600200985026796,-3.839899461548553,3.8542397510672193,-2.2326044133117153,-0.7494941186440729,0.700982682558905,2.188040868463067,1,left
7.728,0.016672745683749567,1.3990547353336393,0.14315676566144392,-3.842686432707114,3.859808065959605,-2.235288017676506,-0.7499573071871708,0.7013200274089235,2.189329519958825,1,left
7.729,0.07740776996057196,1.3525315699211757,0.12441093845826026,-3.8385469053463273,3.8511939369074644,-2.2305885333234365,-0.7493302735506406,0.7014927299372208,2.18828563756555,1,left
7.732,0.1309694434823796,1.3098047098266323,0.1072232410063599,-3.8412689064490473,3.857538509041078,-2.235089774343046,-0.7501623600648188,0.7010088087802384,2.189387540099662,1,left
7.733,0.17889165130312723,1.2673005409198885,0.09269065576922343,-3.8408639854832147,3.855408105734479,-2.231959155838516,-0.7492945760420201,0.7015672335122429,2.1882978185251503,1,left
7.737,0.2209351141677856,1.2280464393220194,0.07292741881749709,-3.8399158485187264,3.8546579132255236,-2.233418774932055,-0.7497655974115933,0.7011773019459717,2.188793296013353,1,left
7.7379999999999995,0.2537294854730647,1.192383467979517,0.052919588855017394,-3.8398864759343634,3.8546109567206237,-2.233414805935835,-0.7503221562404369,0.7011728870253662,2.1898845151358213,1,left
7.7410000000000005,0.27901362482618197,1.158388406356441,0.051662680632922606,-3.8436813771349017,3.8599243560652226,-2.2323654037921106,-0.7481327671056168,0.7017364193799422,2.186196255547186,1,left
7.742000000000001,0.29885916877107244,1.1265257903928594,0.07403705386434485,-3.8341491840691573,3.84612544894936,-2.234062707056613,-0.7521485591325738,0.7005917828963129,2.1928394818057235,1,left
7.747000000000001,0.31571050904409426,1.0924312919830563,0.10869784297462168,-3.849077717655154,3.8680751678942817,-2.2321079325660285,-0.7470020355761764,0.7020857563064699,2.1843539709764563,1,left
7.747999999999999,0.33123089443634823,1.0575470744948285,0.14928195662360635,-3.8327492577021487,3.8438783079221244,-2.23385396254272,-0.7512946181717058,0.7008260419416287,2.191419156258544,1,left
7.751,0.3516648905303367,1.0176329899559509,0.19148598483019785,-3.842317155547951,3.8581157332655542,-2.232953953724331,-0.7511938132861236,0.7009027011061515,2.191298933727353,1,left
7.752000000000001,0.37882137344798517,0.9724943061130129,0.2312477001251796,-3.850616482637848,3.8704891606558336,-2.2322195516693926,-0.742958162835434,0.7031723115886616,2.1775963480322496,1,left
7.757000000000001,0.4080624832480105,0.9326817330096111,0.26703708145490856,-3.8141283700407858,3.8160190408923746,-2.235296807236713,-0.7631823553469816,0.6975371912537034,2.2111899266283173,1,left
7.757000000000001,0.44354134478422147,0.8875701066767453,0.29127605977001114,-3.8819509925770412,3.9173321648571378,-2.229716917437001,-0.7296542664424122,0.7069020141197433,2.1555144699217834,1,left
7.761,0.46616234985519034,0.8558556340384275,0.3009766756931507,-3.7947551198196927,3.7870334932660463,-2.2367929957504034,-0.7738774005266493,0.6945405683922565,2.228945871192374,1,left
7.7620000000000005,0.47299930743696456,0.8482169749536143,0.3014358826441168,-3.8676012501145647,3.8959094451860508,-2.2309274981664675,-0.9595219909395942,0.6429574240032827,2.537351199122191,1,left
7.7620000000000005,0.506399495594131,0.8139177887243472,0.29847148257929573,-3.865624840741651,3.892956946758004,-2.2310809314528424,-1.0037469751956536,0.6306096902811806,2.6107943073013593,1,left
7.765,0.5499933643908956,0.7669008613715593,0.30150102422888914,-3.726651450677574,3.6852082779868836,-2.242211331609168,-0.970217351531432,0.6399272854027389,2.555095946513298,1,left
7.766,0.5809993396349658,0.7327408271162485,0.3099407607268827,-4.06827894767537,4.195914330602294,-2.2148962219629382,-0.9904391285644383,0.6344012568779752,2.5887209709608756,1,left
7.771,0.625411921673222,0.6827126464738678,0.3103487093365267,-3.501799967044192,3.349059056249534,-2.26014697891378,-0.9822135283323774,0.6364835423458148,2.574985639876196,1,left
7.772,0.6541333015698397,0.650384944650594,0.3067506838003069,-4.249021542311069,4.4661259547217025,-2.2004952167568756,-0.9820933773450832,0.6368052349072661,2.5748859290284996,1,left
7.773,0.6619529784436772,0.642805766986954,0.30511595010417286,-7.385363742380894,9.154848638107572,-1.9499918756643733,-0.9864118743644549,0.6353207048297769,2.5819616905246634,1,left
7.776,0.7003400484242224,0.6062671566365896,0.29257462953365426,-8.132635764407624,10.272003274994663,-1.8903841684181153,-0.9812418237431357,0.6368805221745787,2.5734157020755135,1,left
7.777,0.7535464020922373,0.5579713533445457,0.2723886703770608,-7.566088044333742,9.425025780625482,-1.935575708956625,-0.9852635365653429,0.6360009223535326,2.580177770842462,1,left
7.78,0.8016108204531265,0.5199256024345094,0.2546842044615927,-7.907744935471909,9.935792400984678,-1.908283387960294,-0.9831040989203707,0.6358317425611018,2.5763277319455744,1,left
7.782,0.8573010031030239,0.4778535697059794,0.234665332921238,-7.768849198567423,9.728159317830048,-1.9194875419022837,-0.9835809469404982,0.637024323668695,2.5775724206795823,1,left
7.785,0.9109433480388033,0.4381559541958966,0.21295527075352294,-7.766636633754807,9.72482497736616,-1.9194259300072223,-0.9841797919446398,0.6352323341326522,2.5780121960676405,1,left
7.7860000000000005,0.960819840396193,0.4024727175181443,0.19208243984274254,-7.839876667757648,9.834355015698467,-1.913913883836226,-0.983165248686701,0.6368100282228657,2.576769146797547,1,left
7.79,1.0089892228500421,0.36820421978724016,0.1710977234819838,-7.752219462984831,9.703271843845894,-1.920581634519358,-0.984099229373342,0.6365614969690258,2.578324522618489,1,left
7.791,1.0495648487976723,0.3413508158596148,0.15221189926508588,-7.8203694423966645,9.805170770572019,-1.9152826043707587,-0.9835078917098881,0.6343233737634533,2.576522048328905,1,left
7.795,1.0841406413618584,0.32055724148117903,0.13739688270802897,-7.7839818259067055,9.750804421545165,-1.9184692860273638,-0.9837021732496174,0.6397601719717205,2.578718978571456,1,left
7.796,1.1117102523906914,0.3050579834916789,0.1311594530528856,-7.7914488442464,9.761863257303933,-1.9169674658766773,-0.9838199424165016,0.6315359863741652,2.5761188255823564,1,left
7.8,1.1342495867858156,0.29431182439247017,0.1353268943475957,-7.802739500663815,9.778922176583537,-1.9176252497768977,-0.9835451045398987,0.6403448101422915,2.5786424258239733,1,left
7.801,1.1529970109309216,0.28384974186307044,0.14416230215867515,-7.783990365583969,9.750672000124398,-1.9172094866012461,-0.9838042144556213,0.635226819283623,2.5773512350259487,1,left
7.803999999999999,1.1602759035387924,0.2772157120430013,0.15603082614258457,-7.80130630857917,9.776735130243486,-1.9173514733785522,-0.9837157090153564,0.6309029520805496,2.5757192120320127,1,left
7.805,1.1595684387540441,0.2764338272929207,0.17044042306969018,-7.790742560882348,9.760943499205522,-1.9182085119785854,-0.9835274170720639,0.6499888344807209,2.5819034907264156,1,left
7.81,1.1561299741720295,0.2747867296833266,0.1833900184016225,-7.792521546071274,9.763277530893928,-1.9152379298405378,-0.9840130107052574,0.6145549474296251,2.570662139728448,1,left
7.811,1.1477126943700506,0.27301046735430295,0.19319399640013124,-7.799010328849093,9.773723188939417,-1.9211836771384183,-0.983339737411712,0.6600686259222515,2.585013083997367,1,left
7.817,1.139563803901218,0.2727870353209568,0.201208185463631,-7.786803927954649,9.754362411167273,-1.912515585322804,-0.9839237992120644,0.6220639065581117,2.573069958629403,1,left
7.818,1.1304141292897123,0.2711358182931032,0.20708052545882574,-7.800284518166655,9.775702700142038,-1.9217183452269482,-0.9838730691356001,0.6231058623832642,2.5733323428590733,1,left
7.819,1.1194928706267087,0.27167043737617075,0.20729437106473994,-7.7917560983873155,9.762264988257451,-1.916460340193597,-0.98285144631467,0.6955389704221875,2.5962652625578695,1,left
7.82,1.1108128477941732,0.2722604153786701,0.20318284731793612,-7.788074486664655,9.756174346901227,-1.9116338396018169,-0.985414783221574,0.5174854609951902,2.5399916599694894,1,left
7.825,1.0971601878690391,0.27123133136186295,0.1966856390260695,-7.810188058830525,9.791814608791633,-1.9322757173940919,-0.9811424959609204,0.8127179666568958,2.6332546462298954,1,left
7.825,1.0861307615407219,0.2737272709179618,0.1907104619256494,-7.7681017914602055,9.724104648310636,-1.8940819650007303,-0.9867887567416298,0.4232991321914441,2.510264166946826,1,left
7.829,1.0822623567832403,0.27297005245272676,0.1873863118181942,-7.822375080981498,9.811400553173083,-1.9431052062511318,-1.0104086368965524,-1.2111953628830392,1.9938292468966898,1,left
7.83,1.0700977041554838,0.2697242768534557,0.17981530803207496,-7.776983287822865,9.738391327900676,-1.9021858757324064,-1.01606409521963,-1.6006265353594382,1.8708612952947605,1,left
7.831,1.0500525514158983,0.2663253025035188,0.16325105434014292,-7.778551502793066,9.740893817832132,-1.9032636077566032,-1.0117781783347568,-1.3053796579622936,1.9640937976001438,1,left
7.835,1.0324874147328935,0.25772200317527494,0.14488256596062604,-7.863955237789432,9.878344829804968,-1.9813867304224615,-1.0143507598039956,-1.4834317132146504,1.9078325684908977,1,left
7.836,1.0180368780039215,0.24998948585906205,0.12515604996614102,-7.653676759500571,9.539921303522686,-1.789404389439489,-1.013335284679855,-1.411035415945907,1.9308017171376515,1,left
7.8389999999999995,0.9977693520832327,0.24217210041042017,0.08975871641143535,-8.002382236837452,10.101152592070568,-2.1077114056404196,-1.0132533822313854,-1.4099092675219698,1.9309563413759996,1,left
7.84,0.9833809101518183,0.23692367997830768,0.0616823520205293,-7.542493799734708,9.360940728718118,-1.687866027741735,-1.0138965057003166,-1.4480386966975762,1.9191915872299008,1,left
7.841,0.9792440463061707,0.2357624537707947,0.05442769382999527,-5.611959708802585,6.254004820678625,0.0744642985734158,-1.013146473852887,-1.402395843504189,1.9333351011031634,1,left
7.845,0.9544047575424407,0.22631903851338941,0.03054330585945167,-5.152220622893974,5.513967876467972,0.49431523158245605,-1.0136985113633659,-1.4378947328172287,1.9222386082155039,1,left
7.845,0.9139605320599901,0.21208494756827376,-0.003361309234914325,-5.500764511723609,6.0750099151345625,0.17600220396785135,-1.0134993465944522,-1.4188984237324225,1.9284734571877953,1,left
7.848,0.8759066425928612,0.19542337840618146,-0.027827763720224805,-5.290424577398968,5.736514406555385,0.367982263124032,-1.0133137639627492,-1.4228970197381394,1.9264590945536144,1,left
7.849,0.8356269667411578,0.17166680448554011,-0.044251062511037,-5.376364313328315,5.874593190427653,0.2898790686837872,-1.0138151389534822,-1.4285963192704805,1.9259512711988267,1,left
7.853,0.7989920967623476,0.14579213176245165,-0.0432722391539284,-5.376779253807564,5.875744956329644,0.28875845298878533,-1.0131633291399424,-1.4190519369727816,1.927381170467212,1,left
7.854,0.7685743278311263,0.1190913701398562,-0.031081385135122652,-5.333041022903579,5.804672390058758,0.32973927445572837,-1.0137006496680172,-1.4278956360223884,1.9258506623371663,1,left
7.859,0.7454840392496356,0.08967058437720779,-0.008410177259167994,-5.385667708706741,5.890039793194635,0.2806547954743499,-1.0136246580509167,-1.4223881705447283,1.9276019536457976,1,left
7.86,0.7299325244990285,0.058542603132289796,0.02829435278682288,-5.344291921822347,5.823161933481938,0.3188749811772954,-1.0128834444575001,-1.4236514485089664,1.9248588581907153,1,left
7.8629999999999995,0.7187041764817412,0.028643704820904007,0.06871198625611523,-5.367819448541143,5.860458250104291,0.2982856650607212,-1.0146567402944051,-1.426265958657258,1.9293891162144954,1,left
7.864,0.7170287680699085,0.0018945881482101768,0.10666417377521606,-5.359583095550388,5.849033049901867,0.30294280900456294,-1.0119924042549981,-1.4210480371397614,1.9230474412405048,1,left
7.867999999999999,0.7260869300923076,-0.02157173234356181,0.13793755800117838,-5.358902685714497,5.844786975244573,0.3084926458108096,-1.0148360125156635,-1.4268557395722603,1.9297298578817854,1,left
7.867999999999999,0.743812584132008,-0.041112836525678695,0.15789923207105205,-5.362751800466947,5.854846854496264,0.2989317105906037,-1.0131876328621594,-1.4231126227253172,1.9259918125631483,1,left
7.872999999999999,0.7645019446761927,-0.05632411629914581,0.16803252530246354,-5.35822407511049,5.844479311881997,0.30788539364567713,-1.0117936742578295,-1.421805301003994,1.9221612025483805,1,left
7.874,0.7774707437464176,-0.06554912966995663,0.17392627368016064,-5.364781291706738,5.855005235583038,0.3019421073565404,-1.0179380743594524,-1.4306682669630701,1.9379290991667424,1,left
7.879,0.7825337428040654,-0.07042910164449218,0.1735980642724582,-5.352310674094561,5.8406499190205095,0.30438290023383524,-1.0065357212979764,-1.4136649721548875,1.9088682080767934,1,left
7.879,0.782731610413915,-0.07477108021045592,0.166613470371257,-5.374311998483873,5.862998780936691,0.30473675921985666,-1.0211780708231701,-1.435625018836142,1.946142026472948,1,left
7.882999999999999,0.7783992940014227,-0.07913887179088464,0.15839625145030073,-5.343046153645073,5.83216266181263,0.3027881865255555,-1.0089540851357723,-1.4172404940698295,1.9150424481978479,1,left
7.8839999999999995,0.7699801061726939,-0.08333333704488374,0.1490524390810765,-5.376086347000732,5.864568242001917,0.3051299662084282,-1.009285766918075,-1.417935010941331,1.9158169376851233,1,left
7.888,0.7567603953052788,-0.08603654045196038,0.13812980561736593,-5.357453528385145,5.846581015034373,0.3033590791428331,-1.032589791479416,-1.4523438737182381,1.9753336160932518,1,left
7.888999999999999,0.7423106901048255,-0.08691621809649136,0.13009367909598912,-5.339124082611875,5.827426393472949,0.3039021555929403,-0.9753123795959793,-1.3675398074779839,1.8291328849917554,1,left
7.893,0.7273001335044327,-0.08844885286607798,0.1306085827385508,-5.415630671165648,5.905282670176551,0.30491302279471244,-1.0702779785449814,-1.5082074933434517,2.0715123345370703,1,left
7.894,0.7168190456237515,-0.09082029020850704,0.1334586243508536,-5.274418510547509,5.761975913279162,0.30242700064202765,-0.9450235723966501,-1.3226643529366502,1.7518279695270629,1,left
7.898,0.7142682544398669,-0.08953729288033863,0.13461990978578808,-5.4555914504418315,5.945746169286689,0.30575624515222766,-0.4192721368524896,-0.5441268921864437,0.4098644872658007,1,left
7.899,0.7086915740600757,-0.08581401298036728,0.1422883027867804,-5.3043998939855115,5.7924251527832835,0.3029214977301876,-0.29403396102846185,-0.3586123947026767,0.09021022897792305,1,left
7.9,0.7057706644635942,-0.08096526393462034,0.1557417566485784,-5.3082597415039885,5.796194556614788,0.30321072209260624,-0.388971088084756,-0.4992467787464899,0.3325309038096268,1,left
7.904,0.7109838505973985,-0.07384225564734427,0.16973222179429098,-5.597314104295256,6.08979295764598,0.3079184885937474,-0.3317256471101818,-0.4144391154594378,0.18641058911968153,1,left
7.905,0.7185740598549706,-0.06736796747614424,0.18326044537544406,-4.887128127502807,5.368612473702815,0.29609724261104853,-0.3550082408436073,-0.44893389114166404,0.24584399102353532,1,left
7.907,0.7337214806118301,-0.05437448469895955,0.19720312584782176,-6.064576090454036,6.564251350708394,0.3157619203003529,-0.3553328019004517,-0.44943227652901807,0.24666984038910428,1,left
7.9079999999999995,0.745247332037182,-0.041833312962010274,0.20704829613923345,-4.5115405507046,4.987202086155941,0.2898183270463609,-0.34316164592572934,-0.4313379950515855,0.2155989614622506,1,left
7.909,0.7474971499651599,-0.03733965613498431,0.20944851740700177,2.007443380639465,-1.6335535834058477,0.18117586475998435,-0.3576981475466461,-0.45299773912981356,0.252716360423507,1,left
7.912000000000001,0.7592893883747556,-0.022919447831206332,0.21338559472594618,3.560457161170354,-3.2107936979672416,0.1552481332956754,-0.34644033951266573,-0.436144969147227,0.2239603761940805,1,left
7.912999999999999,0.778733900367497,-0.002841961213838151,0.2184122262673885,2.383089241711632,-2.014792062136431,0.17490812309361847,-0.3524477888052341,-0.4452175318775827,0.23931549513758815,1,left
7.917000000000001,0.7960681167146981,0.01532973485463111,0.21649650368162998,3.0930840423605033,-2.7364475315684484,0.16303616845261543,-0.3511030517274458,-0.4431519965005887,0.235873444098436,1,left
7.917999999999999,0.813440479047224,0.03790707425418107,0.20792156392630914,2.804364176942613,-2.4423929309737025,0.16789194596932722,-0.3495923115330063,-0.44076244677765963,0.23200004178026518,1,left
7.922999999999999,0.8260408281560836,0.06106526887806135,0.19362749460698034,2.800060246007021,-2.438842761810042,0.16792355539833037,-0.35203086264731037,-0.44485894940409065,0.2382815594792443,1,left
7.922999999999999,0.8296746411297137,0.08664017772471441,0.17514495303103894,2.9516678623314316,-2.592459756589612,0.16540946025374903,-0.3500420502952649,-0.4410799867481524,0.23310614421037998,1,left
7.928,0.8282154653131223,0.11583761783210847,0.1558816685309915,2.7703562318339934,-2.407632464071903,0.168480248883903,-0.351010009390493,-0.44353540918969836,0.23569856926372598,1,left
7.928999999999999,0.8236007008985582,0.14662802430393704,0.13766551248264072,2.9111164486788774,-2.5528108093043524,0.16599276113751726,-0.3508759098916796,-0.44252260840045815,0.2352591267011656,1,left
7.932,0.8180619751065255,0.17872173857950133,0.11844589314524837,2.8359081821709466,-2.4726007204218217,0.16748589953690873,-0.3508852493153595,-0.4425287958915336,0.23528225868791208,1,left
7.932,0.8147013182383414,0.2086838914440284,0.0999594810059218,2.852084228738163,-2.493726223697132,0.16692334789244334,-0.35011292441462083,-0.4428965037182502,0.23349084086794944,1,left
7.937,0.8130218544773877,0.23815490490018784,0.08661189041723914,2.8732754275931898,-2.511503779952675,0.16680317882272322,-0.3523090615392677,-0.4426953464529698,0.23868501314844956,1,left
7.938,0.8129416328353751,0.26767423778034183,0.07378848957421492,2.8383193537667832,-2.4759704820720865,0.16738930709473132,-0.3486777040382817,-0.4424692031718835,0.2300299433990182,1,left
7.942,0.8124392304285564,0.2925237049664733,0.06106724715620585,2.869283231166748,-2.5143599077774477,0.16643655604303711,-0.3527564617758473,-0.4430180225612256,0.23978636716050467,1,left
7.943,0.8103167317217288,0.31364701785147886,0.05138174658651761,2.8514926710237805,-2.48042482138262,0.16772947503418573,-0.3503331922492946,-0.4426020922259109,0.23397933033140245,1,left
7.947,0.8078795202776163,0.3336113013203863,0.04143959666466149,2.8548533902670643,-2.5075091375663137,0.16618742415350865,-0.34821744005251665,-0.4422045116732639,0.22890464565459157,1,left
7.9479999999999995,0.801619770589943,0.3499228241969976,0.030955249395111715,2.861481620239835,-2.4890064472601177,0.1676610018639168,-0.35755836875038566,-0.4440665497095648,0.2513208258806717,1,left
7.9510000000000005,0.7938149100266683,0.3618131221666004,0.021876312326593907,2.8524385348191643,-2.4944034148255354,0.1668965412390287,-0.34015858754147166,-0.4404988360477742,0.2095537456251959,1,left
7.952000000000001,0.7884783485973292,0.3695223139271862,0.01780350837131058,2.855622171045776,-2.5102034053273004,0.1660541910281652,-0.36255425723283313,-0.4451597527350889,0.26332095416028123,1,left
7.956,0.7843749674713152,0.3725362371034916,0.016669668403546223,2.864864886203375,-2.4645873671910206,0.1693538396651474,-0.3438330141856911,-0.44123191379030474,0.21837206531651623,1,left
7.956,0.7818025514733529,0.36973048020586974,0.01436793362867445,2.8409665161118425,-2.5423215907619943,0.16334731069649094,-0.34433939010538067,-0.4413395800429578,0.21958665216983192,1,left
7.961,0.7786588055493597,0.3630864077394923,0.014668826763988212,2.8746535895819223,-2.4455524499154055,0.17101002782347519,-0.38007873791772157,-0.4488864113930049,0.30540439775401185,1,left
7.962000000000001,0.7756358255073171,0.35745869621552645,0.014680139854017085,2.845244211793143,-2.525036972717807,0.16463411988552573,-0.29221751516985894,-0.4303065395916629,0.0944304397026818,1,left
7.966,0.7706297303271383,0.3489381205403321,0.01381335776901189,2.8471592140224633,-2.524016103315367,0.16478830700059116,-0.437913131691801,-0.46114146774857245,0.4442785831589525,1,left
7.9670000000000005,0.7653560611254233,0.342700434625423,0.015291921248213988,2.9011588724169357,-2.370358468187012,0.17697994209112394,-0.2457278411566968,-0.4204484689801812,-0.017202713080884904,1,left
7.9670000000000005,0.7642196947293863,0.34180223947057753,0.01492064779287978,2.7664251550266536,-2.746002478995528,0.14704726289309528,0.5609253448516597,-0.24975509996224055,-1.9541908284229623,1,left
7.97,0.7564338304368863,0.3327845067634375,0.017679887764460334,2.9907873640256897,-2.124138837154655,0.19666147335201345,0.7531177663367901,-0.2090533849330531,-2.4156915687590286,1,left
7.973,0.747318528739064,0.32500350135873296,0.023686453804988183,2.69437027395736,-2.94389645697414,0.13122787325544616,0.6074183964392947,-0.23988548377895347,-2.06582820159619,1,left
7.975,0.745480438605935,0.3240951586813705,0.024943594844683968,1.4501028833415235,-6.3847641086543145,-0.1434283474621499,0.6952626518181528,-0.2213526230662313,-2.2767735666688043,1,left
7.976,0.7397893046543629,0.31702570514373307,0.028099870418346332,1.1533787711260912,-7.204262077660999,-0.20885965947929475,0.6595778268209277,-0.22877864881890186,-2.1910680563357863,1,left
7.977,0.729167475844826,0.30982888381103146,0.03415299250158787,1.3783943229021793,-6.582969656280168,-0.1592513352915328,0.6589734648504033,-0.22908643731729195,-2.1896403401793743,1,left
7.989,0.7168043342815489,0.30680726822094717,0.039140004448560486,1.2426493671232453,-6.957692276398187,-0.18917287512060071,0.6778197282260152,-0.22491954318647064,-2.23487211211443,1,left
7.99,0.7031227130885069,0.304793856541115,0.04662903075715945,1.2978923899667538,-6.805222600559485,-0.17699793450763296,0.6553188872981117,-0.22975870715517147,-2.1808515597555056,1,left
7.9910000000000005,0.6890205507647558,0.30671283945533656,0.05308790447027398,1.2986988716591292,-6.80306182681352,-0.17682446536982804,0.672728171358044,-0.22622512476158793,-2.2226753242886077,1,left
7.9910000000000005,0.6728134973208578,0.3107584144072675,0.06113212285748465,1.269624572489382,-6.883047001399563,-0.18321469991371742,0.6635602124005219,-0.2276782486471749,-2.200597936843219,1,left
7.992000000000001,0.6566084159783239,0.316091195408469,0.07376782583509126,1.304544671255616,-6.787195385346555,-0.1755543524997902,0.6652610125825859,-0.22815769045267953,-2.2047899330493284,1,left
7.992000000000001,0.6419892753259413,0.3254358348160752,0.0835186121152118,1.277205102485036,-6.861904274307573,-0.18152896992463124,0.6683184745871398,-0.226480585400611,-2.2119993197361225,1,left
7.995,0.6253188355832515,0.33617223323548795,0.09543559612227465,1.2920921981060807,-6.821558918907566,-0.17829845559574609,0.6635472823411649,-0.2283115812767566,-2.200647976046259,1,left
7.996,0.6078484839219389,0.3456748261386948,0.11046577904626445,1.2886263799680069,-6.830804394624473,-0.1790405610092533,0.6676022160002888,-0.22746029434064413,-2.210385773389354,1,left
8.0,0.5936990098841486,0.3562190820370345,0.12211675790039578,1.2844923789316733,-6.841576166662038,-0.17990820171523222,0.665705931033777,-0.22633891209222365,-2.2056367456622037,1,left
8.0,0.579188665694448,0.36836177928108665,0.13801187279844496,1.2920522524329567,-6.82276561494473,-0.17838190768563827,0.66501230228151,-0.2299661871503637,-2.2044182129206455,1,left
8.006,0.5619098151041797,0.38016374281872756,0.15719630670500984,1.2842732071036371,-6.84069555507739,-0.1798554562783927,0.6678174924608702,-0.22417980529518403,-2.2104871578485117,1,left
8.007,0.5397895930646474,0.3888204200633809,0.16901541873318382,1.2903279839676185,-6.828329145610107,-0.17881660080695463,0.664179318941968,-0.2304858078027303,-2.2024622107297662,1,left
8.01,0.5145521930650583,0.39337961031943747,0.17547141850925296,1.2870125225513305,-6.834015973724856,-0.1793117743299941,0.6667157410382832,-0.22674944111340134,-2.2081415560082993,1,left
8.011000000000001,0.49287139708086475,0.3959233660114951,0.18143182744828706,1.287008144920681,-6.833996939416863,-0.17931035130375816,0.6675519783004108,-0.22381703624524746,-2.2097960177150044,1,left
8.016,0.4711994219751737,0.3941011711384272,0.18539744609794961,1.2907391089598135,-6.830128272928091,-0.17892584091950758,0.6614013219585304,-0.23718339811002,-2.1965760532168623,1,left
8.017000000000001,0.44963136378450663,0.3887174535102621,0.1925147218887362,1.2832344221875318,-6.836149519682776,-0.17957988349641452,0.6733961212089199,-0.2122685227237194,-2.2225045465158044,1,left
8.019,0.43114506822146104,0.3843217400321477,0.20592784440589357,1.2935886434987505,-6.829489414357077,-0.17878923276412587,0.6577824042440564,-0.24430756209746873,-2.188703318930503,1,left
8.02,0.4148899843241937,0.37792178684314337,0.21563890957057313,1.2830426754768982,-6.835231690027806,-0.1795241620541593,0.6709066300270178,-0.21753752765132695,-2.217135032740056,1,left
8.024,0.4001975055626141,0.37168496114574306,0.22687685299458843,1.2889789523008965,-6.83234741227948,-0.17913332671592752,0.6704144651134225,-0.21829896369895882,-2.2160395164146953,1,left
8.025,0.38451830568407325,0.36851628575024137,0.24310764553244324,1.2940307013961534,-6.830042686908627,-0.17881347894028377,0.6457537829787503,-0.26924796338090773,-2.1626945542382057,1,left
8.03,0.36987428689300617,0.36685922418620165,0.25542720733647295,1.272110879822206,-6.839609328448983,-0.18017716971063685,0.7065640580200323,-0.14396384478843172,-2.2942780225054715,1,left
8.03,0.35275856788794213,0.37184568707085724,0.2751704325024217,1.3125806835925267,-6.822365990107555,-0.17768568715015587,0.6056643145584142,-0.3517182953080472,-2.0759344398824213,1,left
8.035,0.3395506410311938,0.3769502145247876,0.2930157967903484,1.260740561484861,-6.844162713578186,-0.18085968544608944,0.7387760576202835,-0.07767363721320251,-2.363985320046492,1,left
8.035,0.33795408102757807,0.3779911449574798,0.2969591443114574,1.3039645846737398,-6.826115725151789,-0.17821831283263584,1.2974245026644047,1.0724673091860408,-3.57291833620316,1,left
8.036,0.3263969668388552,0.38921758683650404,0.3113935309436785,1.3027872577408055,-6.826626831681093,-0.1783000523552899,1.4305380302314783,1.3465330543855711,-3.860966078904075,1,left
8.039,0.3060488303035733,0.4034001879058591,0.33198572338459675,1.2204827872686526,-6.860715920123194,-0.18329017994580904,1.3296203693669413,1.1387524051998947,-3.642587498247613,1,left
8.04,0.2927148404499931,0.41359817926593134,0.34471208327899816,1.422746465661243,-6.777009370467315,-0.1710151491869396,1.3904865353567413,1.264039832088546,-3.7743082450343417,1,left
8.044,0.276527644814371,0.43464188570114115,0.3562319933603011,1.0874175541713003,-6.915709152694658,-0.19137151844282663,1.3657155191208719,1.2131418021476077,-3.7206716715157664,1,left
8.044,0.2649032631752146,0.4508245242430202,0.3615649229570052,1.5296889355048982,-6.732833548944029,-0.16451877812720084,1.3653827636463347,1.2122541910661417,-3.7200163022245523,1,left
8.045,0.26272674299903614,0.4534672506738968,0.36154128306504624,3.386017512639523,-5.9655485252914495,-0.052079152387426664,1.378340866884174,1.2392183507436427,-3.747966882071905,1,left
8.05,0.2546276016781558,0.46938881271320704,0.3591246080475474,3.8282644125235237,-5.7827422868021845,-0.025241031658986595,1.3628145822441202,1.2069694953691323,-3.714457465307844,1,left
8.051,0.24388206751526628,0.49363767785726065,0.3506905889932733,3.492978790189468,-5.921314481582346,-0.045546029954617456,1.374916482291566,1.2320055567551145,-3.7406078527679045,1,left
8.055,0.23446215513777166,0.5141875825475646,0.340010511917752,3.6951930301750977,-5.837765481855602,-0.03339091481485643,1.3683570330744081,1.2187487316735832,-3.726335882016488,1,left
8.056000000000001,0.22691192411980332,0.5391382390783273,0.3244124178085134,3.612923388691328,-5.8717198660232945,-0.03817389046242776,1.3699359902224737,1.2212067701010816,-3.7300003898259853,1,left
8.06,0.22438899276099444,0.5639725171871324,0.3009978913975748,3.6117530888516898,-5.8722645010525465,-0.03852790151440541,1.3715186131045578,1.2258294784649624,-3.732999093486005,1,left
8.061,0.22410353067464114,0.5876318080346821,0.27577180748437735,3.6549014105581206,-5.8543746485853845,-0.0356350069533907,1.3687048216259852,1.2183624421380395,-3.727432629539351,1,left
8.065,0.22897690024400497,0.6132098953423514,0.24919886920063933,3.6032186507747834,-5.875758554645891,-0.038886018155155175,1.3713699992083817,1.2251839321933757,-3.732783685683045,1,left
8.066,0.23764644352552905,0.6361617134550202,0.22135497367938872,3.643468310605736,-5.85916939206842,-0.03668339915990941,1.36948426151811,1.2213138235526952,-3.728698861079799,1,left
8.068,0.24444036197341928,0.6565686603440075,0.19689736726840873,3.6217641925124284,-5.867993520958869,-0.03723877418840468,1.370580146116696,1.2210926470015833,-3.7318438616022136,1,left
8.068,0.2500369015375442,0.6762961896768298,0.1794244437930283,3.626724600042677,-5.866193552784209,-0.03824591012448998,1.3699560750403568,1.2254691227708223,-3.7287263275256457,1,left
8.073,0.2579639489711325,0.6955461799978544,0.16958599337290353,3.6324757349267633,-5.86351063988106,-0.03629348845170147,1.370436909210445,1.2180133072754766,-3.732402504170973,1,left
8.074,0.26758982990769825,0.7140955001924519,0.16438180792859391,3.622520587277397,-5.867868731814595,-0.03817506274067599,1.3700079546697763,1.2261337099938425,-3.728665125605336,1,left
8.08,0.2745114685219987,0.7298973209195176,0.1625483193021226,3.631860859939339,-5.864010099428818,-0.03762038056157734,1.3701237003732922,1.2211695054364196,-3.730537798559963,1,left
8.08,0.2817753691027385,0.745752947341714,0.16114691085119018,3.6255964537120002,-5.866148914138147,-0.035628615571467265,1.3708785705525899,1.2182396736639451,-3.733572575234575,1,left
8.084,0.29063407355645926,0.7630587915854894,0.15742986622852495,3.62834394866169,-5.866042892702755,-0.04088134196993121,1.3686466483488506,1.233270128857825,-3.722616230662494,1,left
8.085,0.29787534165365703,0.7783040861461659,0.15628980079915542,3.6283193380384873,-5.864516769457749,-0.03279836424363945,1.3725928994096779,1.2049981865721613,-3.742515014428811,1,left
8.088,0.30156440787928196,0.7955745012953448,0.1565484551003365,3.62685463821224,-5.86676056248298,-0.04150536736327119,1.3675682356769385,1.2413890528923783,-3.7170584720043642,1,left
8.089,0.30100597772603066,0.8134120582051587,0.1555110389331512,3.628700899207284,-5.865049387981376,-0.03641371193371999,1.37174689345472,1.210973645166955,-3.738272240311174,1,left
8.093,0.29661629007321083,0.8310543327748089,0.156036106035735,3.62718340136649,-5.864863939355452,-0.032213554186621834,1.3716980470296063,1.2119319444034575,-3.73784545332283,1,left
8.094,0.288913463345559,0.8510318300730579,0.15495361045854156,3.6280886979514073,-5.8680559381927875,-0.05094416731938566,1.3635164475907322,1.2694813192035417,-3.696912527375671,1,left
8.099,0.28050660120321413,0.8685364698513909,0.15444749229040688,3.627765382043001,-5.8615721147682756,-0.016125464898391173,1.383552922379989,1.1278763005646093,-3.7973460099566196,1,left
8.1,0.266968105470074,0.891020678879102,0.15822475191985635,3.627691465040977,-5.870103706821285,-0.06086448331125659,1.3503469423197711,1.3626998920458755,-3.6308688724937426,1,left
8.102,0.254710232082599,0.9069706298745268,0.16050216442109672,3.627960660547558,-5.862889679435762,-0.023500826562185554,1.3941489910572251,1.0529716904353428,-3.850446121524901,1,left
8.103,0.25204778185696364,0.9113878618779965,0.16076438136844684,3.62763272031562,-5.863230452919603,-0.0245332617793136,1.5780456964339749,-0.24698021312526958,-4.772349048594512,1,left
8.105,0.24608494967592082,0.9292050111692376,0.16249719792306622,3.6279715473262666,-5.876603217651311,-0.09572255332090958,1.6218648118461725,-0.5566810366074155,-4.991941815476361,1,left
8.107000000000001,0.2351596528744943,0.951175585420976,0.16328780226499295,3.6276042280869687,-5.843515190959259,0.07928375924332637,1.5886403643160383,-0.3218870641544481,-4.825447879173359,1,left
8.107999999999999,0.22379937347784695,0.972414878080084,0.16111817412988977,3.628035119294884,-5.898472181835327,-0.21089838389176666,1.608669824937241,-0.46350335691739686,-4.925875010053346,1,left
8.113,0.2166625530028395,0.9894655375552561,0.15992564149520433,3.6275350045851082,-5.825931226216376,0.17185786020199922,1.6005494578404083,-0.4058557084817397,-4.884997706089228,1,left
8.113999999999999,0.21457231595137038,0.9928936672575831,0.15825117207667921,3.6251603488158715,-5.521688504019691,1.7784392645370248,1.600368850442805,-0.40510884597703717,-4.88445119489916,1,left
8.116,0.2056823387835188,1.0082625860608112,0.15490027793525257,3.624684923742409,-5.449073211014348,2.161206344393405,1.6047364362125303,-0.43522110546099885,-4.905836660631676,1,left
8.118,0.19508192930813,1.0310021784477597,0.15362014028452986,3.6250455598541786,-5.504159490952587,1.871005345313744,1.5995236277708567,-0.3991321001206595,-4.880209096921632,1,left
8.119,0.18827856338082266,1.0476284821159059,0.14934839410559114,3.6248223097184145,-5.4709289873324956,2.046032462000885,1.6035510818061902,-0.42727381615983506,-4.9001817595173724,1,left
8.123,0.18170173545616286,1.067343811605507,0.14349653243002888,3.6249317874755174,-5.484391756398686,1.9748299767419322,1.6014806709414624,-0.41198410060577384,-4.889372074052351,1,left
8.124,0.17496662413715003,1.0855198461015978,0.14113394810838092,3.6248849060634596,-5.4847772351828405,1.9737911352537394,1.6017151815219783,-0.4157489971566814,-4.8919340793617145,1,left
8.127,0.16518654471455688,1.1067223077041972,0.13631154296625686,3.624921182841595,-5.477308270682471,2.0111918345652517,1.6027275777747942,-0.41927439841246233,-4.8946215510954225,1,left
8.13,0.1547100916738443,1.1305455810722633,0.1261777200041625,3.624866778746263,-5.486332111194438,1.9663811318726847,1.6011981560273947,-0.4129197167057048,-4.889884004202736,1,left
8.133,0.14291068994087713,1.1487780633236777,0.11220791878377837,3.6249295125204837,-5.47919320397583,2.0012953850817907,1.6025564136099493,-0.41896789118019495,-4.8943578709607465,1,left
8.134,0.12897819861219395,1.1675420935606429,0.09571228482619164,3.6249090965600064,-5.482982594032233,1.9824774226200006,1.6019399826723797,-0.4145786935391975,-4.891246737247356,1,left
8.137,0.11687151753567772,1.1860162751794168,0.07838567681756538,3.6248098416762318,-5.482627633332264,1.9867027963542858,1.6014080122472452,-0.4174124873408419,-4.8929130611458325,1,left
8.138,0.10522914966796812,1.2021039775035842,0.06147265534230339,3.6251001512119982,-5.4802123988274705,1.991896412409877,1.603242789297919,-0.41531221838983956,-4.892208788154601,1,left
8.142000000000001,0.09640342516173991,1.2180232996681006,0.046137992916771516,3.6246022047632174,-5.484377955677807,1.9829098817038404,1.6003573036065983,-0.41739730466456415,-4.892515583790889,1,left
8.142999999999999,0.09194870353996595,1.2301110965193702,0.0327579009492575,3.625215408563742,-5.479739858142031,1.991446327891772,1.6034609685476178,-0.4153700318451763,-4.892327674801828,1,left
8.146,0.08752006966879844,1.2410560150498315,0.021864759336298105,3.6247257168570894,-5.4832425677056875,1.9856668170205831,1.6016239872083062,-0.416232535630786,-4.892216555764916,1,left
8.146,0.08655808187001843,1.2559129774041478,0.01616816201500102,3.624717831506776,-5.482814738108091,1.9880347202165933,1.600256672958909,-0.41850484096583673,-4.893206834833006,1,left
8.152000000000001,0.0898502147080063,1.2708618064375385,0.016763276619886525,3.6256401494014456,-5.478224787902964,1.9886927777900605,1.6065947126328552,-0.4110635323042623,-4.890652316800276,1,left
8.152999999999999,0.09455697342276123,1.285932176569828,0.02113571015018199,3.623534744804103,-5.488962041659711,1.985885059040643,1.5947767332914697,-0.42441064830869807,-4.895066765353183,1,left
8.157,0.10275781171645623,1.3046748314120917,0.02792451297082131,3.626675676628458,-5.473000687329163,1.9897703938995606,1.609966138367759,-0.4073753673384314,-4.889473293248359,1,left
8.158,0.10572532468425087,1.3211754928202346,0.0357758970284249,3.6233270817441756,-5.489940709154863,1.9860308537993243,1.5972791181084185,-0.42155343894444697,-4.894109214722887,1,left
8.161,0.10446229574815914,1.3369552310906245,0.0430408325088796,3.6252616624077505,-5.480149945471191,1.9881953715419864,1.5976455960682194,-0.42133369510159313,-4.894106455980971,1,left
8.162,0.10504650640313565,1.3543454466163576,0.052849142503367454,3.626931116662136,-5.471885445044002,1.9891712136808752,1.621762155619142,-0.3937665558242103,-4.884873458681497,1,left
8.167,0.10170636385231532,1.3694111289696203,0.07582671140754199,3.6196276679821873,-5.508286997586779,1.9837495416502715,1.5624587757337323,-0.4613248637698684,-4.907413965082291,1,left
8.168,0.11009365755715309,1.3923656964119495,0.10673401431639817,3.6331713521306757,-5.440763414233761,1.9938601194675016,1.6607943131516287,-0.34936660257686203,-4.870089177405936,1,left
8.172,0.12568016793389164,1.410205711582993,0.12184441409611341,3.6157810259910943,-5.527458842495278,1.9809529802025936,1.5310889229342086,-0.4970286668961208,-4.919306772468332,1,left
8.173,0.13014662813649686,1.4156471416378462,0.12338642184577849,3.6302986410515343,-5.45507852988438,1.99169273847331,0.986710121993624,-1.1172645482129597,-5.1263879359421125,1,left
8.174,0.14566412287292768,1.4328188872178689,0.1118136892676086,3.62990754056407,-5.457077054682061,1.991313176291825,0.8570085813175828,-1.264954167435151,-5.175631974057811,1,left
8.175,0.16717937949031839,1.4534623486148053,0.07493346601160356,3.602220665873574,-5.594962815958596,1.971222709438043,0.9553364685481636,-1.1529404087298194,-5.138236455077706,1,left
8.176,0.1818610491189059,1.4640157278239347,0.025725712290901443,3.6702681893013613,-5.256001196647,2.020664071559379,0.8960438493972755,-1.2205783546414999,-5.16091527633094,1,left
8.182,0.20971137302799853,1.4608716528527652,-0.02830744232654951,3.557444528370216,-5.81804174274575,1.9387014406146894,0.9201487744828557,-1.1929225493619637,-5.151469597861714,1,left
8.183,0.2306730972823262,1.4515988077578474,-0.06381747745891109,3.706256677367998,-5.07669640363848,2.046781723377865,0.9205232833524347,-1.192768282270857,-5.151718966325538,1,left
8.184,0.23579375588396484,1.446010162771889,-0.07032717682373332,4.330943190573252,-1.9656000109991312,2.5003280314342233,0.907838360463117,-1.2069527894492884,-5.15615790049851,1,left
8.186,0.25903463339662847,1.4206636923739309,-0.0840320822718933,4.47975712464167,-1.2242854839743258,2.608376106052583,0.923008674286899,-1.1897857962234233,-5.150555096209301,1,left
8.187000000000001,0.2906683144356416,1.3746651734733506,-0.09167352627166256,4.366925462915924,-1.7862066390720872,2.5264522086028354,0.9112305058053458,-1.2034224276259402,-5.155355158776967,1,left
8.191,0.3106108722311581,1.3199454546054963,-0.07481818099053457,4.434993750003685,-1.4475371475251921,2.5758930585887456,0.9175121869632397,-1.1955580631198905,-5.151929387346028,1,left
8.192,0.3192581502951781,1.2523362879742561,-0.05322534166844961,4.407268961076914,-1.5849051009852362,2.5557153792935976,0.9162012572391564,-1.1982707511648463,-5.154213539899952,1,left
8.196,0.30739490111595025,1.1828526570368632,-0.023719981555640302,4.40692982901048,-1.587597953175575,2.5555424256027157,0.9143381802234567,-1.1988981228322544,-5.152731802553404,1,left
8.197000000000001,0.27617353707602865,1.1203034562670484,0.013583415294628826,4.421396637052446,-1.514558213819003,2.5659707673869656,0.9173984034562805,-1.1966032473442794,-5.153313902830414,1,left
8.202,0.2267289229366545,1.068644441913099,0.04557145180009173,4.404027294191399,-1.6014904757347677,2.5533927022209775,0.9146603108412308,-1.1997326730683273,-5.154369589694571,1,left
8.202,0.15572656334321927,1.034357941286324,0.07072278849826044,4.417616908861557,-1.5346442892823302,2.563326058186489,0.9162367837025371,-1.1957284259125518,-5.150534317270905,1,left
8.206,0.06777258446694658,1.0210485175853312,0.0882514300769586,4.410168744510701,-1.569046116480068,2.5577030078682528,0.9160269645043863,-1.201014092463612,-5.158010057399311,1,left
8.207,-0.03847397262568401,1.030654647621711,0.08411086389088719,4.412086400741571,-1.564132880052686,2.559467193620622,0.9151450119023162,-1.1944904431895633,-5.147311250988309,1,left
8.211,-0.15861607490160617,1.0596395935748042,0.051495900877964476,4.413717063812944,-1.55032222846118,2.56019414890993,0.9165226042835152,-1.2009461339394274,-5.158551013115052,1,left
8.212,-0.2857086784854858,1.1038433367265683,0.0007666345398793413,4.41061002689149,-1.5703323078347209,2.558302854575113,0.9154330827330501,-1.1975508504803631,-5.152166506532501,1,left
8.216000000000001,-0.41210283939852177,1.1575264359610218,-0.06337376373645784,4.413754743924961,-1.5547074155689513,2.560589439237522,0.9154065976192816,-1.1935832496531096,-5.146321715904639,1,left
8.217,-0.5288809345757114,1.2152340190928386,-0.14434532827489116,4.411197257957305,-1.5590377269730227,2.558055310964689,0.9172066403816341,-1.209026437589728,-5.17127304266553,1,left
8.22,-0.6310926826984242,1.2734620719274679,-0.23898919008846733,4.413149893767707,-1.568530337674749,2.561020810649696,0.9134701027155282,-1.180841760301369,-5.125147109022301,1,left
8.22,-0.7041503283593239,1.3215336063962115,-0.33190608573534763,4.411607104140088,-1.547541128716718,2.5575915923053785,0.9184122069267714,-1.216866917825035,-5.184325051271649,1,left
8.225,-0.7536294353214922,1.3535155055259898,-0.4205445031379388,4.412751075293145,-1.5724143401455084,2.5608836422054457,0.914224319768022,-1.1868633958196202,-5.134936910932486,1,left
8.226,-0.7696981542128531,1.370638018179268,-0.4915446653726963,4.412424759895746,-1.5563675393785676,2.559224729592348,0.9144342757738242,-1.187562150630407,-5.136253019190602,1,left
8.229,-0.7439459474743328,1.3717915215087688,-0.5312994234289724,4.41110300663339,-1.5477429100399114,2.5570383822730225,0.9221637577380634,-1.245072147255339,-5.230485521357764,1,left
8.23,-0.6922784772727071,1.357676005944127,-0.5433797386265837,4.414969524329717,-1.5950962715327652,2.5652124187050984,0.903023785311621,-1.1038880728616236,-4.998894051789863,1,left
8.235,-0.5883353718945455,1.3331123219162362,-0.4909554016123342,4.408250086560321,-1.5050094908590594,2.5503818198270327,0.9348153077909462,-1.3379077115070621,-5.38288890113585,1,left
8.236,-0.5060384850298765,1.316266771678954,-0.4260598117797517,4.416718809692673,-1.6215026108169686,2.569308564399125,0.8928575418245789,-1.0292715857381525,-4.876380375069668,1,left
8.24,-0.48493521333168765,1.3131371090620219,-0.40946510239207584,4.40971059704853,-1.5239040178197452,2.553553696134421,0.7168473580559671,0.2663814376225713,-2.750440090329672,1,left
8.241,-0.40216079690781015,1.3014131265601074,-0.3306493322716194,4.40981124541775,-1.5270752994999117,2.5539126484224557,0.6748696141922357,0.5749794286282934,-2.2438587563492915,1,left
8.242,-0.2962215745120964,1.286381557900182,-0.20147976501909692,4.423415146416005,-1.7117665855039998,2.58413567668181,0.7067016502380545,0.34102997810480423,-2.6279638851292333,1,left
8.245,-0.2319464530639051,1.2785279231434843,-0.0920489834462855,4.390098449854117,-1.2570537110279774,2.509943785269554,0.6875029586324788,0.48212727823235246,-2.3962907805781075,1,left
8.245,-0.1630844739526217,1.2559591124687581,0.05410976091063879,4.445303961670664,-2.011274871215827,2.632928172976872,0.6952987453853277,0.4246916647871891,-2.490492047038679,1,left
8.249,-0.12679367937667468,1.235236559522642,0.1498265328081829,4.372491745799435,-1.0163589279275798,2.470717777124108,0.6954582331500317,0.4239739901675368,-2.4920290613416416,1,left
8.25,-0.12094491723399821,1.230064297771837,0.1705923074617797,4.067306651472451,3.1594574788872745,1.7900812701601634,0.6912688939454132,0.45389165098066764,-2.4422011291877412,1,left
8.251,-0.09758546922157642,1.2048562245365186,0.24848339236157324,3.99451729339005,4.15439399786297,1.62788448487952,0.6963046458177737,0.4180931306230753,-2.501970731971247,1,left
8.254,-0.07951730224315164,1.164090989752777,0.3324013243861407,4.049619090340316,3.400079568263078,1.7508070927781048,0.6923564817852308,0.4459179230988728,-2.455304037794137,1,left
8.255,-0.07491968011688024,1.1238551211404426,0.37110259819032243,4.0165727521910295,3.855035487708923,1.676776267428019,0.6944706456058276,0.4308840647575265,-2.480405124796873,1,left
8.262,-0.07088554829802957,1.0767291668535748,0.4033338215005509,4.0296819258356,3.669899529467127,1.7067045427262169,0.6941110216714974,0.43457207163133793,-2.4752095262206475,1,left
8.263,-0.07045142017245631,1.0296985988668756,0.4167282549036009,4.030461731539404,3.6673386165714836,1.7074681480689127,0.6932102124636219,0.43785932558521556,-2.467064132918636,1,left
8.264,-0.07012737396171784,0.9815307611603444,0.4223123595740258,4.022788229066188,3.7643393957322573,1.691316865648764,0.6947653597197931,0.4321624743237055,-2.4811468383330424,1,left
8.265,-0.06380003566081746,0.9319615625092833,0.42667485957873685,4.031534117403476,3.648095161700523,1.7104088027379856,0.6931306437694169,0.4371456713245664,-2.467163194175071,1,left
8.267999999999999,-0.05244900627524695,0.8880346602121212,0.42530101937149245,4.025410620119884,3.7387178254889126,1.6959331973914515,0.6943211253939688,0.43399961371479434,-2.476953161131565,1,left
8.269,-0.03352974975890284,0.8466162390536887,0.42613001059127287,4.027390378341288,3.6896684908419877,1.702983152259421,0.6940667197803947,0.43592282538704263,-2.4738387570384344,1,left
8.273,-0.0025954165827906488,0.8072048823035879,0.42225887188070443,4.029309912169989,3.70120627972268,1.7027279740663634,0.6929608811586647,0.43364323860944687,-2.4689940573312708,1,left
8.274,0.03910804162275348,0.7714116278132418,0.41280758633259496,4.025009061880322,3.7136813000845548,1.6987009190863662,0.6956305794055826,0.43780064553247844,-2.4817908789897594,1,left
8.279,0.09576269880407699,0.7400093179458633,0.39756353121341614,4.029320494193841,3.6916539857927724,1.7038803855900237,0.6916813625465852,0.4313544610347275,-2.4631017177223438,1,left
8.279,0.16692692098050194,0.7098587745302811,0.37480018050109987,4.027807863719454,3.7126716574492598,1.7004687886683407,0.6958469821059483,0.4385501958237303,-2.4824923578227285,1,left
8.285,0.2490094753329034,0.6784786924439643,0.34703940804046995,4.023877170980009,3.6978898683396872,1.6999293513723621,0.6934399896936296,0.4343961862422343,-2.4712833464532724,1,left
8.286,0.34407560946799937,0.6532453661959327,0.3145787864941484,4.034763197507469,3.7056429497201195,1.7054047021771774,0.6914617081612493,0.43009582676561087,-2.46279894129275,1,left
8.288,0.44574552358326475,0.6311228310874687,0.2785864502341962,4.017852308106997,3.703243305708389,1.6957418942689033,0.7002437259537653,0.447984284747996,-2.5014542323082276,1,left
8.289,0.5480421645426157,0.6102970588921113,0.24011505735282787,4.0361261537051165,3.702446392602453,1.7065902347009918,0.6839521032680742,0.4148567895574323,-2.4296932754663514,1,left
8.295,0.6545860232645523,0.5997230487873235,0.19467621377034602,4.025400707646704,3.705157825580402,1.699953826149573,0.7048622322027023,0.45745323346916733,-2.5217383961216,1,left
8.297,0.763694653317338,0.5969003952805353,0.14048551210512938,4.01667394879459,3.70049635915553,1.6953780655764692,0.6874105972892168,0.421865155592964,-2.4449414215143106,1,left
8.298,0.8668682053650005,0.6106703383497041,0.07612123657311338,4.055825522680594,3.707983733318303,1.7175174824683666,0.6878897171809104,0.4227511041502986,-2.447138822299516,1,left
8.299,0.9649901286320446,0.639019886828754,0.0044496491101640185,3.9829890077120824,3.6971516113220986,1.675958296121546,0.7211311999601447,0.4909370861991073,-2.593058723587574,1,left
8.304,1.0413033604106816,0.6772024545796604,-0.06645021686857777,4.076601736359086,3.7099567433601566,1.7295060375398892,0.6394267351708169,0.32340476157855147,-2.234321930815888,1,left
