time,gFx,gFy,gFz,ax,ay,az,wx,wy,wz,subject_number,foot
17.125999999999998,0.3330044753411758,0.9581573554676995,-0.04312919131809742,-1.3394841654295564,0.8882721758665277,0.5265583977952101,-0.2053830508752779,0.45261264361136955,1.0821394107408218,4,left
17.125999999999998,0.337351125063149,0.9570098192629034,-0.044823698974442175,-1.425880318712946,0.2073187719612511,-0.9388809558737851,-0.203206715595596,0.4571126230084418,1.0739109370529962,4,left
17.127,0.35140668880443104,0.9540918435169177,-0.046791302145894886,-1.4462550989881082,0.045047713545598375,-1.2880846152346752,-0.2031747198008322,0.4571810388453862,1.073798729514857,4,left
17.131,0.3697489102619127,0.9534451196884555,-0.048990294845769,-1.4307375512813716,0.16806507721009584,-1.0233361020322889,-0.2043181534111559,0.4548124500638906,1.078104535129016,4,left
17.133,0.37996748615388487,0.9503009025263612,-0.04964531587239013,-1.440178908617864,0.09387195590877495,-1.183055211443111,-0.20294833302200438,0.45765045777124114,1.072948650564262,4,left
17.136,0.3885865902303675,0.944438734749358,-0.049114055740716096,-1.4362266773179106,0.12406524728091832,-1.1179701666458297,-0.2040155450714,0.45543849026952704,1.0769614740743174,4,left
17.137,0.3949171335487939,0.9426449099836809,-0.052387505325083614,-1.436348011144869,0.12447600221837153,-1.1172390320304397,-0.20344036874055155,0.45663001423825456,1.0747962508432778,4,left
17.14,0.39676118997665055,0.941270376164109,-0.05881684987777023,-1.4381880014894528,0.10866691408893875,-1.1511093322003458,-0.20356959233221839,0.45636704090701585,1.0753027167258842,4,left
17.141,0.3971328055693446,0.9374870674303102,-0.06410683037207171,-1.435862418484259,0.12761963260136658,-1.110387051330315,-0.20372807391271613,0.45602580756099576,1.0758443183240363,4,left
17.145,0.39407006924096744,0.9362871880373629,-0.06678840758846617,-1.4378359467086292,0.11282810088339255,-1.142350682427692,-0.20345389321681953,0.45661593959458613,1.0749065956377217,4,left
17.145,0.38743966532806046,0.9358308993858241,-0.06707891369271406,-1.4364720061981964,0.12086755708701877,-1.124627462041435,-0.2037141747131494,0.45604937136034335,1.0757695443514965,4,left
17.15,0.3784390243094946,0.9347274058698458,-0.06917600117828543,-1.4373159126464032,0.11891537014097613,-1.1295551016257575,-0.20353804017102556,0.4564361357526896,1.075200076358294,4,left
17.151,0.3671908878470578,0.9367521179215075,-0.07238793961595606,-1.4368325473820787,0.11696837823861816,-1.1328538153051768,-0.2036104331940679,0.456286690002268,1.0754745897020634,4,left
17.156,0.35587345328032394,0.939839112548631,-0.07508521133017017,-1.436967518274832,0.12049051872197461,-1.1259844734054743,-0.20362953172127313,0.45620529086715694,1.075368118664857,4,left
17.157,0.3474621117616973,0.9421818829291855,-0.08203261067171623,-1.4374039900524118,0.11706222606564275,-1.1333688746659383,-0.20354602211633818,0.45647363165590626,1.0754607045954778,4,left
17.16,0.3397087435884748,0.9466940535790844,-0.09003995434800166,-1.4360153081063616,0.11960387169945394,-1.1265801331481569,-0.20366134091710147,0.4560925586492654,1.0752875941340234,4,left
17.160999999999998,0.32822037452963965,0.9537342709455878,-0.09253513766732258,-1.4386532272366885,0.11803981729906599,-1.132960088901567,-0.2035506918198751,0.4564732909629157,1.0755185625761454,4,left
17.165,0.31762773234122976,0.9607272249274883,-0.09667058423585942,-1.4349072019008522,0.11887852755762125,-1.126658863261577,-0.20361477097618613,0.4562531590418055,1.0753856349919229,4,left
17.166,0.31096419301183237,0.9648300609509874,-0.10281771789840277,-1.4388311556566937,0.11853129155435577,-1.1321991205557627,-0.20364270640871218,0.456119374468562,1.075167948710217,4,left
17.17,0.3028185290756702,0.9666859068399186,-0.10457612425069526,-1.4366099109277721,0.11836514828189136,-1.1297875521583685,-0.2034850651939113,0.45677702074334836,1.0759871084149184,4,left
17.171,0.2955782624253462,0.9679215164219704,-0.1093906483598922,-1.43455296692716,0.11936247377738543,-1.1252533186977578,-0.20377920986302903,0.45555412596957545,1.0744746771516025,4,left
17.175,0.2923942616805202,0.9669710571015097,-0.11489825257318817,-1.443292654683742,0.11710179113671224,-1.1405673283602795,-0.20340372944629126,0.4571193595678307,1.076425181957771,4,left
17.176,0.28893882859846265,0.9656969440939338,-0.11453829610348033,-1.427146585665516,0.12079713400015492,-1.113237906597839,-0.20371623950619844,0.4558152766875226,1.0747930238922572,4,left
17.18,0.28431956826378046,0.9645124275514328,-0.111975081363676,-1.4478572460223509,0.11623133371606315,-1.147943860736901,-0.20370474489441665,0.45585526320209735,1.074826095318154,4,left
17.18,0.2795509834790013,0.9608858620705611,-0.10814361644576831,-1.4305750236710049,0.11996728149880105,-1.1191337541166895,-0.2031214963916908,0.4583196240542312,1.0779851783700622,4,left
17.184,0.27381937780770566,0.9566890771574995,-0.10767515948212181,-1.4310316594229389,0.11998312524039449,-1.1196595493551882,-0.20455754559013534,0.45226043849443787,1.0702292587309752,4,left
17.185,0.2677095459632883,0.9527119333096173,-0.11092161834061544,-1.4640158835377712,0.11254836533725894,-1.1752694450069443,-0.20217650579365087,0.4623047906691916,1.0830893868238665,4,left
17.189,0.26480972203449465,0.9512453604069502,-0.11212354817299555,-1.3829586143001036,0.13065275892350608,-1.0389562922967177,-0.20531654219832243,0.44905902452222496,1.066124533666705,4,left
17.189,0.2632781198879341,0.9512991878525783,-0.1133067226451579,-1.5173531807303235,0.1006990252591978,-1.264827781497265,-0.21848378026140583,0.39344042888827924,0.9948766555133257,4,left
17.19,0.2601934371960144,0.9495287606317502,-0.11518284381493069,-1.3400835945979628,0.14018415644678062,-0.9669597057755284,-0.2216224881600511,0.3801957036152791,0.9779071980926619,4,left
17.194000000000003,0.25876606415785763,0.9498433012083481,-0.11562119405758611,-0.5960213133133556,0.30601656832773544,0.28356423105616657,-0.2192441908431598,0.39024211865600245,0.9907758048123143,4,left
17.195,0.2563946364598528,0.9503572832091535,-0.11724837419014644,-0.41873442358503055,0.34549617041951586,0.5814097288516278,-0.2206761639366541,0.38417120917047753,0.9830093929378938,4,left
17.195,0.25195542925128533,0.9498826496524919,-0.11845169214454059,-0.5531545674774996,0.31556269472417003,0.35559852982371654,-0.22009767787815623,0.3866625926218584,0.9861774885168353,4,left
17.2,0.24864135847282048,0.9516036176042548,-0.11684848019745045,-0.4720801341149975,0.33361879806823813,0.49179394791684605,-0.22008230311013832,0.38665999365372583,0.9862082285233527,4,left
17.2,0.2461854847829416,0.9546573848226237,-0.11634878467440893,-0.5050523222664248,0.3262684404408423,0.43636489764899544,-0.22039527909464435,0.38540451472664405,0.9845657544221944,4,left
17.203,0.2437613232652901,0.9586157981603224,-0.11679011808383094,-0.5055683016471167,0.32617232434649457,0.43562493929866175,-0.22002570201781307,0.3869369060443687,0.986543593508089,4,left
17.204,0.23745090553587125,0.9623387186837047,-0.11848864785140661,-0.4881742136196939,0.3300130433542965,0.4646020458238102,-0.22030547540113785,0.38569929376025763,0.9849876841391814,4,left
17.209,0.22883051496584036,0.9702843482667158,-0.12385145996944698,-0.5090297205611062,0.32541255791643087,0.4299047523928293,-0.22017001097570016,0.3864517065220213,0.9858563807051756,4,left
17.21,0.22072591269959796,0.9818120269995074,-0.12727102926506692,-0.4927590299123144,0.3289935382116626,0.45690554417181356,-0.2201733809509145,0.3861271722303049,0.9856047203813494,4,left
17.215,0.20868953860583694,0.9911158503946771,-0.12145534775322743,-0.5015174909507485,0.3270606443796235,0.4423327344325197,-0.22025317913471615,0.3861706904936374,0.985459034589654,4,left
17.215999999999998,0.19687547936458616,1.000820649414731,-0.11006148124860429,-0.49964632951973503,0.32751475031936456,0.44576727996922805,-0.22015149457447025,0.38629692162960827,0.9857813672692318,4,left
17.219,0.1891321490865595,1.005849492605072,-0.10506844933015916,-0.4969652019453052,0.32799354067213127,0.4493425007842206,-0.22021745643904106,0.38601554178778213,0.9854223307578432,4,left
17.22,0.18386589421955002,1.0053841382279323,-0.10747766555162525,-0.5016019281587772,0.3271639251866637,0.44315063517796305,-0.22023067577573555,0.38652242907337964,0.9857735704392967,4,left
17.224,0.18470232962429356,1.0074368330400185,-0.10789318196035314,-0.4970660742890241,0.3279253613043958,0.44881128055917907,-0.22011845191263749,0.38571067311617,0.9854149818617383,4,left
17.224,0.18813221072377614,1.0076799154735228,-0.10560337401440978,-0.500206849050515,0.3274239622427448,0.4450963754446473,-0.22031472718555273,0.3867995737468349,0.9857934806690899,4,left
17.227999999999998,0.1932552579004838,1.004045200419971,-0.10324901341101826,-0.49911446350804173,0.3276692895137725,0.44694640086440585,-0.22009496783980828,0.38568349242058075,0.9854473015202434,4,left
17.229,0.2041732626769121,1.002102876603172,-0.10085375938100183,-0.4979483519190675,0.3275608563225855,0.44600559260910344,-0.22022895785709962,0.3862983361188907,0.9856088240208623,4,left
17.233,0.2163059645264741,1.000576233380988,-0.10245741956913623,-0.5012168236824536,0.32767377650232504,0.44714034318966295,-0.2203226525198227,0.38692170746557564,0.9858677426328857,4,left
17.233,0.2318313518143187,0.9963144695192345,-0.10776382320079478,-0.49648154584654064,0.32747427162703235,0.4452117828685457,-0.2198724334806273,0.38436584502322674,0.9849555079066544,4,left
17.239,0.25010326163772123,0.9927218849623096,-0.11344331276659009,-0.5013428476747519,0.3277282293131225,0.44758056847758965,-0.2207167658407188,0.38906491269282184,0.9865949039847914,4,left
17.241,0.26283377075579617,0.9940160380862233,-0.11673324281594451,-0.49853268288710334,0.327582206708818,0.446215012095616,-0.21962935002019746,0.3830459217736134,0.9845089320231987,4,left
17.244,0.2706622779219684,0.9972775473944925,-0.11103210346027204,-0.4965210287890164,0.3273635420523595,0.4443448209410344,-0.22053833335387604,0.3880643853822524,0.9862419742264085,4,left
17.244,0.2755467619041992,1.000097478692307,-0.09850687589083396,-0.5058549936042271,0.32819972835690847,0.45163308482662273,-0.2205121894887766,0.38793879049542607,0.9862084534837446,4,left
17.249000000000002,0.279774633756925,1.0049359604603385,-0.08610275615421228,-0.48852039114767937,0.32665565659101264,0.4381609033434398,-0.21878322912732523,0.3783425487510218,0.9828685986194662,4,left
17.25,0.28524805043008067,1.008467092135286,-0.0781118645143909,-0.5107426799200323,0.3286452255651001,0.4555181430228734,-0.2230346170374039,0.4019137184332226,0.9910575063447576,4,left
17.252,0.29271683633126355,1.0089483510025206,-0.0787373925912066,-0.49220892337527933,0.3269818450784222,0.44100005885826893,-0.2159854886181677,0.3628379359736866,0.9774884045092116,4,left
17.253,0.29947487557771746,1.0097362653219308,-0.08239912730692432,-0.4927470904957559,0.3270146110257104,0.44132286161738576,-0.22528259583616483,0.4143757099902031,0.9953817319572441,4,left
17.258,0.30137992451917994,1.009898290306277,-0.08411597997805151,-0.5279188350102588,0.33023392904287296,0.46931033341353356,-0.26431796973978106,0.6307248678067449,1.0705192475473144,4,left
17.26,0.30645890403207243,1.0098973704404774,-0.08716477321455698,-0.44145150696400653,0.32233355115538337,0.4005703028983648,-0.27361331870501615,0.6822605385930589,1.0884091120544452,4,left
17.26,0.3150953932978082,1.0083418248105964,-0.09263297787290123,-0.5848060378084182,0.3354301099665681,0.5145535328642026,-0.2665658311177691,0.6431881337387091,1.0748451677955628,4,left
17.262999999999998,0.31839477644018255,1.0052291516515508,-0.09699724906840249,-0.39573969234125045,0.318155960068509,0.3641894501278654,-0.2708188687152908,0.6667562654044232,1.0830305030494054,4,left
17.264,0.318683448241332,1.0044090929173497,-0.09786412130345226,0.39794386176999996,0.24554527864848405,-0.2670817960574919,-0.269081688796007,0.657160522833274,1.0796885228436979,4,left
17.264,0.3177939093064508,1.0030698382068342,-0.09973039647373796,0.587000214353117,0.22826450363530032,-0.41747185745840754,-0.26907195474280154,0.6570392300557379,1.079666457868589,4,left
17.268,0.31533679492614997,1.0016757236060712,-0.1017904079010324,0.44364132564970876,0.24138003092564175,-0.3034543189586435,-0.2699584309981612,0.6620472211166903,1.0813775643634336,4,left
17.269000000000002,0.31185445959864205,1.0016161729727742,-0.10011471343049178,0.5301664965469042,0.23344058142451277,-0.3722056245654517,-0.26889215188077575,0.6560440350025307,1.0793203188589904,4,left
17.273,0.30582011504958306,1.0014155220834495,-0.09958085459624685,0.4948481172431293,0.23672229290570815,-0.34426610407326563,-0.26972973297488584,0.6607262995598779,1.08093453842366,4,left
17.274,0.29753052318317175,1.0033307417007649,-0.10071857143647062,0.4945514519392731,0.23667837842221334,-0.3438098753168277,-0.2692559052583774,0.6581798699826621,1.0800270877173728,4,left
17.277,0.2864193735012549,1.0055783731038401,-0.0979923231489756,0.5127981891208542,0.23507885315231825,-0.3585434877383758,-0.2694162595291006,0.6588124321794454,1.0803212638928708,4,left
17.278,0.2725970104471699,1.0079071232550143,-0.09397555170077311,0.4907877112426327,0.237062405465031,-0.34094136712762946,-0.26944072345250114,0.6593889710684712,1.08039327065896,4,left
17.282,0.25745048718333086,1.0125558072597811,-0.09197354742961238,0.5081683328722075,0.23541402404115902,-0.3545754084923858,-0.26934971797997886,0.6583437625218709,1.0801875006604733,4,left
17.283,0.24211895248294232,1.0184124144919842,-0.08779956803129013,0.4983358629267089,0.2365017147153392,-0.3473679189374804,-0.2694518044353339,0.6593405050402872,1.0804084112049819,4,left
17.287,0.22709623808925747,1.0251821475055052,-0.08213543712895871,0.5014086088097011,0.23589667488887375,-0.34875514903959887,-0.26931926287182795,0.6586100198966139,1.0801535169305387,4,left
17.288,0.2102247267168902,1.0306888434709387,-0.0753965356931767,0.5026997559487894,0.23617580466923907,-0.3510792829651692,-0.26955196333127024,0.6590995740369611,1.0805560576032565,4,left
17.292,0.19177861667681637,1.0354367583029296,-0.06545238358217835,0.4993741226351403,0.23616350112608858,-0.3473999247610283,-0.2691516531743321,0.6587089686706901,1.0798892316136628,4,left
17.292,0.17274040724777512,1.0421697774157588,-0.05643160649264523,0.5033761083443375,0.23579453591111124,-0.3505735825565869,-0.2697173018483172,0.6591172861815799,1.0808232648897742,4,left
17.296,0.1539770572256714,1.0470807596756297,-0.05077166544053478,0.4989703427890358,0.2367848058231737,-0.34898928113091787,-0.2691202581671093,0.6587144774739789,1.0798390666589393,4,left
17.297,0.13449084384497878,1.0470144823197889,-0.04719498556203408,0.504092160724865,0.23497447089860202,-0.3486756530830277,-0.26945582684479763,0.6588959579517397,1.080389560866697,4,left
17.301,0.11146920186025205,1.0477408390959235,-0.04092520603890798,0.49819365168637314,0.23751558311404575,-0.3505291538605879,-0.26979139948166775,0.6593063691378701,1.0809534569463772,4,left
17.301,0.09008993004511825,1.0527435557020388,-0.0311142217019517,0.5038436245681739,0.23486529216933444,-0.34804621454712276,-0.2683987868087541,0.6579258857305891,1.078632380981814,4,left
17.305999999999997,0.07010126796645003,1.0549731029161595,-0.02381462220216243,0.5010074670103801,0.23635708899760632,-0.3498208469523574,-0.2709674508262324,0.6604110311851901,1.0829097788380297,4,left
17.307000000000002,0.04901354244848073,1.0552510548555116,-0.02019106895213027,0.497230667553838,0.23776596586042786,-0.350293666057645,-0.26767260207834287,0.6572367364245835,1.0774242253660464,4,left
17.312,0.03345057809452255,1.0589201753600892,-0.018746640871599274,0.5113016090146207,0.23182719097120363,-0.34627436132474904,-0.2704214876248774,0.6598801096686175,1.0820000297159442,4,left
17.312,0.019576641671926513,1.06212601392248,-0.016701131243195104,0.48578886149012396,0.24278651135294171,-0.3541889605309535,-0.27035316501924656,0.6598344094690157,1.0818885975043895,4,left
17.317,0.005120006881299479,1.066054366848369,-0.012743968625844197,0.5183370154623327,0.22873450403006304,-0.3438601369469806,-0.2650928496236239,0.654708956659245,1.0731256670591458,4,left
17.317999999999998,-0.003888121128019425,1.0718093070957673,-0.012021041545082822,0.491256352526267,0.24045600671606993,-0.35255337091295974,-0.2780137469445474,0.6672765068852834,1.094646424597502,4,left
17.320999999999998,-0.009172229251651325,1.076027179791523,-0.01521222743114805,0.4918442491818812,0.2401552079291221,-0.35220982770576387,-0.25659383006518344,0.6464463897532148,1.0589719036935656,4,left
17.322,-0.01128217744639734,1.0779611591073444,-0.016554282665962372,0.5438651218019255,0.21776194523128312,-0.3359214658371365,-0.2848443799923761,0.673921078351024,1.1060210499393692,4,left
17.326,-0.011384220857509538,1.0788383522528,-0.016474295789637702,0.41621929726191337,0.27277570491668485,-0.3761129004850724,-0.40345651996657506,0.7892776399207468,1.303581262266286,4,left
17.327,-0.01108998547592703,1.0833195567312215,-0.019697778856735144,0.6277736563012731,0.18157335562441565,-0.30941444665244167,-0.4317041788267928,0.8167564463306912,1.350622981135223,4,left
17.328,-0.00865679695714422,1.0871500387087836,-0.023147594471951465,0.3487755885269705,0.30186010654877454,-0.39741100598328516,-0.4102873898971834,0.7959218725035329,1.314956494160909,4,left
17.331,-0.007485330574663112,1.0875763875223465,-0.022975701497213306,-0.8225832067196214,0.8068431229908886,-0.7666885608958888,-0.4232094768577609,0.8084877335603741,1.3364803151228566,4,left
17.332,-0.008388650095676738,1.0910273219447721,-0.023826562470016868,-1.1015532742537566,0.9271191751715658,-0.8546893167081218,-0.4179387858115321,0.803377048177588,1.3276907140878624,4,left
17.332,-0.005419103370952475,1.0945740047519306,-0.029364426713766878,-0.8900449414352299,0.8359298464432697,-0.7879738115365387,-0.4178927877384526,0.8032995667331242,1.3276366572012401,4,left
17.336,0.0009065992314784416,1.0968467792097307,-0.03843271386080825,-1.0176465654669073,0.8909428895735458,-0.8282078337252704,-0.4206096644269749,0.8059885136471057,1.3321302048365293,4,left
17.337,0.005948999854270861,1.0990856033248,-0.04949694561917192,-0.9656400806252435,0.8685217837575744,-0.8118431741455675,-0.4173466898318203,0.8027688297602247,1.3267265520681835,4,left
17.34,0.013399510193405937,1.1007800375192829,-0.06273607652377848,-0.9650979716072743,0.8682879431884525,-0.8116027622325015,-0.41990160072382254,0.8052735732679397,1.330968629519748,4,left
17.340999999999998,0.023811589191752545,1.1053615786843873,-0.07876964378489429,-0.9920515417161522,0.8799077968856049,-0.8201969903888433,-0.41848161738527756,0.8039320349606066,1.3285771824463488,4,left
17.345,0.03347426628337381,1.1114278356972425,-0.09449484571329606,-0.9597066931444002,0.8659640612284738,-0.8099057209130662,-0.4189053585175768,0.8042169398406347,1.3293676908941556,4,left
17.345,0.043246591489006225,1.118186557416307,-0.10796047774223078,-0.984989201228387,0.8768635719208235,-0.8179174557562208,-0.41908900920834247,0.8046147031908709,1.3295277636935277,4,left
17.351,0.050461499938872396,1.1256644242403526,-0.1209633568276056,-0.9710720715775182,0.8708619910248613,-0.8136047418980465,-0.4186784069521289,0.8039464290669454,1.329022666659301,4,left
17.352,0.05614492453055356,1.1335672838512874,-0.1323467764189839,-0.9749183606526107,0.8725250838768672,-0.8145734163927145,-0.4190954155965462,0.8045664363386362,1.3295748027467083,4,left
17.355999999999998,0.063683021574128,1.144837266573674,-0.14539940091817005,-0.9773140442385625,0.8735493909673211,-0.8157487451234614,-0.41869378062566476,0.8041776072141847,1.3289044228360403,4,left
17.357,0.06993305323830093,1.1591398547057943,-0.16687907270667088,-0.9725452915461279,0.8715041208194686,-0.8137303935737579,-0.41920231815373554,0.8042745739771969,1.3300160092378288,4,left
17.36,0.07370198819262597,1.174852656070023,-0.18897087620752429,-0.9772322734945957,0.8735161243381215,-0.815618277214841,-0.4184393974974814,0.804441481605672,1.3281409829260098,4,left
17.361,0.07473121048913098,1.1912587916558648,-0.2036965534668667,-0.9732715278254053,0.8718087272708269,-0.8143729997130218,-0.4194819068922747,0.8040992994444095,1.3307786481477435,4,left
17.366,0.07194461191803075,1.2127355367086534,-0.21533871690150197,-0.9772368010615764,0.8735338816656784,-0.8148631968921356,-0.4183883884372742,0.8044816132399402,1.3279968286490695,4,left
17.367,0.06629096071895274,1.2377451968114217,-0.22604103677094523,-0.9721168225012384,0.8712902789095495,-0.8149856231703656,-0.4189920968670132,0.8042330033607796,1.3295567994633952,4,left
17.371,0.05784292519387898,1.262671167470021,-0.23442028696138084,-0.978811046221805,0.8742308691763718,-0.8145056664597075,-0.41965180578794137,0.8041552812343377,1.3311351585739848,4,left
17.372,0.04597628433739394,1.293155469664817,-0.2389413611470414,-0.9718502173940032,0.8711711791680703,-0.8150722784477078,-0.4169926287110022,0.8047195298143488,1.3246107047696611,4,left
17.375,0.03252427255404662,1.3241204285365047,-0.24219690718782097,-0.975595460333706,0.8728206982800211,-0.8146580803836692,-0.4218829360628128,0.8036321220265126,1.3366403889787575,4,left
17.375999999999998,0.01818035856232082,1.356915754832791,-0.24463557845954675,-0.9801962959205237,0.8748313658890301,-0.8147324657558341,-0.41561278333908935,0.8050383603317158,1.3212104875207744,4,left
17.379,0.0014968738968153465,1.3942893257510676,-0.24492426256672248,-0.9623058072287244,0.8669934547860021,-0.8151119981370076,-0.42084367681659673,0.8038592992633177,1.3340838405886801,4,left
17.38,-0.01966196181440978,1.4318107317290494,-0.24330294956689758,-0.9950802090581266,0.8813574390609074,-0.8142820563984543,-0.42071643704926687,0.8039084688699514,1.3337640737986443,4,left
17.385,-0.04144708618489196,1.4709957481158165,-0.23717559754428919,-0.9530848000101182,0.8629490576692113,-0.8153744868138713,-0.410695126779968,0.8061030115458796,1.3091273573527173,4,left
17.386,-0.059967676672858045,1.5059324770713134,-0.23007617695697175,-0.9881116131953193,0.8783066218861117,-0.8144537061232529,-0.4353093824161291,0.8006859652724361,1.369643565589225,4,left
17.389,-0.08621851485392762,1.5469430162034337,-0.21654732429876922,-0.9872962929817065,0.8779400181904735,-0.8145167430374924,-0.3945021751252116,0.809676987321609,1.2693195226559302,4,left
17.39,-0.10519854302866065,1.5756463807432999,-0.20357907090085764,-0.9200636305641823,0.848484272198601,-0.8161414355815799,-0.4483263389867526,0.7978124319210629,1.4016384784521034,4,left
17.395,-0.1081823729904229,1.5803314919828164,-0.2000786308134434,-1.0851649368962928,0.9208359081305795,-0.8121091564718729,-0.6742730814023916,0.7480896931216741,1.957164389070737,4,left
17.396,-0.12900240971947993,1.612107084055057,-0.17996544195986883,-0.8114473997957563,0.8008718914629802,-0.8187973636693767,-0.7280991070373997,0.7362183124083425,2.089474133189472,4,left
17.397000000000002,-0.14869332259314133,1.6423878849856086,-0.15983875881977594,-1.172493079436732,0.9591252423824381,-0.8099870643045024,-0.6872898862893928,0.7452167133624585,1.9891600563605776,4,left
17.399,-0.15097703776378288,1.6454150962159537,-0.15842791186593164,-2.6880890925670418,1.623355920691631,-0.7730022765288072,-0.7119033727716914,0.7398024956272387,2.049680056304262,4,left
17.399,-0.16963482600289453,1.6718452768357865,-0.14432731036459456,-3.049196777965414,1.781676156657508,-0.7642296699391402,-0.7018887504577094,0.7419725019350113,2.025010277889036,4,left
17.4,-0.19106970507882137,1.706748923018262,-0.12477576145645758,-2.7753910390912857,1.661611352813261,-0.7708617050802733,-0.7017471249128445,0.7420744371094159,2.0247616464643183,4,left
17.404,-0.20139201068735818,1.7347768829844807,-0.11188066615295642,-2.9405416223308904,1.7340361370277684,-0.7668684306499282,-0.7069986413113869,0.7408197429625294,2.0375330071623603,4,left
17.405,-0.21236305075272513,1.7697966755476595,-0.09502397499311234,-2.8733773007782952,1.7046128908373137,-0.7685160103334816,-0.7007079566656698,0.7423012684983887,2.0222046671829985,4,left
17.41,-0.21888895125394384,1.8032349704013535,-0.08089461746047649,-2.872311926795619,1.7040377068728176,-0.7684547199088106,-0.7056071153551642,0.741181426794428,2.0341905325347343,4,left
17.410999999999998,-0.22703172326971238,1.8405855241999687,-0.07306000857294756,-2.9077797398669296,1.7198053435847982,-0.7677723135010044,-0.7029655872697451,0.7416809075218506,2.027578859691307,4,left
17.414,-0.24343575826174854,1.8859756098832083,-0.0708720658147303,-2.8652421642149255,1.7008499452521062,-0.7685522806464564,-0.703568474893142,0.741811617735354,2.0294381631980976,4,left
17.415,-0.26776659026785643,1.9346129883650023,-0.07556420547693915,-2.898441821096239,1.7157074773410774,-0.7679966123653036,-0.7042700711928921,0.7412039853890361,2.0305140620984083,4,left
17.419,-0.30785174802303134,1.9856199341921799,-0.08587750968497243,-2.8805760290600295,1.707745880311892,-0.7683231163131905,-0.7030564384732061,0.7420267874811303,2.0283263126979802,4,left
17.42,-0.36336587213515936,2.03616200075504,-0.08993431953440423,-2.8843389084839623,1.709134153387745,-0.7680155297290207,-0.7041946808298383,0.7413336094160314,2.0304903678395894,4,left
17.424,-0.4317071886845738,2.0817942673882737,-0.06952627962576083,-2.8899584636575053,1.712435516095908,-0.7685732570186845,-0.7034326775864052,0.7414969688384268,2.0286110948889617,4,left
17.424,-0.5071808228778643,2.1172722382707065,-0.03465745027206583,-2.8802403487752066,1.706733422720069,-0.7676139445651312,-0.7037634126193231,0.7422462550212295,2.0306016361144916,4,left
17.429000000000002,-0.5779756732863304,2.1383611663158772,0.0006143034610089021,-2.889815368830545,1.712699395374393,-0.7688480360365574,-0.7037679988006413,0.7403674220771279,2.0279225993602887,4,left
17.43,-0.6419468109650958,2.1451031908068243,0.04074370891608907,-2.883150169585135,1.7083683032775048,-0.7678407284093409,-0.7035790851482333,0.7432096602488605,2.0314712871906595,4,left
17.433,-0.6935788556538455,2.1429100869138598,0.07107900260543877,-2.8853725201090583,1.7093289497494522,-0.767776350802259,-0.7038142954836546,0.7401731878403442,2.0277718412350807,4,left
17.433,-0.7292113769169102,2.1337454494446133,0.08080929975820801,-2.888245460371243,1.7132055687030863,-0.7698761833539223,-0.7036249972554642,0.7419379889406578,2.0297775062734678,4,left
17.439,-0.7447766486215791,2.1184801390269064,0.08303803170858627,-2.880451227776808,1.7038095053236548,-0.7651071236048856,-0.7037266075820922,0.7434054485855577,2.03215930966872,4,left
17.44,-0.7351572203644932,2.1015512981750804,0.08871396243511023,-2.8917915951361595,1.7176995330259253,-0.7722289305008485,-0.7037150800520335,0.7368971626739147,2.022804323413615,4,left
17.442,-0.7109605304500064,2.0811324730808547,0.10652871267679784,-2.880083520761048,1.703061013587574,-0.7646273645499849,-0.7036585493702128,0.7489801157220202,2.0399600586140956,4,left
17.442999999999998,-0.6769097755987479,2.0565076978501207,0.1332892244270788,-2.8868494808148393,1.711517036762785,-0.7690200377412388,-0.7037482508730631,0.7334650351347081,2.017974921473381,4,left
17.448,-0.6437315506736394,2.033453540219388,0.16307153728498547,-2.891850337765426,1.7184498509121373,-0.7728252489582166,-0.7036669279953002,0.7464137823734764,2.0363111200578485,4,left
17.449,-0.6144938152217774,2.0055897960114866,0.18399666505628012,-2.8688954296021985,1.6876569776189205,-0.7561944551203373,-0.7036948826390514,0.7460700006081615,2.0358832856915274,4,left
17.452,-0.584356190974961,1.973073079770144,0.18702410621445814,-2.911511330495503,1.7447757130103534,-0.7870367262625286,-0.7037640237899221,0.7213690283404087,2.000696431879571,4,left
17.453,-0.5502692820633814,1.9357521221562972,0.17505039520094587,-2.856868498761227,1.6714736363029106,-0.7474304153818049,-0.7035651577216411,0.7820616212974885,2.087099585707116,4,left
17.458,-0.4905372332623765,1.8808068960715179,0.13031655910237125,-2.9024431117068126,1.7326404450726396,-0.780498937523427,-0.7039005347634699,0.6814501425430655,1.9438617669441776,4,left
17.459,-0.4391187182749563,1.8410224304995046,0.09322526200638523,-2.90114927717761,1.730981948145355,-0.7796003759745496,-0.7034605070349191,0.8141321230912728,2.132787698852459,4,left
17.463,-0.42164352783226655,1.8297859634974791,0.08559597080094657,-2.8145575035184858,1.6144286540716124,-0.7165497681544568,-0.7016363037710154,1.3711853952641069,2.9259113630122195,4,left
17.464000000000002,-0.37011812547034395,1.7959230771336196,0.05343980099778401,-3.027399472266265,1.9008591907875871,-0.8715302774123388,-0.7012073377415002,1.5038043853331178,3.1148396343664926,4,left
17.465,-0.2686053632388473,1.7398240069524604,0.0440172024890186,-2.6745474015362714,1.4260021274627759,-0.6145566612700768,-0.7015271046550702,1.4032910021550125,2.9716022917281193,4,left
17.468,-0.20544195149096423,1.7109209640510556,0.06748053334461257,-3.1398927502734857,2.0522715141741186,-0.9535128585540004,-0.70133658713677,1.4639034530503805,3.057993831142447,4,left
17.469,-0.18572078250711052,1.7005985960760137,0.07329010046381321,-5.093438284815436,4.681560834462486,-2.3761822282572718,-0.7014188320979411,1.4391950725239517,3.0228373328435225,4,left
17.47,-0.10948198568141163,1.6611778025035449,0.10291667723810052,-5.558680265600103,5.307724696507062,-2.715154298858105,-0.701400824750849,1.4390133086467454,3.0223588552984153,4,left
17.472,0.0057879397396652515,1.6030423808844505,0.14399365208216486,-5.205956398626752,4.832988969295487,-2.458163107494675,-0.7013996273656673,1.451612799465972,3.0407559201358243,4,left
17.473,0.10475284258678855,1.5455531314801592,0.16414632502266235,-5.418782932524312,5.119437548996815,-2.6131385065068615,-0.7013917708713362,1.4365916018815115,3.0187248452980793,4,left
17.477,0.2095143681655453,1.4769713164574583,0.1769696425935875,-5.331939694570735,5.002557862495703,-2.550141935470374,-0.7014103342440614,1.4481901425014851,3.035873154148871,4,left
17.477999999999998,0.31169615165481135,1.4081582772895067,0.17398523405780542,-5.331266758375122,5.001636594891465,-2.549125149175671,-0.7014065384079811,1.4418829483387001,3.026620403097208,4,left
17.483,0.4049094996280594,1.340415807075316,0.1646496522359942,-5.37588720524888,5.061718380264566,-2.5823647490892383,-0.7013524310619015,1.4437781249373731,3.0287808895763177,4,left
17.484,0.49434816092966544,1.267615956535653,0.15758810031990028,-5.32227437500367,4.989531719627145,-2.5425861224205653,-0.7015056913750215,1.4441954897400349,3.031106584364685,4,left
17.488,0.5752884008339201,1.1951905306018746,0.15381980252054592,-5.364297560250959,5.046104252046813,-2.5735063808276717,-0.7012416655045985,1.4434607811770568,3.027079472423433,4,left
17.489,0.6556276811795507,1.118898809354433,0.1591464926535427,-5.340799887227252,5.014503159764116,-2.557015177526556,-0.7015684964557296,1.443500010545118,3.0307921820803587,4,left
17.492,0.7352601202576163,1.0392138793078378,0.15809092629695234,-5.3481369629101945,5.024296820926478,-2.560356315314266,-0.7013067257231503,1.443823883359962,3.028338333446222,4,left
17.492,0.8180188012850061,0.9590118569669127,0.1418198718755234,-5.350543864653805,5.0276774103814255,-2.5655567877153915,-0.7013018454941564,1.4446652908920132,3.0295113439968633,4,left
17.497,0.9059865405412217,0.8788721651623894,0.11098221251616296,-5.3445396865429515,5.019422806322757,-2.556955163693556,-0.7017985036855305,1.4405757856452706,3.0290944288937576,4,left
17.498,0.9923007767701459,0.8000793501060918,0.06376842596165383,-5.350803597992781,5.027991657737808,-2.5648872369218703,-0.7006646498764365,1.4494696308155681,3.0294025212032576,4,left
17.500999999999998,1.07869401947919,0.7238082152506705,0.007824234667703413,-5.344181693653905,5.019081223776796,-2.560095543684108,-0.7023567442207599,1.4360962944146336,3.0287939503303667,4,left
17.502,1.161185523117075,0.6538613940148268,-0.04873076295199223,-5.353682524125396,5.031609911919228,-2.5607602110869707,-0.7005521945180606,1.4504923450036595,3.029640455503986,4,left
17.507,1.2355132254804324,0.5914445373508047,-0.09898221446377739,-5.33854855592927,5.011830437110021,-2.5640298364837646,-0.7015953423306512,1.4421749375509472,3.0291545858507423,4,left
17.508,1.3032084710413983,0.5382222048169072,-0.13566569280373,-5.359548354270021,5.039216097949707,-2.558005284278125,-0.7024940489395137,1.4346988748717258,3.028292178798479,4,left
17.511,1.3595174753822956,0.4931920621416847,-0.16002590999660532,-5.3374586305889835,5.0104198360909304,-2.564641164887888,-0.6985589946023663,1.4670234117144796,3.0314894336039977,4,left
17.512,1.4060849690929165,0.45327863275085656,-0.17444815356997842,-5.349753456520391,5.026430526861155,-2.5604695881168533,-0.7058578509872226,1.4070947227285244,3.0255914587829134,4,left
17.516,1.4412267229067326,0.4200657586907147,-0.17601610260255451,-5.362663153361634,5.043333588733292,-2.5585446592441548,-0.6964843615134957,1.4840741747534718,3.0331982612412474,4,left
17.517,1.4646406664198606,0.3926066412331135,-0.1656717977643551,-5.309955425612626,4.9744409537211975,-2.56970442682206,-0.7043117960335394,1.4197925281667358,3.026835462189905,4,left
17.521,1.4798268976692446,0.36895267802890785,-0.14868936085388113,-5.40700973859761,5.101278768201103,-2.5485147482052097,-0.7040955321134427,1.4215085414987914,3.0269512734999973,4,left
17.521,1.482389687530596,0.34961734750586304,-0.13361956071164116,-5.282553905007683,4.93862921827024,-2.57583425413901,-0.6891805484604718,1.544198616591295,3.03930555596673,4,left
17.527,1.4776514384601986,0.33361394270161265,-0.12554320051699394,-5.386373386976423,5.07431757062847,-2.5529814482278885,-0.7258487963837741,1.242648580525449,3.008995789206055,4,left
17.528,1.456603776443294,0.3171328731439964,-0.11343149934735167,-5.383847046615291,5.071000831978266,-2.5537726882244263,-0.6650442370890766,1.7426479093630056,3.059238560656526,4,left
17.532,1.4365139055401954,0.30776919151987625,-0.10243734893289672,-5.184996994275933,4.811137751875399,-2.596782411673276,-0.7452521413121256,1.0831301293328228,2.992973123502235,4,left
17.533,1.432602679378849,0.30629178480802793,-0.10268684728828725,-5.67336896159589,5.449395840786625,-2.490865719824549,-1.0818441855260053,-1.6851197567978755,2.714523231163594,4,left
17.534000000000002,1.3990270933060327,0.2927932064728038,-0.09430599898486672,-4.86377767406861,4.391295227344273,-2.6665337725754936,-1.1620638935966463,-2.3446722082937477,2.648267580069743,4,left
17.535999999999998,1.3672964888915708,0.27966468923566723,-0.08136769428269688,-5.931528579984044,5.786844956235074,-2.4348230652611518,-1.1012465453461975,-1.8446293447578634,2.6985083464658723,4,left
17.537,1.3625169754551496,0.278027182907141,-0.0773939359963797,-10.414226561986634,11.64549379681263,-1.462471415762461,-1.1379099996946533,-2.146186445344309,2.668164152276484,4,left
17.538,1.3270903188870324,0.2659797786541256,-0.06671427844255215,-11.48177524885812,13.040899060216011,-1.2307779207131546,-1.1230372474123693,-2.02357682485371,2.6806162291212274,4,left
17.545,1.2760098098058261,0.2511127210030769,-0.04369461433883734,-10.672514601979433,11.983043832727436,-1.406429657347379,-1.1227300297728122,-2.0216583236437398,2.680563493825427,4,left
17.546,1.2290717785651117,0.2418547014982437,-0.015958793257022243,-11.160573596039269,12.621045831855112,-1.300497713349525,-1.1306879436017376,-2.0862538192153335,2.67440883342377,4,left
17.546,1.176694690471161,0.2280071274645337,0.006094874557281577,-10.961814575547368,12.36131478948922,-1.3435860514736977,-1.1211844363621677,-2.008932455753293,2.6818502488472458,4,left
17.547,1.132808310756587,0.21622247747649428,0.02225333889716932,-10.959638029168488,12.35814853915868,-1.3442193937799192,-1.1285395556923832,-2.069063240050049,2.675945869609647,4,left
17.551,1.0920756020205773,0.20779964922326277,0.040714197623330076,-11.062519101098896,12.493273177259304,-1.3215839725732224,-1.124715774248449,-2.0369065655857503,2.679464343741742,4,left
17.553,1.0498759104951971,0.19767070144276375,0.05645774207170556,-10.939543457338242,12.331619608040091,-1.3486982618362644,-1.1252553954520061,-2.0436255921508466,2.6778754683313473,4,left
17.555,1.0025602399990738,0.19010333047771596,0.06433891482329032,-11.034945639720988,12.457220521406228,-1.3275762325931906,-1.1269176282404183,-2.0533701819158123,2.678466356765167,4,left
17.555999999999997,0.9425171732478086,0.18766041487606067,0.06840144470728349,-10.983302210325853,12.389332588847827,-1.338960377966241,-1.1243529177478422,-2.037092269315324,2.678177181631696,4,left
17.56,0.8808290300236529,0.18624395339892874,0.07040043080093436,-10.996800893571358,12.406198821049312,-1.3363955065257258,-1.126651628777518,-2.0521605890491434,2.6781965903746663,4,left
17.561,0.8249098691485284,0.18179626925808995,0.07190877617213531,-11.005800548713312,12.42045683735736,-1.3332795560662989,-1.1255218465760088,-2.042833813123468,2.67914880367672,4,left
17.565,0.7764511002605258,0.1757795333802491,0.08157367433874685,-10.990175822300582,12.395739718116346,-1.3386698409034965,-1.124895844885524,-2.0448055128790896,2.676101974160072,4,left
17.566,0.7423851295137542,0.16688658414039567,0.0936710207549861,-11.002405796630725,12.416993678278063,-1.3335637814600907,-1.1274590371815678,-2.0496169968197577,2.682126553055454,4,left
17.57,0.722399013197628,0.15344957643386312,0.09917745452170806,-10.995514980980719,12.403786958182403,-1.3370131829040075,-1.123364177043591,-2.040207803143846,2.6733643371989997,4,left
17.57,0.7093828021967568,0.13694622906054021,0.10346859955305066,-11.002204152224706,12.412493552733254,-1.3355798017088414,-1.1277795549550724,-2.050653431296705,2.682662231009449,4,left
17.575,0.6997722922492784,0.11672239113891411,0.0993954614684759,-10.986908060446966,12.400291859865085,-1.3352714802334917,-1.1251491197965042,-2.043962182538238,2.67735748662633,4,left
17.576,0.6946396494459222,0.09411952345639317,0.0857864651091716,-11.018224274810818,12.423417041075627,-1.3367648447760663,-1.1232751677921329,-2.0414435474975967,2.6724529039441443,4,left
17.58,0.6938664606105159,0.07167392728895038,0.07009702637515845,-10.970661245205344,12.38781596405033,-1.3347207697765908,-1.1321197920772423,-2.057784191194062,2.693372311270403,4,left
17.582,0.6932428510396009,0.049735246315673304,0.05092320113996106,-11.022485981661802,12.42723096319321,-1.3366562119888692,-1.1156021358139951,-2.0265214054211094,2.654677913795647,4,left
17.585,0.6907836310088221,0.027131086725913703,0.03499569363167697,-10.992552993901954,12.40447604919122,-1.335535632269939,-1.136836260974892,-2.0668782921547115,2.704337547198886,4,left
17.586,0.6879088958965448,0.00463611134270879,0.02186092680538252,-10.964265305590336,12.381599711747032,-1.3351083410322753,-1.119100606054472,-2.033101341963177,2.6628940692313363,4,left
17.59,0.6894266309636214,-0.021548090532442863,0.00928975382297183,-11.084850852189096,12.477487376756812,-1.3376749257112586,-1.1196161338172088,-2.034345139808327,2.663968099325133,4,left
17.590999999999998,0.69524324335601,-0.04934667940089933,0.0021211036867523573,-10.86138178436221,12.299881033817766,-1.332881250698906,-1.153313412904926,-2.0976651299902747,2.7431365239953633,4,left
17.595,0.7049002176669567,-0.07428888212211746,-0.004393106965069295,-11.148535658710813,12.528197218657068,-1.338991013896936,-1.0704522395328242,-1.9416484626046029,2.548618307009465,4,left
17.596,0.7247424454678406,-0.10668426162148138,-0.009126464208970009,-10.908707469697937,12.337477078528407,-1.333911796596917,-1.2078441790015995,-2.200424815252232,2.8711066185913037,4,left
17.599,0.7401996737330663,-0.13008491988939475,-0.008095990097446562,-10.914946446403668,12.34226876354815,-1.3341034431760521,-1.0266320037860484,-1.8591002077333227,2.4457686326105073,4,left
17.6,0.7456112999979366,-0.13608611647763236,-0.006992154641506064,-11.373344092889226,12.707460463605111,-1.3435525684324454,-0.26596228563670077,-0.42678274425002505,0.6601215523539683,4,left
17.601,0.7635865150689936,-0.1561593798049058,-0.006265415952028926,-10.246838251764618,11.810180761753557,-1.3202900138028217,-0.08476845501159969,-0.08551290213792301,0.23481509618357843,4,left
17.605,0.7894485519809334,-0.18428118171908403,0.0009139708787089436,-12.11466941608862,13.297892264762915,-1.358852339917347,-0.22214054820766116,-0.34423000379871915,0.5572692964576181,4,left
17.605999999999998,0.8025136082865694,-0.1963455159900968,0.009006729142953215,-9.650932292061256,11.33557022899587,-1.3080064323608125,-0.13927182128862325,-0.1881907951339676,0.36273809848465677,4,left
17.607,0.8069846283931899,-0.2002721728863508,0.010979021852243611,0.6910985185388707,3.0973406581782394,-1.0946860302280883,-0.17303494688307222,-0.25170734329581923,0.44201969351681825,4,left
17.609,0.8176869628277111,-0.20967833154808133,0.01738533002743476,3.154955006861886,1.1349694430502917,-1.0438666949267204,-0.1734088043478098,-0.2525282298526746,0.44285023260422657,4,left
17.61,0.832462262367783,-0.2207807779147275,0.030189938452850933,1.2869462223863293,2.622797510129959,-1.0823897513420657,-0.15587627046409563,-0.21935764221209647,0.40175586387438533,4,left
17.614,0.8426923307992817,-0.22460924127480514,0.04171019550539806,2.413574648092929,1.725313639827283,-1.0591535253616555,-0.1769081362386361,-0.25911072641425925,0.45106786665104887,4,left
17.615,0.8511818545356928,-0.22403504777293354,0.05296631127899954,1.955251405839806,2.090791473147684,-1.068621194233887,-0.16047773857064354,-0.22810845534581928,0.41252344805065716,4,left
17.621,0.8593166897207524,-0.21944511519837712,0.06225458269483696,1.9486158559600244,2.095276577232304,-1.0687216201281546,-0.1694960743633674,-0.24496762571281244,0.43374140974754516,4,left
17.622,0.8638964703021468,-0.21068407811313933,0.06684929390190622,2.1892019877341973,1.904748558091994,-1.0638142849197023,-0.16706259983542215,-0.24077873314119788,0.4278751701476902,4,left
17.624000000000002,0.8652014616852732,-0.20131896261254545,0.07259065656017902,1.901056847695471,2.1331825403788263,-1.0697015612014318,-0.1653962166860067,-0.23696537328280032,0.42422736125369026,4,left
17.625,0.8663560747470334,-0.18944496977236053,0.0773484777860995,2.125392848689392,1.954951332154019,-1.0650992051515142,-0.16862849163801893,-0.24387914729694332,0.4314918220025551,4,left
17.628,0.8668715671709382,-0.17648910162376974,0.07435998865262154,2.004646397326946,2.0520606256519835,-1.0676371916289542,-0.16547681249474433,-0.2372856624130345,0.4243506938236046,4,left
17.629,0.8635798916428216,-0.161627753085676,0.07238634420944513,2.0317113156562074,2.0275245984608565,-1.0669241705774868,-0.16804851558280254,-0.2421223676718524,0.4303898652080623,4,left
17.633,0.8560134421992577,-0.1427712657914285,0.07034879212353229,2.0647394525322804,2.006337786402341,-1.0665103894180268,-0.1656719770763172,-0.2388685603502916,0.42433439029192155,4,left
17.634,0.8466372100871635,-0.12501045642996889,0.061927166905724494,2.008066960461772,2.0451996247565396,-1.0673507075170803,-0.16854256220950897,-0.24148357211831292,0.4321620941948541,4,left
17.637999999999998,0.8361600656347157,-0.10816331494106102,0.05481412448922558,2.0610618204650537,2.0079916072148567,-1.0665197823695132,-0.16487352851780268,-0.2387368721318264,0.42192459979340036,4,left
17.639,0.8198299161856979,-0.08966012059601236,0.04767857166530537,2.0261876562228442,2.035815799343557,-1.067241304027318,-0.16867038816193003,-0.24144996525241427,0.4325692689489317,4,left
17.643,0.7987404303278416,-0.06935808712643068,0.04000210962059768,2.0396754131751624,2.0157854455530986,-1.0664768285466395,-0.1666572716968301,-0.24022207902706055,0.42684310041454465,4,left
17.644000000000002,0.777472586948281,-0.04726282883548263,0.035932637121928256,2.043662948289038,2.033830368827312,-1.0675061079274384,-0.16402744968758315,-0.23748074905697528,0.4198070512029737,4,left
17.648,0.756015280749095,-0.027072430991477776,0.03336004997905061,2.0293767312626367,2.0135527201502272,-1.0661424506469286,-0.17407214811926777,-0.24672333458043677,0.44716136496808134,4,left
17.649,0.7338789052054422,-0.00825559231220661,0.03394211359232205,2.046158874229783,2.033931761571765,-1.0675641692899425,-0.15570907121865113,-0.23008031725962924,0.3970546715423783,4,left
17.652,0.7118968803631232,0.011860162277219838,0.03705771529419262,2.0340102003476357,2.024110193120845,-1.0667932559053954,-0.17922796130512508,-0.2513387739718957,0.46125253674573685,4,left
17.653,0.6924663858337938,0.029765270174047363,0.03864596760590482,2.0356833062908937,2.005968577744283,-1.0658782068869814,-0.15961862328985527,-0.2336370572053912,0.4077169522078106,4,left
17.657,0.6709548171221614,0.04616133918105443,0.041130554787101564,2.0482413692387222,2.069527569885456,-1.0694728776487699,-0.16005411156939303,-0.23394119363615132,0.40894154017773954,4,left
17.658,0.6498165756369065,0.06246462253548042,0.04462618556115592,2.021364407883061,1.9545155237640766,-1.0628805287798122,-0.197754812889056,-0.2682673597297195,0.5117518738056746,4,left
17.663,0.6284801447623991,0.07508770998091278,0.050301055425429765,2.0566804472650313,2.1015548302968545,-1.071328802222066,-0.10520612146351639,-0.18410548560479528,0.25932828120461815,4,left
17.664,0.5978235786045094,0.08811482778450236,0.06421242554607985,2.0268714065966416,1.9790595773875195,-1.0642825540117866,-0.25862312528133513,-0.32359445553316335,0.6777795330183911,4,left
17.668,0.5783588230558402,0.0991995533384598,0.07506337510043201,2.0289276383067834,1.9813765880178793,-1.0644472591585064,-0.05627411091763364,-0.13961601864853532,0.1258626774487838,4,left
17.669,0.571944815774057,0.10154234098988837,0.07874522944945571,2.0816672317862768,2.218225423320267,-1.0779682917535394,0.7932730963329996,0.6329106332510495,-2.1912609107369905,4,left
17.67,0.5508647104493516,0.10771708338248571,0.0905114325792814,1.9505691841779083,1.6372558959171002,-1.0447658913493514,0.9956253702255163,0.8169063728755507,-2.743183441114565,4,left
17.673,0.5187965114184181,0.12099624181975964,0.10620661403061743,2.1683124178007773,2.6002304877010953,-1.0998093142584362,0.842204838765016,0.6773986715316307,-2.324726052434677,4,left
17.674,0.49866395891841286,0.127574092054823,0.11421768623413799,1.8810845985735176,1.330083679130065,-1.027207103019283,0.9347521926196237,0.7615534645931697,-2.5771472995999565,4,left
17.674,0.4919920829545422,0.12866981564675728,0.11610511639722398,0.6772626988453109,-4.003122529866839,-0.7223955589017278,0.8970631817107428,0.7272893156996254,-2.4743573533700656,4,left
17.677,0.4760039247459173,0.13308851074080175,0.1217354833256921,0.39020722082904846,-5.273488220809796,-0.6497830892568219,0.8966025349476339,0.7268516879217797,-2.473088913532208,4,left
17.677,0.4546987977766174,0.14154169478293488,0.1336309057912711,0.6077504462362249,-4.310176710676732,-0.704845225089616,0.9162479491976372,0.7447448470353546,-2.526687361387696,4,left
17.682000000000002,0.44222385160080174,0.15054297572756348,0.141575646501355,0.47662946276673923,-4.891410733697002,-0.6716200769211175,0.8926931296210585,0.7232957001835122,-2.4624269116327224,4,left
17.683,0.42971546895988566,0.15976255013687096,0.14481585835378824,0.5298886489226884,-4.654616469283963,-0.6851598928101064,0.9110717188819728,0.7400210961447444,-2.5125605827766924,4,left
17.688,0.41877653757643457,0.17261756137031165,0.1473397264248364,0.5307608293824042,-4.651693717788248,-0.6853213265316753,0.9010578517477923,0.7309420294903712,-2.485260071832414,4,left
17.688,0.4105818988683272,0.1865584388649948,0.14812330916475613,0.5027023823209953,-4.7754484264514865,-0.6782500325251533,0.9035883202286475,0.7331562263967293,-2.4921229118847816,4,left
17.692999999999998,0.40170458670841025,0.20037165094085102,0.1459085656178789,0.5362091166273155,-4.6266666608850855,-0.6867603879830527,0.9057726481761139,0.7352926082046422,-2.498147467606933,4,left
17.694000000000003,0.39425614642514917,0.21810050331399786,0.1380748301304794,0.5102355371059546,-4.743337261047818,-0.6800722848196665,0.9017656466255064,0.7314643262247753,-2.487136665718563,4,left
17.698,0.38847095676099463,0.2397561980401436,0.13150377108040892,0.5240645532032007,-4.67918534053873,-0.6837725547523006,0.9056022491567751,0.7351004625009336,-2.4976659643893147,4,left
17.698,0.3833466308254981,0.2677962949942586,0.1337565887483661,0.5211571552876039,-4.69564248830517,-0.6827907449791937,0.9027330800898614,0.7324925624900701,-2.4898410783752825,4,left
17.702,0.3738922121966253,0.2981080017105944,0.13308609530636972,0.5171770725024623,-4.710407452157307,-0.6819796204342211,0.9047988322814213,0.734097679675196,-2.4953545427265844,4,left
17.703,0.36209265331735907,0.32190054623614606,0.1218130460945991,0.5236408832558346,-4.681793297126907,-0.6836156167917731,0.9029375194113576,0.7330302570817733,-2.490553651551415,4,left
17.707,0.3570096810293025,0.3426508684635293,0.10466671407551362,0.5180195280316091,-4.711877456140844,-0.6818346023075891,0.9050292994069284,0.7339994007880135,-2.4958477822444856,4,left
17.708,0.35720572075688023,0.36010568107606694,0.08180603744578188,0.5210741271243587,-4.686455102666784,-0.6834279550751285,0.9029270398745319,0.733082757660566,-2.490551879537466,4,left
17.711,0.35515934586894093,0.3736607688996353,0.06190278233203067,0.5208005877171267,-4.705419621793151,-0.6821348481467238,0.903940272809918,0.7334285437395792,-2.4930629255990207,4,left
17.712,0.3505852668236955,0.38818317687459725,0.051661885042340996,0.5192056997035734,-4.693555560779574,-0.6830357722134662,0.9058114207488797,0.7346358880788103,-2.497947130985072,4,left
17.717,0.3445678721472398,0.40137976374077144,0.04329871880894687,0.5210909129578216,-4.696146982675035,-0.6827591936734936,0.8992555793395318,0.7308413725923186,-2.481022562128528,4,left
17.718,0.335091940551167,0.4125926257305138,0.04266770602563322,0.5206847826292359,-4.70735790738914,-0.682006763463204,0.9111186371097855,0.7376084333379547,-2.511606710614232,4,left
17.722,0.3262067865152153,0.4213757394231694,0.05267799457640866,0.5181756921364851,-4.6772443921508415,-0.6842147016855701,0.8959520772884026,0.7289812395248563,-2.472514190926784,4,left
17.723,0.3206624833904856,0.42594280353812536,0.05969457179246565,0.5240783839609233,-4.7275648251083835,-0.680436624437699,0.9085870494560513,0.7361564412313992,-2.5050796732362715,4,left
17.727999999999998,0.3159995254583308,0.4267042748780987,0.06881116153245706,0.5159441052576522,-4.665403047179407,-0.6851469892744602,0.9083478739698997,0.7360624214631242,-2.5044732445612654,4,left
17.729,0.3146747742473427,0.42536113563964195,0.08181734387980341,0.5229733491059378,-4.7162503353948155,-0.6812754722528647,0.8839183189836991,0.722057733497808,-2.4414709210370047,4,left
17.730999999999998,0.3159660510518889,0.42193895915907426,0.09358387649884298,0.5225743779542585,-4.715781854045356,-0.6813261328505975,0.9438419886492553,0.7563563853979162,-2.596002841992207,4,left
17.730999999999998,0.31613137333866226,0.41327630882385513,0.11218703488074883,0.5095598344537642,-4.617144192253256,-0.6888096944871469,0.8445170754007005,0.6995247854797166,-2.3398601189679127,4,left
17.737000000000002,0.3153589309981252,0.4079577129628033,0.1240952735692077,0.5419232091998282,-4.857956205675958,-0.6705138606690928,0.9755236602202779,0.7744765594525033,-2.6777096408147285,4,left
17.738,0.31536253581260687,0.4062031845529166,0.12960626802286088,0.488081139358783,-4.459456137167635,-0.7008005374112316,1.5255722405897942,1.0894192061408154,-4.096079584772475,4,left
17.739,0.31747500256183026,0.4010586098441853,0.14167614294610772,0.5591922468768429,-4.984697568158618,-0.6608795124808755,1.6565921054801416,1.1643902820605048,-4.433959532467559,4,left
17.742,0.3169872292498207,0.3994301403599642,0.14727342832613474,0.8576905157521497,-7.189345647824306,-0.49331329007657454,1.5572523260474083,1.1075123799362352,-4.177802562062185,4,left
17.742,0.31548378979766134,0.3935554929632843,0.15535866624125527,0.9288724858316504,-7.714399087584373,-0.45342096547324773,1.617172295037174,1.1418931231380096,-4.33225582839907,4,left
17.743,0.31824820659108555,0.3805289285665925,0.1687814977611135,0.8748846671866454,-7.31632168226189,-0.48365170768907007,1.5927867639565516,1.127772093800845,-4.2694990423451245,4,left
17.747,0.3185346903018171,0.3724241958768408,0.17250664117895637,0.9074635663352513,-7.556434394768463,-0.46543219885205994,1.5924504360432485,1.1278043961611823,-4.268455394144215,4,left
17.748,0.3165127721366602,0.3671578922185522,0.17295996278693843,0.8941988995550656,-7.45872321794938,-0.4728370637069995,1.6052266501091987,1.1348977540621752,-4.3015748366732085,4,left
17.750999999999998,0.3182601790876859,0.361889342374315,0.17053529582681787,0.8940011062221196,-7.457330939646372,-0.4729356645113913,1.5899170133134113,1.1262280542060674,-4.262021776773361,4,left
17.752,0.3189218391792452,0.3562025951820378,0.16094200362512076,0.9010116992028241,-7.5086464227002825,-0.4690925942220642,1.6018463176661437,1.1332437284847952,-4.2926354920843535,4,left
17.756,0.31575261541718025,0.35349233299716004,0.1487864098918194,0.8925589987281289,-7.447088004416237,-0.4736532402825754,1.5954029425385667,1.1289551103388353,-4.2764961507394705,4,left
17.756,0.3151981924507432,0.35877353161368364,0.13929906786939278,0.8992248540512043,-7.4951620515527795,-0.47016518542872965,1.5968939213655493,1.1308412563816699,-4.279521451390993,4,left
17.761,0.3166433661508521,0.3676998824942832,0.13237623967250822,0.8955473006498091,-7.4691065017808835,-0.47198226096330265,1.5985723546993356,1.1305356785193386,-4.284854792455043,4,left
17.762,0.31613667928975564,0.37884557008057274,0.12553704480090971,0.8964244291491632,-7.475118863642159,-0.4715953039631576,1.5956429442337496,1.1298680161023997,-4.276499529898738,4,left
17.766,0.3207977075620075,0.3910502256298859,0.12047354047440889,0.8975069775285309,-7.482196857364139,-0.4711963043485722,1.5984102805272982,1.131461044201238,-4.283628643358103,4,left
17.767,0.328444899744457,0.40516305414966586,0.11741747486613363,0.8954010928228916,-7.4695767573668945,-0.47170870604176723,1.5965178923977748,1.128505719444965,-4.280234957847352,4,left
17.771,0.3328693167912311,0.42682635197290547,0.1177364187703604,0.8977706794731268,-7.482043076632102,-0.47153028048648626,1.5974151037529423,1.1332974812138645,-4.279151969533658,4,left
17.771,0.3395601715075043,0.45191477700353244,0.12183084772920695,0.895700478235048,-7.472919185183683,-0.4712803940425834,1.5972836950966238,1.1268399900737198,-4.283880477083402,4,left
17.775,0.3460305147836318,0.47665733147691136,0.12911997693408095,0.8969882372530265,-7.477519894051554,-0.4716825801312391,1.596982168211536,1.1334711247642135,-4.277700688185368,4,left
17.776,0.35166632145501503,0.5046108758004153,0.13874948583983493,0.8969936514902077,-7.477516261349146,-0.4716895634500884,1.597452309675323,1.1298087513977872,-4.282035051748243,4,left
17.78,0.358923881241933,0.5378368151326443,0.14835952272047184,0.8951850123161753,-7.473261468837473,-0.470618006719802,1.596937657654304,1.12612613310597,-4.283397260351905,4,left
17.781,0.3629746283452538,0.5714304666324402,0.15900957860097564,0.8990732245426136,-7.481178212609233,-0.4732040425181042,1.5974930359079054,1.1412737160466904,-4.273055594715535,4,left
17.785,0.3653077050559608,0.6027898145169819,0.16862530570179235,0.8934745337065833,-7.470855924405285,-0.4692331106232741,1.5968637135418997,1.1134108552674942,-4.293269070695969,4,left
17.785999999999998,0.3659935285652533,0.6368411504586804,0.1795376174581111,0.8993248822828259,-7.480989856557034,-0.4735322644714844,1.5975278731704488,1.1491066060990727,-4.266941218749727,4,left
17.79,0.3627520306042368,0.6690956478071068,0.19498041282282622,0.8959822487465052,-7.475412420946199,-0.4710271338614074,1.5970334381676017,1.1193390961284393,-4.289078222072495,4,left
17.791,0.3570099765606517,0.7019629325046228,0.2117923794157412,0.893116521413312,-7.470720454268532,-0.4688587503316415,1.5969551183105117,1.1200952886336542,-4.2882371213725445,4,left
17.795,0.3524930990233446,0.7348670199299181,0.2300104781535259,0.9056130081429639,-7.490920675252352,-0.4783737633099799,1.598142547064909,1.1769889015592323,-4.246670079838003,4,left
17.796,0.34772018278921935,0.76146268098638,0.25150461374895317,0.8824813733609008,-7.453778745529888,-0.4607039710934832,1.5953550431413994,1.0372201723298817,-4.349186082440753,4,left
17.8,0.3345406624357643,0.795822619871495,0.2790108230213434,0.9121538709765042,-7.5012494735480955,-0.48340936477359453,1.5999296299003718,1.268941126496352,-4.179078873480759,4,left
17.8,0.3252695922700538,0.818330162051738,0.29672881418336516,0.887393952376878,-7.461715696123882,-0.46444707317662187,1.593909706862481,0.9633045781113103,-4.403495814875933,4,left
17.805999999999997,0.3235943163506565,0.8239680549699998,0.3009394902051973,0.8880689466354286,-7.462797380388853,-0.4649573608327273,1.5685934279781724,-0.31959849006402963,-5.3453046342344575,4,left
17.807000000000002,0.3141275973980595,0.8472540960183508,0.31787493131782896,0.9352446950829562,-7.537981170592385,-0.5011356662396904,1.5625645744300136,-0.6252556119210264,-5.569726039441431,4,left
17.807000000000002,0.3008612325969032,0.8752372380364287,0.3396848956663593,0.8192963624026623,-7.353244290744867,-0.41221208524683206,1.5671437389799268,-0.3935078672909771,-5.39958765717703,4,left
17.809,0.282850416018922,0.9033212626289024,0.3493797838124213,1.0115335250538253,-7.659488776680566,-0.5596571033664682,1.5643779191521632,-0.5332841806281945,-5.5021951332279055,4,left
17.81,0.2693004694060769,0.9255303760829231,0.35368248074613007,0.7579920555766971,-7.255592669574915,-0.3651675083775969,1.5654961694396312,-0.47643131509351994,-5.460451743524249,4,left
17.811,0.26713445896531407,0.9311115674979633,0.3553494949111997,-0.30581749708529155,-5.560208648509529,0.4514526406110811,1.5655418925132412,-0.47556534368580705,-5.459861564786992,4,left
17.814,0.25127916017192437,0.9538605380296727,0.35454181203480223,-0.5592513679112969,-5.15630168930714,0.6460051287604816,1.564889462093133,-0.5055079538636231,-5.481741685834866,4,left
17.814,0.22825732422177447,0.9882024879024166,0.3489745897918013,-0.3672459993716328,-5.462587432733692,0.49842457723976147,1.5656861506109983,-0.46961572847034905,-5.455541117886785,4,left
17.82,0.2088016511720897,1.0197599110355873,0.33924066065693925,-0.4828299306833864,-5.277750470562653,0.5875613196028666,1.5650456969234687,-0.4976044298541964,-5.47593832333731,4,left
17.822,0.18468186671761488,1.0594195404212945,0.32597425512593214,-0.4361105546595301,-5.353110851989853,0.551115921364216,1.5653811613001332,-0.4825309264981396,-5.464937453097956,4,left
17.824,0.166214325463989,1.0998352147239305,0.3039425178320948,-0.4350164709629824,-5.353956562728753,0.5508510963979142,1.5653923469386701,-0.4858121353898769,-5.467477091671135,4,left
17.826,0.1523043527005974,1.1440701549957233,0.2727181495656962,-0.45992666455789605,-5.314645860220775,0.5697250151590444,1.5650601177130135,-0.490258524736116,-5.470319795468297,4,left
17.829,0.13971995694219302,1.196541551864164,0.23114990732361598,-0.4306673580004625,-5.362038400964198,0.5467784128332484,1.5656331517564834,-0.48256718484761724,-5.465400195034045,4,left
17.83,0.13363471994795878,1.253338271330053,0.17715183372016563,-0.45257559678913156,-5.324662949554421,0.5651635830220259,1.5649691670657617,-0.4900162168797149,-5.469976381507609,4,left
17.834,0.1302647024780746,1.3138637124765238,0.11065716140832713,-0.44213239051827413,-5.345546042313119,0.5544471709428261,1.5654823315656057,-0.4848967819111955,-5.466929499540328,4,left
17.835,0.12899343492649212,1.3759099682478497,0.03197436349510476,-0.44252702044178194,-5.339713908676538,0.5580622417817238,1.5654488788929362,-0.48678353983474604,-5.468321478985628,4,left
17.838,0.13322139090027296,1.4424534464430847,-0.04602402491445394,-0.44777498321812725,-5.335499133876442,0.5594506671588156,1.5646549584160576,-0.48824388319370193,-5.468071741996594,4,left
17.84,0.15063049925719774,1.5153465929433472,-0.11544461532907518,-0.4420854979090955,-5.344600707275561,0.555060181497108,1.5664897177559527,-0.4838646490860325,-5.467876867240756,4,left
17.844,0.18201517513969606,1.5863894306410509,-0.18166665106945146,-0.4438204615676168,-5.334143862204852,0.5612888705403902,1.563757454378175,-0.4901561116209106,-5.467990761975571,4,left
17.844,0.22051141872262314,1.6486493488287683,-0.23812118453329856,-0.4485010630537952,-5.344266944427492,0.5536907691147752,1.5666636241064376,-0.4837698062353657,-5.468103899378896,4,left
17.849,0.27057093333863114,1.701397859184068,-0.2826727414121454,-0.4377350456669255,-5.335191442147557,0.5621215589404576,1.5649846591923509,-0.4874640886758396,-5.468043114731147,4,left
17.851,0.33167886187407203,1.7368330262596074,-0.3187558076040611,-0.450878979119157,-5.342212938141481,0.5544138999121571,1.5635504650948535,-0.4899340792171811,-5.467461453461777,4,left
17.854,0.4009246246428431,1.7549055832684703,-0.3438439542388868,-0.44243216095474625,-5.339507910907363,0.5582132571883296,1.5698434155113388,-0.4781970589249802,-5.4693166535978595,4,left
17.855,0.48146475929129484,1.7599691264547415,-0.35770532461918014,-0.4369473013470988,-5.3343326690445725,0.562867032314853,1.5581729781896643,-0.5000116122681033,-5.465915537841296,4,left
17.859,0.5695919760588033,1.7475759603192693,-0.3552896234542263,-0.4647437463209952,-5.350979678677993,0.5454101017478334,1.5731564272707677,-0.4720574221213228,-5.47032039681735,4,left
17.86,0.6672943080926206,1.7312107718796108,-0.3404330540844241,-0.41208811494265074,-5.32185471615254,0.5769347257985222,1.560649194642243,-0.49537145370860886,-5.466631633616495,4,left
17.863,0.7640096034639549,1.7107651169863185,-0.33027299907134966,-0.480194135728513,-5.358482459408343,0.5368342516661962,1.5609864991933744,-0.4946576721436463,-5.466657032140684,4,left
17.864,0.8523301858379004,1.6876800039570854,-0.3464587861902803,-0.42312023049860953,-5.32822353703244,0.570147027149549,1.5848354447098973,-0.45054080425306864,-5.47397195318708,4,left
17.868,0.9217700366232113,1.6668524626076393,-0.38734858820640405,-0.42486091544941584,-5.3287848684876815,0.5693947165751911,1.5262220000091307,-0.5590473239527485,-5.4560738178705614,4,left
17.869,0.9449948175985519,1.6280604917693773,-0.4268591816009702,-0.5333187504143484,-5.386944214896416,0.5055919281758415,1.6234015173386371,-0.3791318581438144,-5.48572380739642,4,left
17.873,0.947172757905271,1.6007543132016462,-0.450000595625487,-0.2663872023682756,-5.244448651243401,0.6621406348360905,1.4952267432595434,-0.6164336641681575,-5.446632517966657,4,left
17.874000000000002,0.9283628124298546,1.5823317907982397,-0.44072798965045124,-0.7091520687331916,-5.480517719494616,0.4027122749288892,0.9571709940471729,-1.6121671296229558,-5.282057129547139,4,left
17.875,0.8933205326822002,1.551064014361614,-0.42364832593482565,-0.12504332613197608,-5.169205565500546,0.7448191575960921,0.8290035498425251,-1.849463274054017,-5.242996813225039,4,left
17.879,0.8738980755111787,1.5323133395384634,-0.41192987897902444,2.326613423301643,-3.8628221804421043,2.1809018592093716,0.9261748642013148,-1.669567811644334,-5.2726234771605665,4,left
17.88,0.8023415520563035,1.4837808767532499,-0.3448111938398386,2.910836648155688,-3.5514209562788652,2.5229278390981396,0.8675593685975307,-1.778027505165603,-5.254676520127028,4,left
17.88,0.6753374668256182,1.4021316155705676,-0.22396952629020447,2.4678657595407874,-3.7875861156035677,2.2636467201932926,0.891432630092027,-1.7339916577822825,-5.262176974742717,4,left
17.884,0.5461304812239516,1.327204582043879,-0.08773312756562902,2.73504121161744,-3.645128185917485,2.420017225174507,0.8917162862881806,-1.7331712521977598,-5.261852862226966,4,left
17.885,0.4035338374668222,1.2446452451495156,0.06549142383227617,2.6263942881488527,-3.7029658418842253,2.3563600995366354,0.8792870389294596,-1.7565839563461338,-5.2586254449560546,4,left
17.889,0.26621145836065724,1.1651781321187795,0.22548342644227615,2.624659648579604,-3.70421798699177,2.3555856588838515,0.8941915013312812,-1.7285992192836086,-5.262620593792347,4,left
17.89,0.14715193126054132,1.098964604966484,0.37699943896723564,2.68204577148306,-3.672969634820597,2.38869696247232,0.8825576145031011,-1.750301210341951,-5.259303975020233,4,left
17.893,0.04915270523899798,1.042510952226365,0.50524720776637,2.613228033845604,-3.7105813628419595,2.3490884002719503,0.8889127018047589,-1.7388801759091004,-5.261723655565241,4,left
17.894000000000002,-0.019628671358210448,1.0026083591483672,0.599351211034731,2.6669350476884857,-3.6810341322100473,2.3798598683596364,0.8872685597274088,-1.740830738828496,-5.259689471160751,4,left
17.897000000000002,-0.07211196404324516,0.9824008646410742,0.6513237373674493,2.638034751034839,-3.6968310202640797,2.3632268905820837,0.8859568996433036,-1.7451370895004568,-5.261923797354813,4,left
17.898,-0.11076559951209011,0.9813836595145109,0.653359715553793,2.64412492909864,-3.6943849739736567,2.3673707306845513,0.8884063958750261,-1.7383000042494692,-5.259440715626228,4,left
17.903,-0.13841695876863735,0.9926846483026698,0.6139954453952967,2.653203849145381,-3.6869832564646874,2.370831355483681,0.8860470234837845,-1.744502248175047,-5.2612952012505545,4,left
17.904,-0.15980216957106413,1.015081558032576,0.5350598614709781,2.6375050492724945,-3.6997614801870444,2.3648324085356367,0.8878648324860222,-1.7411546726530918,-5.261873581563163,4,left
17.907,-0.1740111138777014,1.0478734855017444,0.4134334952609544,2.6529662953567517,-3.686109483700304,2.3699688664570164,0.886425424869486,-1.7404124979142424,-5.2566557719765505,4,left
17.908,-0.18059322379343445,1.091180698020831,0.26252603227936155,2.6422066746451556,-3.6961575186968503,2.3667900743433865,0.8879039128796056,-1.7454592619879319,-5.268026454330324,4,left
17.913,-0.17826190600433867,1.1455089570121633,0.10159259302636368,2.645802908677944,-3.694280325902179,2.368924504595505,0.8861319992010814,-1.7371283661410692,-5.2511958813262085,4,left
17.913,-0.16951499506706857,1.2047434265225805,-0.049139420415255,2.6504054367891263,-3.6838203714205866,2.3658261236243767,0.8879401477513706,-1.7461580946535795,-5.269113327687364,4,left
17.917,-0.15420727949236648,1.2680370789085063,-0.17523228413634218,2.6378982440486056,-3.7087833523586236,2.3717403847944567,0.8870229049605031,-1.7407055673490568,-5.258798689374524,4,left
17.918,-0.1313357308900182,1.3308895610632803,-0.26470628980251,2.656093208335362,-3.6717904276833715,2.3626472079392418,0.885600535738138,-1.7371720280106422,-5.24971720101554,4,left
17.922,-0.10037694733165842,1.3866581659210653,-0.30847260478405797,2.6373117255440066,-3.710897840535533,2.372699300563901,0.8907916089996701,-1.7545447366958715,-5.289152414102796,4,left
17.923,-0.05876263271355181,1.4318846624439863,-0.3101256388297564,2.648168346465994,-3.688299424447684,2.366896127617504,0.8813512163683117,-1.7219839187104045,-5.216073782574906,4,left
17.927,-0.01200919692868608,1.455984214753003,-0.27257585645006965,2.6561721330713115,-3.6695399603717354,2.3610935823312915,0.8934314423280153,-1.7638685788967652,-5.309900352302996,4,left
17.928,0.03414943063467014,1.46288974162029,-0.21221310534907484,2.619394611720532,-3.7525701349068066,2.3854498043457575,0.8833629334073869,-1.7288735642119804,-5.231569986316792,4,left
17.932000000000002,0.07766523515542749,1.4506086225433936,-0.13426599023483302,2.68768127748522,-3.5985468209533895,2.3403352111317677,0.8835711068523396,-1.7299322542554587,-5.233680998007621,4,left
17.933,0.11317514276917207,1.4166397813648333,-0.04120272745831451,2.6001159907799996,-3.796256582772301,2.398327660096461,0.9029814228271748,-1.7962874215675182,-5.3830800436781985,4,left
17.938,0.14189257790876125,1.3758224073613483,0.04541678206600448,2.673160564679425,-3.6312311919786353,2.349887039127457,0.8553485072489644,-1.633069965388152,-5.0158781395609635,4,left
17.939,0.16376817924329068,1.3116820573091281,0.14162979901479272,2.6710589952595916,-3.635762037578671,2.351103738524552,0.9343072518298888,-1.903716829357431,-5.624723504219341,4,left
17.941,0.17323770727051907,1.2643846587956546,0.20168471687582656,2.5323428032691995,-3.950136328040859,2.443853727151973,0.8301618811338511,-1.5467410581565921,-4.821649627003264,4,left
17.942,0.17525539580595972,1.256083507540295,0.21178628339526867,2.873362451907024,-3.1774085565015255,2.21596955721832,0.3929406573028833,-0.04825479630864621,-1.4510503206881116,4,left
17.942999999999998,0.17600387341194815,1.203990060395333,0.27093099953473354,2.3079712907912864,-4.458604888673132,2.593804352105159,0.28878770999443887,0.30871480902334475,-0.6479859054970152,4,left
17.947,0.17594112809595414,1.1541861716219235,0.3218687767812699,3.0536655625735367,-2.7687444810758244,2.095431986847025,0.3677520741835164,0.03804272014767214,-1.256779580859631,4,left
17.949,0.1740331135553897,1.1503476899991039,0.32545207169906165,6.183848500618721,4.3245518634534434,0.002977837849190923,0.3201314069353554,0.2013756899217737,-0.8897206072731132,4,left
17.949,0.16887791140771197,1.1172949009483997,0.3643204269890922,6.929505288865535,6.014393880124281,-0.4954390891220314,0.3394957077579718,0.13476548229623822,-1.0388509188693378,4,left
17.952,0.16348938905239802,1.0749439762585689,0.40745437040853894,6.364120368061217,4.733193697817994,-0.11749809825959656,0.3397903132701572,0.13409994459756222,-1.0413379293551586,4,left
17.953,0.16132686514819022,1.04648258545931,0.43454539270546916,6.70527698369568,5.506013152937248,-0.34556930896764065,0.32960794625181056,0.16865583282904134,-0.962630354001089,4,left
17.956,0.17130296425568836,1.0083736023245793,0.455355248794878,6.566175695017268,5.191399446383537,-0.2525558413261443,0.34178897532931984,0.127052846369209,-1.0566303219084916,4,left
17.956,0.20277118503855035,0.9656917291597735,0.44130932475547635,6.564735313990998,5.187267885285058,-0.2516231888675285,0.332328440742077,0.15978107872310146,-0.983852393326202,4,left
17.961,0.2522399699697123,0.9197904492934852,0.3943788198795559,6.636965893098232,5.351813531483456,-0.2998830080212045,0.3373791430144114,0.14150068155275575,-1.022273418479538,4,left
17.962,0.3108403167017928,0.8809647252945625,0.3242467734369202,6.550043785409407,5.154465647889172,-0.24178772165383336,0.3363163733572474,0.14681268549849713,-1.0149702827392906,4,left
17.965999999999998,0.36503184956616663,0.8538447150440056,0.24141386342955082,6.618363753612563,5.308547934292044,-0.2874719889467938,0.33483208204095927,0.14985114272013755,-1.0024365961076804,4,left
17.967,0.4010967835366246,0.8329636793531442,0.147118314715582,6.580317746076378,5.224711346648419,-0.26199364026106775,0.3372803225819532,0.14309342143955256,-1.0221797876651495,4,left
17.972,0.4058010872612532,0.8243025417006653,0.043777343165767604,6.591175498151428,5.245215719041422,-0.2693285007062795,0.3350814977287575,0.15064490935096686,-1.0052347577623961,4,left
17.973,0.3641855995663632,0.835593193501496,-0.048092270080738846,6.5978142575851475,5.26529177837125,-0.27367357579093643,0.33636415805595477,0.14321524033286345,-1.0135166275743113,4,left
17.975,0.26808743533223117,0.8740883854364028,-0.12009570415063286,6.583465877937785,5.228765574212208,-0.26415553525542607,0.3361575679433155,0.1508552535531078,-1.0155959318822134,4,left
17.976,0.11397390645017161,0.9434316860624705,-0.1696502764543024,6.599237509330223,5.264469367655726,-0.2746984478546347,0.33550612767926974,0.14274672025815272,-1.0050963205479384,4,left
17.98,-0.08918400643608164,1.0446601782623608,-0.19159883290685326,6.584150075241729,5.237724543995052,-0.2644793844561174,0.33655179235335353,0.15018691797784792,-1.0189960778633682,4,left
17.980999999999998,-0.3363691950554071,1.1864299509063305,-0.1822517196219589,6.599121829574773,5.254639553345006,-0.2747932325602759,0.3357120511257332,0.14669534655061295,-1.0091496268454168,4,left
17.986,-0.6137947399784793,1.372069148707083,-0.1567054423371619,6.583656873832575,5.244972935745281,-0.26399910333590715,0.335720484254284,0.14117528735804377,-1.0063053314241648,4,left
17.987000000000002,-0.8935409750909815,1.5940422024030496,-0.12935093787769084,6.597628441880977,5.249581534184358,-0.2738255987367634,0.3370347217701681,0.16070227935236508,-1.0291650215929806,4,left
17.991,-1.1512470537982047,1.844648463707457,-0.10160699039945817,6.591242409027809,5.25073785766486,-0.26927414838005537,0.33427808673761256,0.1255839762467303,-0.9843115937506226,4,left
17.991,-1.3117554173177175,2.09221058100455,-0.09051415397346935,6.580493168972531,5.239860552417904,-0.2618492023562312,0.33793303238509365,0.17028241348331147,-1.0427921629992845,4,left
17.995,-1.3728314473304328,2.310851452289538,-0.09042194949953528,6.617860918796719,5.265559072814891,-0.28788475115672596,0.33483269161770335,0.133133926340545,-0.9935950109119398,4,left
17.996,-1.3724025923984728,2.46323006578759,-0.10725314318069917,6.550849428662706,5.2230756518371075,-0.24112716365749884,0.33499244062821154,0.13387945220198463,-0.9955041100584054,4,left
17.999000000000002,-1.3124069352494154,2.526738021164742,-0.1680237774405029,6.636069304395511,5.275762642286054,-0.30061725536790107,0.3407027451807826,0.20540462790745875,-1.0877770883069409,4,left
18.0,-1.2261048075384549,2.5567437337436836,-0.2983783720553004,6.565275324446606,5.232562501232292,-0.25118242827658444,0.32655722635643314,0.02998254921853473,-0.86014604304452,4,left
18.006,-1.0125900802620964,2.519811565668274,-0.4844706655144347,6.566646594002156,5.23252301182036,-0.25216680108288037,0.3500536380482244,0.3206947285232408,-1.2378842239747678,4,left
18.008,-0.8271197301102498,2.463439868105186,-0.5964366852769798,6.703082845099759,5.318114279725327,-0.34737131208807226,0.319045306025294,-0.06269608256379035,-0.7395344887093794,4,left
18.01,-0.7963889149722706,2.4591437675929746,-0.6281271284955593,6.36853349376738,5.109485274526785,-0.11387840398077706,0.1889562447293174,-1.6722089033757577,1.3518321761735097,4,left
18.01,-0.5712613741731272,2.3350461803300293,-0.6595760018394305,6.922922463785153,5.454750039644482,-0.5008336189191351,0.15794045419057973,-2.055575336984452,1.8502046883558392,4,left
18.011,-0.34824467793152875,2.200627245745073,-0.6608627352944321,6.191813197340716,4.999573894120467,0.009498689822048711,0.18145598228138715,-1.764926820792735,1.472373410722358,4,left
18.016,-0.323347203625717,2.173718621498793,-0.631683366636433,3.1225673029035033,3.0880356311604173,2.151891946967992,0.16727440464240295,-1.940226854646713,1.7002375477711245,4,left
18.017,-0.15648935921290086,2.028956272272545,-0.529091774527967,2.3915452681147853,2.6328531510103454,2.66225101544297,0.17303860749569225,-1.8688864784879837,1.6075464493458418,4,left
18.018,0.04642581019348036,1.8268968719409715,-0.35719523102454653,2.9457301865102457,2.9780165466114257,2.275281651472284,0.17313627740604765,-1.8679252378871967,1.6062030494835584,4,left
18.02,0.17072696451305078,1.6754517389681765,-0.20359783385995542,2.611533402993329,2.769773477692757,2.5087111143738827,0.17008180034368625,-1.9052373803040192,1.6548564588628316,4,left
18.02,0.30781407781435044,1.5202561118111808,-0.05879072684569074,2.747481865179845,2.854551738992993,2.413710739001435,0.17374496816617646,-1.8605578911644782,1.5965833922983332,4,left
18.025,0.40960374791362325,1.3961092771418682,0.07461499208423493,2.74936765137907,2.8557335901355723,2.4123593557848975,0.17088470732528577,-1.8953302065093334,1.6419674219299076,4,left
18.026,0.5115923389768412,1.2864973873807748,0.19853822967316895,2.678264312728289,2.8112049672796733,2.4622625917640883,0.17242249025359296,-1.8765653496292034,1.6175006072845324,4,left
18.029,0.6237473635631281,1.1728639651304487,0.33749261089126703,2.763257173817486,2.8646869040957714,2.402378261660112,0.1721075452036567,-1.8809694949114824,1.6230635784498693,4,left
18.03,0.72668089385661,1.0656994797218118,0.4748178936082893,2.697337277417819,2.822840825434951,2.449171904747037,0.1715997785162965,-1.8856236055398983,1.6296212734014468,4,left
18.035,0.8292620475471237,0.9548733047268334,0.6081965549724826,2.732610316430312,2.8455978120859173,2.4237837400538265,0.17247720748042888,-1.8775640355306376,1.618275396037622,4,left
18.035,0.91581546434066,0.847619227502084,0.7245324929395005,2.72466983392772,2.840309695631735,2.429654722900264,0.17160256002300295,-1.8849601760943462,1.6289535924671381,4,left
18.039,0.9779900176766971,0.7490747958477422,0.8012964548325849,2.715680126621341,2.834042135406211,2.436581859100448,0.17221663570220522,-1.8800907204614932,1.621776877548692,4,left
18.04,0.995637050505183,0.66885397658146,0.8326696577097389,2.730472859387234,2.8454178715935097,2.4241606843317496,0.1720261265876508,-1.8824714361214383,1.6248627894741392,4,left
18.044,0.9669126257236892,0.6095880208436916,0.8170916607136121,2.7178995999166755,2.8338588619863785,2.4365434059758284,0.17170219278148413,-1.8814229330532761,1.6250736212630887,4,left
18.045,0.89573280871007,0.5729591720236474,0.7669174712498916,2.7247339274332516,2.84269102675765,2.4273500069902707,0.1725480621785726,-1.88251174902629,1.6228944700233685,4,left
18.049,0.7815704081726327,0.5649335738375589,0.679142962589911,2.7230062327782187,2.8379674205425327,2.4320805800720757,0.17131073984923506,-1.8805845125636038,1.6257505203949696,4,left
18.05,0.6447633634990247,0.5775453167651486,0.5502427598622912,2.7230544035447193,2.8379642809552768,2.4320792093815946,0.1725972143026106,-1.883041102404652,1.623229410323734,4,left
18.054000000000002,0.5044500729953807,0.5996561783322855,0.40247375649610134,2.7202945994186365,2.843015239281045,2.4274647340339968,0.1718534479115803,-1.8816268072387692,1.6246918089254034,4,left
18.055,0.3783617291676041,0.6269411087340766,0.22857910449381988,2.729114839532131,2.833039147589358,2.4362537809373572,0.17128484644009334,-1.8795121549644014,1.6247911888981352,4,left
18.061,0.2754372140010978,0.6523346856859187,0.028531201200714104,2.7138861853728593,2.846630548129246,2.424588900387309,0.17386747298628308,-1.8876055949658612,1.6228526534875725,4,left
18.062,0.19915622020046417,0.6657221996194189,-0.15226382955461323,2.7313296259367377,2.8328975451527274,2.4361779815626967,0.16907304125407083,-1.8726558726604303,1.6265228119939041,4,left
18.064,0.15287055253815862,0.6725985117894651,-0.30221119961203924,2.720866819503991,2.8405887392057614,2.4297525725734737,0.17522361926009972,-1.8919240363613217,1.6219059968846752,4,left
18.064,0.12597681931479104,0.6739375610545899,-0.4295615703510166,2.711676720493405,2.847126781818185,2.42432468426134,0.1700911080391751,-1.8758072763087505,1.6257171786159477,4,left
18.067999999999998,0.12162661010057328,0.6760651525042556,-0.5134612293944903,2.7523420271399077,2.8188209936336257,2.447751306367895,0.17023863721172805,-1.8761426354967286,1.6254902681911902,4,left
18.069000000000003,0.13118602406505714,0.6872776204377458,-0.560818455684766,2.676491319219058,2.8710295211979604,2.4046186052522067,0.17999046299352298,-1.907291335952249,1.6187479296435636,4,left
18.073,0.15547053385953225,0.7063506658510604,-0.5890324119949221,2.774186801652303,2.804191026593779,2.4597864736082724,0.1560138639021405,-1.8308168449413629,1.6354156321597748,4,left
18.074,0.22301892466033607,0.7531014450429145,-0.5831193964099151,2.692503844313311,2.859895030141782,2.413826057761285,0.19576916990434945,-1.9576111484694807,1.607786042441441,4,left
18.078,0.2841311575233421,0.7958564592567323,-0.565962374531751,2.694666227039759,2.858405159056584,2.4150769364636906,0.1433323738494427,-1.7903582721706353,1.6442026246109422,4,left
18.078,0.3061284398498144,0.809687340357867,-0.560453578133296,2.8507764296506695,2.752293801824729,2.5025307049767234,-0.07673226827870978,-1.0879452882351677,1.7967078012553437,4,left
18.079,0.37619165972561275,0.8574361210453771,-0.5404837176970558,2.467059816140292,3.012999084646072,2.2876440006428416,-0.12916908760907644,-0.9206770723190395,1.8330858171590731,4,left
18.083,0.5246782905325106,0.9325604316898904,-0.5138979392434886,3.1033224822133905,2.5808271196472123,2.643870810377685,-0.08941516520547799,-1.0475053756384374,1.8055205830673353,4,left
18.084,0.6236235866683959,0.9686386665493228,-0.5034806411770418,2.264061926367594,3.1507915989801605,2.1740594094665298,-0.11338676478851108,-0.9709755538454519,1.822124001392262,4,left
18.085,0.6540524299195328,0.9802433760992642,-0.5016444531102695,-1.2598438304449093,5.54391607477217,0.20202995854313888,-0.10364530972874368,-1.002196284741513,1.8154084978436433,4,left
18.089000000000002,0.7551324155153946,1.0076980289028588,-0.5011146919430498,-2.099196142545665,6.113874515662642,-0.2677458102258158,-0.10348233921406641,-1.00246156140728,1.8152342435313995,4,left
18.09,0.8848374429894832,1.0317419038022546,-0.5027803876705603,-1.4626842355968526,5.68162606799142,0.08843585818957084,-0.10863148774226987,-0.98637731126574,1.818881540665954,4,left
18.094,0.960389851029492,1.0342037169450493,-0.5064070957182546,-1.8468942773124954,5.942627880247219,-0.12644216801632666,-0.10247121589193962,-1.0056980126461772,1.814538329328311,4,left
18.095,1.0121605149744695,1.0264075221624704,-0.5051136177052313,-1.6900182880583767,5.835888649243577,-0.03890863782074902,-0.10725706589356195,-0.9905679362785034,1.8178853960651065,4,left
18.098,1.0252483864619797,1.008210055927079,-0.49094942751272236,-1.6887720026041855,5.835344751041135,-0.03786152513597697,-0.10471217727731437,-0.9989796226073125,1.816184389880374,4,left
18.099,1.0073626526209756,0.9845600711895162,-0.46602536954525126,-1.769727188181505,5.890016645142854,-0.08350403780841809,-0.10520981333219692,-0.9964648818130606,1.8163313977452047,4,left
18.102,0.9801931195278549,0.9614087878068195,-0.43631016549688617,-1.6720247734942286,5.823800941161115,-0.02868490255367325,-0.1060471354618939,-0.9953851570406415,1.817250389245273,4,left
18.102,0.9419155257120612,0.9384643352723268,-0.39793386914597323,-1.7492371310355925,5.876492748970342,-0.07160737580303489,-0.10467633710917988,-0.9978078317414977,1.8158859785802826,4,left
18.107,0.906568715718749,0.9193014801631393,-0.3507387584818993,-1.7054470490926859,5.845919408429703,-0.04801902569228363,-0.10593534780852537,-0.9953450746016603,1.8170883608316144,4,left
18.108,0.8739200136467994,0.9050620998867165,-0.29985128070291495,-1.7193170302271397,5.856780762632448,-0.05420472376700418,-0.10519447864247991,-0.9977238435500951,1.816577993506003,4,left
18.111,0.8380631485856208,0.8996296938233922,-0.25037132973978776,-1.7247736639449198,5.858715291893879,-0.05919009568658963,-0.10523777439376174,-0.9946994828749985,1.8159961945234997,4,left
18.112000000000002,0.796793248296439,0.904070278411692,-0.21484828751839458,-1.7102272705646415,5.850249241682732,-0.04951062161370766,-0.1058794531693189,-0.9992462938037562,1.817838630431547,4,left
18.118,0.7471597348134047,0.9200845258546485,-0.19388834139918554,-1.7279965224710025,5.8623284646000835,-0.05944104101798098,-0.10474485397166906,-0.9930298740146543,1.8149673769829642,4,left
18.119,0.6857574455817692,0.951437698200966,-0.18281406848240195,-1.7080333740293583,5.846151503985693,-0.051123509226652486,-0.10598732517435344,-0.9995509865476396,1.8180509738912265,4,left
18.123,0.6168675486458137,0.992265425050109,-0.17970995975336207,-1.7316936416842013,5.868207290539738,-0.05784173058465862,-0.1052173499756032,-0.9959498712973168,1.8162330853802335,4,left
18.124000000000002,0.5439210746768852,1.034479495082933,-0.17503712727572976,-1.704131393820344,5.8405563988252975,-0.05214777689396585,-0.10481176802823772,-0.9920200970043457,1.8148453785140664,4,left
18.127,0.46409643773446246,1.0757691383167467,-0.167891645436005,-1.7306827730323533,5.8681104640636494,-0.0566332680555829,-0.10700919731968894,-1.0078669993434306,1.8212122595588984,4,left
18.128,0.3849668852030508,1.1149264209095402,-0.15887714262307817,-1.7172394936573638,5.853479232364078,-0.0551047612241263,-0.10285796128150904,-0.9787230742902261,1.8093517242349182,4,left
18.131,0.3052707754928807,1.1451199932010052,-0.14590120899178594,-1.6997501201018672,5.836857724482357,-0.05048146316673244,-0.10820520945783227,-1.0160900416597074,1.824593326755736,4,left
18.132,0.22790236974532724,1.16710174060284,-0.13288715900925283,-1.7654048269289766,5.902204322486666,-0.064615557220938,-0.10373452851916078,-0.9849171769459844,1.811863667578788,4,left
18.137,0.1534229611335664,1.178653812544019,-0.11948629744089444,-1.6462202853399934,5.782767136995293,-0.03984644474107485,-0.10388119043765263,-0.9856741501695174,1.8122276757373736,4,left
18.137999999999998,0.07851401316614895,1.1757743256417688,-0.10822702862582442,-1.7983312378423562,5.9354985852736375,-0.07112888409201781,-0.11232090322785604,-1.0453976240114389,1.8364375406222082,4,left
18.141,0.016991274666276292,1.1687019446678955,-0.10121525566773461,-1.6717342953774872,5.808260086768318,-0.045237418978587005,-0.09154762504599177,-0.8987082603468775,1.7769089787796528,4,left
18.142,-0.048725984166249944,1.1440613091166303,-0.09368159580570151,-1.6745545848171657,5.811286250396716,-0.04558731257784046,-0.12599748745046352,-1.1418977519924725,1.8756169408530132,4,left
18.146,-0.0935786677813433,1.1200883621878308,-0.08824677151542396,-1.917561343816843,6.05501384115303,-0.09588770133610995,-0.08055863153519427,-0.8211358677530661,1.7454202495981654,4,left
18.147000000000002,-0.10236294440847216,1.1167716801249354,-0.0878548464286161,-1.321158665844897,5.456569329244557,0.02723060261415359,0.11015962321744924,0.5254323538486909,1.1989789303725242,4,left
18.147000000000002,-0.1455262111682356,1.08293870586698,-0.0907625477149479,-2.3096884544039047,6.448583562929262,-0.17670374130988165,0.15559604347333367,0.8462069926712191,1.068785799943714,4,left
18.151,-0.18427860249007638,1.0467826055851366,-0.09303291740509309,-1.0059451004260518,5.1402109832741765,0.09220480980271362,0.12114547094820484,0.6029971612657196,1.1674857770330527,4,left
18.152,-0.18739844453985782,1.0419308295150373,-0.09316345964589215,4.467046347255259,-0.352211388569762,1.2215949902851033,0.1419316006876992,0.7497044418343823,1.1079703870149538,4,left
18.153,-0.21552565897237508,1.0140121907847435,-0.09869193246507812,5.770771952111014,-1.6605781924096672,1.490506376664578,0.13345871813527765,0.6899789850377321,1.132162855502063,4,left
18.156,-0.24734411389401,0.9744041204572891,-0.10689361071051152,4.78232266530865,-0.6685901614422554,1.2865591839227428,0.13336710544457148,0.6891943735065432,1.132544134995883,4,left
18.156,-0.26338542900270634,0.9460882052602826,-0.11409994010071486,5.378515526491016,-1.2669663736591184,1.4097109666056062,0.13777192268338967,0.7204324093242533,1.1198058519016634,4,left
18.163,-0.2748733746042993,0.9187792757282573,-0.12734834561175207,5.135892682934454,-1.0233637604760917,1.3593493283617586,0.13247394072773916,0.6829686391282924,1.1350358821191016,4,left
18.164,-0.273448787283765,0.9025843506738267,-0.14180567507149466,5.132545384512106,-1.0201660323398902,1.3590835046411138,0.13663422539758657,0.7122135809623058,1.1232177761939208,4,left
18.166,-0.26047761380830714,0.897275578912394,-0.15306378143231325,5.259658541570142,-1.1475725877143694,1.3848926326274176,0.1343246582524285,0.6963132826611379,1.129508332770631,4,left
18.167,-0.2387189484059724,0.9032848522345256,-0.16120288822264467,5.107332591174547,-0.9947711338184639,1.353644466063816,0.13497132882972865,0.7001801909271246,1.1282180850769645,4,left
18.172,-0.20949552438558416,0.9199326803730025,-0.1606773298126808,5.226054587637529,-1.114057761685099,1.3784874004998735,0.1353941035823824,0.704022967494365,1.1263165220805806,4,left
18.173,-0.16983282862512838,0.9391851742994424,-0.15597225332001263,5.161864073260029,-1.0491878005508808,1.3641196976334382,0.13450529560289154,0.6970636591711765,1.1294133275026295,4,left
18.175,-0.12117451044145633,0.9599067572547139,-0.15368190680029759,5.176838228943363,-1.06499050648029,1.3691442495695054,0.13546617111276224,0.703841025066193,1.1266652406850923,4,left
18.176,-0.06733866405299761,0.9782895946136475,-0.15414595608307466,5.193365576752153,-1.080625750936473,1.3701808001552778,0.13457374614914902,0.6988120346513893,1.1282009493794318,4,left
18.180999999999997,-0.013270553683204876,0.9941013025545438,-0.16063018115721953,5.164356600138046,-1.05227157816603,1.3660872639490558,0.13542460220537078,0.7019132228309126,1.1280968665993494,4,left
18.182000000000002,0.035076688563262765,1.0091454083553244,-0.17061972120317587,5.1918949496491695,-1.0799147843023604,1.3717851890660424,0.13457384698056646,0.700242158482432,1.127052863308477,4,left
18.185,0.07628799306008772,1.020665084166948,-0.1775827022530438,5.172800633180881,-1.0593452938131236,1.3643383909573663,0.13532762218087396,0.7009420985029964,1.128604597393108,4,left
18.186,0.10697845549559845,1.0298504535295145,-0.1831635823012308,5.182331403386676,-1.072126162665957,1.3743202993848365,0.13499477366321833,0.7012627890974052,1.1274138000594267,4,left
18.191,0.12825566159281643,1.0365327323619549,-0.18894915134647905,5.180124895633558,-1.0651132776274412,1.3619072408348707,0.1343885856844229,0.6992848906204941,1.1273020350023824,4,left
18.192,0.14092775191336882,1.0373706936029605,-0.19217909273126854,5.178081042668673,-1.068178323415268,1.374232978095514,0.13645257580060205,0.703782086217459,1.1294786709292883,4,left
18.195,0.14652682387514998,1.0341376521936103,-0.19394217674000958,5.182210477614932,-1.06936486098056,1.3677190541738118,0.1327640058851075,0.6964246115490476,1.1250434706842367,4,left
18.195999999999998,0.1466260591050973,1.0277495411648836,-0.19309104785905096,5.176603344070978,-1.0611928291024662,1.360214239106629,0.13745021842605304,0.7055178795412049,1.130882022586994,4,left
18.2,0.14379452605910192,1.0165703403244288,-0.18324137014717956,5.184229835886535,-1.0799940078635961,1.3895726324132458,0.13355902266761105,0.6980758719800892,1.125947249711233,4,left
18.201,0.13616926543423513,1.0046862749568026,-0.1669178213363529,5.174084050240484,-1.049134856343485,1.3359507612763717,0.1336319246626369,0.698047025743961,1.1261738009652418,4,left
18.205,0.12003021994632987,0.9945964083839172,-0.15247493536749537,5.185668702354556,-1.0873152719465446,1.404507320746068,0.1411379599531832,0.7128500370759361,1.1353359018281024,4,left
18.206,0.10192082802218047,0.9836853449297435,-0.13994476422300617,5.17661046005534,-1.0560502061569017,1.3473976790511824,0.12273577080308481,0.6767988762514988,1.1126824878842956,4,left
18.211,0.07309102033850365,0.9755437725472502,-0.1254638030602549,5.175907248455189,-1.0559570386984398,1.348751703531128,0.15323003115892858,0.7364480316876809,1.1502929469225256,4,left
18.212,0.05148433916312273,0.9734423158893521,-0.11625283950965216,5.195698308304509,-1.118072326922427,1.4581587912682918,0.11301424983218232,0.6578161639817786,1.1006675336283487,4,left
18.215,0.04715858785096273,0.9731477281833061,-0.1145217386739792,5.14843390321807,-0.9667583475898365,1.1895256970412358,-0.05581397692226408,0.32758368407358646,0.8924319399557477,4,left
18.215,0.020191130113670856,0.97267847455331,-0.10857048486947368,5.22626770732512,-1.2171326224643066,1.6348292184801223,-0.09602992341046432,0.24895813584918575,0.8428060797258421,4,left
18.215999999999998,-0.0030465258142270747,0.9727909389363102,-0.10334007349191954,5.12381787394134,-0.8870738807294735,1.0475103557190153,-0.0655386579191632,0.3085744455999554,0.8804265580634763,4,left
18.22,-0.0047164565009052755,0.9732349877741157,-0.10229006463611762,4.693055654299436,0.4990739827547581,-1.4179069025130264,-0.08392953827454097,0.2726128068647864,0.8577395521643266,4,left
18.221,-0.023470229755553185,0.9739487194239086,-0.09795210097047413,4.590729388592834,0.829109230889784,-2.0052341312979927,-0.0764472698097187,0.287248578514307,0.8669696812904912,4,left
18.222,-0.04511900148831485,0.9752571127436316,-0.09613400597110326,4.6682576593418545,0.5788636963068036,-1.5599337219449916,-0.07633871211962406,0.28745269199050394,0.8670963795765079,4,left
18.225,-0.059105991419833234,0.9774433790256647,-0.0957151520172795,4.621551072489613,0.7298213746704245,-1.8285202898027477,-0.08026863623779715,0.279778246877858,0.8622675326355169,4,left
18.226,-0.07499251073815735,0.9786577651522049,-0.09032082801180671,4.640530780777633,0.6683762504580453,-1.7192320485163555,-0.0755593402421367,0.28897609240929323,0.8680471239109392,4,left
18.229,-0.08691510230476923,0.9776344694717259,-0.08332133524611707,4.640734992036021,0.6675315124712263,-1.7176816480709793,-0.07922912128550008,0.2818091083608499,0.8635509799547396,4,left
18.230999999999998,-0.09774929457535957,0.9764752083273414,-0.07761409579653161,4.631046855056354,0.6997378081603679,-1.7750253490311416,-0.0772511969487901,0.28567359282686033,0.8659772941202599,4,left
18.234,-0.10771152854589934,0.9752246653655355,-0.07340483153665475,4.642420379293338,0.6611241753715609,-1.7062950482781685,-0.07769410949042205,0.28479981896153483,0.8654036886971359,4,left
18.235,-0.11365934128166107,0.971556642912728,-0.0705008399257408,4.633922560294803,0.6912342533386412,-1.7598817143855516,-0.07824358480384296,0.283748319780872,0.8648142442523105,4,left
18.239,-0.1146048532282957,0.9661857205355806,-0.0693789809194157,4.638142867407956,0.6749618367663011,-1.7309263604918668,-0.07729267855116294,0.2855690996757059,0.8658344621273183,4,left
18.24,-0.1119214028535363,0.962443152102215,-0.06945331332756828,4.6373364076882115,0.6786984874261405,-1.7375696261167373,-0.07819790322602319,0.2838459292440053,0.8649056578744931,4,left
18.244,-0.10612412952899444,0.959559315842924,-0.06940264850499137,4.636697483329307,0.6830477532443645,-1.7453200253130194,-0.07758399140673145,0.2850092002717174,0.8655130506335573,4,left
18.245,-0.09563086055419708,0.9541191854691692,-0.07045258322507181,4.636785436401783,0.6754262429242759,-1.7317403378890264,-0.07783276300827122,0.2845222870312853,0.8652048326438773,4,left
18.252,-0.08339372328804627,0.9487903340228526,-0.07267570630618189,4.638436451092061,0.6827287232499617,-1.7447591601359649,-0.07791420558887842,0.28443212828538844,0.8653827957263334,4,left
18.253,-0.0665626920398004,0.9449466998662307,-0.07533437511892715,4.635209532556303,0.6776476989095038,-1.7356900997980762,-0.07759102492429634,0.2849064536444038,0.8651450727141916,4,left
18.253,-0.043726256617702644,0.9402525468161969,-0.08087219506723113,4.638301952752905,0.680018520827226,-1.7399298492699762,-0.07804132274999714,0.28426092387425594,0.8655390554508566,4,left
18.254,-0.01659198316009167,0.9367030154560781,-0.08816648763778664,4.6383391413942405,0.6800106466018827,-1.7399174833399473,-0.07760354156501892,0.28486656923203124,0.865066917887426,4,left
18.262,0.015523191798364184,0.9348139709297565,-0.0954883259823843,4.6317643539850835,0.6783059258647852,-1.7368415383913305,-0.0778569191120507,0.28451569622059997,0.8653391651572967,4,left
18.262999999999998,0.0465821062077386,0.933665206148907,-0.10270548951053428,4.647140465419536,0.6810670659434876,-1.7418500196495716,-0.07798174559273814,0.28439648832284975,0.8656894450151713,4,left
18.262999999999998,0.07789014157804444,0.9338836139610813,-0.10754054223458136,4.623912526484471,0.6778830246035495,-1.736042908633005,-0.0773143546095733,0.28515551719920046,0.8643060991063038,4,left
18.265,0.11083861463438477,0.9356277110197044,-0.10975234750087201,4.6488432746486215,0.6807306192372777,-1.7412604106034149,-0.07855799306676088,0.28373602500951406,0.8668640787433668,4,left
18.269000000000002,0.1388033488930514,0.9387978168594602,-0.11006580099958982,4.634384375728339,0.6792598485143122,-1.7385564638907174,-0.07696894922830888,0.28554357824508836,0.8635699329840653,4,left
18.27,0.16625110960973444,0.9416583526400024,-0.11103262283502341,4.621897093814811,0.6780654083807329,-1.7363560055271416,-0.07829190477903583,0.2840414153653794,0.8663243935854871,4,left
18.274,0.19196063811759884,0.9439743053365912,-0.11373601099319569,4.676610872978115,0.6830838841720339,-1.7456140820948587,-0.07824651807956702,0.28410143592988096,0.8662620567999824,4,left
18.275,0.2091202322920041,0.9465357358847595,-0.11664714812285312,4.5750819364106725,0.6739776077168401,-1.7288017188322704,-0.07576528027128199,0.28688335356043604,0.8609578500413775,4,left
18.279,0.22649957703547074,0.9514877666580669,-0.11548402683315681,4.705492718784312,0.6855317287987196,-1.750142821324256,-0.08187076915517699,0.2800309479422331,0.8739856106423896,4,left
18.28,0.2435066767056341,0.9589569953724071,-0.11054069151697835,4.596600938542361,0.6759462367661366,-1.7324334464423536,-0.07174871926866598,0.2913913112503763,0.8523842060492482,4,left
18.283,0.24826915225454657,0.9619622787131377,-0.1094454043690825,4.599544709837999,0.67621467917081,-1.7329296709873097,-0.08509686481512824,0.27641152529374247,0.8808791747935047,4,left
18.283,0.24971497874772566,0.9628011108211999,-0.1101575011067078,4.807221433642472,0.6943625180032637,-1.7664648068287407,-0.14110430216488581,0.21358669494932422,1.0005196883604726,4,left
18.284000000000002,0.25730202187349777,0.9694905571213084,-0.11111274018815935,4.296768892548323,0.6497899297640441,-1.6840957901650802,-0.154448289567645,0.19861342619445732,1.0290188144963976,4,left
18.288,0.2622640817979258,0.9770593290004151,-0.10987775196666394,5.143132630199679,0.7236570823981363,-1.8206040846894285,-0.14433256397875466,0.20996317098364403,1.0074106580209783,4,left
18.289,0.26235987385140014,0.9799361233368957,-0.10428604175266737,4.02677550728551,0.6262545064293423,-1.6405989450571914,-0.15043329810291756,0.2031207191432048,1.0204446910864675,4,left
18.289,0.26366580903547077,0.9812311969266633,-0.10219717856888906,-0.6591732593229082,0.21753828245926488,-0.885288152114113,-0.147950467074152,0.20589997685961142,1.0151389466029954,4,left
18.293,0.2669178685318331,0.9822338084400745,-0.09744997046782915,-1.775539160633648,0.12016350010003396,-0.7053334794953479,-0.14791741365971556,0.20594831776968053,1.015068923265137,4,left
18.294,0.2679364103142106,0.9800819562961843,-0.08326550816457054,-0.9291589812221871,0.19397993913488903,-0.8417469535725626,-0.14921555588604962,0.20447683448138304,1.0178432079653992,4,left
18.298,0.2675238554889513,0.9760012523407023,-0.06604440818360248,-1.439632506227309,0.14946903093233455,-0.7594996245257504,-0.1476601273327205,0.20623643225718188,1.0145183249935288,4,left
18.299,0.2667256586319854,0.9721295189049831,-0.05056618768340095,-1.231936579841228,0.1675658806551194,-0.7929221977837038,-0.1488727216449085,0.20486995420107595,1.0171099884992212,4,left
18.302,0.26123624745535556,0.966432297663056,-0.038823962003167595,-1.2290002492578171,0.16784332918500472,-0.7934644137656581,-0.14821457819912454,0.20559568132776057,1.0157059791597227,4,left
18.303,0.25432314093226194,0.9619919046038797,-0.028695432580612006,-1.3379084836555575,0.15832555190400865,-0.775846183482104,-0.14837518018865592,0.2054556207562208,1.0160418705673209,4,left
18.307000000000002,0.24468060742154996,0.9619124727073413,-0.019543232187486263,-1.207447435492186,0.16971152461686106,-0.7969002961004994,-0.14852969981210748,0.20521340428903184,1.0163848586660449,4,left
18.308,0.22849659404154354,0.9614651400718506,-0.011197318412264363,-1.309060980560531,0.16086484534519552,-0.7805761774673539,-0.148252753127902,0.20560848778942303,1.0157771208340507,4,left
18.313,0.21354113203169908,0.9604449287397347,-0.0018567191998035758,-1.254245375032213,0.16559669136457056,-0.7892409528570208,-0.14851581851101964,0.20524614121618617,1.016352065997709,4,left
18.314,0.19936201070497778,0.9615855931680792,0.0071981697434285565,-1.2668112523377602,0.16458411882117852,-0.7875071354014588,-0.14832677429778945,0.20545759817682663,1.0159482797627652,4,left
18.317,0.18292480981168602,0.9639329603492356,0.015463262148917944,-1.281276294915864,0.16322081524281637,-0.7848190648727725,-0.14844418214801705,0.20545064171404384,1.0161750136557552,4,left
18.317999999999998,0.1697491110487221,0.9666882434106907,0.02139018536326268,-1.2561877163405941,0.16548977082532904,-0.7891466353258356,-0.14836433067540195,0.20525516154966356,1.0160596012207785,4,left
18.323,0.16178845525207486,0.9677808250043539,0.022626916775018782,-1.2797659168074562,0.1634341568334996,-0.7853488815506804,-0.14843833793463385,0.20559737822804613,1.0161353039321188,4,left
18.324,0.15607552688181128,0.9684206178114806,0.01988983637592165,-1.2638764364379158,0.16467017892286048,-0.7873838507401801,-0.14836782940318283,0.20522316378464722,1.016072574424458,4,left
18.327,0.15256326612749144,0.9703375519962021,0.014765148204382034,-1.2709858054727432,0.16439221001730892,-0.787439937570035,-0.14839531531855443,0.20545426766334973,1.0160804568683837,4,left
18.328,0.15426179434277032,0.9716402896196367,0.008994452910965768,-1.2706642800415962,0.16391009993710134,-0.7856988050445575,-0.14848471609042704,0.205579716969318,1.0162277359933847,4,left
18.331,0.15821261797163605,0.9733203564188132,0.003951430871116616,-1.2672438927129086,0.16475212768537856,-0.7881614119720701,-0.14820097299113993,0.20490996298982125,1.0158131202597893,4,left
18.332,0.1636395200555832,0.9740262142012582,-0.0017297494482358508,-1.2717433226742094,0.16404564223889473,-0.7863316677039656,-0.14870780736543476,0.20617380657990625,1.0165405373699803,4,left
18.337,0.1702355081332837,0.9735740445640603,-0.010620587267317422,-1.2677773767498708,0.16412058761461093,-0.7860194612622974,-0.14806130637175052,0.20454609249725286,1.0156157892346638,4,left
18.338,0.17385670095732147,0.974202462477739,-0.019049411340836382,-1.2706622362844282,0.16505427634522066,-0.7897197998021532,-0.14859936167235838,0.20590695823295974,1.0163840832075608,4,left
18.340999999999998,0.17953384659656124,0.9727549615472115,-0.026923384872884634,-1.268731001040674,0.16302479287598945,-0.7823058801744582,-0.14859135979690657,0.20586254624507508,1.0163776571497734,4,left
18.343,0.1866732163448198,0.9699168286722025,-0.03895345578552467,-1.2699793773231591,0.1657379356332036,-0.792024810924528,-0.14754369263061212,0.20329253229698668,1.0148654537510708,4,left
18.346,0.19165709719056606,0.9665218304505773,-0.05419063679214017,-1.269456257314393,0.16342789558052034,-0.7838263091999038,-0.15011116064551344,0.20961822245826073,1.0185654110940752,4,left
18.347,0.1986888577148206,0.9612115291218515,-0.07451450242664076,-1.2686718557305823,0.16355937723803288,-0.7841793310123091,-0.14585596052397182,0.19912766414544567,1.0124349717233376,4,left
18.351,0.20222922824531203,0.9591665805431242,-0.08778667839205125,-1.271794336986514,0.16778049935647976,-0.79946379988891,-0.151468598538266,0.21296480926817254,1.0205207527921538,4,left
18.352,0.20233050542441416,0.9580795297152258,-0.08930316529458673,-1.2652725914356826,0.15730628563881172,-0.7617059813295678,-0.17503114732433403,0.27103549355914286,1.054478677873563,4,left
18.352999999999998,0.20725682680006383,0.9529322677456317,-0.09928244776169678,-1.275653166325498,0.17470985112445775,-0.8243830270830319,-0.18064443046175027,0.28487166736250424,1.0625662158584745,4,left
18.357,0.21093861573412293,0.9509730903398802,-0.10842481648400323,-1.2621161516717012,0.15174181181734503,-0.7416850165548831,-0.17638929627670782,0.2743821532821259,1.0564341969122029,4,left
18.358,0.21132525183366452,0.9515557882026816,-0.10917409535502451,-1.2047816781063752,0.05535842810428288,-0.39471514675520736,-0.17895379301160347,0.2807082667659153,1.0601322932682424,4,left
18.359,0.21449414836356318,0.9493470996129685,-0.11563882905780949,-1.1912755321397501,0.032386970120109375,-0.31201480142733395,-0.17791401941498147,0.27813471815498514,1.0586287413786417,4,left
18.361,0.21969692400917962,0.9486040230841727,-0.12084313649736254,-1.2015161265030905,0.04980604444996196,-0.3747024468246288,-0.17789276017157946,0.2780978788906041,1.058605267885476,4,left
18.362000000000002,0.22627622621299504,0.9465477487481373,-0.12338841287819954,-1.1953591971668605,0.03929140595365151,-0.3369169923165557,-0.17844684025842006,0.2794479129370375,1.0593967495619134,4,left
18.367,0.23403080733142945,0.9433348324533839,-0.12697117765023758,-1.1978141713540515,0.043586498645305186,-0.35225203676483796,-0.1777881086969213,0.27783095240575595,1.0584504787474063,4,left
18.368,0.2425296938682845,0.945171930828772,-0.1253150236462221,-1.1979460504570063,0.043616436622097174,-0.35253562424388957,-0.1782932998656067,0.27909021648232285,1.0591842718327875,4,left
18.373,0.24969033434886992,0.9469681435511054,-0.12216107108096648,-1.1965254432295178,0.041405863764933035,-0.34440514491281415,-0.17803600568744804,0.27841108902405,1.05879484472812,4,left
18.374000000000002,0.25478256138173005,0.950369691335643,-0.11952348291760258,-1.198147566091851,0.04407757333043548,-0.35409572633475694,-0.17806764106606382,0.27856649326239524,1.058872522696399,4,left
18.377,0.2625406517226224,0.9584806468503394,-0.11461148248492847,-1.1970206169661355,0.041958978109776904,-0.3466208992749694,-0.17817908431129825,0.2787461195981157,1.0589937802277793,4,left
18.378,0.2713858068768722,0.9645650900385747,-0.1103325869003526,-1.1973596795236285,0.0431747747765821,-0.3505141126564163,-0.17802208066320246,0.2784349364911129,1.0587988682701526,4,left
18.381,0.27918079913738864,0.9706525460291363,-0.10476044542316687,-1.197766847504628,0.042765096064010695,-0.34987054057868266,-0.1781403305561181,0.27872711749358126,1.0589695581641858,4,left
18.381,0.28790367496534564,0.9775356119965437,-0.09620353749017183,-1.1969042363743987,0.042652853534115714,-0.34844714895518686,-0.17811777839225373,0.27853069419595355,1.0588789258351488,4,left
18.386,0.29644036695732945,0.9832102767909175,-0.08914717744135639,-1.1977565247750657,0.043021326083067635,-0.3505858803235058,-0.17802251915584094,0.2786177316520346,1.05887447473023,4,left
18.386,0.30448618769222263,0.9902338087797676,-0.07864842929865248,-1.1974769312982612,0.042534660798636874,-0.34884174982267513,-0.17821631803589155,0.2786152826556814,1.058955630042028,4,left
18.391,0.31253178281933486,0.9952503952612745,-0.06214959027218735,-1.1966472504417123,0.043136392386759245,-0.34949921536866047,-0.17799082937704916,0.2785713276854126,1.0588418560903197,4,left
18.392,0.3193805176741945,0.9982936857284687,-0.045977895681863015,-1.198896377289546,0.042362366387220254,-0.35015986707938457,-0.17813375445642265,0.27862787936903427,1.0589258548927654,4,left
18.395,0.32351257085178614,1.0023739794341597,-0.030105273029137146,-1.1954164457062708,0.04330536168698845,-0.34841250522255096,-0.17821767394810026,0.2785797634196101,1.0589415053137252,4,left
18.396,0.3280466945787095,1.0046286004243177,-0.019526400607594512,-1.19917177533229,0.04237763971563917,-0.3505540366611815,-0.1777779642430392,0.2786117378154022,1.0587683120488325,4,left
18.4,0.3354746466328426,1.0050966711587939,-0.017902112054150713,-1.196971599861484,0.04286157615202216,-0.3491295606620683,-0.17861046574814593,0.27859449584125817,1.0591142106733482,4,left
18.4,0.34331671859571866,1.0059586919077912,-0.01956952999097234,-1.1951689308878048,0.04344076285081801,-0.3484834267055271,-0.17753543367958374,0.27860168676549557,1.0586611968739705,4,left
18.405,0.3518568594657759,1.006999127250412,-0.02034918521753311,-1.2032316061343042,0.041205001341860795,-0.35238467433276255,-0.17843534054646162,0.27860165920381896,1.0590430683714533,4,left
18.406,0.36054543564725383,1.0070318823851978,-0.014898324023263996,-1.188238509535745,0.04528039618325744,-0.3448959416105766,-0.17840741625353257,0.2785928213442774,1.0590271522953683,4,left
18.41,0.3676314844604907,1.0056526940868749,-0.006500954280666732,-1.207504737127461,0.04007321531460531,-0.3546036551832424,-0.1767010854624436,0.27861667670019474,1.0583139025691377,4,left
18.410999999999998,0.37245014017419,1.003332096095349,0.002368936893676505,-1.191414882613655,0.04440903664549387,-0.3464598118774922,-0.18089992626676854,0.2785701850840736,1.0600749190605452,4,left
18.417,0.375087242707145,0.9979394335666149,0.013717458040340535,-1.1918580410176707,0.0443097663016484,-0.34674153656116247,-0.17393657250478858,0.27864354353109533,1.0571522583667319,4,left
18.418,0.37735688673838863,0.9926097310874905,0.019298131562255832,-1.222517307124173,0.03599453015270089,-0.36210762117502115,-0.1831212778033674,0.27854704153084114,1.0610080241264424,4,left
18.42,0.378339094259634,0.9922139451005946,0.02086521283958772,-1.1471506396580158,0.0564053041707462,-0.324249952082478,-0.22167908443280487,0.27815382445729475,1.0771921471825467,4,left
18.42,0.3778902155042046,0.9902409211154957,0.01972145458985586,-1.272114227313256,0.022574728428042975,-0.38705497725337823,-0.23086273068383242,0.2780547984843108,1.081047513335863,4,left
18.421,0.3773903410620305,0.9865502258521834,0.01366461684851839,-1.1072890579961476,0.06719139687224825,-0.3042008292371382,-0.2239000561491213,0.2781297371625011,1.0781246127930877,4,left
18.424,0.3770919391284795,0.985768486048861,0.011561306323434974,-0.4154094170915274,0.25450988983072154,0.04349914781228936,-0.22810098542902932,0.2780883593956953,1.0798881746592657,4,left
18.425,0.3760770315829263,0.9828952267617351,0.006800992892128076,-0.2505888915944091,0.29912199628022046,0.12636023964524729,-0.22638744667760574,0.2780947549994829,1.07916858225743,4,left
18.425,0.37170662001899457,0.9808271708593151,-0.004376314945514005,-0.3755485916941765,0.26529826762575237,0.06354082276003073,-0.2263727550234001,0.27811787126723586,1.0791630340490987,4,left
18.43,0.36393624621207676,0.9858000089216944,-0.011354326942317668,-0.3001759869134656,0.2857041489701754,0.10141999997114694,-0.2272555113188488,0.2780765215833555,1.079532665488749,4,left
18.430999999999997,0.35232264177372996,0.9912046018788405,-0.01762500159514819,-0.3308602199586195,0.27738649720048647,0.0860286041112828,-0.22619528136225667,0.2781192477858529,1.079088560917979,4,left
18.435,0.3375959784442568,0.9924758565564138,-0.027406872673046354,-0.33125520431889144,0.2773017483442374,0.08576778196778781,-0.2270256229852743,0.27809709598300103,1.0794367049281266,4,left
18.436,0.3247078860737847,0.9955206420921094,-0.03772616860906357,-0.3152299818463938,0.28160928393781803,0.0939085219947575,-0.22656346263432084,0.2780745388060882,1.0792418294428816,4,left
18.44,0.31288443561839707,0.9997580027254261,-0.051192416096891416,-0.33443739507399983,0.27643959406569196,0.08417033965179699,-0.22670294549387576,0.278160765642706,1.0793031842894067,4,left
18.441,0.30131019508056334,1.0010523761518573,-0.06871461688513678,-0.31945937773234734,0.28048149737914996,0.09173453676299177,-0.22675964555418632,0.278009296562307,1.0793221372966855,4,left
18.444000000000003,0.29530337810271634,1.0030472764342506,-0.0807935830480488,-0.32759628667172463,0.27825343942196545,0.08771585841938156,-0.22662987315500083,0.27819572176216334,1.079273635347044,4,left
18.444000000000003,0.29219741032662194,1.0058746505480178,-0.08344113752444327,-0.32559531375039186,0.2788764496978767,0.08849323178591095,-0.22676245841358156,0.27804682680032344,1.0793245006478585,4,left
18.449,0.2862735526124299,1.0063391794416932,-0.08369472283431154,-0.32371364780367845,0.27924590848965,0.0898318254879425,-0.22663189650158982,0.27804685385722616,1.0792697068663109,4,left
18.45,0.2802702800780417,1.0042525722603322,-0.08622076832911266,-0.32710270162221156,0.2785000657000873,0.08764673951693969,-0.2268026884434705,0.27831884015615016,1.0793501731101869,4,left
18.454,0.2744040844423392,1.0006128619254242,-0.09536611121966711,-0.3238780037350618,0.2792362211422531,0.08965138258743124,-0.22654209933732347,0.27769593796534575,1.0792206303498402,4,left
18.455,0.26537036464293984,0.9963955827167481,-0.10839379990909691,-0.32621408630921617,0.2786027256125953,0.08848060623471883,-0.22689981936776246,0.2786255268772007,1.0794009470474906,4,left
18.458,0.2526283856726884,0.9926007359171612,-0.11737910520195474,-0.32471646283426503,0.27926163151558236,0.0885213982869189,-0.22652420702750514,0.27763448590038137,1.0792110203371656,4,left
18.459,0.23929325451732156,0.9884040635223719,-0.12559219237155403,-0.3258098117770676,0.27838617188469805,0.08959882022001667,-0.2267322050548277,0.2782072423831098,1.0793171529856629,4,left
18.464000000000002,0.22804503202358672,0.9828095036385021,-0.13553992048164815,-0.3247367817559881,0.27954128977720016,0.08771103951091384,-0.22695643675736898,0.2787003815422074,1.0794269266644712,4,left
18.465,0.2168127554118781,0.9801083016196883,-0.14768361535689306,-0.32577641956388803,0.27833791625874055,0.0897758522927265,-0.2260484789113091,0.2765411467203464,1.0789760981995777,4,left
18.469,0.20914812438636254,0.9814125824513952,-0.1636454461232858,-0.32534037586990255,0.2789890318754066,0.08849997236806642,-0.2277192211214858,0.280545715479082,1.0798071769897901,4,left
18.47,0.2053571439771504,0.9854598660503133,-0.17440570576377534,-0.3241499949576531,0.2797695863180941,0.0878097862986081,-0.2255766098678028,0.27540351245959394,1.0787406748912036,4,left
18.474,0.19992417308512722,0.9922216623928951,-0.17721448726266603,-0.32802554128649614,0.27671212679170964,0.0915014597216171,-0.2273645840583762,0.27969665569548474,1.0796314211695206,4,left
18.474,0.19159543232686535,1.0024299729169495,-0.17881651693199158,-0.32108004397271916,0.28231782076837053,0.08453350072249102,-0.22731986755514846,0.2795800299777611,1.0796072449107386,4,left
18.479,0.17966226153005505,1.0167494385125395,-0.17732104190645154,-0.3299428928855137,0.275133833915268,0.09350881531266378,-0.22389759372404094,0.2713949207690147,1.0779071366840753,4,left
18.48,0.16876284628960717,1.029031777012592,-0.17412973927343,-0.32256791804727974,0.28112632737105303,0.08600329674814258,-0.23230568109510102,0.29151376050042715,1.082087702675334,4,left
18.483,0.15460431774346844,1.0413972705771433,-0.17386448722412715,-0.32267848858350756,0.28098483796686224,0.0862519717426389,-0.21836444069175387,0.2581551505125346,1.0751533115096186,4,left
18.484,0.1416901610240797,1.0522797037254552,-0.17329281996344592,-0.33702828284162734,0.26948865215861156,0.10041729683187964,-0.236754636015939,0.3021557206350918,1.0843035520294735,4,left
18.488,0.14008198218473097,1.0543957790324137,-0.17297850900734768,-0.30186801399882707,0.29772222891177624,0.06554388537159198,-0.31394382589882297,0.48684373317924523,1.122693598341331,4,left
18.488,0.1292188783413531,1.0603135742797902,-0.17514181782794588,-0.3601308779054955,0.2509132639701198,0.12338422393051696,-0.3323394877278093,0.5308462709218021,1.131854070183477,4,left
18.489,0.11515959946825907,1.0686187379720014,-0.17564135578179035,-0.2832946989679188,0.31265722493754217,0.04708546074373028,-0.3183899891726699,0.4974845819656081,1.1249038056489256,4,left
18.493,0.11369118525774541,1.0683023954663575,-0.17546841550912,0.03939880295239408,0.571839209093822,-0.27308226367442,-0.32680412872561065,0.5176059774211363,1.1290971764858788,4,left
18.494,0.10236975621109311,1.070953610512952,-0.180620097162777,0.11621890869572558,0.6335956609751232,-0.3493931900133725,-0.3233843589866252,0.5094209917110464,1.1273987093308613,4,left
18.494,0.08178498593705791,1.0799355036649496,-0.1885190971312144,0.05798632181399412,0.5867685635065787,-0.2915312498892597,-0.3233228209154825,0.5092994651682387,1.1273475676135352,4,left
18.498,0.06744915953992757,1.0870089135132022,-0.19268737575524914,0.09310755908720861,0.6150133579976673,-0.32642955742102076,-0.325144068072148,0.513603346231013,1.1282957394239457,4,left
18.5,0.0534576596327902,1.0937089456647335,-0.18977393010394966,0.07879418258089264,0.6035282777405067,-0.3122462405263595,-0.32295688874952444,0.5084458148906977,1.127148616040596,4,left
18.503,0.03753610827633088,1.1024296378719418,-0.17810055357904683,0.0786681217440336,0.6033403641567272,-0.31199509472885634,-0.32466809708034905,0.5124656063179867,1.1280580063287267,4,left
18.504,0.02572679554531289,1.1110572796251421,-0.1607701250182444,0.08601497275841816,0.6094174581835878,-0.3195371281469783,-0.3237494756461689,0.5102996964828665,1.1275761118112282,4,left
18.507,0.016403020683077363,1.1174440845639528,-0.14524287180317524,0.07724300431887061,0.6021266947938115,-0.31048426474785595,-0.32392387797566924,0.510780212110306,1.1276134231755721,4,left
18.508,0.006639245033694801,1.1227590499000764,-0.13812188195127162,0.08403252524575944,0.6078203043570725,-0.31756217284192173,-0.3242655156475607,0.5113940896157687,1.127942344422891,4,left
18.512,-0.0004522956283801434,1.1275230758141346,-0.13698038994668427,0.08034800161479158,0.6047581131712012,-0.3137608360746541,-0.32367516474942937,0.5103320177308013,1.127375025723678,4,left
18.512999999999998,-0.00563185181771018,1.1292500277330308,-0.13671996627491412,0.08138590012727358,0.6053880402099596,-0.3145010752807986,-0.3242798458081595,0.5113489486891132,1.1280114973658233,4,left
18.517,-0.011537538968689937,1.1322524281118773,-0.13707368064968062,0.08182195479913748,0.60639284282208,-0.31586281361126295,-0.3238470941179302,0.5106561396834028,1.1275286446284452,4,left
18.518,-0.018782426068196308,1.13824336694661,-0.13287475853875858,0.08106123359225441,0.6046554488915719,-0.3135099119367225,-0.3239595196940392,0.5109281690568395,1.1275822999497938,4,left
18.524,-0.02536327590082648,1.1430154515003927,-0.12338933304204133,0.08149533208142945,0.6063855947007742,-0.3159002512731627,-0.32427874252795696,0.5110563622848558,1.1282372674184424,4,left
18.524,-0.02898429821655838,1.1470767265877733,-0.11515765648970444,0.08135501139996351,0.6051716905637448,-0.3141992766632368,-0.3234865326912142,0.5106133806785744,1.1267091179705742,4,left
18.527,-0.030191012994986097,1.1508126573617616,-0.10739297336469113,0.08183935297717329,0.6055515223521504,-0.314666350403281,-0.32465383085788946,0.5112394732028108,1.1289817531434179,4,left
18.528,-0.030224241422882946,1.1551555068107993,-0.1002341147555904,0.08007926835409362,0.6061792408937725,-0.31581610433548585,-0.32342875153920714,0.5106181624436339,1.1265684841023416,4,left
18.533,-0.03112480666862862,1.158293504780746,-0.09407485394419461,0.0838401094831406,0.6045337986623596,-0.3129287111114596,-0.32413686753178983,0.5109778176638426,1.127963335796275,4,left
18.534000000000002,-0.029733540787955162,1.1606760088322967,-0.08660138678014802,0.07816831495290383,0.6069400232665194,-0.3171757885474672,-0.3247042538788538,0.5111848330267622,1.1291432695880455,4,left
18.535999999999998,-0.025924314290770592,1.1666616174742632,-0.08277193125150568,0.08429596331384634,0.6044393053468884,-0.31272837313260526,-0.32216525293254517,0.5101450497295046,1.1239493155717808,4,left
18.537,-0.021950414840955175,1.1736200312835519,-0.08169613249017932,0.08075501728434928,0.6058857433091175,-0.31529912168725516,-0.3268767774181114,0.5120804029233677,1.1335839420399876,4,left
18.542,-0.014645010857960189,1.1816113164996658,-0.08131697737597145,0.07752761574844388,0.6069861737843705,-0.31733688562112944,-0.3208303320838233,0.5096033383681868,1.12121333363116,4,left
18.543,-0.006333250667313619,1.1900272729282535,-0.08281315429341342,0.0914289133075519,0.6019784902271278,-0.3081874098007676,-0.32587685424000734,0.5116681730643194,1.1315417322990515,4,left
18.546,0.00449754758266702,1.2003994254829184,-0.08396863841761598,0.06565679193166266,0.61127685505622,-0.3251671584270148,-0.32573511103083574,0.5115997563624022,1.1312560958574198,4,left
18.547,0.01763181320706714,1.214015731804356,-0.09189912263265805,0.09876797378981235,0.5993468720099622,-0.3033785215268622,-0.31613321672915373,0.5077128053323329,1.1115808923624417,4,left
18.551,0.028216012254148236,1.2266137756707103,-0.1057739096727191,0.07111271394485039,0.6093047791509147,-0.321562918420897,-0.3397381510971539,0.5172779897830349,1.159949249715884,4,left
18.553,0.04101521583186528,1.247824958908054,-0.12192796890335897,0.07185588881919945,0.6090115278741279,-0.3210499212866461,-0.30059959853162566,0.5014170174239445,1.0797475004305954,4,left
