time,gFx,gFy,gFz,ax,ay,az,wx,wy,wz,subject_number,foot
13.708,0.3515124187624441,1.076254269475446,-0.3472001490128025,-4.736866816571008,9.088901734301633,2.2990889323027455,-0.07566439385218873,0.8834750304966436,1.0306904557358703,2,left
13.709000000000001,0.36932272948558764,1.0725465601848183,-0.35180175059816854,-2.3850434712369393,7.27728631087669,1.3547008272113343,-0.07753273238819099,0.8490848557831094,1.0513305651646063,2,left
13.714,0.37036171737088475,1.070326111535704,-0.3530435775234224,7.487497295048911,-0.3275746897128169,-2.6096928062683,-0.07757759427495511,0.8485825624358189,1.0516306385324752,2,left
13.715,0.3731068713028375,1.0543208378261761,-0.35729836522036384,9.83947124292397,-2.1392147144672675,-3.554100895685039,-0.0765677047551381,0.8666413516510807,1.0407944654014938,2,left
13.716,0.371099850619137,1.0267798364305434,-0.3655205269654355,8.05614531540743,-0.7656545853351344,-2.8380576691584753,-0.07777186750634923,0.8450143660331386,1.0537721578510904,2,left
13.718,0.3499449966535558,0.9945182944668757,-0.3703195655007581,9.131880487842864,-1.5941378425077373,-3.269956264665234,-0.07684266239547849,0.8618505187655383,1.0436687044576072,2,left
13.719000000000001,0.3242437365457139,0.9600554427803395,-0.3679606470603809,8.694094104011704,-1.2570192854847564,-3.09420810365795,-0.07731735874003855,0.8527925891702242,1.0491062036483014,2,left
13.722999999999999,0.2895695457034786,0.9275978690633702,-0.3555759997320245,8.687843717914326,-1.2522411526574169,-3.0917146756249774,-0.07727074734270564,0.8548139507309069,1.0478885570403818,2,left
13.724,0.2433070707282863,0.898454133712864,-0.3367111197132529,8.917850615518201,-1.4291332412347808,-3.1839510510448688,-0.07702482859186932,0.8573087852208825,1.046399096033987,2,left
13.727,0.1945458551763756,0.8766360191016305,-0.3163529587267405,8.641835124190322,-1.2170985425627947,-3.073370039950694,-0.0773926595711398,0.8530360777614905,1.0489537626499792,2,left
13.728,0.14286541047013246,0.8647818657422985,-0.29574758370202553,8.857532096723167,-1.3824375975063714,-3.1596282225849577,-0.07706743808354077,0.8570287297005814,1.0465652438295825,2,left
13.732999999999999,0.08766363305534705,0.8598666066783158,-0.27338153143913685,8.74048473759764,-1.2930748707470676,-3.112977270186204,-0.07720935054101825,0.8544117853944713,1.04813581941268,2,left
13.734000000000002,0.0333480012371263,0.8621128622566695,-0.2500592599199142,8.767558910290242,-1.3135878365555955,-3.123699149810986,-0.07735465149752963,0.8553948241007662,1.047531740130811,2,left
13.738,-0.018866269621000447,0.8712085174397618,-0.22852627798075154,8.79952773401628,-1.33753408906688,-3.1362386608316437,-0.0768799954897812,0.8557606519225838,1.0473445204695224,2,left
13.739,-0.06754475568679326,0.8852287757758595,-0.20647238747912594,8.742146421030153,-1.2955168435075342,-3.1141536912139935,-0.07762224612645105,0.8545891689190044,1.0479992823582545,2,left
13.742,-0.11059375650768875,0.8995159751842869,-0.18424218013687818,8.79944866689813,-1.3358984964492824,-3.135517012468049,-0.0768246320182299,0.8559546306565688,1.0472313794620385,2,left
13.743,-0.1491130118003567,0.9129364041249441,-0.16810465076807607,8.756791155809946,-1.307649057138482,-3.120407338410703,-0.07729554607901051,0.8549814353255237,1.0477854913638698,2,left
13.747,-0.18166678955449006,0.9291890679114749,-0.15613992909787675,8.778823004572912,-1.3209462768127285,-3.1276446917991905,-0.07765169461877094,0.8550547000170361,1.0477161730620899,2,left
13.748,-0.21142314536825244,0.9415849736238107,-0.14386755052226946,8.778818627806743,-1.320910310355889,-3.127628584369532,-0.07601151098391709,0.8562274953131706,1.0471242432343315,2,left
13.752,-0.23643806412681895,0.9482410453377186,-0.13161148372501813,8.757124115565155,-1.311014703423527,-3.1219033383264825,-0.07906797051553185,0.8537826446842425,1.0483835511321344,2,left
13.753,-0.24839612245704404,0.9535108818789765,-0.1205106675004044,8.798608798683603,-1.3273947960021677,-3.131737398473705,-0.07514000489889074,0.8569829743437901,1.0467303137469848,2,left
13.757,-0.25574442830307265,0.9535304460277447,-0.11214796516204692,8.7433877943267,-1.3080938499756258,-3.1197436380145867,-0.07842064077006033,0.8542858404413092,1.0481251533557612,2,left
13.758,-0.2540072299949562,0.9474179595857316,-0.10426042780914542,8.79835737230773,-1.325667072151079,-3.1309644120349542,-0.07832662840698174,0.8544546894660092,1.0480311836893725,2,left
13.763,-0.24024306406348483,0.9374904008892618,-0.09980283005076195,8.767841516460186,-1.3164729720869928,-3.1249811517323707,-0.07208814822612541,0.8592849599084957,1.0455560349720612,2,left
13.764000000000001,-0.22284575387786154,0.9245790396524631,-0.10130352779369027,8.74205450313347,-1.308945752877714,-3.1200316888021633,-0.08742779989138902,0.8472980169587274,1.0517057831094467,2,left
13.765999999999998,-0.18740198537425334,0.9114570753068122,-0.10192898731378708,8.853412127127235,-1.3407321241291272,-3.1410913803767073,-0.06199224220027454,0.8672047760942889,1.0414923027969896,2,left
13.767000000000001,-0.15958353428800093,0.9052998454056866,-0.10164120874829408,8.648330766231108,-1.2828881821765235,-3.1026110563431324,-0.09554192310865744,0.8409417933161025,1.0549649833684391,2,left
13.772,-0.15218384252054826,0.9022487299140448,-0.10136852806097231,8.910673447735137,-1.3563977600745027,-3.1516234978107445,-0.23635812144002905,0.7308573695764526,1.1114373067864767,2,left
13.773,-0.1220639606232938,0.8908446769827094,-0.10316767887585732,8.692091337010766,-1.295364602488998,-3.110879934535061,-0.2699077212056189,0.7045959492580679,1.1249026119361738,2,left
13.773,-0.07571541845265119,0.8763078419567336,-0.11268573054971454,8.698063080807437,-1.297055530587569,-3.1120050726724453,-0.244471974926548,0.7245060430858677,1.114697193554829,2,left
13.776,-0.036197431838009615,0.8669444587508566,-0.1262862442245387,9.113951457738905,-1.4127466805527518,-3.189331832143604,-0.2598126389219415,0.7125006579371015,1.1208496854506427,2,left
13.777000000000001,0.003872319597195234,0.8583323682410855,-0.12845092908775718,8.09199756885029,-1.128590882757925,-2.999371873145582,-0.25357184935631694,0.7173732306184936,1.1183486675473466,2,left
13.780999999999999,0.054994462722306285,0.8454525738946246,-0.10764031110283531,9.78617431655553,-1.5995218634328106,-3.3142261137104465,-0.2534814576419874,0.7174755757588829,1.1183107597106177,2,left
13.782,0.09068090715788957,0.8379791531933164,-0.08942907968187538,7.551770710729509,-0.978529133982596,-2.899017881097725,-0.2567579817252305,0.7148541675162673,1.1196248969676004,2,left
13.782,0.10127970040196005,0.8360840364762678,-0.08442627759240694,-1.8264215218523314,1.6276679434996335,-1.1564617318726371,-0.2528327621358801,0.7180036080367842,1.1180524233428422,2,left
13.786,0.13922406034734058,0.8254194531384085,-0.06666864191806471,-4.060635268836885,2.2485190972513203,-0.7413295342567556,-0.25589054098178843,0.7155351838901638,1.1192761383784533,2,left
13.787,0.1966913632673779,0.813861532816121,-0.044424642958487595,-2.3667827125573098,1.7778166780903353,-1.056054488016457,-0.2542422288113201,0.7168565980720301,1.1186165720282641,2,left
13.793,0.24493443948039884,0.8132584552645272,-0.025644002751049548,-3.3883940185932375,2.061763715585904,-0.8662297934663006,-0.2546146349430366,0.7166316083461273,1.1187680819157997,2,left
13.793,0.29869580991050415,0.8215496097616533,-0.005610673913820874,-2.9726915882237175,1.9461149471601844,-0.9434860713036222,-0.2550631709987108,0.7160698702669097,1.118940021938521,2,left
13.799000000000001,0.3517095803764224,0.8379586041582853,0.006187172282734709,-2.9668991977544246,1.9447005943082472,-0.9445334673595892,-0.2542870382319553,0.7170391384467252,1.1186429187681006,2,left
13.8,0.39802304982252956,0.8628933810338957,0.01569139058287737,-3.184760220648048,2.0050427436279836,-0.9040850343640972,-0.2550210967548693,0.7160210819199848,1.1189196795942475,2,left
13.800999999999998,0.4385956412562827,0.8948995097343294,0.024576043707432188,-2.923715136620692,1.9325891073017465,-0.952574153946023,-0.25452580665603947,0.7167621268831567,1.118735205878819,2,left
13.800999999999998,0.47153439435286565,0.9297762770011058,0.02889979374765926,-3.1271603184907746,1.989294286805254,-0.914745722533431,-0.2547334697131989,0.7166029671817693,1.118818572091427,2,left
13.806,0.49906470593262425,0.9653535559836622,0.03245052020200436,-3.0171686476261304,1.958175435564521,-0.9352729111411213,-0.25477017431286203,0.7159179413976811,1.118807010724034,2,left
13.807,0.5182648797719672,0.9978324374717077,0.034665964164596566,-3.0428219374705745,1.9662603260460634,-0.9303497813882122,-0.25457197789363845,0.7175726311756707,1.118787683008157,2,left
13.811,0.5287897377558497,1.020667950226762,0.04250254483420279,-3.071146814243372,1.9729567442560532,-0.9252797395950356,-0.25484109846259995,0.7151249699104486,1.1188058218287753,2,left
13.812000000000001,0.5341738909311464,1.0349135091535522,0.055008186957282365,-3.0214363512023628,1.9600798658094094,-0.9343622569206917,-0.254589433243575,0.7177066948168853,1.1188006164985644,2,left
13.815999999999999,0.53613215619513,1.0405680771304984,0.0616770300125568,-3.0686270863543896,1.9732018134271339,-0.9255923775421918,-0.2547352487092149,0.7162145486862075,1.1188038232685535,2,left
13.815999999999999,0.5308104122484706,1.0363556424880707,0.0670025684706692,-3.03590064417389,1.962368376807907,-0.9319596786251247,-0.2547827166074802,0.7149898627060113,1.1187750672809154,2,left
13.82,0.5177923235579147,1.0249137355043825,0.07283126704701903,-3.0522487793164155,1.9708862314516895,-0.9282675270893548,-0.25447363687573293,0.7204297425534063,1.1188599786483202,2,left
13.822000000000001,0.5026274575391403,1.0049633122179145,0.07654786161372626,-3.0484410217490465,1.9638980596228783,-0.9299512548742641,-0.2550519324849582,0.7103370933622396,1.118704681701125,2,left
13.825999999999999,0.48190619341740293,0.979149521784172,0.07999797275148879,-3.044969979184872,1.9692549659792074,-0.9295560260072135,-0.25431578131514987,0.7232919042199508,1.1189065282649153,2,left
13.825999999999999,0.45831677263362636,0.9533117817687693,0.07843650110490866,-3.052024163186368,1.967563142066852,-0.9288453035646063,-0.25492751277873343,0.7124782367582534,1.1187370802555623,2,left
13.832,0.4381571841566131,0.931907748028851,0.06941618635791559,-3.042408092162514,1.961741144911595,-0.9311525546294812,-0.2549024828747921,0.7127788996869029,1.1187377873661495,2,left
13.834000000000001,0.41749185916495235,0.9172030418983009,0.055380407233265115,-3.0555349989760874,1.979170704626953,-0.9264423556741149,-0.2537717025321139,0.7333672471934674,1.1190763536957036,2,left
13.835,0.39713958488651185,0.906190785951921,0.03684563822365397,-3.03803083970805,1.9487494786983983,-0.9339037254656453,-0.25655776155939314,0.6827556112282056,1.1182478750762803,2,left
13.835999999999999,0.3772006368526222,0.9015340261510721,0.020030118790001574,-3.0580445196706436,1.987126147977238,-0.9247833364729506,-0.25193855055703945,0.7666739280256477,1.119620872546629,2,left
13.842,0.36561714326135714,0.9017123130897184,0.013854288521416621,-3.0423724740551785,1.9553773948524273,-0.9322008358825505,-0.258029686699459,0.6559852335970449,1.117810006947566,2,left
13.842,0.36262976267847025,0.901708514158584,0.012653182429135119,-3.041203703021805,1.9557894531133042,-0.9323054049788235,-0.2835709002737688,0.19141544040257005,1.1101898415241154,2,left
13.843,0.352257689681163,0.9045086303674148,0.0073144463854455406,-3.0753282915436433,2.0175174192282825,-0.9173515581887997,-0.2896598093638475,0.0807248482288006,1.108379325572879,2,left
13.845,0.33987988135264646,0.9089883085801844,0.0013295776619698632,-2.993749633794177,1.8664450709709417,-0.95366031798332,-0.28504453071389474,0.16464402546007584,1.1097525563498003,2,left
13.845999999999998,0.3268855091557662,0.9163125546377167,-0.004034824808982367,-3.1281563393134295,2.1166847413109675,-0.8936332700996131,-0.2878261122737856,0.11403739533392812,1.1089217675438945,2,left
13.850999999999999,0.3152201721256708,0.9232764528736424,-0.007757452178891155,-2.9511678089843887,1.7867100795547846,-0.972736340465518,-0.2866984592921815,0.13461022199674233,1.1092660547558466,2,left
13.852,0.31193764481953623,0.9245043615763671,-0.007815409095674944,-2.207145719681362,0.40128757272049254,-1.3050739071220236,-0.28667412940478665,0.13493846102502893,1.109257436299751,2,left
13.853,0.30094864660857246,0.9293082686726248,-0.01164657018675145,-2.0301486733744145,0.07133253538040012,-1.3841326074785325,-0.2872789093051419,0.12408991390792637,1.1090989704502916,2,left
13.856,0.28350126517281793,0.9357787821763449,-0.01937789349324728,-2.1644087388999558,0.3214970844289433,-1.3242046340503077,-0.28655711030672887,0.1370736379339979,1.1092928650852159,2,left
13.857000000000001,0.2712585175462108,0.938445115584388,-0.024605403046706602,-2.0833856236312718,0.1706075369469427,-1.3603507641499997,-0.28711541545845265,0.12697932080263813,1.1091354577387467,2,left
13.859000000000002,0.26046351702994375,0.9417523499102658,-0.033178286245953745,-2.1163415682253675,0.23201242313620069,-1.3456105959103848,-0.28682580618150244,0.1323694682094504,1.1092399670829334,2,left
13.86,0.25069255645015287,0.9413690175941922,-0.05090634031114716,-2.116926977939892,0.23285674051437957,-1.3455045408060036,-0.28686524932028573,0.13126214244519668,1.1091700474161894,2,left
13.865,0.24394992148342104,0.9396027619282955,-0.07271807784793433,-2.099348496424577,0.20069868677319586,-1.3530245725711503,-0.2869938461775867,0.12959209733124671,1.1092317122498216,2,left
13.866,0.24250630453685285,0.9389177036593255,-0.09095824733502728,-2.1205002709448415,0.23922003565358876,-1.344051231036258,-0.286796273329427,0.13236633114216778,1.109168002095784,2,left
13.869000000000002,0.24615641220533915,0.9337352530737031,-0.1054700365754845,-2.103916908180631,0.20922457594674682,-1.3509864856211524,-0.2869730437962696,0.1298037497987464,1.1092130137923348,2,left
13.87,0.25154299407326985,0.929104826266144,-0.1203586166503473,-2.1128132850862418,0.22540498424135508,-1.3472161255885355,-0.2868873153764425,0.13136867616584558,1.109239425999737,2,left
13.877,0.2583101195610446,0.9247395345687188,-0.13033304605855772,-2.1112280304389355,0.22167157525063044,-1.3483299654414922,-0.2868355478728646,0.13110044821134553,1.1090736337689526,2,left
13.878,0.26676948762915703,0.9178563197738332,-0.13356442594814005,-2.107622382173625,0.21747971702700114,-1.3486343620358032,-0.2870398223278387,0.13014979244067149,1.1094269040475988,2,left
13.879000000000001,0.27473649063049455,0.9126425547043548,-0.13451550960443998,-2.1138585656917765,0.22473792491307767,-1.3480990029599358,-0.2867144847686911,0.13194245890833217,1.1089060042929868,2,left
13.879000000000001,0.28165523842233586,0.9067805723547395,-0.13460760389219756,-2.1073550062427007,0.2179773732276374,-1.3482426655704298,-0.28706515937694566,0.1299617381194442,1.1094601901492558,2,left
13.886,0.2889608598661796,0.9018226848843018,-0.13623148782215944,-2.1120665767661175,0.22248323888791652,-1.3483393776959594,-0.2868564272438139,0.13121629887740716,1.1091417095747589,2,left
13.887,0.2937225195720864,0.9017034223725954,-0.13805329738287817,-2.1109886900572707,0.22043713719363492,-1.3488408334757964,-0.28670668202179517,0.13175227643984072,1.1088584793536915,2,left
13.889000000000001,0.2933858717559569,0.9046041495427308,-0.14381945869428064,-2.10690270618435,0.22075499405466653,-1.3465801695807005,-0.28741153184730384,0.12851377957735308,1.1100839143369208,2,left
13.89,0.28981194293818086,0.9100677805445312,-0.15306119038029792,-2.11684502111329,0.22115352326914983,-1.3514758617446878,-0.2860953565651798,0.1346806723272212,1.1078137574019387,2,left
13.894,0.2836977378544856,0.9170857413192641,-0.15554598833393357,-2.1021524190214578,0.22082000168983196,-1.3441103833414618,-0.28778754259611944,0.12672602909469632,1.1107283766221951,2,left
13.894,0.27656771092270427,0.9258221155924848,-0.1518517867171597,-2.117629062564559,0.22082897740297178,-1.3520446616335664,-0.2863737702470779,0.13338145031328713,1.1082950202134012,2,left
13.899000000000001,0.2714031515131395,0.9383189146192729,-0.14820220823624836,-2.1086853847688554,0.22082027274406174,-1.3474618857795502,-0.28641569997866456,0.13314548158805609,1.1083607251306882,2,left
13.9,0.2672867336086923,0.9510853743593264,-0.15080168940921906,-2.1013854538898435,0.2215806648405652,-1.343324902676884,-0.289099964796109,0.1206384122446166,1.113001835312186,2,left
13.904000000000002,0.25976123370869125,0.9635834747808389,-0.1557393655465746,-2.133861809426921,0.21924635311539944,-1.3611869521991413,-0.28249756836485435,0.15144473346864232,1.10159409508156,2,left
13.904000000000002,0.24836297176050093,0.9803187567108363,-0.15489921386699634,-2.0736098834556067,0.223526524370958,-1.3280754868923186,-0.293446462853609,0.10034994068226635,1.1205095418817947,2,left
13.909,0.24231555081594994,0.9906995373208524,-0.15410500962322,-2.1509395977962145,0.21796610196666039,-1.3706055120133769,-0.2790039636909386,0.16774450319242942,1.0955590032848104,2,left
13.91,0.24282228467093311,0.9928874745829189,-0.1558623883794994,-2.0864003580960366,0.2226384004789807,-1.335095321075703,-0.21839638559996058,0.4505579344319013,0.990841658007719,2,left
13.91,0.23804646518308062,1.004808568001785,-0.15457810173621675,-2.0881813175116792,0.22259005585472688,-1.3360301010780105,-0.20395276433570095,0.5179446661165079,0.9658889948805055,2,left
13.913,0.23111606925630596,1.0198130228673028,-0.14848894256921055,-2.211082307754863,0.21334270691567747,-1.4038406051495724,-0.21490287297564425,0.46685834621102823,0.9848067410251603,2,left
13.914000000000001,0.2264395324940598,1.0286327870131724,-0.13631928841361285,-1.9089918465555225,0.23601566955423975,-1.2371988601631958,-0.20830093788989268,0.49766788821072927,0.9733998723978251,2,left
13.918,0.216802835159278,1.0389056120881746,-0.12013028449965972,-2.4098562649181785,0.19841326862398434,-1.5134908317342037,-0.21098117643130926,0.48513271821245185,0.9780333633183814,2,left
13.919,0.2100689790311993,1.043801269901203,-0.11110270144945719,-1.7492385999964415,0.24803329531647256,-1.1490652556271423,-0.21103176973961207,0.48495721370958655,0.9781154656474887,2,left
13.92,0.20785432634102405,1.0438808714220524,-0.10984864696078075,1.023842599219326,0.45645819013341565,0.38086265246927,-0.20960557515086256,0.4915259398083666,0.9756585957873022,2,left
13.923,0.19726214925126961,1.0484808780165786,-0.10458183685064468,1.6844526073074257,0.5061074947545341,0.7453032472165271,-0.21131013167529034,0.483657628938027,0.9785966331077597,2,left
13.924000000000001,0.18118221680450092,1.049650040014453,-0.09479632008919474,1.1835733233117804,0.46846482945575013,0.4689653394619673,-0.20998861776090588,0.48978726694396935,0.9763163649935046,2,left
13.927999999999999,0.16654723357785525,1.0487456159803101,-0.08574571204747108,1.485748932597505,0.49115616169955045,0.6357060564806553,-0.21068284718681177,0.48647464452109945,0.9775217060232476,2,left
13.929,0.1528090155372228,1.050994145460178,-0.07786203732539504,1.3626514172196813,0.48195117984889063,0.5677326712816131,-0.21056731712343357,0.4872494164159256,0.9773032305086181,2,left
13.933,0.1400890415026183,1.0475356906838673,-0.07010995498280286,1.361180374373089,0.481769783407924,0.5670035274974181,-0.21029962862567192,0.48809251587633506,0.9768731598236916,2,left
13.934000000000001,0.1304172395570681,1.0418968928895198,-0.06321084674138158,1.4253656701013415,0.48666639374877557,0.6023348251662541,-0.2107226598273615,0.4866167704338409,0.9775643106940451,2,left
13.937000000000001,0.12240895450469179,1.0399920998156689,-0.05849426503102944,1.3482754775841008,0.4808407017923295,0.5598381106168688,-0.21033963258295876,0.4880068325424787,0.9769341919643987,2,left
13.937999999999999,0.11261384892561814,1.0373410010234392,-0.056771482788657915,1.408633761160813,0.4853131497579298,0.5932041479477341,-0.2105434010379948,0.48705262025139895,0.9772865438510453,2,left
13.944,0.10511055095151524,1.034421896308118,-0.059775952649151996,1.3754685196335787,0.4830273023892051,0.5746937782177841,-0.2105986717068047,0.48753144775572527,0.9773233071286501,2,left
13.944,0.10212568428399757,1.032727220423027,-0.062491551203475826,1.3841562217438854,0.4833231110550842,0.579853042050975,-0.21026831084248981,0.48738904710114134,0.9768867131204318,2,left
13.947000000000001,0.09808789696993542,1.0309898680915557,-0.05790735835542301,1.3911807030495376,0.4842899676706508,0.5832796421910735,-0.21081004473227183,0.48737356592455827,0.9776225344078608,2,left
13.948,0.09442203881844582,1.02825811036853,-0.04882314646315564,1.3775580458016305,0.48291586994510405,0.576121484906402,-0.2102233983416995,0.4874324742921779,0.9768223077998748,2,left
13.953,0.09426168496522494,1.0263916762769862,-0.040835125612882245,1.39152176726877,0.48396240869764445,0.5838285758015095,-0.21057682214870976,0.4873314208277863,0.9773096913924283,2,left
13.954,0.09397520021422381,1.0260926323249322,-0.034393323147184046,1.3798477410784722,0.4837349751581818,0.576724863752544,-0.21081001245554365,0.4875763857382124,0.9776062583826811,2,left
13.957,0.09432273587463011,1.0248758966233922,-0.024924102500542233,1.3892451798117365,0.4829553799616929,0.5834245007351746,-0.20967234535971557,0.48704779913382046,0.9761058043071714,2,left
13.958,0.09770186471344547,1.0251954753220676,-0.015184520136309002,1.3813116232468943,0.48457623400835936,0.576787707699999,-0.21180344093629755,0.48793002981121236,0.9789252601697674,2,left
13.963,0.10369636831963605,1.0283055923775621,-0.015177120090609817,1.387542388193923,0.48268058580617046,0.5826338917799594,-0.2090620331824696,0.48681913157899886,0.9752962605528281,2,left
13.964,0.11202766055564564,1.0299208474012733,-0.02233045924714052,1.3854347797083624,0.4838886765868396,0.5800799338270823,-0.21135300481283836,0.48773777296681875,0.9783300392062619,2,left
13.967,0.12399551563638754,1.031413886500798,-0.030747642004416383,1.3789776179152469,0.48457952259418535,0.5753166772505669,-0.2112827148416008,0.4877468252202924,0.9782333301354791,2,left
13.968,0.13773777223914693,1.0354937193053344,-0.041810712661922295,1.3986769846981757,0.48090882504779414,0.5914368296909321,-0.20694067222189172,0.4858836428039212,0.9724948025057412,2,left
13.972000000000001,0.15181777098555527,1.0374746159605441,-0.05379919082538569,1.3641657926419903,0.4878697484691537,0.5626585678101145,-0.21762335427719337,0.4904233806101941,0.986618051566294,2,left
13.972000000000001,0.17162480480545117,1.0369510553081835,-0.06229989347204931,1.4077528429391895,0.47887526371218697,0.5992086824963081,-0.19990752578112267,0.48290628372201283,0.963194717951714,2,left
13.978,0.18499788126692243,1.0384480960034805,-0.06432838528600102,1.3716687340012719,0.4864097315134849,0.5688650712346105,-0.22327571035528876,0.4928207905930568,0.9940921548941771,2,left
13.979000000000001,0.18817710185284295,1.0390279708838297,-0.0643727304155561,1.3721791967683918,0.48616472947963574,0.5694238642819844,-0.32132465529496357,0.5344778660357328,1.1237084985076136,2,left
13.979000000000001,0.20127202482052547,1.0352169203669894,-0.06612334562373001,1.4422262623265838,0.47190610477038547,0.627981135985171,-0.3446908553665752,0.5443964807056623,1.1546022018132742,2,left
13.981,0.21665830614676024,1.031111137209577,-0.06559864700355891,1.270729146846801,0.5070140791504789,0.4844344204416835,-0.3269807860747038,0.5368758658228968,1.1311901983058252,2,left
13.982000000000001,0.22127989769504255,1.0289969907029952,-0.06620480366165415,1.5548313004940377,0.44877699815996325,0.7222977697107841,-0.3376514905782739,0.5414106320515499,1.1452891603904023,2,left
13.988,0.22244101133576483,1.02716185671246,-0.0699353234366345,1.1801875116977576,0.5256037407704571,0.4086096208453136,-0.3333287022294673,0.5395689566239179,1.139590470526804,2,left
13.989,0.22399010650655904,1.0264918675193138,-0.07223242097374069,-0.3924892925790673,0.8478965857918238,-0.9083102076318936,-0.3332346052806233,0.5395362530545643,1.139443611193879,2,left
13.989,0.22158484612910584,1.0265722268471844,-0.07630994007244699,-0.7671077633683091,0.924718683496262,-1.2219900245341908,-0.33554560371828906,0.540511145718604,1.142520820864258,2,left
13.991,0.2125159028084721,1.0277198681438724,-0.08713636020242652,-0.483120406634657,0.8665026657716066,-0.9841644438515174,-0.33280187508255266,0.5393487522924614,1.1388841399939218,2,left
13.992,0.20127188741649904,1.0315373659249105,-0.10242347435163054,-0.6543183513100002,0.9015557452549368,-1.1276127407024519,-0.334901249411228,0.5402448099663393,1.1416408637497533,2,left
13.999,0.186934267301365,1.035880528304084,-0.11632684814236614,-0.5848186703140597,0.8873975621384811,-1.0692355345825586,-0.3338409760066223,0.5397797805523192,1.1402991921647079,2,left
13.999,0.1688652112781679,1.0423772826711137,-0.12468244902873339,-0.5835568283341062,0.887014684899768,-1.0684295788949894,-0.33395457783311483,0.539853278434739,1.1403460956894267,2,left
14.002,0.1497160963640619,1.0514430976501716,-0.1263910994585205,-0.6203768921483251,0.8946841999697488,-1.0990152686655734,-0.33444041373221817,0.5400287826394218,1.1411150193547066,2,left
14.002,0.1288700763958009,1.061724894255494,-0.12530007338484314,-0.5764833872061427,0.8856334766379466,-1.062364370449401,-0.3337694793311931,0.539768344930712,1.1401271389077214,2,left
14.005999999999998,0.10648510705653552,1.0741119018437093,-0.1246954640759911,-0.6103349960875694,0.8924733768741724,-1.0909256314678668,-0.3342615477991757,0.5399774900752601,1.140776692368759,2,left
14.005999999999998,0.08145346574175821,1.0847004486656115,-0.12468622952659825,-0.5927233082745987,0.8891857523031799,-1.0754922465890258,-0.33419981252171405,0.5399060985022892,1.1408824086281393,2,left
14.012,0.05624218795104998,1.0956512598092993,-0.12466713601952817,-0.5955943543206157,0.8892185641421201,-1.0790758485454723,-0.333729891973001,0.5398097466730182,1.139833207322787,2,left
14.013,0.02981578636657473,1.1078169413297014,-0.1234615828875985,-0.6020989789565664,0.8912334954468978,-1.0830761624397391,-0.3346460614159647,0.5400448964925822,1.1416827169114292,2,left
14.015999999999998,0.0017031001232191353,1.1164531191883529,-0.12337997826991129,-0.5923645909111603,0.888694926698361,-1.076077562254923,-0.33359074432055014,0.5397607729843443,1.1396072486538062,2,left
14.015999999999998,-0.022580265031496335,1.125120338034239,-0.12437571403664843,-0.6002635684347349,0.8903094704061468,-1.0827028277271256,-0.33425317526015796,0.5399473440411587,1.1408758549320777,2,left
14.020999999999999,-0.04634316820301754,1.132927498074021,-0.1257033300836448,-0.5973766508468317,0.8907244863505195,-1.0781449921936475,-0.33466044463533773,0.5400385465766864,1.1417536361377612,2,left
14.022,-0.07071202718406046,1.1387253745331751,-0.12713143068066413,-0.5941762286784654,0.887767686677783,-1.0803556551533857,-0.3325760378970225,0.5395109523114261,1.1375142920220078,2,left
14.026,-0.09146765074390707,1.1448783290623967,-0.12820858553193107,-0.6024010723515612,0.8928857366873508,-1.0799474170192314,-0.3365127789321283,0.5405197067969622,1.145469685344072,2,left
14.027000000000001,-0.10709392805177209,1.148343784546825,-0.13313986375576836,-0.592371113923458,0.8871714164328091,-1.0793254018845229,-0.3314323899141701,0.5392135269372975,1.1352215827644052,2,left
14.030999999999999,-0.11894584074881016,1.1507896490791079,-0.13399370900015395,-0.5990118761998855,0.8906459375634207,-1.080393307787573,-0.3356841118298014,0.5403085223696416,1.1437900020325196,2,left
14.032,-0.12523606433543372,1.1533547414151046,-0.1217336650591635,-0.6021080244582879,0.8931038099282679,-1.0791112387471435,-0.3355534771622163,0.5402719817663585,1.1435396112141756,2,left
14.035,-0.12379767587169511,1.1528981952201591,-0.1075865650307193,-0.5837097747876905,0.8813565215921091,-1.0806589805046625,-0.32748800595459615,0.5382024622369077,1.1272514878509197,2,left
14.035,-0.11893412171146801,1.1505590938911046,-0.09936755258281878,-0.6189734298372648,0.9033750348456975,-1.0787480092158253,-0.3473337260126915,0.5432989419764133,1.1673102607174628,2,left
14.04,-0.1070650643183739,1.1488784491239001,-0.09358807620729657,-0.5732831323715204,0.8750195788564339,-1.0808570541134404,-0.31442135386905357,0.534845201189575,1.100884597248726,2,left
14.040999999999999,-0.09777599210223575,1.1486759036290377,-0.09064702108790196,-0.6115972482272918,0.8987247862413171,-1.079240289223287,-0.35783401975987184,0.5459967060389226,1.1884983492295653,2,left
14.045,-0.09360973621113806,1.1470963142411348,-0.09032833104580049,-0.6103028932010841,0.8980352606299669,-1.0790640424543068,-0.5400669156520448,0.5928034530206696,1.5563045589971414,2,left
14.046,-0.07767566845823083,1.1428927714650559,-0.08679623812284448,-0.5379331849825275,0.8529635755593061,-1.0827335145584576,-0.5834770122305826,0.6039546320120541,1.6439095441517146,2,left
14.046,-0.05796846180188578,1.1418512562474739,-0.08126495726789751,-0.7161743282938765,0.9638093208157354,-1.0740294202079603,-0.5505654769025572,0.5955004181673584,1.5774907982159685,2,left
14.05,-0.03290238528923135,1.1444854003348706,-0.08078239821108983,-0.42051374245273765,0.7800030990736455,-1.0883465529559078,-0.570419136416523,0.6005999563449469,1.6175622730799808,2,left
14.05,-0.012343635080073766,1.1453984689819368,-0.08239411814293404,-0.810523471607264,1.0224422385932006,-1.0694985196263396,-0.5623302559396699,0.5985232385208368,1.6012239374529482,2,left
14.055,-0.007427007241160376,1.1464739668683221,-0.08296978983255916,-2.4475852677747816,2.04016339365954,-0.9903053078724381,-0.5622405106067234,0.5984981583348334,1.6010690590292231,2,left
14.056,0.014395860537340219,1.1484239046376534,-0.08453611839156175,-2.8375739103962045,2.2825858731240505,-0.9714508306541494,-0.566441194229157,0.5995799464101791,1.6095105610525984,2,left
14.057,0.04737550712240034,1.1496049274432758,-0.08371341959565998,-2.5419049707000707,2.0987912841364396,-0.9857488360367149,-0.5614021497018007,0.5982828905576523,1.5993763154899612,2,left
14.06,0.07281278517241614,1.1531015631297468,-0.08113430365092823,-2.720265189232373,2.2096665267175464,-0.9771398374720882,-0.5653386534683358,0.5992951875965682,1.6073058420226862,2,left
14.061,0.0994604888236132,1.156132099061198,-0.08076468009300852,-2.647592207341712,2.164488372454611,-0.9805956006316308,-0.5631781843185841,0.5987425241573809,1.6029151301040199,2,left
14.065,0.12370852886088862,1.159608284551052,-0.08326732979552787,-2.6467983355474303,2.1639967447699653,-0.9807518549641582,-0.5637606940181007,0.598884831876964,1.604188300588667,2,left
14.065999999999999,0.14517021726933893,1.166332868270966,-0.08736136124703842,-2.684516591486463,2.1874431729031754,-0.9787602852055045,-0.5641607929909105,0.5990001793035771,1.6048279834323642,2,left
14.071,0.16327796040145795,1.1713503915796415,-0.08809345918097264,-2.639267592424935,2.159314221954419,-0.9811152323699046,-0.5633853497218009,0.5987855875130419,1.60346876380734,2,left
14.071,0.1761515249000305,1.1775728836217287,-0.0895998382404328,-2.6746231929459956,2.1812929119241984,-0.9793345964462451,-0.5641412536220813,0.5989920148492047,1.6048303168663762,2,left
14.075999999999999,0.18722257476789392,1.1863014940905021,-0.09551322223851794,-2.655195376898113,2.1692176840450923,-0.9801263710802738,-0.5635251677622248,0.5988339061555432,1.6035855027071775,2,left
14.075999999999999,0.19564847408110633,1.1967256827656678,-0.09956506150281273,-2.660488730751142,2.1725023774196055,-0.980342203244227,-0.5640929315769028,0.5989569252658569,1.6050355794793238,2,left
14.079,0.1998562474133775,1.2092089072171184,-0.10400988519277155,-2.6639790754188546,2.1746825796077145,-0.9793612769564991,-0.5634088016536947,0.5988332817875355,1.6029595948565034,2,left
14.08,0.19846997692414653,1.2220953376873234,-0.1105482714245561,-2.657140567415806,2.1704182956825795,-0.9806885506817588,-0.5642825083459994,0.5989800551526258,1.6057601944032638,2,left
14.085999999999999,0.19444498765723597,1.2424870443327767,-0.11907925399955199,-2.6638294311034714,2.1745871218694868,-0.9795706467578179,-0.5633784567531348,0.5988305530503644,1.6028297743547084,2,left
14.087,0.18922965296072947,1.2676678954434777,-0.13195407986265517,-2.658293577230009,2.1711456907804014,-0.9798308298536567,-0.563857646047978,0.5989059479136398,1.6044360237621278,2,left
14.089,0.17829220460477152,1.2964261907299066,-0.14375237778750788,-2.6635841033040126,2.174414756942289,-0.9810506686897372,-0.5644846304878041,0.5990255679334475,1.6062517825213218,2,left
14.09,0.1649881933623581,1.3326652713958833,-0.15026360967686558,-2.657004351227,2.1703701749756084,-0.9779968882905467,-0.5620907405684719,0.5985913099727017,1.5990104948025727,2,left
14.095,0.1514167109921179,1.3684468024298706,-0.15085497214637378,-2.6655003511406057,2.175583033384589,-0.9826163157165598,-0.5664671011071954,0.5993807062987517,1.6123126260832594,2,left
14.095999999999998,0.13165083792812182,1.4103312111950137,-0.14782993181324267,-2.6566892787072263,2.1701794097457965,-0.9776801019808983,-0.5608617292133913,0.598370430864032,1.5952599736640407,2,left
14.099,0.10960345360478141,1.4549582627003743,-0.14553393590724994,-2.6613919969474056,2.173059313273537,-0.9805508090636951,-0.5655357734167272,0.5992128098554621,1.6094858040779059,2,left
14.1,0.08163522160915658,1.5014854661731425,-0.14502024840394878,-2.6673691305354907,2.176740273354339,-0.9829332084558218,-0.5654309648220568,0.599194697558674,1.609142891997167,2,left
14.105,0.04748140008126761,1.5554591019874024,-0.14511975203983102,-2.644358709825913,2.162593754454887,-0.9723560101875373,-0.556447000289271,0.5975721796691174,1.5818767329226389,2,left
14.106,0.016057148701592302,1.6037498400219126,-0.14235526417228878,-2.686463287481851,2.188472766867232,-0.9919984378511683,-0.5785032216085206,0.6015554858320751,1.6488460967483873,2,left
14.109000000000002,-0.023682988093510923,1.6613816915197814,-0.1352287100837849,-2.63252680341987,2.1553246941106154,-0.9667709446844776,-0.5419391190566663,0.5949510591224381,1.5378173685906407,2,left
14.11,-0.04999082381452705,1.7013797820750778,-0.12816606009987475,-2.677503527120881,2.1829626346356616,-0.9878339093175897,-0.5901671079166271,0.6036639841099651,1.6842671359900128,2,left
14.114,-0.0565077647636035,1.711891303830671,-0.12620510510657168,-2.6764852935336494,2.182345725808533,-0.9872557970355298,-0.7926315564356531,0.6402344641044239,2.29902785403442,2,left
14.115,-0.07998807022658837,1.750130199635286,-0.12322894837037662,-2.590071550508779,2.1292232169379606,-0.9471207198037562,-0.840864014036818,0.6489528890333867,2.445494974099242,2,left
14.116,-0.10567413807887699,1.79803677137805,-0.12508759477546266,-2.802230228750429,2.2596293951282425,-1.04577576571947,-0.804294282480406,0.6423402151611646,2.334441858884322,2,left
14.12,-0.1262564048318422,1.8443299707507932,-0.14708951930284309,-2.450523685641228,2.043462611009997,-0.8822011731298219,-0.8263514777265479,0.6463293926860504,2.4014239621705986,2,left
14.120999999999999,-0.1420745530216045,1.8816347416928227,-0.16541412776460435,-2.914415456179608,2.3285633236025407,-1.097951883615873,-0.8173777521467056,0.6447098432998165,2.374179095333125,2,left
14.124,-0.14624764828061337,1.890510548394774,-0.1696085754214983,-4.861879077584717,3.525448890055169,-2.003551514827534,-0.817247039152321,0.6446741402870777,2.37376298992385,2,left
14.125,-0.17169228306986678,1.9241105063443824,-0.18131379076130094,-5.325786992580518,3.8105003430488233,-2.2192895404323623,-0.8219613266793008,0.6455507108271631,2.388115686497367,2,left
14.126,-0.2222251509019692,1.974226275256348,-0.19141277184464406,-4.974069295502236,3.5944315621219793,-2.0557365555954914,-0.8163120063459346,0.6444951827267802,2.370909318016343,2,left
14.128,-0.2948883599778691,2.0094385763734794,-0.19252055811079896,-5.186198968667139,3.724699655490742,-2.1543688976203326,-0.8207145250074543,0.6453249132168515,2.384328628575852,2,left
14.129000000000001,-0.39852405469257846,2.0435032165376725,-0.1814710372765102,-5.099889266766688,3.671726822183144,-2.114245862910262,-0.8183417939249884,0.6448815642949568,2.3771021541897754,2,left
14.133,-0.5152153376336432,2.0662591560534347,-0.14621918811844714,-5.098677974363126,3.6710059687880285,-2.1136802986913237,-0.8188720979269544,0.6449479831036022,2.378668609120192,2,left
14.134,-0.633385662696927,2.0777790555999074,-0.10078177787689654,-5.143906846201358,3.698618322124588,-2.13469447972964,-0.8195340610933326,0.6451618658707451,2.380818842328385,2,left
14.139000000000001,-0.7414598712153313,2.082580195431433,-0.054424601542812326,-5.089750079043565,3.6657138657332764,-2.1095540301831797,-0.8183885119811942,0.6447926960678496,2.377099336134642,2,left
14.139000000000001,-0.826538847820372,2.0771360077861925,-0.008673019521011493,-5.131892498622027,3.691082657682681,-2.1290874657037566,-0.8194804216326658,0.6451888355591797,2.3807104588763366,2,left
14.142999999999999,-0.8833048764722116,2.0646868156840132,0.02194938108186051,-5.109203063054315,3.677660462468631,-2.1186001350510275,-0.8187391581985906,0.6448965599374408,2.3782241480169404,2,left
14.144,-0.9051686828566914,2.048866166474376,0.04296715878231266,-5.114372980397189,3.6806140098268214,-2.120976211984617,-0.8190374991656717,0.6449487009672372,2.379127818470705,2,left
14.148,-0.8941324399150193,2.0324502172082344,0.0705456457948914,-5.120337860602598,3.6838358536605917,-2.1236970966407736,-0.8191443365509883,0.6452626031648794,2.379889405509198,2,left
14.148,-0.8587359587124297,2.0157691432848073,0.09862820247468226,-5.110114424468438,3.6789800915222215,-2.1191153587586844,-0.818735767254219,0.6445161846834169,2.37764998275138,2,left
14.152999999999999,-0.8113571268052626,2.004821492476832,0.11728518452442013,-5.119532425660701,3.6823115272455107,-2.1231974392322486,-0.8193071268863277,0.6456223039790054,2.3808747628002287,2,left
14.154000000000002,-0.7614659493863676,1.9962529296216935,0.12741800226144,-5.113430325145558,3.681574466492523,-2.1207250604916346,-0.8187486847332347,0.6444529233528821,2.3775910413560517,2,left
14.158,-0.7153322488699967,1.9833648420620114,0.13148493378875512,-5.115933292489727,3.680711272868106,-2.121597746631929,-0.8190719157085167,0.6451276509339989,2.379489780140049,2,left
14.159,-0.6719675957631128,1.9734959170526891,0.1339640596051541,-5.115915809146223,3.6806791242704753,-2.121587225974599,-0.8192381400794558,0.6456922329333198,2.3807861490843285,2,left
14.162,-0.6273964110967707,1.9649582190737878,0.12817290809334436,-5.115056246840151,3.684606159561162,-2.121727392113076,-0.818365097306932,0.64320193361273,2.374672599897166,2,left
14.163,-0.5822986264580756,1.9528570328374137,0.10852356730167803,-5.115424526491124,3.674651173125498,-2.120664606669001,-0.8199914460599725,0.64781863300229,2.386031513879113,2,left
14.167,-0.5224415851663946,1.9366565289422277,0.08531956859968542,-5.1161899230870524,3.690310032940095,-2.1228616116703147,-0.8179124067724772,0.6418951989676762,2.3714751109551857,2,left
14.168,-0.4493285797624202,1.9142443281278798,0.04742107591871177,-5.114605442162035,3.673145202588043,-2.120162111967109,-0.8196439186528974,0.6468351323315619,2.383613580208843,2,left
14.172,-0.3551827256940471,1.8842415120702825,-0.005171972710349725,-5.115766445362737,3.6832137840116026,-2.12183608160404,-0.8195850607518672,0.6467099592616374,2.383251630188279,2,left
14.173,-0.2395667787975213,1.8479542810941103,-0.06847745409492947,-5.116870041807008,3.6919565523644917,-2.1233267906707285,-0.8163342600471903,0.6372735017304063,2.3602530416549,2,left
14.177,-0.12767686886849583,1.8133190652369575,-0.14629045887927955,-5.111745826154205,3.6535137991045143,-2.1166656147958784,-0.8243336061563832,0.6604481431917428,2.4168031001252137,2,left
14.177999999999999,0.016017386161392165,1.7715478994571248,-0.1783146958700975,-5.121530574191247,3.7249790814786823,-2.1291501195519027,-0.8110709866362802,0.6220375460374259,2.323046445682827,2,left
14.183,0.12294267225839278,1.7369701856148148,-0.16690599488054128,-5.108771903769989,3.6330951091122223,-2.1130284227334597,-0.8285615604097298,0.6726899218033093,2.4466996665272687,2,left
14.184000000000001,0.14618910567421434,1.7298043197988067,-0.15498671996236785,-5.119506952303997,3.7098547064766922,-2.1265277299229997,-0.9019397291872658,0.8856095026785686,2.965704024548083,2,left
14.184000000000001,0.24698542397100098,1.692231649225124,-0.0959751959988043,-5.119233968973592,3.7077908275075897,-2.1261664482707276,-0.919425389704881,0.9362724772115227,3.0893455224524162,2,left
14.187999999999999,0.3940737996134138,1.62411287860172,-0.01693250285024653,-5.098567544376193,3.5612965296341175,-2.100346209401079,-0.906171522502133,0.8978113873384499,2.9956009519044033,2,left
14.189,0.49745497706755365,1.562218214487557,0.034280062713645115,-5.14940362483193,3.9213827655129836,-2.163832726864106,-0.9141607182392788,0.9211198969942521,3.0521579579898295,2,left
14.193,0.6309491663576929,1.4658205592345124,0.08060816438773263,-5.065059297917145,3.3243077424749075,-2.05854634752085,-0.9109173784657487,0.9114365035543499,3.0291129188788233,2,left
14.194,0.7151106998995159,1.396821581697894,0.10872059002103361,-5.176370119648421,4.1118935938563945,-2.197430998096026,-0.9108592318896584,0.9116522648594476,3.0288479886081188,2,left
14.194,0.7321160795485337,1.3806347923719358,0.11696060440094744,-5.644477411830061,7.418654572635422,-2.7802760174690757,-0.9125763017804525,0.9162557871728912,3.04084969174389,2,left
14.197000000000001,0.8097527936506324,1.3046183812980177,0.14200845788609756,-5.756006982166202,8.206458249696581,-2.9191286507736844,-0.9105284097223201,0.9104769623861252,3.0264265576408014,2,left
14.198,0.9066176430115651,1.1980545945984589,0.17843201121066826,-5.671202102448563,7.608918690358967,-2.813919194534744,-0.9121101840463612,0.9153848043165085,3.037733390542033,2,left
14.203,0.9954563224575691,1.1012521017609433,0.172918952973384,-5.7227411630033895,7.969725932818086,-2.8772691206965346,-0.9112821393157253,0.9119556912387239,3.031492915151868,2,left
14.203,1.0956094355185282,0.9833862581200535,0.14884955409668393,-5.701224963173274,7.822342166339068,-2.8516427350272577,-0.9114268343332488,0.9141429658462246,3.0331766477853925,2,left
14.207,1.144657397324167,0.881763521586214,0.12662674479838593,-5.7016882207409845,7.821075631020246,-2.851070618141108,-0.9117171005248152,0.9128173833814834,3.0344201752955864,2,left
14.208,1.174748660505339,0.7893227211249856,0.05413756173608483,-5.712242024264658,7.8975858276350115,-2.864707091462815,-0.9112735068637589,0.9132578392062328,3.0319275192452735,2,left
14.210999999999999,1.2368582742777139,0.6813219879312277,-0.007602176555757531,-5.698571698194716,7.804833777178215,-2.8486550491636087,-0.9116421841540654,0.9143431413735751,3.034541212630966,2,left
14.212,1.2880318356012124,0.5806411847089961,-0.03757292477746321,-5.710777794554728,7.8787466985860615,-2.8607265475292025,-0.9114875862005597,0.9106894561745686,3.0322510456030205,2,left
14.217,1.3183698630591807,0.4963971064100849,-0.0893590308416206,-5.701763605533117,7.836272672711383,-2.8548879046810383,-0.9113838127401209,0.9177120956677554,3.0342509678984824,2,left
14.218,1.3516053353669075,0.43473655761315255,-0.1114296684179077,-5.707358478182714,7.84978309410368,-2.855247157587198,-0.9116994803871818,0.9077031963697106,3.0324059995876533,2,left
14.220999999999998,1.3934984532377075,0.3913491867949098,-0.11240343157223076,-5.705345492611447,7.856303086087754,-2.858008535111212,-0.9113042653855685,0.9182014556707729,3.033956561590267,2,left
14.222999999999999,1.4445318093279744,0.3574578261172918,-0.14847514106780002,-5.7028072852452,7.838536133379247,-2.8548906557526257,-0.9115717743323797,0.9122509312700231,3.033339159381158,2,left
14.227,1.4967097001096021,0.33627070699239225,-0.19063768172103052,-5.7115801270533995,7.862084088355586,-2.8560514020368704,-0.9116806338580727,0.9067628063295312,3.0319410260329303,2,left
14.227,1.541277399445914,0.3229094659260169,-0.19955035841769272,-5.695330114751028,7.835136037280891,-2.8581351367172037,-0.9109799181295484,0.9301191773238551,3.03646320357225,2,left
14.232999999999999,1.574973515211425,0.31831180029357437,-0.17661328964808265,-5.7179116806991335,7.863582876817684,-2.8529539702586106,-0.912331970932275,0.8869618938110175,3.028452886785923,2,left
14.234000000000002,1.594116404788898,0.32254977828980447,-0.14455093277115805,-5.694567614796126,7.8384334705255,-2.8593902061699037,-0.9105775314139424,0.9423200436260462,3.0386046240064815,2,left
14.235,1.6056359825329272,0.325074642436943,-0.11565386429055512,-5.707690000093763,7.85032729036203,-2.8552051970331864,-0.9120489992349226,0.8961306681288155,3.030183372967545,2,left
14.235999999999999,1.60567857110351,0.32648249800994467,-0.09172773107829191,-5.719763074206474,7.866127149547157,-2.8525793260554098,-0.9119997462094458,0.8973382793264895,3.0303309752398846,2,left
14.242,1.5945266454478868,0.3281474931444621,-0.07337880293825057,-5.668532987914251,7.808689280850954,-2.8661436863067817,-0.9092199557490186,0.9855235359607127,3.0466048129124017,2,left
14.243,1.5806645759307831,0.3301675613884344,-0.05562375058032854,-5.763077930933323,7.911799689432913,-2.840384194438858,-0.9160639735771139,0.7688404278864158,3.0067164490137266,2,left
14.245,1.5427802629368152,0.33580981568917945,-0.031203044897511165,-5.6418696753359185,7.7809037445883105,-2.8737289544070643,-0.9047147219710727,1.1280807209154566,3.072819104048147,2,left
14.245999999999999,1.514049895317477,0.3399238545444008,-0.013282141562914065,-5.7430024975249605,7.889558169757535,-2.8457760423713365,-0.9196808313210364,0.6542633694034055,2.985631325124897,2,left
14.251,1.5060093202592284,0.34030338465564275,-0.009727189711064434,-5.740265455675308,7.887119487768578,-2.8466329169768523,-0.9825234202263786,-1.3346715087792789,2.619680183263304,2,left
14.253,1.4654221335832136,0.3434380815510576,-0.0004906923268946559,-5.5474683284866675,7.6790399147652355,-2.89974708333452,-0.9974745342361828,-1.8084586381848118,2.532453187207458,2,left
14.254000000000001,1.4128252183441279,0.34771702100333524,0.005568342252196665,-6.021357878909827,8.18958753029527,-2.769018901492454,-0.9861474719220613,-1.449269217594129,2.598608294859156,2,left
14.257,1.3461592792639632,0.34199275838988313,-0.007138777278288348,-5.235573796567284,7.343465840319037,-2.9858589222903436,-0.9929765309818483,-1.665900388832949,2.558700569633239,2,left
14.258,1.2895747629909557,0.33255622106998484,-0.018350876272438192,-6.27210832103361,8.459353414818068,-2.699804678254771,-0.9901864839062755,-1.577739379679644,2.5749068457936266,2,left
14.26,1.2753413302666539,0.330568963119493,-0.020481463344068654,-10.621531594138336,13.142127483896102,-1.4991016264106558,-0.9901884004020443,-1.5765682568405546,2.575248707962608,2,left
14.261,1.2186986181141009,0.3243827657531629,-0.025277057490371853,-11.658254372603444,14.258042748443426,-1.2130211930559112,-0.991563201859927,-1.6226343315506535,2.5665097808626354,2,left
14.262,1.1326304240097755,0.31228405419218574,-0.029187298680761708,-10.872287864232186,13.412041278718267,-1.42991602386637,-0.989934127296012,-1.5674876327695584,2.577026760632412,2,left
14.270999999999999,1.0643818221916996,0.30312024626488265,-0.02201453902257071,-11.346024672380164,13.922045560876784,-1.2991048438750752,-0.9911780359255818,-1.6103890166468953,2.568768025938378,2,left
14.272,0.9877004349671347,0.2946716766554951,-0.005507852112081717,-11.154058356848921,13.715162011490278,-1.352318346615335,-0.9904942227740843,-1.5872305053041016,2.5731858624342907,2,left
14.272,0.9178216578875842,0.2886167344556887,0.015639162060511417,-11.1496373951734,13.710882549750144,-1.3530906383094599,-0.9907628954647346,-1.592734003366965,2.572483853756234,2,left
14.273,0.8578392807810948,0.2829666367164906,0.03902244440853387,-11.253101614799384,13.821589756879394,-1.325155603744087,-0.9906334278963416,-1.5982875221784527,2.5704626915907456,2,left
14.277000000000001,0.8045922837563162,0.2737357120627256,0.05733926281843271,-11.129675445852042,13.68938225456742,-1.358611707858117,-0.9908545054126058,-1.58866989517174,2.5739528515652736,2,left
14.279000000000002,0.7682121202696965,0.26538112492313104,0.0681567828595856,-11.224984872428927,13.791698263372185,-1.3325643654632344,-0.9904860494747711,-1.5973891180090134,2.5702378710902236,2,left
14.28,0.7426904731611123,0.2532105275411748,0.07738828913756103,-11.176102892690313,13.738520994396739,-1.3465856633494169,-0.9908198301083707,-1.5917074521173045,2.5729657494835427,2,left
14.280999999999999,0.7272698898231571,0.2314642961352626,0.08484839233801983,-11.181375210866648,13.745988922179937,-1.343438529899756,-0.990917291159066,-1.5946521103638407,2.5724385308817475,2,left
14.286,0.7178042235772817,0.20708827178276334,0.08710723621547532,-11.20578225555418,13.76917698080586,-1.33961187794067,-0.989904719084556,-1.5927334794504768,2.5696709427586226,2,left
14.287,0.7086544573147728,0.1817602385027827,0.08305834374190477,-11.16904944803465,13.733419785724024,-1.346181798683812,-0.9921679252284281,-1.5955034284612972,2.576293333082888,2,left
14.29,0.6992955465327999,0.15166908394107373,0.0719603947860858,-11.201617038969543,13.765461174852106,-1.3400368520460213,-0.9887796189134578,-1.590996132854983,2.5664824745575054,2,left
14.290999999999999,0.688707709226023,0.1204231997951042,0.0584135077420469,-11.187040904728942,13.749744396868998,-1.3440862920051595,-0.9924075583421893,-1.5962986374802473,2.576850068028871,2,left
14.295,0.6734625822511782,0.09017375696855807,0.04424356555413604,-11.173644861021263,13.740918529507592,-1.34250437295702,-0.9903111150949067,-1.5932401291597755,2.5708576599596533,2,left
14.297,0.6528941829456998,0.05883745516123457,0.029672055087311067,-11.218898521620307,13.776846365545975,-1.342077478881306,-0.9884703051579234,-1.5895001690059658,2.5658984182976745,2,left
14.3,0.6345781813608915,0.029032739621177937,0.0220897581209928,-11.147882240562746,13.719475394584816,-1.3436824952717668,-0.9964840262813079,-1.6044396791268438,2.5878721864141445,2,left
14.300999999999998,0.6218019567441289,0.000324215594337862,0.020357188245839618,-11.224239960084375,13.78133553058092,-1.3417910723152624,-0.981623655110784,-1.576805089322046,2.5471056558265297,2,left
14.305,0.6158687995075267,-0.029689722766155335,0.025004948181591092,-11.17908866588828,13.744484525069069,-1.3431689473045139,-1.000709115681305,-1.6123810105735705,2.5994380024334536,2,left
14.306,0.6177975663017561,-0.05609761987096036,0.041353265606511716,-11.145277873212413,13.718211559120874,-1.3429454516378287,-0.9847725714984142,-1.5826383998013063,2.5557514471589227,2,left
14.309000000000001,0.6281408604725974,-0.0820713686612677,0.06321730661278988,-11.3016160228749,13.842183645827166,-1.3416131203744175,-0.9852044076167373,-1.5833282017060282,2.55696623739159,2,left
14.31,0.6446201614747195,-0.10807935227195892,0.0880667965649112,-11.010174598168918,13.610656661599144,-1.3445013995779838,-1.015597647468757,-1.6405345026982805,2.6401496478926907,2,left
14.314,0.663997869057336,-0.1305442640342312,0.1130446762892586,-11.384739957215757,13.908308402151409,-1.3406984425246231,-0.9408895321533477,-1.5000145900837285,2.435657633457155,2,left
14.315,0.6940267636032063,-0.15725805710497887,0.1354031979892774,-11.07189424882798,13.65967264202099,-1.3439122954660632,-1.064764647387202,-1.7330127958575419,2.774727333452212,2,left
14.321,0.7188462706748782,-0.17559914313067376,0.15058782764930384,-11.080894424394648,13.666954699477817,-1.3436776409575,-0.9013690506767458,-1.4256598779056509,2.3274907180857864,2,left
14.323,0.7267918293868223,-0.18100378759740277,0.15467761086103893,-11.675687314203069,14.139227582008697,-1.338031566717976,-0.21563102372094053,-0.13525257032757554,0.45060612782891896,2,left
14.324000000000002,0.7467999406255308,-0.19780856577323527,0.16418515658207294,-10.21312517185663,12.977801297122365,-1.3520853244720126,-0.05223852768456132,0.1721455555845408,0.0033901011924013374,2,left
14.324000000000002,0.7789641221831309,-0.22240171862104507,0.17641557772433972,-12.638292664727503,14.903645357028449,-1.328734795446524,-0.17609539295630605,-0.06092483822123926,0.34239088900286274,2,left
14.325,0.7963108617160514,-0.2355871368167637,0.178152554015563,-9.439478914881526,12.363484707494845,-1.3595434684168226,-0.10143876105627914,0.07965891559166988,0.13805559021880165,2,left
14.329,0.8021577581184083,-0.23989971410153255,0.17838183583602069,3.9867812228704103,1.7019675650998562,-1.4886567233331829,-0.1317343603637161,0.0224448946924016,0.22097234059717683,2,left
14.331,0.8183303687303667,-0.24835278679365116,0.17730331111288947,7.185598473647294,-0.8380250131458438,-1.519468054608944,-0.1323036186237178,0.02165815425925212,0.22253337527663936,2,left
14.331,0.8428449469346659,-0.25954782263798765,0.17102128088017063,4.760378510289561,1.087571419505563,-1.49610004587228,-0.11622821428376164,0.051630666507637625,0.17853252188248658,2,left
14.338,0.8602339690152064,-0.26313676567294364,0.15992333842834333,6.223111647010626,-0.07369101362106834,-1.5102044359462137,-0.13537928451183495,0.01571224895146093,0.2309503255730097,2,left
14.339,0.8719425599348092,-0.26190563727821115,0.14570273169128303,5.627975831956748,0.39870468161162526,-1.5044612640060704,-0.12062554158112965,0.04370551170613905,0.1905694160547925,2,left
14.339,0.879767972059605,-0.2584393387597427,0.13472214187960113,5.619476009323797,0.4054015661500437,-1.5043642851794812,-0.12827199564003564,0.028574140263993346,0.21149627104478602,2,left
14.34,0.883577014291386,-0.2482178880788783,0.12481900516127153,5.931794462504682,0.15786177426182285,-1.5074377791951084,-0.1270793389609291,0.032096151063240756,0.2082345938810278,2,left
14.343,0.8850646575913677,-0.2357257157235981,0.11404394231591643,5.55751660686202,0.4541011809512353,-1.5037033364421148,-0.12416978695800429,0.03600472007426346,0.20026803609626395,2,left
14.344000000000001,0.8825997512740558,-0.22791098178588304,0.10810462098987153,5.849275103997096,0.22377968501415618,-1.506694379438575,-0.12847307365676472,0.029155165824012202,0.2120485954976081,2,left
14.347999999999999,0.8812002356272854,-0.2202212058536337,0.10703673641276334,5.691673546940786,0.3475909283825022,-1.5049982820344263,-0.12502827964962748,0.035648284391636365,0.20261999108896067,2,left
14.349,0.8829805808073388,-0.21091700672040758,0.10582717714522014,5.727805504442104,0.31947317534045755,-1.5054220354266181,-0.12618135944098569,0.031164245817766566,0.20577217509530302,2,left
14.354000000000001,0.884426066554602,-0.20441492387197896,0.10200636400009272,5.769949798030719,0.2871419283756069,-1.5059823874387455,-0.12781960110697593,0.03336992269783361,0.2102649433809138,2,left
14.355,0.8855829682056859,-0.19917614524725047,0.095958888471929,5.696228885585922,0.3420315473464478,-1.5047782355755808,-0.12387080177828146,0.03291155071771236,0.19944370121996394,2,left
14.357999999999999,0.8853164829244613,-0.1939910877105378,0.08768077064485343,5.766716072638891,0.2923435258438787,-1.5063072154937052,-0.12863077165516923,0.03236398772225664,0.2124861171520679,2,left
14.359000000000002,0.881831563856027,-0.18801214350284112,0.07737659068551661,5.717837818848185,0.3234483078292477,-1.5047937715888544,-0.12551159929403852,0.03337484174263389,0.20394039766317879,2,left
14.363,0.8724283895078706,-0.17998987684445797,0.06845869394809058,5.740517291280112,0.31158278014436813,-1.505843217577997,-0.12396963322362403,0.03208726087817786,0.19971346491875464,2,left
14.364,0.8585512720559191,-0.17271422811697273,0.06362673271757503,5.740448567860062,0.3116918140366237,-1.505850207837359,-0.13283341536737553,0.03373957628413157,0.22400402558107635,2,left
14.367,0.8413529679888814,-0.16547139591826776,0.06215755043716569,5.724453678166807,0.3129955086432489,-1.5041535560129908,-0.1158961681142604,0.03161580400725065,0.1775897711485422,2,left
14.368,0.8188919189044377,-0.1569681585594837,0.06369510345421953,5.74999696184004,0.31875829482011886,-1.5079245421144791,-0.1378236143536739,0.03400470136773434,0.23767903337555446,2,left
14.373,0.7982143315494056,-0.1506262348993151,0.06760552600485188,5.720958441275361,0.3029614010752376,-1.502386347707179,-0.11944298796743032,0.03215182263610715,0.18730866864953327,2,left
14.374,0.7743659726659549,-0.14170608669494694,0.06785426921662253,5.746613987884762,0.3240095772967173,-1.508239079728963,-0.12005399859528129,0.0319854533262765,0.18898489703053367,2,left
14.378,0.7465639962492536,-0.13019091218302398,0.06252430649715142,5.7334836816123875,0.3105034577742726,-1.504873736242524,-0.15479917106308105,0.03609559850643826,0.2841965018080718,2,left
14.379000000000001,0.7205757080301649,-0.12065823511179954,0.05802476788159508,5.722871637996793,0.2982993024158086,-1.5019793672785116,-0.06923790612867838,0.026303930868531014,0.04973051303469507,2,left
14.382,0.6840150330644821,-0.10417014372932504,0.0530665419982488,5.7672805275480865,0.3533247164314487,-1.5146265568817068,-0.21116044325250766,0.04242520492793285,0.438648086203303,2,left
14.382,0.6605195747422021,-0.09093023477901713,0.047630209943047175,5.686870055571314,0.2497347643205419,-1.4911911086738039,-0.02394814338388568,0.02119819786669917,-0.07438266585981965,2,left
14.388,0.6542437214153691,-0.08751007171314448,0.0464230293818091,5.7887743719066265,0.3838179628198413,-1.5212702394029702,0.7618509242347166,-0.06799517569292399,-2.2277231801541184,2,left
14.389000000000001,0.6266958769673429,-0.0726564170127989,0.04568661737173454,5.704287079880262,0.2714131490558724,-1.4961646378566142,0.9490573379378701,-0.08922615593707767,-2.7407434919515548,2,left
14.39,0.5961779446321975,-0.04720044173679844,0.04639066017827363,5.706658280060703,0.2743859092917052,-1.496844126386844,0.8071275786710902,-0.07312616343545247,-2.351800018597824,2,left
14.392000000000001,0.5777725985348348,-0.025748536864176354,0.052401341840561805,5.866506623815216,0.4897203088307214,-1.5447057613971853,0.8927394039495018,-0.08282559010037469,-2.5864020522259006,2,left
14.392999999999999,0.5557275178830656,-0.005344086731631374,0.056992739934414866,5.473941850362483,-0.039797809628032754,-1.4270719233302387,0.8578738651370845,-0.07891649731542918,-2.490881365782203,2,left
14.398,0.5317562934802698,0.02398904721027232,0.0533708374355386,6.124472535702168,0.8384527418628628,-1.6221110606552829,0.8574555385030793,-0.07877506607154566,-2.489688711881447,2,left
14.399000000000001,0.5168428695408955,0.04532544702465092,0.04835812225496018,5.266710143738127,-0.32018612790808776,-1.3648555986182636,0.8756129751173739,-0.08096936093412689,-2.539511002665008,2,left
14.4,0.512382953191199,0.05086276803821925,0.04664857112960448,1.66770114278994,-5.184930677344315,-0.2849489762366866,0.8538414775801015,-0.07836527782256492,-2.4797860475572184,2,left
14.402000000000001,0.4982151710344069,0.07020459654837383,0.037933558592803604,0.8102845107844692,-6.343898385098354,-0.027673732718939623,0.8708345554740468,-0.08035016238040696,-2.526380074319924,2,left
14.402999999999999,0.48189724250153826,0.09878180428886031,0.02423460376852131,1.4601700534547755,-5.465017401740857,-0.22275695200577705,0.8615531617728921,-0.07941660468540154,-2.5010002342546866,2,left
14.407,0.4776388225902735,0.12342728125086394,0.01829392199832544,1.068423077768866,-5.995373024866758,-0.10505092165977813,0.8639523035527013,-0.0793075095382948,-2.5074002556533994,2,left
14.409,0.4742342541308581,0.15273970239559287,0.018670691933161183,1.22753302676071,-5.779213225173,-0.15300717667769928,0.8658716129482968,-0.08018165298129293,-2.512960006350907,2,left
14.411,0.4755845459951801,0.17996607419592225,0.02136499630229749,1.2301706821469962,-5.776676577354485,-0.153593715977025,0.862289890712417,-0.07896975604387996,-2.5027766988718887,2,left
14.412,0.4825007506774272,0.20561526612086978,0.026796758351286042,1.1463600139547596,-5.8895287965568714,-0.12853281025853447,0.8657390372890215,-0.08000324346878485,-2.5125219380346424,2,left
14.417,0.4900795819459688,0.2348889696963269,0.032063333288939774,1.2462681339107773,-5.753660147714932,-0.15867806447771254,0.8630839674483619,-0.07970818850955548,-2.5052488271065814,2,left
14.417,0.4983920032823825,0.26306049689609234,0.03682622123086735,1.1691747587732442,-5.860508728320333,-0.13500865991375888,0.865180932038037,-0.07875294344241503,-2.5104507106993568,2,left
14.421,0.5067073269246145,0.29067563304003186,0.04245655589857679,1.2096389404664647,-5.801282919006221,-0.14807239302712755,0.8630337868839179,-0.08123562437314574,-2.5058110229371833,2,left
14.422,0.5161414725251344,0.3190710551948408,0.04848546406143357,1.2019989890531853,-5.817154019029703,-0.14465058604063447,0.8656035118734402,-0.07746017976732167,-2.510996896075312,2,left
14.427,0.5227071222422138,0.3429335369122172,0.05562664014731743,1.1892736676215125,-5.829941322359522,-0.14173161605322718,0.8629820366730696,-0.08149810730959853,-2.505791635901329,2,left
14.427999999999999,0.5299533990750327,0.36108519818041007,0.06094776542308383,1.2085645598496548,-5.803828983388161,-0.14752784222207127,0.864310491468417,-0.07914420898390562,-2.5082890642236633,2,left
14.431,0.5360717709710583,0.37806737964267634,0.06294718012586357,1.1933646124483146,-5.832546541123849,-0.14130026322830214,0.8663783346656322,-0.07721857784104982,-2.5129698460177377,2,left
14.432,0.5323812802553215,0.3919506808170924,0.06371668873642637,1.1988573926065293,-5.806448705741392,-0.14675676317587538,0.8588386403659364,-0.08581496554826043,-2.4966217833052315,2,left
14.437000000000001,0.527434924440725,0.3996968918170112,0.0629583295247966,1.2034587469013716,-5.828083839689587,-0.14245668756323052,0.8725486446103368,-0.0698429155617444,-2.5261933297112344,2,left
14.437999999999999,0.5214922351866499,0.400358049613973,0.0631073714070981,1.1929174678948824,-5.812639715376674,-0.14534896850599113,0.8550052767280458,-0.09035782676244232,-2.4883885899253784,2,left
14.442,0.5096267298202868,0.3964271131419003,0.06641666051075776,1.2018858794860585,-5.817674789474228,-0.1445417654761888,0.86962691919185,-0.07322946497136112,-2.5198835400800643,2,left
14.443,0.49466594547912196,0.3899729150988793,0.07053993187939571,1.2035558655224579,-5.830201402471316,-0.14202610907436514,0.869325415087769,-0.07370083964509425,-2.5192879403523976,2,left
14.446,0.4761471352223362,0.37876997214837294,0.0720501544528606,1.1834537800734888,-5.7926601617015585,-0.14919432241444058,0.8411349540741909,-0.1063329485171104,-2.4583874590631387,2,left
14.447000000000001,0.45714007914726024,0.36455567183110615,0.07299321949539303,1.2244630659176359,-5.857243421198309,-0.13702117986751572,0.9103133186246246,-0.026120766321049566,-2.6077739910776057,2,left
14.45,0.4366273101164172,0.34608831373817217,0.07582359237408329,1.1701496461339347,-5.776548765595646,-0.15215414328004864,0.7956399525673628,-0.1591144541644911,-2.360157317889003,2,left
14.450999999999999,0.42287515069666537,0.33304566468349706,0.07564758354980278,1.2162018937929808,-5.842965719558277,-0.13973471461049375,0.9468927818850702,0.016298137975989287,-2.6867630684650403,2,left
14.455,0.4195763911910384,0.33003851834031994,0.07601536380182278,1.2143398489384207,-5.841983176674842,-0.13988238878831225,1.5819024137465194,0.7526062484151672,-4.058021879655431,2,left
14.456,0.40971556629395733,0.31918812963495197,0.07985381429461932,1.1276699182607142,-5.713836302993818,-0.1639154955980056,1.733171073575777,0.9280032125358327,-4.384677803217119,2,left
14.457,0.3944251649976255,0.3062261895423861,0.08403590818526183,1.341798287910607,-6.027346980907129,-0.10518407864820237,1.6184788103745142,0.7950332882995192,-4.136998730152227,2,left
14.46,0.3787940715472678,0.30110296434920814,0.0944456500398446,0.9862339293392911,-5.508222284766798,-0.2023986673323096,1.6876569286103527,0.8752276203818781,-4.28639336329895,2,left
14.460999999999999,0.36803487672634283,0.298486573030996,0.10312702562260295,1.4554833402370484,-6.192617236597033,-0.07425752533269254,1.6595103596403753,0.8425894818128652,-4.225613682171033,2,left
14.467,0.3665127413428099,0.29806041593634797,0.10433372471744708,3.4251812756175903,-9.06501650986641,0.4636710827570868,1.6591057837012715,0.8421645226030819,-4.224718572932448,2,left
14.468,0.3604525007908488,0.2973872024718045,0.11150348218533827,3.89458099535405,-9.749253513650036,0.5917576754026461,1.673882121817329,0.8591995592582807,-4.256674658374736,2,left
14.468,0.35137840688256705,0.30136888134701756,0.12321868312345237,3.538690597620877,-9.23052065775235,0.4946511528234255,1.6561760757009742,0.8388110264422117,-4.218371126380281,2,left
14.47,0.34502207539586727,0.3096017748681952,0.13499991180937265,3.753335936741181,-9.543313715470589,0.5532312894644592,1.6699723058573364,0.8546664349671467,-4.248231427981188,2,left
14.47,0.33804440427751115,0.31709916870905897,0.14803335619497537,3.666012147469161,-9.416213427040072,0.5293605679519988,1.6625353590555387,0.8461046511883239,-4.232142232459587,2,left
14.477,0.3330687822646629,0.3305619270164957,0.15892358956399905,3.6647597787915,-9.41405688363287,0.5291027675492335,1.6642086678263905,0.8481650263398974,-4.235697633789901,2,left
14.478,0.32584308967441555,0.3488464308428578,0.16764643438982896,3.710576088742002,-9.481294195909374,0.5414885415033454,1.6662529972661213,0.8501470014012427,-4.240299597456309,2,left
14.479000000000001,0.3135925040824795,0.3679108249313099,0.17497378015473852,3.6557004644274667,-9.40086044864405,0.5266283472484785,1.6627146636139583,0.8467138920780277,-4.23233588000056,2,left
14.48,0.3013436746370064,0.38863636930893897,0.18347472320570857,3.6984325308622195,-9.463329774204777,0.538239528328567,1.666072552308405,0.8497855569357471,-4.239983273263622,2,left
14.485999999999999,0.28884553098212606,0.41104909854247285,0.19515842660744503,3.675402630343772,-9.430175893811217,0.5318607372227611,1.6638007860010198,0.8478065901321986,-4.234761737556879,2,left
14.487,0.27493870124895625,0.43338187259790173,0.20848083120866173,3.6806360190427334,-9.4365035090139,0.5335946352899457,1.664737074111463,0.8488981370586157,-4.236780557797833,2,left
14.49,0.26209665555086603,0.4545460260398285,0.22114206506348805,3.6867964258861656,-9.447714718555329,0.5347488095545784,1.6649734175469644,0.8479562809248107,-4.237877425355237,2,left
14.491,0.25046333537949894,0.4748548068041408,0.23225590704872967,3.6761615022915097,-9.429476999938117,0.532493132726975,1.663917433924701,0.8495103592933064,-4.2342571987966275,2,left
14.495,0.2401683528473634,0.49127135486501766,0.24391773128928815,3.6861285423207293,-9.446185401705007,0.5346976310869958,1.6653732564572175,0.8470535856044914,-4.239399470812833,2,left
14.495999999999999,0.23230779179004427,0.5076878852492674,0.25576771198689835,3.679482898198528,-9.436520494220918,0.5328800259431692,1.6639799920781693,0.8498561963319522,-4.2342608367896695,2,left
14.5,0.22502791493636476,0.5252520267218606,0.26784498370634213,3.6822942080169403,-9.436564914763533,0.5346019829762471,1.6647870195691672,0.8482398146198595,-4.237233390527335,2,left
14.501,0.2208931893033668,0.5383690113577908,0.28048448505402074,3.682501732822637,-9.446128417239738,0.5324760191291825,1.665129423546873,0.8464347663211367,-4.239035666350008,2,left
14.504000000000001,0.22265069011310834,0.5517273740217696,0.29181779833146915,3.680603921513969,-9.429546378377939,0.5352145528859069,1.6631728368692782,0.8537990406056527,-4.23016464208135,2,left
14.505,0.2271472180746859,0.5660220033131195,0.30035426331359105,3.682922517989437,-9.447654704269716,0.5323754101553113,1.666824811642114,0.8401709482997708,-4.246664318839834,2,left
14.509,0.23307499788957614,0.5776144750912281,0.306818109836719,3.6811161812917916,-9.436509999698977,0.5338893258511437,1.6621639693220525,0.8577012839366577,-4.225541796398803,2,left
14.511,0.23804225718356653,0.5895137237224898,0.3143145683626704,3.6818716160704126,-9.430278270456835,0.5358228271837027,1.6660428543794819,0.8430545794588074,-4.243146044502908,2,left
14.515,0.24353901469709166,0.6026605839117689,0.3181246032668056,3.6823499683698144,-9.4630774357402,0.5283882661149117,1.6658982671112008,0.8433989376585791,-4.242592163365801,2,left
14.515,0.2514165094904529,0.6140859216572587,0.31819313632246055,3.6807806482113934,-9.401252224754948,0.5419917479688603,1.6586661896231922,0.8715323834903925,-4.209359477436793,2,left
14.519,0.257007659610741,0.6261377412397334,0.3186504823612537,3.682947681794274,-9.48086491603756,0.5245635496625711,1.6764749637606402,0.8024347999652892,-4.291096643564983,2,left
14.52,0.262118424451,0.6425428483313581,0.31100733697540384,3.681078498527862,-9.41430597863516,0.539100171944098,1.6469459745163828,0.9169908602934604,-4.155582502484446,2,left
14.524000000000001,0.2649034081593008,0.6534398049716557,0.3017136491035044,3.6813626359991587,-9.41646342920075,0.5387634055798092,1.6858895901041713,0.765895745806649,-4.334301690639743,2,left
14.525,0.26474365703608094,0.6563398438558388,0.29969207384362684,3.6841562473458156,-9.54221814911908,0.5108513928622856,1.8492119323581016,0.13140113821345673,-5.084308094677461,2,left
14.526,0.26716552890140755,0.6705569785830303,0.29344315357897455,3.677019020396057,-9.232701214612485,0.57939643854401,1.8881491180504026,-0.01968575265742062,-5.262992525250857,2,left
14.529000000000002,0.26611833259337725,0.6988471594109338,0.2846473821052503,3.6889172031375392,-9.746014564607515,0.4657513007077439,1.8586339499271132,0.09486937725138539,-5.127530809638082,2,left
14.529000000000002,0.2627074977727234,0.7158050668916113,0.28238134164080714,3.6732268690279,-9.068931748174219,0.615663008201036,1.8764210561031032,0.025740190507452243,-5.209229785418238,2,left
14.534,0.26134914983674573,0.7200183215333662,0.28084840976583325,3.607657550739395,-6.227467365270009,1.2449230134140497,1.869216027635662,0.0539613264046315,-5.1759805775646575,2,left
14.535,0.2553652736375073,0.7361784477586975,0.27647469889151066,3.592019634187805,-5.550382371359129,1.3948840513303236,1.8690467281141392,0.05415587445217793,-5.175534543138068,2,left
14.536,0.2438461271904972,0.7617988666169295,0.2724222947114069,3.603850547710386,-6.063720491324988,1.2811658023462655,1.872934234464741,0.039692849668568564,-5.192926276663874,2,left
14.539000000000001,0.22955083261933434,0.7865331416726877,0.2669109300232875,3.596729143847908,-5.7541250617123945,1.3497604643017473,1.8682982984870504,0.05707914965486702,-5.172087681210865,2,left
14.54,0.21449433450370214,0.8158018816601457,0.26186836318363416,3.599633787206825,-5.88003563885055,1.321881355479327,1.8718773309331542,0.04344102000988459,-5.188330570085638,2,left
14.544,0.1988713851154669,0.8491692952210048,0.2595735641587599,3.599627525119806,-5.881967087425263,1.3213774986927416,1.8700426773784962,0.05109532112689232,-5.179525159008431,2,left
14.545,0.18241017875113993,0.8864537969211516,0.25377704443885074,3.598215948872925,-5.815644645683143,1.3362307909873485,1.8702388477417462,0.04864216546906539,-5.1816483630330925,2,left
14.548,0.16747899733974894,0.9288254855865128,0.24462259630787145,3.5998757947196216,-5.895131194904316,1.3183909497567137,1.8711578985748667,0.04798007742155587,-5.183765811152073,2,left
14.549000000000001,0.15356934485989962,0.9695160639159622,0.23239923984077637,3.5986209679784666,-5.833157326227902,1.332350894060617,1.8697757299342062,0.04978397303456532,-5.179997377631009,2,left
14.552999999999999,0.1403178266688605,1.0095910244571038,0.21490440530129307,3.599314434556215,-5.8665327909998295,1.3248576919649109,1.8710008161570109,0.04786589028378095,-5.1835682063977835,2,left
14.554,0.12769425940638968,1.0534547282018718,0.19337771450689942,3.5989977613727535,-5.8592496833031396,1.32627113835141,1.8704534545908968,0.05001747920211464,-5.181036512030609,2,left
14.559000000000001,0.11776458163962428,1.0962010299326026,0.16429141910682793,3.599253930752085,-5.849459594788588,1.3290835421622835,1.8699466681557464,0.046716487483233114,-5.182520734704431,2,left
14.56,0.11121158165976064,1.1396384796884935,0.1298184192589354,3.598812818956877,-5.866390610243199,1.3242235924748302,1.8716545829595757,0.05212391844547281,-5.181653667004797,2,left
14.565,0.1030131394558931,1.1831422521639432,0.09166021289368613,3.5994564260630333,-5.85002264647154,1.3292112634221405,1.8689749776703448,0.044569053113600196,-5.182342172303784,2,left
14.565999999999999,0.09658733909680903,1.223676349774665,0.04504286006428587,3.5989012246315824,-5.861255565329833,1.3256368720479699,1.8718561339835778,0.05252684932906651,-5.1817214257648905,2,left
14.567,0.09216480652504629,1.2656152131755494,-0.00744737307566253,3.598797706069981,-5.857078041046897,1.3265531777001096,1.8701523857818532,0.04808013298890501,-5.181901100348961,2,left
14.568,0.0879979159512749,1.3052505406613806,-0.06489234186139252,3.6002385443195966,-5.854035840559012,1.3292414286704601,1.8688765133920209,0.04349922211781298,-5.182940552676487,2,left
14.572000000000001,0.0870689314991295,1.3425078894307767,-0.12428263507308987,3.5969987462495068,-5.8632913182999005,1.322586530317177,1.8747763467325753,0.06232221919231891,-5.179841068889767,2,left
14.573,0.08860315683283843,1.3815399621741116,-0.17429129498460016,3.601844402469558,-5.850022331425652,1.3323962280539785,1.8637775300578703,0.027637289951381122,-5.18532554564365,2,left
14.578,0.10370788378333107,1.4214909583663125,-0.20759446760691963,3.596662502357557,-5.863453550350675,1.3220957663515596,1.8779141475492505,0.07212265755152752,-5.178345011824053,2,left
14.579,0.12833157713164756,1.46288967977812,-0.22207147652175185,3.599656145807838,-5.855689761850263,1.3280500866035556,1.8661056702048948,0.0350076134816477,-5.184143850327857,2,left
14.583,0.17040662548804814,1.510957873989029,-0.22408972990275064,3.602274094426364,-5.850560535566969,1.3328303654114921,1.8664483484892336,0.035927056059408824,-5.1840900469441165,2,left
14.584000000000001,0.22951419097032022,1.5635730254944704,-0.2192277623271932,3.590865834637105,-5.8750212362656224,1.3114506795488081,1.8888918113529556,0.10697022525494525,-5.172704781935454,2,left
14.587,0.28468737612621525,1.619511967583784,-0.20701525465051007,3.6120193635278217,-5.82956899025255,1.3511248248175072,1.8336988652956183,-0.06753851871081856,-5.200557445765238,2,left
14.588,0.37491533122428183,1.688546602584014,-0.19549050937022405,3.584855056767002,-5.887789356325998,1.3002074277205813,1.9252215590752904,0.22177071860759842,-5.154420125987013,2,left
14.593,0.4419371149464143,1.73510504212302,-0.18807102373488038,3.6075332486630693,-5.839260804379868,1.3427067996824786,1.8044999141704996,-0.15981659721575509,-5.215260696132363,2,left
14.594000000000001,0.46175535395670286,1.7455445014585198,-0.1871044605746528,3.6069262726042317,-5.840700545809954,1.3415099928560816,1.2978990426298513,-1.7618797189000697,-5.471134748344359,2,left
14.595,0.5465673052958618,1.7729232907786252,-0.18499795324706492,3.563659966327161,-5.932622135524445,1.2606523620791434,1.17718357862431,-2.143485782738913,-5.532000385752256,2,left
14.597000000000001,0.6599000110887983,1.7993333494304218,-0.17687329536986562,3.669994245867989,-5.706644657267135,1.4594381071264926,1.268686964448105,-1.8541254253518502,-5.485789413141706,2,left
14.597999999999999,0.7720653002309363,1.7888175538206927,-0.19840768587989052,3.493691515255685,-6.081252873277297,1.1298299152074125,1.2135361775859743,-2.028735676353688,-5.513796578445619,2,left
14.602,0.8564062595415158,1.7772277099977023,-0.2280522456548854,3.7262301883121003,-5.587247515123195,1.5645877595187447,1.2359096641970715,-1.957534620292621,-5.502161491563275,2,left
14.603,0.873489715768297,1.7710572570120242,-0.23861399671913971,4.702371779779558,-3.5134047838378573,3.389207743486174,1.2363413376696526,-1.9568044634272836,-5.502418214642976,2,left
14.603,0.9208973111775893,1.7397151938388922,-0.2813252337353829,4.934904290494092,-3.0195595549293817,3.823978508485141,1.2244545509024634,-1.9937685442485522,-5.507953557219551,2,left
14.607000000000001,0.9612019919449221,1.683598277030294,-0.3316603744435991,4.7586075133476164,-3.3939637808043006,3.4943631417446976,1.2386075785076935,-1.9492830714263463,-5.501008405494188,2,left
14.609000000000002,0.9298954381739379,1.611576376474516,-0.33631291736072677,4.864946856892454,-3.1680292948058324,3.693119468277676,1.2277160136550966,-1.9842473942259278,-5.506899154326188,2,left
14.610999999999999,0.869933995530374,1.5195222688963286,-0.29452151159172313,4.8216532225367565,-3.260301093678369,3.6123578961427887,1.2333383064835473,-1.9647808036197212,-5.502797962889329,2,left
14.612,0.7701719653894852,1.4128077733054407,-0.2009920928281717,4.8211015641471455,-3.2608373512411504,3.6109876021203586,1.2325032361525265,-1.9703275254456067,-5.505393143811126,2,left
14.618,0.6387224824521758,1.30203773139494,-0.06999091785725801,4.843703229667499,-3.213724279206767,3.653709142265746,1.230297278054783,-1.9737387949926393,-5.503840925246456,2,left
14.62,0.4865592611270326,1.191552622022083,0.08809430176987648,4.816611644616751,-3.2703851391425625,3.6026037113062204,1.2335214905093355,-1.9663840440451155,-5.504338069872896,2,left
14.623,0.30938129077805343,1.0927014080055804,0.2660719833958506,4.83774026285028,-3.2258843207184604,3.6422973363958127,1.2309767047336977,-1.974455781275988,-5.5056407973489225,2,left
14.624,0.12936526553639588,1.0176981577311355,0.43646848636046265,4.826254652889005,-3.2510423588023505,3.6212211880425675,1.2317457015758686,-1.966755963255954,-5.501313025754975,2,left
14.627,-0.04249264255067408,0.9658936883864013,0.581724289160963,4.829096130539754,-3.242562714428364,3.625268085638637,1.2331457600731848,-1.9743680596689925,-5.509610301527213,2,left
14.628,-0.1940859465362469,0.9372458555420716,0.6838626874947611,4.831719176168942,-3.241198538497755,3.6323473290781205,1.2299451133027788,-1.9665287379309326,-5.49779289166936,2,left
14.630999999999998,-0.3152154171460707,0.9315650647884859,0.7252482156993876,4.826976642833138,-3.2461104652647883,3.6208135859515247,1.2337640794965514,-1.9735983886882889,-5.510186051303139,2,left
14.632,-0.4105030817773335,0.9460125184258024,0.702846999985878,4.83149508760119,-3.240627149042915,3.631386558827577,1.2312843766339925,-1.9703772298113065,-5.503161187685725,2,left
14.636,-0.4779741695141516,0.9804453598301001,0.6209684552778241,4.828199271868854,-3.2476650661497706,3.625244690217297,1.2299959695616014,-1.9649153757899953,-5.496683291523869,2,left
14.636,-0.5194580661304535,1.0277730107394476,0.4849665499082208,4.830369123557066,-3.2354201580615154,3.625355396321893,1.2372014474907513,-1.9838643971312422,-5.524255979219589,2,left
14.642999999999999,-0.5384230596646883,1.0863122614946947,0.3001163116183325,4.8286959267600995,-3.256423747858995,3.6312436536324464,1.2234683068649868,-1.9498950636207786,-5.473303657207785,2,left
14.644,-0.5276706517119609,1.161187161977721,0.08389356586861878,4.830405133940211,-3.2267618427377354,3.6209887409501063,1.2412363824848134,-1.9930892745058766,-5.538666957776495,2,left
14.645999999999999,-0.5019753077650451,1.2455886195663632,-0.14091667086019033,4.828729622507702,-3.2580706501987082,3.632194457249917,1.2263451695930225,-1.957210686157354,-5.484118689048707,2,left
14.645999999999999,-0.45772219403161934,1.3375776077936985,-0.34707857637496836,4.829466317001934,-3.240472184226949,3.625287295561952,1.2268379671169067,-1.9578978215773672,-5.485570864868506,2,left
14.651,-0.39392795166465266,1.4283609059639129,-0.5084677601231913,4.831247704464911,-3.222866283217355,3.621475863044296,1.2549944087906506,-2.0270643387081515,-5.589652036527514,2,left
14.651,-0.3310344039065105,1.5116688768341222,-0.6150603764416758,4.8253278370003025,-3.295931096921415,3.6416635978180993,1.1856580969420827,-1.857476900899354,-5.333858857951473,2,left
14.655999999999999,-0.23704480690830357,1.592555787327425,-0.6400210918873347,4.835967775283699,-3.1611514855507865,3.603592449558783,1.3006720568835424,-2.1384983625927796,-5.757977012374717,2,left
14.657,-0.16444868737478416,1.633557297760343,-0.6152551215416073,4.822381181379059,-3.3340533891960122,3.6526194011875597,1.1489491730971118,-1.767896294160259,-5.198556941814715,2,left
14.661,-0.14633659205407046,1.6434417975571671,-0.6050208832080313,4.833694166317093,-3.1897718948418468,3.6116322307146733,0.5122507976479937,-0.21180377987496102,-2.8509414561855166,2,left
14.661,-0.0766293442207703,1.6553676724271997,-0.5423738531555272,4.833502901154251,-3.1934258985946196,3.6129609894880805,0.36052832500431375,0.15879933861183415,-2.2915441630323476,2,left
14.662,0.012938321719030744,1.645139586048228,-0.4257185349569598,4.811552963753515,-3.4693652996406987,3.690394767986401,0.47554042554069265,-0.12222688174667729,-2.715559037632628,2,left
14.665,0.06273088148768692,1.6118394410514139,-0.3130114790868799,4.865367804338291,-2.7914363794697197,3.499813961022661,0.406208954973428,0.04737295522815073,-2.460035017654126,2,left
14.667,0.10562493650896557,1.5372469520407963,-0.1494149944824839,4.776178293398557,-3.9153966569870833,3.8158724390051244,0.43435654263029316,-0.02181624626782143,-2.5636237152042147,2,left
14.67,0.12381895220322417,1.4707594532196442,-0.03329471744780451,4.8938044130853315,-2.432905399263398,3.398985321150986,0.43486148992547036,-0.02247224552287179,-2.56575189824372,2,left
14.671,0.12368901010461113,1.451216646449344,-0.007176201378430909,5.387314056283579,3.790195617531808,1.6493119881204452,0.4199583815496888,0.013375848357341985,-2.510541496854927,2,left
14.671,0.12491824579375212,1.3772118631154084,0.0918651751854989,5.504856645071007,5.272718086748267,1.2324271472255652,0.4377314015815653,-0.029805669136876965,-2.576180516835615,2,left
14.675,0.11153384893530295,1.2719738281359363,0.21549226871117205,5.415865439465632,4.148724984876731,1.5485115584401123,0.4240089424237141,0.004191004962533433,-2.5258216058607266,2,left
14.675999999999998,0.08459784718467907,1.1934156813418502,0.2948297489204541,5.469332359651048,4.826637716486854,1.3578292323109704,0.43118064600479067,-0.014844535709485504,-2.5515160415087195,2,left
14.679,0.05529633407659598,1.1132714855459922,0.37739699784106306,5.44787077633565,4.55081722618606,1.4354785431643409,0.42995023511816743,-0.009234073161954109,-2.548264527785099,2,left
14.683,0.02643696964058713,1.0420112264410692,0.44182155554171654,5.447155270201172,4.546911978313426,1.4364820842590782,0.42739944290623455,-0.006195115578464108,-2.5372837140277076,2,left
14.684000000000001,-0.0021018082226056875,0.9773439048054539,0.4950542527690529,5.45879838981018,4.691550017165323,1.3958503067560666,0.4312750229658392,-0.013119601277462024,-2.5528290637003597,2,left
14.687000000000001,-0.021952400209976138,0.9135199525684008,0.5432975737954782,5.44540954279594,4.518297676766883,1.4446618826651205,0.42807500727128023,-0.005278809432159108,-2.5410427265607254,2,left
14.689,-0.029793173558275023,0.8497559515456805,0.5688508872330467,5.454986531349352,4.653219940239072,1.4064264490824079,0.42936969858671037,-0.013160740909244604,-2.543482609908863,2,left
14.692,-0.019724289698911122,0.7811533159558177,0.5728885266792598,5.451149442108279,4.580475762276265,1.4273917909696192,0.4303792944285333,-0.004844504486943171,-2.5525371658811498,2,left
14.693,0.017792593644370584,0.7103687815531112,0.5445271994460905,5.450097189128408,4.597082721343232,1.4220951429050643,0.42747570674024826,-0.013835712638961276,-2.5338771054510767,2,left
14.698,0.07440555766034754,0.6403723427186041,0.48304301917660836,5.453515757247216,4.616383148536625,1.4171680834326392,0.43108226643569103,-0.005500890154035422,-2.5556542929115187,2,left
14.7,0.15313712356805106,0.5847856944007764,0.392127454540115,5.4508868222317695,4.583006067298289,1.4265588283955755,0.4286556293315301,-0.00947827580301232,-2.5418074676456794,2,left
14.702,0.23454355334582405,0.5569446255970055,0.27781952455027775,5.4498615864317745,4.614286318177925,1.4168314695493676,0.4276295665374015,-0.015513546109795946,-2.533801077325264,2,left
14.703,0.2970844681657576,0.5440748888683045,0.14171505470379778,5.4562126518408505,4.59336758727633,1.4248420475310009,0.4340861378970373,0.0060900436302287276,-2.5760907249852223,2,left
14.707,0.3448914886226012,0.5339780358883122,-0.025228597610852613,5.444984555949514,4.602447612948106,1.4191136209936512,0.4216480500409883,-0.03283692575919594,-2.4959516447369356,2,left
14.709000000000001,0.34071861553473937,0.5615510237153776,-0.20248726016593394,5.457725448391958,4.602514893560167,1.4224795281926237,0.4377862481834143,0.016736377865769807,-2.5994708588565496,2,left
14.712,0.29673073893464796,0.6051930150726742,-0.3693310405507625,5.44997157539645,4.597500372501537,1.4219340807482972,0.4242430690145206,-0.024474742110666282,-2.512787979369653,2,left
14.713,0.18172509617683746,0.6948881286889406,-0.504268121473818,5.4441109160857994,4.603655131584525,1.418516587697984,0.4247174465969334,-0.02363078539993153,-2.5155340449497867,2,left
14.717,-0.009816241058405381,0.8436832238302656,-0.5962752172473723,5.471498085382381,4.598836073958578,1.4272518618462742,0.4502544064649072,0.055671125582806985,-2.679756536539137,2,left
14.718,-0.22364756054541254,1.0075433565761833,-0.661547124118258,5.420203487329491,4.601324882545828,1.4128661306799182,0.3873325627104859,-0.13884742113011106,-2.2755408577196423,2,left
14.722000000000001,-0.5729446327642325,1.3225758975873716,-0.6667988430585408,5.486288750128246,4.600990658441379,1.4305327862146204,0.49171727580594987,0.18351928920025945,-2.9459646949304736,2,left
14.722999999999999,-0.8389185281500342,1.5697898052889019,-0.6441258108335293,5.431029829009804,4.600046185648082,1.4161288457318744,0.35401510432648264,-0.24161844297412088,-2.061603355518589,2,left
14.727,-0.9079077587311163,1.6417643492731748,-0.6302453325419755,5.432587820266211,4.601131108123557,1.4162183995616133,-0.2239164086547355,-2.026388912182001,1.6502046148811038,2,left
14.728,-1.1751579137569883,1.933421748000752,-0.5665916318043204,5.5378517608588975,4.600969143011014,1.4442416391354769,-0.36161661305088943,-2.451493489422938,2.534571483598243,2,left
14.728,-1.51380619131464,2.316259533629084,-0.49295880678618337,5.279019131980465,4.599467731983234,1.3759029424999536,-0.257224113449378,-2.129205141454403,1.8640989589793124,2,left
14.731,-1.6778330038136198,2.608544030163509,-0.4333765446332638,5.708214209413258,4.602865678968069,1.4889524740130975,-0.3201818850110487,-2.323586827419524,2.268463625007491,2,left
14.732000000000001,-1.7577406922563008,2.8032428238716944,-0.3848132925472273,5.142106237527788,4.5979386365568296,1.3399695745942755,-0.2945654655347084,-2.2444762053271847,2.1039491350267525,2,left
14.739,-1.761373752661969,2.8348472345567832,-0.3685974550271114,2.76548105830663,4.577118285748086,0.714612556528577,-0.2942136879986731,-2.243427951500332,2.1016230117222747,2,left
14.741,-1.7330723558160686,2.904062217812994,-0.35235540427767986,2.1994088750367418,4.571945017676316,0.5657048771595345,-0.3076198066003426,-2.2847660359498754,2.187870569130539,2,left
14.741,-1.626866196800654,2.9592300455013523,-0.40752445094038203,2.62858763360229,4.575891983295646,0.6785935585841703,-0.2915697243356894,-2.2352735997558746,2.0845765101672047,2,left
14.742,-1.3852697565518852,2.900626281155346,-0.5597943437784731,2.369660929076442,4.573490848449771,0.6105053837531523,-0.3040596075121783,-2.2737807270899704,2.165005307328882,2,left
14.742,-1.0745243645711597,2.8270875933239066,-0.6961075135616364,2.475216896486236,4.574508965681807,0.6382182902990756,-0.29732041626253547,-2.2529947210229615,2.1216308871024374,2,left
14.745999999999999,-0.7291729621002998,2.7056408748150735,-0.7416393347919465,2.4762558389597205,4.574433484335151,0.6385879030394579,-0.2989008287965701,-2.257922317680043,2.131598020580179,2,left
14.747,-0.3926314123051285,2.5561500121707574,-0.6442412139307334,2.4216536373334243,4.5740490324071885,0.624092771777306,-0.30057444477019135,-2.2629419780391062,2.142937083364761,2,left
14.751,-0.09323799719023838,2.402823901763731,-0.4215689168102949,2.4871942237036966,4.574535778159136,0.6414625889756175,-0.2976773163680062,-2.254247996280899,2.1233127978970514,2,left
14.752,0.16068624483799598,2.2314940672037533,-0.14770718414571482,2.435931726687917,4.574110414530422,0.6279247436980477,-0.3003361654564123,-2.2621511510067034,2.141638226718436,2,left
14.755999999999998,0.36016096847464035,2.0582428869717075,0.13692085146573413,2.464254164519585,4.574484836945302,0.635256383744085,-0.2985855716433818,-2.2569892838561842,2.1293991888104165,2,left
14.758,0.5127783879930984,1.8738244584628863,0.4055932266733785,2.456185162994683,4.574058228931856,0.6335068863711653,-0.29944036817521746,-2.259631315015298,2.134880231909243,2,left
14.761,0.628684870556343,1.6814389729442223,0.64541555709529,2.4517795949583325,4.5746213298917295,0.6317076741440655,-0.2990672972048339,-2.2580274813973795,2.1343324176570118,2,left
14.761,0.7276861657870796,1.4869811926499286,0.8373300333494572,2.460896537442457,4.573965342800911,0.634890912468965,-0.29945079154138277,-2.2602430850627826,2.132571533002729,2,left
14.765,0.8201173176916546,1.29811785989404,0.9484356460103585,2.4518322927775884,4.574471400571399,0.6318810879316623,-0.29876961165927496,-2.2566018598254303,2.1344980255023858,2,left
14.765999999999998,0.8965887647162769,1.1283831306049787,0.9791727144517254,2.459873230364368,4.57455180867086,0.6339898573295464,-0.2996404184442883,-2.2609294328258014,2.1333733774542147,2,left
14.770999999999999,0.9463136065290532,0.9811115083556219,0.9554500035733999,2.4509983013753542,4.5733727524301235,0.6328182892922926,-0.2991388028539844,-2.2584345525679397,2.134032956413713,2,left
14.770999999999999,0.9591412658465043,0.8559772074354568,0.8884212059324827,2.463281849122392,4.575992482514937,0.6333926704616053,-0.298385670549725,-2.255291185143175,2.1325421046475626,2,left
14.775,0.9249082250771549,0.7525039258584985,0.7928068633303429,2.4468718876011453,4.57210218873759,0.6330391756434194,-0.3012665566631223,-2.2677609135848398,2.136401191534028,2,left
14.776,0.8479558352799683,0.6754550677921917,0.6913897640607477,2.4640098119406395,4.576246045911381,0.6333227091245845,-0.2959445602305323,-2.244701570881917,2.1293766477993423,2,left
14.780999999999999,0.7393360372495121,0.6330688685834842,0.5886760788292161,2.454668510677382,4.573856879790844,0.6333061502774227,-0.30280488089317625,-2.274390969011307,2.138567809048064,2,left
14.780999999999999,0.6081913825922503,0.62816357255073,0.49102365132931136,2.443832898592893,4.571771635544903,0.632560772545069,-0.2970654068825691,-2.2495703267228224,2.1308161039308504,2,left
14.784,0.47053033091165875,0.6517534937448961,0.3823892171855252,2.4867026191207047,4.580855707305154,0.6346275118662439,-0.2971870568899452,-2.2501311521939127,2.1308106918901175,2,left
14.787,0.34568389010135225,0.6931406845533522,0.2531419453095946,2.4080179891267504,4.5640165980855,0.6310090650170197,-0.3082748949556316,-2.297919762909971,2.1465124143239334,2,left
14.79,0.24642278888420763,0.7348968949227324,0.12084095786121016,2.508874806349164,4.585637435490863,0.6356091563320889,-0.28104782697001085,-2.1805539359224158,2.1080807316517376,2,left
14.790999999999999,0.1733605423802535,0.7591298977338725,-0.02204624424894431,2.4247391524246154,4.567587481137956,0.6317848244573665,-0.32619403302493755,-2.3751488460273844,2.171820005223445,2,left
14.794,0.14331777528606626,0.7625110978038369,-0.11365935744052019,2.4267529758591793,4.568074531025685,0.6318212290713623,-0.26663826061814183,-2.1184646825537405,2.087694021329795,2,left
14.794,0.14220890271872402,0.7572356925903799,-0.1339995703757537,2.588068115321352,4.602498120463933,0.6393410987682351,-0.01656505133704425,-1.040639991666456,1.7340280900104457,2,left
14.795,0.13876518660224754,0.7391317427865394,-0.19581862487460605,2.191865357117556,4.517889915550807,0.6209300793353594,0.04300276229176141,-0.7839364860378403,1.649822071752202,2,left
14.799000000000001,0.1718777014219121,0.6770066677804161,-0.29139666826718935,2.848737209284786,4.658175189890539,0.6514464610948669,-0.0021627235327321076,-0.9785716196045815,1.7136880912339074,2,left
14.8,0.21135865282514063,0.6229696005009007,-0.33266751485046564,1.9822962618603255,4.473137839417229,0.6111842062291181,0.02508153411668006,-0.8611454031490097,1.6751471160514444,2,left
14.805,0.22121638743367356,0.607562441092762,-0.3456580223066967,-1.6545654335173272,3.696463297555301,0.4422255630460733,0.013991257540467806,-0.9090055041015925,1.6908548169381623,2,left
14.805,0.2828894161747695,0.5527676302522067,-0.3981557218136626,-2.5211054175386627,3.511422295829324,0.4019319273274624,0.013844354904442245,-0.9095066450434635,1.6910324276491775,2,left
14.806,0.3943977515471141,0.48649416773451437,-0.4800279801563152,-1.8641264038548204,3.651711515208106,0.43248225051242406,0.01964445502798423,-0.8846962096221042,1.6828614711795133,2,left
14.812000000000001,0.5190269305848707,0.46571313636190165,-0.5630356950748696,-2.2602884459702524,3.567104831808588,0.4140841816580859,0.01269326017314285,-0.9144695914487988,1.6926660301170673,2,left
14.812999999999999,0.671051973847919,0.4753666668223097,-0.6710918892050697,-2.09932866071613,3.6015152780857065,0.4214913519077933,0.01811111370535025,-0.8911991728720872,1.6850129969889198,2,left
14.814,0.8275262822482397,0.5305000255125549,-0.8011263716387361,-2.096550197499642,3.6020305808939126,0.42177019175680286,0.01517772896584133,-0.9039996720530679,1.6891837188716532,2,left
14.814,0.9778670710355297,0.6273786832514074,-0.9208279348732238,-2.1817822300196488,3.583940138608778,0.4175982984638422,0.015875424324408163,-0.9004838684992338,1.688131201955223,2,left
14.82,1.1291318416617622,0.7387164035679079,-1.0114930788903642,-2.079833598182338,3.6056012672715143,0.42254443655822715,0.016600017446266897,-0.8982373164091562,1.6872169009324325,2,left
14.821,1.2806021814810928,0.8507971266783161,-1.0570112022735851,-2.1589894194468124,3.5887448219362343,0.41877677323644974,0.015320241079076459,-0.9026777920907634,1.688892909308145,2,left
14.824000000000002,1.428970868199586,0.9494237873726339,-1.0531191510825544,-2.1170570375252096,3.5977941825865143,0.4205461362141258,0.016529564088718675,-0.8983227992238255,1.6872886170079606,2,left
14.825,1.5557686043113683,1.0220442707833295,-1.0079761263476938,-2.1248728543106656,3.5958205588852654,0.4207583074825302,0.015685661635638417,-0.9019676109649046,1.6884835243717693,2,left
14.83,1.642407884496139,1.062820315494788,-0.9286251590583752,-2.1394175974387326,3.5932391756084376,0.4190920690331629,0.016145447357003705,-0.8983956536891438,1.68763620163711,2,left
14.832,1.6766052763398205,1.073899825644372,-0.8236887888327095,-2.115893524705731,3.597618815277369,0.42139994200685504,0.0159364715910056,-0.9029305318861134,1.6883810727279789,2,left
14.834000000000001,1.6495591569329573,1.0566431028547014,-0.712927871070272,-2.137395160665326,3.593540717119622,0.41943289133984785,0.016046622166099665,-0.897034343582385,1.6875556449695857,2,left
14.835,1.5640646375400644,1.0206547270941084,-0.6101984541312275,-2.1251562322237216,3.5961583771676056,0.41999209799089376,0.015966696634980147,-0.9031579887513226,1.688382010996154,2,left
14.839,1.4453217014934836,0.9767154928434132,-0.519978104279118,-2.12458409187452,3.5953287428110805,0.42181668746123585,0.01595371974843824,-0.8998750715090538,1.6879888242217547,2,left
14.839,1.3168810112882692,0.9339655332794917,-0.4439500625541972,-2.138134220975056,3.594611330167809,0.41707968265058265,0.01623577017276552,-0.8957801705727386,1.6872334052100475,2,left
14.844000000000001,1.198194183957868,0.9034215067358111,-0.3745676998075363,-2.114987001087793,3.5963070156847,0.42428148585057324,0.015481175043310098,-0.9116311633048474,1.6898571216798524,2,left
14.845,1.0991523722376828,0.8884834454115209,-0.31317684665454465,-2.140209598289263,3.594383601807464,0.4165802993471132,0.01679420430570508,-0.8826086105548999,1.6851151545837464,2,left
14.849,1.0001632602904298,0.8959863773379685,-0.2656054982726519,-2.124771709938718,3.595677700250497,0.42106761859989705,0.015127280151012664,-0.9197918079006697,1.6911755745056,2,left
14.85,0.9027241105944506,0.9235413370716317,-0.22482708607594212,-2.115741396081342,3.5958854723544307,0.4247451692413914,0.016511625861802878,-0.8887822567651585,1.6861285198421707,2,left
14.854000000000001,0.7959395530788822,0.9663790640221145,-0.18195743916809226,-2.1622668794139477,3.5934923086492168,0.4083420737876677,0.016502999457729803,-0.8894939650412761,1.6862193256326328,2,left
14.854000000000001,0.6789699302428758,1.0166228497412084,-0.14073424494859835,-2.0747176650090746,3.5981961271735963,0.43881360780681167,0.013767475676396664,-0.9490439668658874,1.6959905829576085,2,left
14.857999999999999,0.5680294088390228,1.0636336221875253,-0.10735096767011962,-2.1874235649675766,3.592099454089317,0.3996801564920033,0.020458257784476602,-0.8028254048842729,1.6720305644150497,2,left
14.859000000000002,0.4270000597284984,1.1193819233003017,-0.07631092598263325,-2.093208711127249,3.597208394824344,0.43234651084764336,0.009371665541425949,-1.0452270851120988,1.7117397302130963,2,left
14.864,0.3230234093322688,1.1582260564100109,-0.0561022840724117,-2.096216223388812,3.5969883845044333,0.4314636066824503,0.023996271433563615,-0.725499350021549,1.659369234292041,2,left
14.865,0.29201876690848805,1.167614422593784,-0.049263990114571,-2.2743803795911157,3.5875259610313153,0.3691911846093795,0.08540142097827971,0.6166919580640233,1.4394300129467412,2,left
14.866,0.19812764986986398,1.1951593874723432,-0.028030652512412636,-1.8359197720034053,3.6108687162501676,0.522228096343477,0.1000334395664213,0.9364434383792678,1.3870619370582786,2,left
14.869000000000002,0.04416782268002801,1.2301579735389092,0.009899109725231382,-2.5630708349084896,3.5721574166899988,0.26851628158609964,0.0889388285969455,0.6940160718788259,1.4267684763738795,2,left
14.87,-0.038555221316356636,1.2417411875401254,0.03185014431739743,-1.6039178160135792,3.623196458252967,0.6031201090264617,0.09562655573298812,0.8402248468902468,1.4028074909259298,2,left
14.874,-0.06537277239826075,1.2448736923434534,0.03689973199410691,2.421309814779244,3.837423765816719,2.007810098915898,0.09291764488417478,0.7807600966607553,1.4125873738236285,2,left
14.875,-0.14405475281430646,1.2483382925764737,0.05443304320593616,3.380498448344655,3.8883914340590127,2.3423054652690807,0.09285176389205002,0.7798649808943039,1.4126595807800872,2,left
14.875,-0.24997669549243307,1.2409457368191554,0.07178068654237983,2.6532646480703996,3.849785921109969,2.088761931658142,0.0943181958632234,0.811137483477145,1.4076392249569565,2,left
14.878,-0.32625173101150107,1.2187004935989396,0.07063742216495686,3.091867174110231,3.873056866962067,2.241663067508801,0.09256953742170901,0.7736924634503454,1.4136730185734296,2,left
14.879000000000001,-0.39770532247065915,1.1891077533284116,0.06681226917991857,2.913508043939986,3.863546883070733,2.1793733169969345,0.09391782144808732,0.8028279468250608,1.4089426142087529,2,left
14.883,-0.45937973719274394,1.1470401444638494,0.061903501516071754,2.910704395778688,3.863568557456255,2.178776169161057,0.09323344031760875,0.7872018788127657,1.4115890245334717,2,left
14.883,-0.5051202284171135,1.095095813061759,0.05300650631231857,3.0047996050229226,3.8682194005098496,2.2108338708315936,0.09328936002822685,0.7905723981157938,1.4107602091609186,2,left
14.888,-0.5378637010366005,1.0428229032671945,0.042885106198078594,2.891997171921052,3.862718267138644,2.172555013892819,0.09366598851484255,0.7951033624346917,1.4104936537583759,2,left
14.889000000000001,-0.552920927254438,0.987635954204873,0.03191102762224686,2.979988560129293,3.866906301761149,2.2021963188144205,0.09310794852962863,0.7874481491973877,1.4111644347554013,2,left
14.894,-0.5522711202970961,0.9366233995060131,0.02127682024243544,2.932623030246798,3.864598151207254,2.186122800456448,0.09359923163541181,0.7945652300623336,1.4104633105238455,2,left
14.895,-0.5280619416130937,0.896939442554469,0.00903222282364555,2.942771679939196,3.865558044369398,2.190568048854635,0.09339375227332143,0.7900415714325106,1.4112086827738062,2,left
14.899000000000001,-0.4883360644312451,0.8681369801247759,0.002333752296892161,2.957183821566492,3.864973851373851,2.1926942252469495,0.09314602760673578,0.7913470961480022,1.4101320765470542,2,left
14.9,-0.4371620885974236,0.8547697954023693,0.006567969032215114,2.932263284967058,3.865973853042636,2.1889931777252105,0.09391884034525984,0.7928812204643989,1.4118520741954403,2,left
14.902999999999999,-0.37271271874697526,0.8578231414513969,0.014337708067900638,2.9565985942388266,3.8644154843392915,2.191359470664726,0.09271643249326361,0.7895105764325614,1.4094635480802853,2,left
14.904000000000002,-0.3053178005986804,0.8725141233803637,0.01855224121356911,2.9397704377141354,3.8657941912108114,2.190368561965415,0.0940074400004738,0.7933052072381674,1.4119766550460136,2,left
14.908,-0.2365310326081121,0.8981716869562733,0.013370816800939378,2.945680719328668,3.8661289510310994,2.1924755218380487,0.09324695841649563,0.7907946111576015,1.4105768214763679,2,left
14.908,-0.16631585037481197,0.9290645260979904,-0.0023139638951279384,2.951687710547971,3.8622293631488875,2.1855135922538445,0.09266344173280328,0.7902061204361301,1.409111602964487,2,left
14.912,-0.0964796048995901,0.9605702488137571,-0.022131349490551844,2.9346964673733007,3.8709670918941734,2.20028209388493,0.0953350700471095,0.7953605993927823,1.4151007649158844,2,left
14.913,-0.02685001277719105,0.995556631264561,-0.04491476899482599,2.9592821268921563,3.85789168140033,2.177986235870012,0.09035926962565358,0.7853363736457855,1.4040703591770376,2,left
14.918,0.03918515162870372,1.0249023427514246,-0.07295829859195477,2.9340836690494383,3.8718838120789165,2.2021044738951505,0.09675315530090302,0.7983119557873635,1.4182165737862542,2,left
14.918,0.10138754504227288,1.0470653080074401,-0.10135887813880835,2.9486493254268913,3.86379988475554,2.188174310695697,0.09141338207413349,0.7874377443821536,1.4064138894566676,2,left
14.922,0.16100807083182542,1.0588939719074024,-0.12661632361485384,2.958986117590449,3.8567120872725624,2.175381953435318,0.09156510936170312,0.7878925624869969,1.4067059504980182,2,left
14.923,0.21317203153273523,1.056686263670156,-0.15252613312885122,2.910886735196238,3.8875768736444587,2.2303481286598785,0.10172317531258762,0.8080994474263954,1.4293004901691937,2,left
14.927,0.2567187928863103,1.0498363132299597,-0.17930661414741994,3.0002182113734857,3.8303458888386377,2.128467347949272,0.0767475866675513,0.7582457073839792,1.373798768476854,2,left
14.927999999999999,0.2905554117547057,1.0250001965531084,-0.19810043720593903,2.8857107633840196,3.903842737945482,2.2593475413448507,0.11816020295805689,0.8409523196650233,1.4658140345611992,2,left
14.933,0.30680975520651854,1.0032344781134928,-0.20414104277959666,2.9812030023614957,3.8424799356962973,2.150059257872518,0.06353723578544129,0.7318607904336835,1.3444477932852412,2,left
14.934000000000001,0.3093478371101984,0.9958216113586822,-0.20526060405324947,2.978430500507672,3.844127154892933,2.1529200392952648,-0.16573751685623164,0.2741328662371288,0.8349533237128183,2,left
14.935,0.3127132239780199,0.963196625909706,-0.21011578972709022,2.797233275694454,3.961189780300536,2.3616978768508146,-0.22035973950678026,0.16506041120195447,0.7135828512614462,2,left
14.936,0.30875400897245986,0.9217734502304294,-0.21480107181011687,3.2426804738188757,3.6734759107953097,1.8486391613917366,-0.1789472222554453,0.24775219964667347,0.8056055625198302,2,left
14.937000000000001,0.28047882597159546,0.883125754436232,-0.2092430388897541,2.5041875642819207,4.150517992783012,2.6993000804100937,-0.20392561965501957,0.19787002020204186,0.7500954258089105,2,left
14.943,0.25726959377370273,0.8547524311724972,-0.20097459074363855,3.4781514622693637,3.52130009446861,1.5772776362470462,-0.1937597227894416,0.21818780938142512,0.7726957181398655,2,left
14.944,0.25018363505757835,0.8494266569794744,-0.19859648813497255,7.5670703734283915,0.8801013184460087,-3.133067676997131,-0.19362139823400934,0.21843236177204,0.7729893893179023,2,left
14.945,0.21937824571046347,0.8310606812322077,-0.19346792881378916,8.540990616340043,0.25087753111589095,-4.255138648592977,-0.1989447139415101,0.20783692441981405,0.7611731976739119,2,left
14.946,0.1727188173152877,0.8136439080234974,-0.18814048799682218,7.802426787189111,0.727932006237354,-3.404351483343169,-0.19256376992960422,0.22056326554497882,0.7753468509531329,2,left
14.947000000000001,0.1292107795685959,0.8158088704168398,-0.18728607849011603,8.248310445296369,0.44019923135878125,-3.9176514286538224,-0.19754038644284877,0.2105939197561597,0.7642786304116884,2,left
14.952,0.07963394230815057,0.8225427443111233,-0.18687767152362383,8.066093776121114,0.5572846928671426,-3.7085092642590456,-0.19484289744927982,0.21608377267360296,0.7703040841772664,2,left
14.954,0.030010684991488484,0.8442242461464584,-0.1895914358761612,8.06493835754544,0.5589121527821571,-3.706072636083498,-0.195484347147877,0.21462371461156526,0.7688249308694788,2,left
14.956,-0.018799363303467865,0.8725652758659914,-0.1962251400718445,8.158573477122111,0.4975541627159161,-3.8150407850144825,-0.19615941164503584,0.2134963447208192,0.7673906484805948,2,left
14.957,-0.06646632239875536,0.9008081886995821,-0.20372993860594024,8.045338951460938,0.5710755974285289,-3.684119617448717,-0.1949579343655926,0.21571928748556102,0.7700081202926764,2,left
14.960999999999999,-0.11011978405196028,0.9323348761669625,-0.20789799637628872,8.135191478327307,0.5137794502764992,-3.786686147982012,-0.19611182168538277,0.21341359057531117,0.7674436220805821,2,left
14.960999999999999,-0.15398885783634608,0.9595984460721071,-0.20783859990826525,8.08353285951386,0.5447488325661511,-3.7302157513216128,-0.19528594978638023,0.2153902384510688,0.7693756397894775,2,left
14.966,-0.1927202745819054,0.9842034663449881,-0.20488974730038872,8.101092071504537,0.5375403616539085,-3.745205298165235,-0.19574446395475936,0.21372594005028228,0.7681355287759936,2,left
14.967,-0.2252053721282189,1.001824882247172,-0.19712605294879737,8.105622138685291,0.5295415936671157,-3.756853065904072,-0.19556363449626613,0.2152042015135598,0.7688673164394748,2,left
14.970999999999998,-0.25227344927147677,1.0119214143579285,-0.188267702628676,8.090181067322563,0.5435595805392802,-3.733939245217666,-0.1955722844530498,0.21399585085828682,0.7684964372798129,2,left
14.972000000000001,-0.26995011800195,1.0198258465452448,-0.17818947777669888,8.110811527888501,0.5302688032094245,-3.7576602785623576,-0.19569073430317813,0.21444762430114617,0.7684363030309072,2,left
14.975999999999999,-0.2831571134891016,1.0208273231035272,-0.16476406636461924,8.084979666295647,0.5394529446384098,-3.7374127785684985,-0.19540902832074608,0.21560331070009334,0.7692376539069257,2,left
14.977,-0.29071170533681895,1.0174666791112879,-0.15426157250402295,8.118532262530774,0.5349244906392221,-3.7543293764264547,-0.19593383899835315,0.2119589548585813,0.7673046583506633,2,left
14.981,-0.29084059805038087,1.012370389601378,-0.14468656585056766,8.077451331790586,0.5358833029708708,-3.739431180343738,-0.19512783648656304,0.21838364734042792,0.7705174407699911,2,left
14.981,-0.2905452559488493,1.0052949013270296,-0.13222845152045826,8.117960952774379,0.5369824152724878,-3.7515296942418654,-0.1961025396277037,0.21025414219513108,0.7665262263124571,2,left
14.987,-0.2902254141409835,0.9989651735279278,-0.11693287168819463,8.096756095240313,0.534924934048445,-3.7470761934245673,-0.1953142016346423,0.21699058551401962,0.7698014696274623,2,left
14.988,-0.28580893519021267,0.9906709165141654,-0.09563222466009091,8.071632083803491,0.537573699792406,-3.735349640498398,-0.19529646629463543,0.21688578303389244,0.7698005167918704,2,left
14.991,-0.2790333333581875,0.9827378393998697,-0.07353451193325997,8.16895877725976,0.5341402550569548,-3.7721185650009135,-0.1969036662503209,0.2038341952000731,0.763322174765696,2,left
14.991,-0.2704031714524229,0.9765738818121533,-0.055920978851493816,7.99144870545307,0.5385798939588522,-3.707368877640609,-0.19300973583650485,0.23580191626966374,0.7791179979999009,2,left
14.995999999999999,-0.2487048704465968,0.9688559059877736,-0.042865159602620544,8.218305672806345,0.5335740328776408,-3.7892707163893293,-0.1994449833895463,0.18283908981818736,0.7529762666951013,2,left
14.998,-0.23058367657149692,0.9646698073367054,-0.037911495265135514,8.029367256257348,0.5374594441647473,-3.721419782769024,-0.1909642461316784,0.25268338359475595,0.7874387260080802,2,left
15.001,-0.22549461866820944,0.9643757493408183,-0.03796805381080508,8.033784050717301,0.5378070940423065,-3.7224466280112463,-0.15533605242125254,0.5459149122729092,0.9321624471449885,2,left
15.002,-0.20372683972078037,0.9618875247612994,-0.035276287812352224,8.395906744915582,0.5291940775343476,-3.853977381315469,-0.14685514584700798,0.6157637523833559,0.9666183071612344,2,left
15.002,-0.17194724665840638,0.959542265932175,-0.03206871112648352,7.506859637682693,0.5497086381431973,-3.5318637080481157,-0.15328705415359856,0.56280014648118,0.9404963406320846,2,left
15.005,-0.13980582323873292,0.9615368984216166,-0.03407308362724054,8.980563564525777,0.5159422585189739,-4.06549762356843,-0.14940566998224294,0.5947513349062,0.9562501621947674,2,left
15.005999999999998,-0.11592793529291766,0.9644797406080414,-0.03724216543915829,7.03688787053743,0.5603893876544692,-3.361802555076059,-0.1509865405849919,0.5817462903287859,0.9498403249413145,2,left
15.01,-0.10965288356220401,0.9645050758053832,-0.03834046702303926,-1.122184196579555,0.7473125182037199,-0.4073916015547717,-0.15100827264816188,0.5815615370788811,0.9497535633863967,2,left
15.011,-0.08512678415592122,0.9652015383173682,-0.03839820317027103,-3.065855593264188,0.791741462115112,0.2962622330627415,-0.1501771035204134,0.5883964478488977,0.9531025305695388,2,left
15.011,-0.046543986621465194,0.9676041188993303,-0.03646424294857654,-1.592228121838212,0.7580485587129748,-0.2372268858625407,-0.15117727403961395,0.5801890802352216,0.9490994942207056,2,left
15.015999999999998,-0.01685007019144039,0.9649965904507176,-0.03740899200931522,-2.4810226585174946,0.7783800378720935,0.08454889969697907,-0.1503921911145,0.5866098795391594,0.9522030024179915,2,left
15.015999999999998,0.016501358960695173,0.9592617831062276,-0.041363650699446,-2.119408886323263,0.770094624115,-0.046398268689313044,-0.1508216099053113,0.5831187624644434,0.9505437093255283,2,left
15.02,0.04914414090980826,0.9550386822755446,-0.04485410233019348,-2.114247374798723,0.7699998543220609,-0.048192038618938546,-0.15072069634114862,0.5839294459095372,0.9509167869704772,2,left
15.02,0.07727178394672968,0.9483267277041212,-0.049756658845332036,-2.3039731176568634,0.7743094780619104,0.02036722463732374,-0.1505994508819725,0.5848912708809344,0.9513371949038975,2,left
15.024000000000001,0.10531022944656694,0.9423807412221272,-0.05223339948832898,-2.076682438762966,0.7691436588211362,-0.06175121039434823,-0.15082598080008394,0.5831466543354455,0.9506499089596125,2,left
15.025,0.12857363244317963,0.9382006897956281,-0.05151807593944519,-2.25372915895995,0.7731649218527206,0.002184337686898623,-0.15058545103265256,0.5849183307755879,0.9512255984883577,2,left
15.029000000000002,0.14878756173256086,0.930809476213444,-0.05244758454301762,-2.1582737716527234,0.7709919089987829,-0.03230727002487238,-0.15078090679858525,0.5835656560998292,0.9509241854628849,2,left
15.029000000000002,0.16899833460155664,0.9257469669457701,-0.05412089305669285,-2.179948448155418,0.7715125867820442,-0.024318729788428736,-0.15066825367997647,0.584288402822219,0.9509891212627116,2,left
15.034,0.1853919949070251,0.9222128489164119,-0.05151955856847682,-2.2056326539021045,0.7720249919539577,-0.015467033991947751,-0.150668009702321,0.5842888287301808,0.9509866861376753,2,left
15.035,0.20010883452366093,0.9180330352818658,-0.04810227987463384,-2.1611806892355143,0.7711351791321732,-0.030793952764813944,-0.1508077582007993,0.5835176921024803,0.9511474389078485,2,left
15.039000000000001,0.21651428398972397,0.9173458927935527,-0.05149957217086101,-2.2030812096253243,0.7719390526347141,-0.016563025708854536,-0.1505175346485703,0.5850396649150429,0.9506616065059167,2,left
15.04,0.22816043413260115,0.9165845459731528,-0.05694578929107841,-2.1748856870474933,0.7714167572276669,-0.026023421362737643,-0.15092647119177038,0.5829671166835342,0.9514840073131996,2,left
15.044,0.23452045491546702,0.9191934258304515,-0.061656175004932326,-2.1869214194554596,0.7716935051408178,-0.02165859982225923,-0.15050458409293221,0.5850607717532812,0.9505502391048565,2,left
15.045,0.23777996703010193,0.9261052878462741,-0.0669978620531638,-2.1881213247710196,0.7714930257275079,-0.022612502726946954,-0.15074386267561873,0.5838880333195704,0.9511079961273392,2,left
15.049000000000001,0.2347396770905174,0.929980940976614,-0.07642260935291947,-2.178756218314272,0.771798985854236,-0.022831630135586558,-0.15094824478898045,0.5828925476816595,0.9515964546170077,2,left
15.049000000000001,0.2298771806919318,0.9355206160221037,-0.09258540274704025,-2.191188213180397,0.7713077305000194,-0.023061223567411557,-0.15005915386822982,0.5872048589559246,0.9494369063302307,2,left
15.056,0.225331552009579,0.9432589082673994,-0.10396191274532268,-2.179977665696134,0.7718779045954394,-0.022077635075421778,-0.151702819239587,0.5792501344379499,0.9534627489671231,2,left
15.057,0.21848570678018675,0.9489123722863446,-0.11109115109508638,-2.186475346169254,0.7715490966458066,-0.022637989583349408,-0.14959585294297273,0.5894349855221973,0.9482788716105437,2,left
15.059000000000001,0.21369009161657282,0.955605708177837,-0.11759241049892102,-2.187554366539941,0.7711617981912101,-0.024760088624539836,-0.15135327156868844,0.5809449731218168,0.9526129719824781,2,left
15.06,0.21134042154680338,0.9643762679119998,-0.11782150184552943,-2.1769822035346285,0.7727220570978514,-0.017594629556382572,-0.15130555246488492,0.5811766944775728,0.9524965110853342,2,left
15.062999999999999,0.20782871380823553,0.974032069044137,-0.11603516738401196,-2.1968751377360647,0.7698354820528326,-0.030777592734304998,-0.14795762524226239,0.597337843900233,0.9442189618376424,2,left
15.064,0.20788204347755793,0.9846940887744093,-0.10544691766242725,-2.1717120665785736,0.7735503446028124,-0.013713881131523022,-0.15618547463208882,0.5576227025295744,0.9645676880827382,2,left
15.069,0.21174182963714835,0.9959039139930784,-0.08771354328697625,-2.1925409530438595,0.7704453763760657,-0.0280218174265521,-0.1425442411312287,0.6234642286314114,0.9308248098185927,2,left
15.07,0.21332443559629022,1.002430456058126,-0.0810300817529226,-2.191518550804233,0.7705178550668976,-0.027806067448605372,-0.16053644747882995,0.5366262921451204,0.9753341611774885,2,left
15.071,0.21624276086113245,1.0053503991632535,-0.08047288617048251,-2.153790688929793,0.7764864911540712,0.00020960792190979557,-0.2360632873794222,0.17217089055520507,1.1621655878232822,2,left
15.073,0.2239665212478522,1.014672520386033,-0.08217943490379584,-2.2468474096396474,0.7618258552723807,-0.06852078355878849,-0.2540567069249571,0.08534425055094855,1.206675663815926,2,left
15.074000000000002,0.23653003271799433,1.0271152209103414,-0.08998800126817655,-2.092613638283099,0.7861338005980931,0.04545140416603867,-0.24041254874096663,0.151163536927233,1.1729323658825839,2,left
15.079,0.24686677334625823,1.032772464120677,-0.09531184750148318,-2.2959122153503424,0.754069714372045,-0.10492079327390667,-0.24864560896236496,0.1114792299802817,1.1932795034223997,2,left
15.08,0.25160560472516835,1.0356601889065944,-0.09537801416042879,-3.148437845609479,0.6194315085300744,-0.7365606804576481,-0.24529026386080086,0.12760776974992283,1.1850072154592153,2,left
15.08,0.2641880287167726,1.0419888538862208,-0.09081095042608811,-3.351565263184311,0.587362389559452,-0.8870005790137386,-0.24525064113125097,0.12786078541403076,1.1848812113441847,2,left
15.083,0.2813049830842548,1.0483007664314143,-0.0807547241016983,-3.1975627993429034,0.6116807050014114,-0.7729186304091864,-0.2470027469696532,0.11937936675619384,1.1892275726264163,2,left
15.084000000000001,0.2951431613751394,1.051734043164473,-0.06837417338782631,-3.290526578732264,0.5970046955385666,-0.8417504920592624,-0.2448932077884449,0.1295067888910853,1.1840332610260371,2,left
15.088,0.3082941006870898,1.0532460431774107,-0.05777569464934051,-3.2525212521625524,0.6029912332498912,-0.8137111647386505,-0.24655258385717507,0.12166759626288477,1.1880603121268756,2,left
15.089,0.3180314374299904,1.0535227527344135,-0.0522961702523418,-3.2523208631660214,0.6030492202769713,-0.8133681824480039,-0.24563206171372082,0.12582010725035778,1.185917308549243,2,left
15.093,0.32886138268936305,1.0513901079135948,-0.05093733052706702,-3.2717909899182764,0.5999457944687663,-0.8280011550387643,-0.2458798109565776,0.1249796258501781,1.1863655337778196,2,left
15.093,0.34378773476783514,1.046498125715706,-0.05167576461063583,-3.248206019795024,0.6036831487731589,-0.8104356322232948,-0.24607723648415233,0.12374404909185031,1.186985180355551,2,left
15.097000000000001,0.35905273074139266,1.0413080791439866,-0.05082221651042643,-3.26700005891764,0.6007422494615353,-0.8241659386153384,-0.24567178401433837,0.12569790824704746,1.1859833901062835,2,left
15.097999999999999,0.3737781460367483,1.0354168712631953,-0.046617711536553946,-3.2560359612373166,0.6023860102876851,-0.8166690689851415,-0.24611984506754309,0.12406090636976697,1.18684809828878,2,left
15.102,0.38796830745825583,1.0279904343397015,-0.041330753090326855,-3.260034332252415,0.6019066058622946,-0.8185473390954849,-0.2457096492777597,0.1248405754799658,1.1863902349809607,2,left
15.103,0.40094810664147135,1.0188058190640745,-0.03714154498015095,-3.2605615810285045,0.6016360912758874,-0.82027220392464,-0.24605300374932387,0.12497322378574649,1.186408893643471,2,left
15.107000000000001,0.41264842560145476,1.0074689492411186,-0.03991932480598888,-3.2576761993285492,0.6022413505686108,-0.8170691299487752,-0.24580531876428768,0.12426112074483646,1.186681705995873,2,left
15.107999999999999,0.4233435663497955,0.9969957965944637,-0.04685207744603153,-3.261981228965404,0.6015628402839328,-0.8202485988641475,-0.2458879635308957,0.12496378792964818,1.1863745712656173,2,left
15.112,0.4288985828321631,0.9904005502273049,-0.05169771627275475,-3.2559710750304762,0.6022338068844877,-0.8177772122686127,-0.2460866211386031,0.12495643749805188,1.1864247503788312,2,left
15.113,0.42959288016610964,0.9869335895671235,-0.05803004702693258,-3.2643937342121045,0.6015396308773997,-0.8194885754673711,-0.24548616227788256,0.1236944937220195,1.186869949074249,2,left
15.118,0.4279964366997948,0.9849224595398574,-0.06360855190963376,-3.2536989714554263,0.6022796067672327,-0.8183220661873052,-0.24652123992329986,0.126411908988673,1.1858504063620448,2,left
15.118,0.41985614035100677,0.9855950870581827,-0.06562957278015125,-3.2644155275767446,0.6015990378371284,-0.8190581803947332,-0.24522709636731907,0.12275554265184192,1.1872457798771463,2,left
15.122,0.40979964002187974,0.9868569901153909,-0.06919960193329477,-3.2586827093987982,0.6019195607981801,-0.8189729327037616,-0.24629234420309176,0.12587896507074442,1.1860436519220205,2,left
15.123,0.4016732072676079,0.9875920039236354,-0.08028040642589823,-3.252312508249644,0.602421904107923,-0.8178424051863389,-0.24627710727531263,0.12573411009813223,1.1861090788892636,2,left
15.127,0.3910434809055085,0.9919523903433659,-0.10012755701398386,-3.277556500535634,0.6006406114683565,-0.820839949517008,-0.24422030039292103,0.11988919881616276,1.1883397635626727,2,left
