time,gFx,gFy,gFz,ax,ay,az,wx,wy,wz,subject_number,foot
4.363,0.2875790728513048,0.974184202204209,-0.2382629263411365,8.971575122733956,0.49238714292033114,-0.6870346946535574,0.1361431612578968,1.1739054460377056,1.1814838051568382,2,left
4.369,0.26249996906669015,0.9574108899485542,-0.22120364685990318,8.881331755014799,0.54033914841942,-0.6785175820449167,0.13509035936202624,1.1649704085349897,1.1847960538776294,2,left
4.37,0.21699861934684742,0.9478306164111678,-0.2045764729607465,8.900573038248886,0.5297849394677538,-0.6800994150113739,0.13582852180107952,1.1727952328544904,1.1809732150262646,2,left
4.372,0.15685768701113267,0.9465014337413133,-0.19170068278113722,8.927168711600263,0.5162935050286382,-0.6830655421773093,0.13573834941608054,1.1684535633330326,1.1846968418674932,2,left
4.372,0.08581512086011003,0.9482194243116182,-0.18768056300552088,8.882428289148152,0.5392669763734175,-0.6782719177274958,0.13517418396333458,1.16900552209199,1.1813352592933257,2,left
4.377,0.007413989982235976,0.953511429886182,-0.18916883067018145,8.923955436104638,0.5178451900348342,-0.6826521136610872,0.13608333040703025,1.1710270150655675,1.1839527040352364,2,left
4.377,-0.07011910682626529,0.9556732297429231,-0.19445693147275728,8.89781250347767,0.5317108908166548,-0.6801656217541772,0.13540097792173236,1.168526718307298,1.1829333379138585,2,left
4.382,-0.14687565525540075,0.9553169618987376,-0.20463145238607,8.904637755483323,0.5269894399903281,-0.680027006587556,0.13514341413859887,1.169176782471157,1.1810167555761537,2,left
4.383,-0.2188809491111504,0.954216241340949,-0.2183842179114805,8.915148985258192,0.5239360222745448,-0.682831551131631,0.13696858357887848,1.1722537303917844,1.1872137769913218,2,left
4.387,-0.28327627187995585,0.9472919128437205,-0.23417640970751125,8.893216942891897,0.5318066871454814,-0.6780513186142355,0.13338036946744986,1.1648210571081252,1.1763598546443617,2,left
4.388,-0.34502928350418477,0.9418112364202298,-0.2505995845801774,8.91775860750922,0.5227987697851855,-0.6832588634303991,0.13807797253433995,1.1751309932697906,1.190013871002384,2,left
4.3919999999999995,-0.3993972277156983,0.9368770994779878,-0.26538819663862406,8.901743650668518,0.5289792105131867,-0.6800735507301248,0.13411783332859684,1.1661964463187253,1.178735035615356,2,left
4.393,-0.45371093628526177,0.9304443691803277,-0.2784446643120025,8.897035646894844,0.5294747889629347,-0.6781991653400274,0.13425780819143449,1.1667212052122196,1.1789377914557426,2,left
4.396,-0.5065347136457421,0.9296633766936326,-0.28682500768796904,8.93252423350887,0.5193956729037494,-0.6878305660288164,0.1417486014668674,1.1832337350153246,1.2006328669847495,2,left
4.397,-0.5487310614389977,0.9293384296431293,-0.2897914571058106,8.864030980727048,0.5395160498162672,-0.669709395071184,0.12327851385021246,1.1421408191757032,1.147492278813723,2,left
4.402,-0.5987040294419707,0.9295616612031735,-0.29288483563083106,8.952571364968147,0.513358741969373,-0.6930386543571758,0.15393042882728314,1.2105168924797365,1.2355155695522666,2,left
4.4030000000000005,-0.6302125246124477,0.9321217081571473,-0.29429942256253905,8.87842667206522,0.535328212561306,-0.6735341371717044,0.11348767836960419,1.1202111375405348,1.119453555856614,2,left
4.406000000000001,-0.638021822458894,0.9321767028227911,-0.29509854298316374,8.881330588174887,0.5342305949440705,-0.6741625258685464,-0.056286400842634,0.7411035425798789,0.6323428620244231,2,left
4.406000000000001,-0.6712774872670842,0.9351094939326345,-0.29874154700736116,9.019730095016872,0.4939844608663508,-0.7110339404982515,-0.09673525619685709,0.6507336607297218,0.5162986371189383,2,left
4.407,-0.7108921773420604,0.9404006489937715,-0.3006260884327072,8.67853896841299,0.593501847802021,-0.6202807346783579,-0.06606781185071955,0.7192547934777587,0.6042746657329859,2,left
4.412,-0.7432360558741249,0.944908457089377,-0.30689202669839133,9.244470958545964,0.4283379521383039,-0.77079789181753,-0.08456699739440404,0.6779202104005068,0.5512259905148406,2,left
4.413,-0.7677670139638921,0.9498115010674558,-0.3161223993584198,8.498050830754728,0.646208747424984,-0.5722471973054981,-0.07703294644849612,0.6947552198204057,0.5727803288835063,2,left
4.416,-0.7728703557857748,0.9506469324452819,-0.3185701712768394,5.365579933863811,1.5599059635709422,0.2608416263299447,-0.07694251083594952,0.6949553030938982,0.5731492294882684,2,left
4.417,-0.7873711742547502,0.9513616015109517,-0.3268002620242585,4.619382223051202,1.77772949957312,0.45941021867343473,-0.08086647442261755,0.6861907145076198,0.5617415916105113,2,left
4.418,-0.8023533421161302,0.9551287993650442,-0.3439459859429048,5.185073562183336,1.6126167401023537,0.3088736910283713,-0.07616136148284276,0.6967005719174901,0.5753872051696682,2,left
4.42,-0.7984155607868915,0.955140595982427,-0.35502962841657976,4.843790949202811,1.7121535571421564,0.3996195540491273,-0.07983365138237353,0.6884961474538126,0.5647906737989319,2,left
4.421,-0.7839024560520753,0.9506406530528828,-0.3572941112123157,4.982988607355617,1.6717378499234847,0.3628123270871025,-0.07782867467777757,0.6929808826523197,0.5704102000794886,2,left
4.426,-0.7528337578691104,0.9446324742019285,-0.3548818785304172,4.984175150377155,1.6710051132618622,0.36204580023029576,-0.07834499458423225,0.6918135320929628,0.5693478969255599,2,left
4.427,-0.7044243355806821,0.9371296617541117,-0.3488374572232458,4.91249286185644,1.6924514002409254,0.3817484037575811,-0.07876345767617647,0.6909017012313519,0.5674277906103029,2,left
4.43,-0.6438517931705491,0.9277895591389296,-0.33715607146065285,4.998581155451993,1.6668150970213835,0.35822186152298763,-0.07798485871334249,0.6926130356877245,0.5705438113616784,2,left
4.431,-0.5768582471073833,0.9201879948051381,-0.3198346037838704,4.931146026788059,1.6867106274979915,0.37642821267150084,-0.07873389454012447,0.6909619638597904,0.5676918333280441,2,left
4.437,-0.5065528325881512,0.915651494216448,-0.3021776340705333,4.968740039469601,1.6761842167854621,0.36696609154345017,-0.07816020981294874,0.6922441758309351,0.5693307935410202,2,left
4.438,-0.43450845039453206,0.9096024622169196,-0.28623250058874083,4.957249514554938,1.6781208228102988,0.3682949580545511,-0.07860637133236109,0.6912048573995384,0.569357188644624,2,left
4.44,-0.3636372907924922,0.9035174570606076,-0.2717118796708481,4.952921328604533,1.68181821791724,0.3724203487999884,-0.07815832323451694,0.6923027292164124,0.5676577682445811,2,left
4.441,-0.29397570295913844,0.9013231896616101,-0.2581970959905737,4.9631201804723055,1.6758577205492968,0.36605895861796767,-0.07868985103929005,0.6909708030042592,0.5705855542890247,2,left
4.447,-0.229636788602966,0.9023557766357615,-0.2408533776700177,4.952623239761306,1.6812986854226457,0.37175929221804493,-0.07814870301568849,0.6923337136134184,0.5673913707286928,2,left
4.448,-0.169376628175247,0.9036454336965828,-0.220214338562782,4.963235642043966,1.678223959347419,0.3689624873693603,-0.07842115898012135,0.6916361555333321,0.5693524461855677,2,left
4.45,-0.10982634944847308,0.9039008315738437,-0.20050706712328897,4.94884204696017,1.6780106003416615,0.36739469289366233,-0.07885531875870327,0.6905893078094807,0.5704709404510653,2,left
4.45,-0.053895053499077375,0.9080435701982257,-0.17890407081074053,4.971192565912585,1.6815731876221953,0.3737817326989624,-0.07728138762629927,0.694441588929247,0.5646395808801337,2,left
4.455,-0.0009370787487554214,0.9147041379236811,-0.15551207688994556,4.9403742946830045,1.675522473645608,0.36358188392102253,-0.0801414574622313,0.6874290470471274,0.5756229091307966,2,left
4.456,0.04940502930373661,0.9208858341823808,-0.13498283540713876,4.9727571203581675,1.682109401515521,0.37458021700548816,-0.07648209011450313,0.696404067054629,0.561481812199166,2,left
4.459,0.09401965385446728,0.9301147716428857,-0.11908436548399919,4.954789286826363,1.6780870462496509,0.3680276511972368,-0.07953193213930754,0.6889230615820563,0.5733029516450183,2,left
4.46,0.13572354020281463,0.9418150309417408,-0.10259584557248815,4.935620427412603,1.6756926136159034,0.36335843677455293,-0.07946952006360497,0.6890800634011673,0.5729238714453451,2,left
4.4639999999999995,0.17119095540178286,0.9538627417428394,-0.083006333435697,5.013488187962494,1.6879276201453097,0.38539628360946065,-0.07358765934018324,0.703494420908763,0.5505770969144905,2,left
4.465,0.19476886656159365,0.9645460429965019,-0.06491170439123078,4.870169471846065,1.6649210717784593,0.3442372139110548,-0.08802118895500005,0.6681189137085161,0.6055726034835232,2,left
4.468999999999999,0.21577963106402137,0.9765436546303302,-0.0438190583744727,5.053952921834846,1.694533343563637,0.3971529541206466,-0.06409529715153406,0.7267598799545489,0.5143692633089468,2,left
4.471,0.22853841232104377,0.9866759230849397,-0.029903714451193948,4.90062141266254,1.6697832003288955,0.3529489997318791,-0.0956537010083346,0.6494130522419599,0.6346678980092083,2,left
4.475,0.23122999437750957,0.9900396236650014,-0.026049515747591515,4.904389736309264,1.6705626629576948,0.3542485880372456,-0.22814494704080407,0.32468931133432416,1.1395339475396504,2,left
4.476,0.24064408338979948,0.9953814170173452,-0.0077588092000792485,5.19801208311182,1.7173958352124523,0.43820031632818823,-0.25970790156478485,0.24733468231381822,1.2598268475494643,2,left
4.476,0.25025204817915137,1.0007581325791894,0.01904065654452745,4.476776667428643,1.6021573899570207,0.2317337270705639,-0.2357761603090578,0.305985018795785,1.1686288465525525,2,left
4.48,0.25678433774581433,1.0007277602829985,0.04410903182440372,5.672498378300576,1.7932600347505612,0.5740989827607752,-0.2502110970094056,0.2706094286570393,1.2236297781105425,2,left
4.482,0.26254301052093465,1.0005478065370301,0.06147559664830135,4.095360984976576,1.5411954761818043,0.12251485072503318,-0.24433880676544756,0.2850025773074,1.2012561032960587,2,left
4.484,0.2642404233508348,1.0009645797194353,0.06486527998200292,-2.525248030499084,0.4832995630608933,-1.7728166580571447,-0.24425128557978368,0.2852097482151841,1.2009306807637283,2,left
4.485,0.2686819163985378,0.9981579365508693,0.07432296630693341,-4.102427041893246,0.23125094327963946,-2.2243949829258325,-0.2473407454663919,0.277653179114177,1.2126782660460136,2,left
4.485,0.27087629203016894,0.9906891778504009,0.08335693894800507,-2.9066602915659985,0.4223363315637777,-1.8820360156400335,-0.24363740941258571,0.2867079808470426,1.1986061914911599,2,left
4.4910000000000005,0.2701465162376323,0.9834589796990284,0.08056711918996098,-3.627878622154485,0.3070913693399512,-2.0885049752776164,-0.24652484038810685,0.279652590750913,1.2095675788100209,2,left
4.492,0.27397501062613505,0.9773495827716563,0.07925145073502401,-3.3344055540386885,0.3539816578883298,-2.004532445427923,-0.24496933347888158,0.283455773892676,1.2036588806569535,2,left
4.494,0.27888503443091606,0.969942950566787,0.07765234358340678,-3.330315982872013,0.35463817017541593,-2.0032776407672968,-0.24531088761341305,0.2826004768417975,1.2049954218592696,2,left
4.495,0.2850977500506282,0.9627767871938707,0.0743795563228413,-3.4841081403006817,0.3300643587587318,-2.047417363308079,-0.2457617835836905,0.28155391491002957,1.2065984359808657,2,left
4.498,0.2955819938647233,0.9528070799883757,0.07022108889009912,-3.2998659252003404,0.359500983422094,-1.9945656110817218,-0.24498160382537928,0.28336526411557184,1.203824952347592,2,left
4.499,0.308452722143511,0.9405795641640031,0.06069093533767335,-3.4433826931843434,0.3365703301857067,-2.035697021999359,-0.24573362948320776,0.28164576781959694,1.2064453100240118,2,left
4.504,0.32184133703685547,0.9315719006365424,0.048409287147328325,-3.365908641773482,0.34895592120365415,-2.0136043411920186,-0.24521866225311748,0.2828093531755027,1.2046787680637092,2,left
4.505,0.33746827334442564,0.9231575212597498,0.03677760232201161,-3.3838088469085266,0.34607599186419125,-2.0184503857165916,-0.24541363392845195,0.28233061617164956,1.2054233385111037,2,left
4.5089999999999995,0.35230039851199246,0.912800187690644,0.026934217362773356,-3.4039628562071487,0.3428904073728558,-2.02469815538807,-0.24553899787088937,0.28220620388453355,1.2055378555294531,2,left
4.5089999999999995,0.3671861999572503,0.9030815861599295,0.01767829107756784,-3.368896799275961,0.3484501533383978,-2.014074000852486,-0.24514490485105966,0.2827542579693133,1.2048663912500053,2,left
4.513999999999999,0.3863822554172126,0.8958815040881545,0.00756148925144121,-3.4018546382856636,0.34321873815211,-2.02397536132266,-0.24570785705796616,0.2819978256763549,1.2057728427552141,2,left
4.515,0.40016074526568285,0.8903140620331464,-0.005040719318631016,-3.379522343513683,0.3467877526564966,-2.017586064503306,-0.24514087705569826,0.2827229999198134,1.204932857466619,2,left
4.518,0.4100709330433494,0.8834447718519716,-0.020530444105830402,-3.389947399289395,0.3450559964344121,-2.0197068500260507,-0.24546884199825905,0.2823030686839453,1.2054196360819864,2,left
4.519,0.42401893659651235,0.8780161636273737,-0.031587600881119504,-3.388405958244742,0.3454528987445936,-2.02123915527112,-0.24567801195267477,0.2821214279128266,1.2055587907132295,2,left
4.524,0.4353372110503213,0.8774229306575847,-0.03775445872718768,-3.3853692722599926,0.34571348653722367,-2.0174258359077055,-0.24466736087992552,0.28314997653486795,1.204586492798319,2,left
4.525,0.4440327430389699,0.8778396329074134,-0.04556978569576254,-3.3895990918606045,0.3452769529119705,-2.021774905463773,-0.24654637345663158,0.2812307884485003,1.2064079157571879,2,left
4.5280000000000005,0.4530264942678713,0.8782786140974694,-0.05175295437254751,-3.3855879240418,0.345779977046085,-2.0188134474883697,-0.24413971423072364,0.2836802972256345,1.2040921034820595,2,left
4.529,0.45993002404196315,0.8822401679131675,-0.0526398063815743,-3.389897357038949,0.34497115966397446,-2.0184841214503635,-0.2461461536701221,0.28164195888126153,1.2060152587476807,2,left
4.532,0.4644432435562364,0.889690027841969,-0.04959346573287704,-3.383747314931318,0.34647729357048396,-2.0235637847965373,-0.24608407023849097,0.2817164855623415,1.205932830267109,2,left
4.533,0.4671167831555925,0.8965456264925306,-0.04931588356968658,-3.3928625781036517,0.3440511641229317,-2.013488071489691,-0.24229128413593337,0.28552137479028405,1.202393643189497,2,left
4.538,0.46721802889221403,0.9047449778872536,-0.05522858783109896,-3.3816665297494057,0.3470841139087619,-2.026571168181107,-0.25161943365499784,0.276154248121981,1.2111166916764655,2,left
4.539,0.46523860037667797,0.9185151036187151,-0.05493168253341093,-3.390815191867356,0.3445853685710574,-2.015592136749957,-0.23615342621769098,0.2916846272628357,1.1966542051324227,2,left
4.543,0.4642056018124424,0.9282375467354144,-0.048818063565650535,-3.3913440958702794,0.3445251375059326,-2.016111260201349,-0.2565512236219315,0.27120406011755605,1.2157244866537316,2,left
4.544,0.4643777891190553,0.9310270746711418,-0.046868328702632175,-3.3713306285592815,0.3497093036507989,-2.036311447066344,-0.34214948044978805,0.185294441354521,1.29567761904794,2,left
4.544,0.4639699479326853,0.9408214814428004,-0.04173994507810328,-3.4196267762617905,0.3371178328149886,-1.9864065004400668,-0.36254469493686714,0.16481947560425653,1.314739911705339,2,left
4.548,0.4616996215222955,0.9569231196934505,-0.03507409899524993,-3.339755517711123,0.3579563621716256,-2.0692095908257944,-0.347082914302198,0.18034028226199653,1.3002915295998987,2,left
4.5489999999999995,0.4594637640357089,0.9652372396328092,-0.03426526353006456,-3.445123584104719,0.3304733589783812,-1.9599985121768035,-0.35640705359852753,0.17098329072584617,1.3089985224454364,2,left
4.553,0.4580769219396849,0.9683876130033202,-0.03361466279609335,-3.888125877129839,0.2149316801108932,-1.5017867907677456,-0.3526154563264347,0.17478263635080782,1.3054705416630992,2,left
4.553999999999999,0.45507044702596744,0.9790878811732353,-0.032667631745024656,-3.993656295181746,0.18743248918964317,-1.3926229267345467,-0.3525578020572246,0.17485195724648306,1.3053906422995045,2,left
4.553999999999999,0.45186744066621953,0.9934874030354786,-0.032823947253022324,-3.9136093880978104,0.20828853236677192,-1.4753749287463425,-0.3545522968547481,0.172834800708293,1.307288841630729,2,left
4.558,0.44766042766236697,1.0025310400456426,-0.029980423651996806,-3.9618387102313037,0.19570372353398308,-1.425450572201842,-0.3521645199612432,0.17524608112056178,1.3050245244924819,2,left
4.559,0.4421913237806393,1.0089910123688899,-0.022137600135994515,-3.9424079419968208,0.20082979215040542,-1.4458201681760738,-0.35402240804428253,0.17337521002913173,1.3067742481108322,2,left
4.562,0.43841469066020644,1.014724094065817,-0.01231586359532295,-3.941683122051651,0.20089456400810196,-1.4459747611205909,-0.3530254462739824,0.17436325648412992,1.3058717501463213,2,left
4.563,0.43501028792295277,1.0154523563489009,-0.006847239955067838,-3.9526293485517776,0.19821659084022675,-1.435518412820469,-0.3532419610769102,0.17418593988482448,1.3059822013927804,2,left
4.5680000000000005,0.43182514481967355,1.0138478412334595,-0.006100029499496156,-3.939643327906094,0.20142801289570184,-1.4480810007735183,-0.3535280714309652,0.1738301592617488,1.3064071045205752,2,left
4.569,0.4309960529464456,1.013684619686503,-0.006216419251595105,-3.9495308813972505,0.19892487828250544,-1.438229924553184,-0.3530434579149847,0.1744005861553341,1.3057612567439467,2,left
4.572,0.4325054712577352,1.0112858282257686,-0.005918228039798964,-3.9449180237478165,0.20027775062486536,-1.443756446086745,-0.3534944462861753,0.1738810550455582,1.306336406534963,2,left
4.573,0.4358969430160469,1.0097648099159175,-0.005292935370266875,-3.9442759605368756,0.1999626216036387,-1.441987480146067,-0.3532059082770805,0.1741699340829404,1.306068262523403,2,left
4.578,0.44266241422489294,1.0106488594205145,-0.004140319311300632,-3.948796312824337,0.1996150055885766,-1.4415066871651367,-0.3532946530571226,0.1742051940998418,1.305865741995571,2,left
4.58,0.45025013337177155,1.0109158003156593,-0.0019076562760437848,-3.9425559410780755,0.20022241473250246,-1.442811247321505,-0.3533799620165652,0.17383568023972246,1.3065976299426707,2,left
4.582,0.45495104180152696,1.0133487969639812,-0.002023775681883428,-3.947866412268016,0.19965072999757721,-1.4414253239697783,-0.3531836833817623,0.1744560153771294,1.3054413463428685,2,left
4.583,0.45761376672659104,1.0172982327915916,-0.006504850500246337,-3.946399784252265,0.20004019449913718,-1.442978879112407,-0.35340579599351063,0.17378199974482172,1.3066860070809456,2,left
4.586,0.4544081694753975,1.0236718054242546,-0.013784300048179026,-3.9413337434052824,0.19985296419964094,-1.4405959354067335,-0.353257107712263,0.17419155726767477,1.3059477668270751,2,left
4.587,0.4452209644789683,1.0312145161704778,-0.024005013911584938,-3.9544029826224634,0.19989226126530638,-1.4444998509301956,-0.3532296523849916,0.17444449267667544,1.3054057033999507,2,left
4.592,0.4339379481681864,1.0367001525602584,-0.03555521021751352,-3.934548103915616,0.1999265806921224,-1.4390448547823476,-0.35351475297400853,0.17317403539105547,1.3079325849337318,2,left
4.593,0.41691767439839444,1.0444741631648078,-0.04899315546929575,-3.955780904049807,0.19987296520784492,-1.4447916240053515,-0.35295616954656883,0.17555922629098056,1.3032183666943418,2,left
4.5969999999999995,0.39717951466860035,1.0514182134465566,-0.06308597714018004,-3.943407126055146,0.19993067803819756,-1.441579223890595,-0.3536802453610528,0.17249051846814953,1.309278236163336,2,left
4.598,0.3797994695309125,1.0539543461831784,-0.07630315969137505,-3.9332618027542763,0.19984691983286867,-1.4382735358621956,-0.35307280836656363,0.17505414567102368,1.3042160912871523,2,left
4.602,0.3620476085556137,1.055256511061381,-0.09539407418230487,-3.9785163205124454,0.19999589782439814,-1.4518634154505516,-0.3531001701731327,0.17497665817766073,1.3043640516088995,2,left
4.603,0.345944622857966,1.0560342627432382,-0.11440022076526785,-3.8944366689863776,0.1997578541925715,-1.4268183591059898,-0.3542231037697091,0.17011693680729478,1.3139817520651156,2,left
4.607,0.33056820145233756,1.0568550779040882,-0.12786080312184864,-4.002434546389527,0.20005636123433726,-1.4589432330254368,-0.3514497235754628,0.18206914005020036,1.2903286492100579,2,left
4.6080000000000005,0.3136934550633558,1.055120442837214,-0.14329311915779164,-3.912257103274779,0.19980806922752162,-1.43213607916248,-0.3560521292162523,0.16225220687800884,1.3295514660799728,2,left
4.611000000000001,0.3032448754679272,1.0515851923819088,-0.15135898514440327,-3.9147548544918096,0.19980716610056815,-1.4328112354134064,-0.3499804542917768,0.18838734872878815,1.2778145642281995,2,left
4.612,0.29917563107077705,1.0510664544273272,-0.15453115850463484,-4.0865212539309175,0.20031120919623674,-1.4840969205805812,-0.3245196047447245,0.29811488783725515,1.060686110375533,2,left
4.613,0.2867790647783401,1.0518129317925435,-0.16812592702965068,-3.664270457234814,0.19907595559375796,-1.3580981540630908,-0.31844774012034105,0.32424284474720044,1.0089470413729684,2,left
4.6160000000000005,0.26177536741670615,1.0507690755793873,-0.18128840788809436,-4.364403062254787,0.2011295598819253,-1.5670007257989114,-0.32305035122064074,0.3044336856659443,1.0481722030715122,2,left
4.617,0.24543541554612425,1.0484063510419057,-0.1865338499797417,-3.4409250909217612,0.1984113952490938,-1.2914528571232946,-0.32027704831939846,0.31638884385383115,1.0245199915838121,2,left
4.621,0.23850651575553253,1.047631741507133,-0.18871362317327958,0.43522404207152865,0.18709425568925625,-0.13485343421991555,-0.32139930268823247,0.3115033399391526,1.0341299152301073,2,left
4.621,0.21688681495130174,1.0468479964150383,-0.1900793872300325,1.3587053843044685,0.1843579387588395,0.140714645712713,-0.3214281269950108,0.31148132903670145,1.0342946088841427,2,left
4.622,0.18816414966041334,1.0425399082236644,-0.1904472581992726,0.6585691253704344,0.1864311781210326,-0.06820979632048237,-0.320818592226657,0.3139654123102335,1.0292084713697216,2,left
4.625,0.16181847034306873,1.038891396361588,-0.18929132505059085,1.0808185591227775,0.1852034100969643,0.05778066416180111,-0.32154475804180416,0.3109759158327542,1.0352922330420844,2,left
4.627,0.13111879763692186,1.0377866842052703,-0.19336608247398837,0.9090642076203954,0.18564227379651999,0.006567492508801384,-0.32098527085779416,0.3133269244331206,1.0305677047527584,2,left
4.631,0.10090442228106496,1.0360025000534048,-0.2006542105883538,0.9065405004847371,0.18578159022682317,0.00573629952791415,-0.32126858125427515,0.3119884568172351,1.0330740720882505,2,left
4.631,0.07468457562277056,1.0337518230865503,-0.20378108480480847,0.9967551857503879,0.1853322695552907,0.03276719020846438,-0.3212469003985827,0.31246048828922446,1.0325980945130033,2,left
4.636,0.048509458932363796,1.0336482135419738,-0.2057603803625064,0.8887201896720214,0.185830937047899,0.0004195063613194362,-0.32108825805106567,0.31249252512660075,1.0317459833418177,2,left
4.637,0.018445237604810906,1.035890374353449,-0.20771781577212323,0.9728159189937746,0.18550656901481394,0.02556072845378222,-0.32132259148623166,0.3122818315463267,1.0331303946213581,2,left
4.64,-0.012603179895172812,1.0384549797229057,-0.20637621100088588,0.927593133128664,0.18548357210880256,0.01216211524956015,-0.32111656280687334,0.31253276983357486,1.0318626915759497,2,left
4.64,-0.042479585149793386,1.0425774268601715,-0.20217278276556894,0.9376359944200441,0.18595362918659358,0.014851573220410528,-0.32120180104667784,0.31215999653135346,1.0325935948648635,2,left
4.648,-0.0734286722768919,1.0472536956450393,-0.1956035452347075,0.9501864576741543,0.1850571880419287,0.01912582470683997,-0.3213086021945373,0.3128806850698066,1.03259782028696,2,left
4.649,-0.10127345236775401,1.050227740487367,-0.1828513205709914,0.9287366729317241,0.18617445996182586,0.012075832732440254,-0.32097877014463716,0.31160307294558165,1.0318571782954744,2,left
4.65,-0.12479445570034264,1.053469713936388,-0.16969431300099733,0.9487647625129919,0.18527543906364596,0.018569917724379954,-0.3214913857628072,0.31342053974068257,1.0331372295918777,2,left
4.651,-0.14607979137154364,1.0557949093928631,-0.16340068216733325,0.9356965599164533,0.18530607863405027,0.014675039589406058,-0.32094104802576695,0.31149961239630003,1.0317399272270928,2,left
4.657,-0.16081275373414028,1.0572188589210576,-0.15557807137508478,0.9404423300219165,0.18685166113302487,0.015130219436669375,-0.3212651806626403,0.31258342005417905,1.0325990353200711,2,left
4.658,-0.1665052050195385,1.0573461985001136,-0.1414140367150493,0.9426418029787211,0.1832816888423452,0.017982649623746676,-0.32151432647657785,0.31364681921359105,1.0330837465390883,2,left
4.66,-0.16749160278557634,1.0551775582645586,-0.12709098731348784,0.936237308702496,0.18861634613109307,0.01279523481492702,-0.3203742475423998,0.3092043855636186,1.0305432244926078,2,left
4.6610000000000005,-0.16666457528920153,1.0540008121256672,-0.11763163989574338,0.9436448389329192,0.1829280597407184,0.018498406753105538,-0.3224976819607241,0.3174046052328442,1.0353307319907983,2,left
4.665,-0.1625762098447041,1.0520690047158272,-0.10509555309744917,0.938448565861583,0.18621701687062636,0.014929502870867613,-0.31976878564829814,0.3068839126175018,1.0291656676558496,2,left
4.665,-0.1556183498480257,1.0497409553152237,-0.08118139316027664,0.9385127878477711,0.1890401474732778,0.01320945089004704,-0.322048299393909,0.3156632851268033,1.034320592022819,2,left
4.67,-0.14282383237658955,1.049835545684728,-0.05412349828447534,0.9456646917378864,0.1766657303216397,0.022956588049424034,-0.32198234140874205,0.3154397893378186,1.0341519912770272,2,left
4.671,-0.127251270135358,1.0513607761349708,-0.03505656583576393,0.9310642342913129,0.19961699154940948,0.00448081787619641,-0.3176487624988563,0.29865365785247844,1.0244156363810515,2,left
4.675,-0.11272846626818378,1.0530771216259376,-0.02656871937314415,0.9501060479958656,0.17014669885207934,0.028292978264424617,-0.32830607594394157,0.3398946097085046,1.048382779690173,2,left
4.676,-0.0887748646753832,1.0519795653151256,-0.017550783235576167,0.9340979824845735,0.1947486949868349,0.008379374419228779,-0.3106333021462287,0.2715203828286288,1.0086325529823588,2,left
4.681,-0.06921780074574782,1.0505126150183726,-0.008232326941092608,0.9349741042707687,0.19408518027101407,0.009052605468493138,-0.3339448240572043,0.3617044694863286,1.0610662556610864,2,left
4.6819999999999995,-0.06259023292166922,1.0502065484061651,-0.004062372271711417,0.9640225122526924,0.14716965942017876,0.046578454310805976,-0.4317553888224229,0.7402949391542137,1.2810350066682115,2,left
4.683,-0.03953232507315576,1.0463243403449056,0.005586344085031225,0.8921252750338458,0.2624762934638624,-0.04580887812030454,-0.45506523174537317,0.8304816186711614,1.3334622611656402,2,left
4.684,-0.0026720874101168295,1.041208449495104,0.011327164436479239,1.0114366183801,0.07129797090302442,0.10740733242478886,-0.43739871284658755,0.7621014949711726,1.2937296840564594,2,left
4.685,0.016452572989118595,1.039488146707745,0.007618160715928405,0.8540945083577097,0.32345546560604566,-0.09467869518745721,-0.4480409964536012,0.8033523301139098,1.317661676389533,2,left
4.69,0.02252054881501662,1.0378977477011329,0.006625254931936157,0.19386648398815598,1.3819474997146424,-0.9428311869710579,-0.4437338016747827,0.786552929115859,1.3079801171245493,2,left
4.691,0.041079242007399146,1.0345281793482946,0.0023856899402246398,0.036649684827534695,1.6340954696554721,-1.1448854690923498,-0.4436327265969521,0.7863429029351217,1.3077456834765626,2,left
4.691,0.06628692017684495,1.0323156602973047,-0.008853236741904486,0.1558254454114702,1.4429274470963294,-0.9917036034384625,-0.4459452565565541,0.795115037102559,1.312953313637759,2,left
4.694,0.08464454207241136,1.0296159599706667,-0.017703839355320383,0.08387665990617668,1.5582380188226566,-1.0841040047889887,-0.44320513544542084,0.784586470409331,1.306787833983421,2,left
4.695,0.10339801759486475,1.0287233185115499,-0.02324545057459095,0.11337475947304412,1.511288277037836,-1.046464213221899,-0.44529320541970085,0.7928180941752787,1.3114788313175292,2,left
4.7,0.12347559973825287,1.0325962836690725,-0.03023129932268915,0.11328329104903515,1.5106983677340151,-1.046036136141993,-0.44425541344064784,0.7883178883409148,1.309161460967391,2,left
4.7010000000000005,0.14021819589836948,1.0334420127143664,-0.03528154207427367,0.09866257116899138,1.5351948488577745,-1.065598245496044,-0.44433445475146943,0.7894563650436408,1.309310631324519,2,left
4.704,0.15423950198520314,1.0337138976758902,-0.041874811853972904,0.11632285616817037,1.505829601839945,-1.0421360920753644,-0.4448611951878171,0.7904738410232706,1.3105302865065824,2,left
4.705,0.165133435172738,1.0406684399040074,-0.05071500449257595,0.10231854359913448,1.5287355846952582,-1.0604608559361246,-0.4441583127998642,0.7885673770360884,1.3089216126614143,2,left
4.708,0.17428701164495194,1.048425810984351,-0.054516119717413145,0.11065668832971634,1.5162708555290663,-1.0504131286312401,-0.44464894868407623,0.7904733340080918,1.3100248685344167,2,left
4.709,0.18435788372597955,1.0576536410555244,-0.06175969090018287,0.10689954139131783,1.5193847200132642,-1.053101403609071,-0.4446495364221212,0.7889662213464625,1.3100776972460522,2,left
4.7139999999999995,0.19309485814041227,1.0713372272353294,-0.06979763547163294,0.10828773604357766,1.5221728362209035,-1.0550020536666107,-0.44403855288079763,0.7900510768970705,1.3085858332534843,2,left
4.715,0.20118212831063687,1.084296445645784,-0.0695781587635499,0.10761437937911628,1.5170990949215497,-1.0513462102312239,-0.44516474323768046,0.7892635879260776,1.311294335361426,2,left
4.718999999999999,0.20966914149970436,1.097107110703142,-0.06818702565358695,0.10765249781583762,1.5219439749910877,-1.054901451752043,-0.44388560319966097,0.7897989975497125,1.3082302207775856,2,left
4.72,0.21673151546505098,1.1109157024639584,-0.06749401899854018,0.10990906436661471,1.5183692517282859,-1.0520343475703253,-0.4446774477996258,0.7896935414984483,1.3101193848005872,2,left
4.725,0.2244858625678935,1.1262688699893615,-0.06555530502958008,0.10269978240082239,1.5208246173760913,-1.054608345364367,-0.4451959932318166,0.788968703432695,1.3113787244279749,2,left
4.726,0.23135330090764245,1.1404836227526252,-0.06360606451094644,0.11695343106737115,1.5187768006883546,-1.0515807786833047,-0.44262389349701065,0.7909713747833977,1.3051860172343264,2,left
4.729,0.23735240997871843,1.152237097796017,-0.06487205821415865,0.0962212906062582,1.5209779369997642,-1.055413669640156,-0.44746548718641255,0.787533763256693,1.3168316889035716,2,left
4.73,0.24429306586706476,1.1683736343717903,-0.06745300925592493,0.11822345494780555,1.5187910559605664,-1.051455088281157,-0.44122269675999015,0.7918481792196712,1.3018195410594586,2,left
4.7330000000000005,0.25043675300129725,1.1815605949210988,-0.06791166303924576,0.1056667088706561,1.5198025543528388,-1.0535411214558659,-0.4464456817026499,0.7882884553789411,1.314377864326228,2,left
4.7330000000000005,0.2500949003708179,1.1959631980192218,-0.07558952360564987,0.09406830011772345,1.5219211000880397,-1.0563359486328023,-0.4462868194588758,0.7883197619297434,1.3139980064411376,2,left
4.738,0.2434381826988373,1.2157684126359534,-0.08961125907080865,0.143561822313713,1.514691511624613,-1.0457359811609481,-0.43637395716928273,0.7952803843500396,1.2901574133433802,2,left
4.739,0.23583627018177833,1.2329179997925457,-0.10545757051880808,0.05200358342446607,1.527728524535049,-1.0650990215441458,-0.4607643311652946,0.7782662256972391,1.3488138874279993,2,left
4.743,0.21742626641733243,1.2638717160041628,-0.1303405169966229,0.1695185445657481,1.511073817039132,-1.0403023797556565,-0.42031357971722205,0.8064407411794974,1.2515343754777413,2,left
4.743,0.20326889739900328,1.2858279743654402,-0.14774249943484125,0.07143034082898182,1.524940161698296,-1.0609764985287553,-0.4736726619401336,0.7692919346143228,1.3798573808471573,2,left
4.748,0.1994011242353087,1.2912696754929005,-0.15124968430964242,0.07400934441446069,1.5247031925836136,-1.0605209136275977,-0.6976262395078723,0.6133076245232792,1.9184393200894272,2,left
4.749,0.1781773456098391,1.3189566260619099,-0.163015341290777,0.2612962912255333,1.4978181414112226,-1.0207596160780312,-0.7509896969104962,0.576162028199033,2.0467751484007524,2,left
4.75,0.1509057995325972,1.3543498363331807,-0.17225416430223328,-0.19894601194345446,1.5637265656690778,-1.118364301557258,-0.710530437924858,0.6043250690301132,1.9494718396596777,2,left
4.753,0.11941274171821652,1.3928817865653391,-0.16572128062017122,0.5641385744980193,1.4545021125007556,-0.9565645796896401,-0.7349323787309395,0.5873379304818893,2.008158185409675,2,left
4.753,0.09301008873358481,1.4207474686058297,-0.16071521755540058,-0.44237040951546613,1.5985496072405985,-1.1699729845615034,-0.7250076607557372,0.5942516461504266,1.9842911509432448,2,left
4.7589999999999995,0.08677453390701484,1.4277339438654786,-0.15894235441749271,-4.667222890511818,2.2035536858522518,-2.0659240872772715,-0.7248558972061987,0.5943448451148181,1.9839197760757414,2,left
4.76,0.05862242285590084,1.4598384176715364,-0.15139783092089493,-5.6737534036198225,2.347590605576497,-2.279341899056821,-0.7300834437923694,0.590727630708596,1.9965046938487898,2,left
4.76,0.013539097359376204,1.5030298322657762,-0.1440382758960142,-4.9106454981470895,2.238377576692433,-2.1175319979274523,-0.723817699148732,0.5950602602950978,1.9814176503296113,2,left
4.762,-0.024050340569677267,1.536512728156143,-0.13879312918121386,-5.370879034182103,2.3042904133908158,-2.215132818203145,-0.7287033880383536,0.5916872765611436,1.9931855421837208,2,left
4.763,-0.06755904376904866,1.5746186557951596,-0.1293799853501949,-5.183669163075741,2.277367284260748,-2.175405269179662,-0.7260722136634832,0.5935072808913174,1.9868499829680075,2,left
4.768,-0.10962985028785206,1.608555265813632,-0.11574273735475628,-5.180924194824602,2.277212160775141,-2.1748770622802054,-0.7266455185724023,0.5930835154270417,1.9882130999278635,2,left
4.769,-0.146521619741317,1.6375272327172956,-0.10115733904549001,-5.27925045954038,2.29096122258625,-2.195655312494726,-0.7274199501327896,0.5926224309764341,1.9901257593193034,2,left
4.773,-0.18111839635202975,1.6642843093027069,-0.08818942339485644,-5.161498312777175,2.274423220416917,-2.1707549697381636,-0.7260804790396298,0.5934210319687226,1.986817987914613,2,left
4.774,-0.2116028489411526,1.6887920900617561,-0.07735497623284857,-5.253159127912815,2.2874100329725997,-2.1901627696235026,-0.7273768135262988,0.5926825721167737,1.9900416351462527,2,left
4.777,-0.23694199132114546,1.7112955678688906,-0.06696930740545426,-5.203868738179086,2.280079869186774,-2.1796518180815205,-0.7264864026998461,0.5931718829899489,1.9878157071523646,2,left
4.7780000000000005,-0.2539650560030529,1.732997507786632,-0.05567770448300432,-5.214811869833692,2.282521777889656,-2.1821598432345874,-0.7268157456900637,0.5929411922935808,1.9886070288212774,2,left
4.782,-0.2639985470113332,1.7556550594729932,-0.04666849445872237,-5.228498214188403,2.2829764592314605,-2.184740080620344,-0.7270646423687215,0.593010705143712,1.9893624403642218,2,left
4.783,-0.26540172889955677,1.7793791147414681,-0.044510115849497336,-5.205109188583423,2.2814725597281167,-2.180174952508054,-0.7263140871305342,0.5929788175042432,1.9871989396258303,2,left
4.787,-0.2586597177617632,1.8102904942936466,-0.051097858857710426,-5.226947839461477,2.2831297467681395,-2.1844914629393988,-0.7273915001770705,0.5930555204315553,1.9903248694691178,2,left
4.788,-0.2485106929219075,1.8456144618435932,-0.06806243549479424,-5.2127021236879365,2.281075801485506,-2.181468088481083,-0.7262990303046122,0.5929350383207972,1.9871273464291979,2,left
4.792,-0.2454942844540453,1.8832958658106418,-0.08627705513551061,-5.217862436854353,2.284543531934868,-2.183144886059932,-0.7269308174009798,0.5930037474740146,1.988976341811153,2,left
4.793,-0.25998843402780664,1.9239744162309254,-0.09072162096095658,-5.220291943194413,2.2786575427617803,-2.182328396120885,-0.7273512671999662,0.5931510254238117,1.9902712192523402,2,left
4.797,-0.2969373969972804,1.9630274289014054,-0.07968553675722778,-5.213260160728385,2.2869485924759347,-2.1828242832176885,-0.7253505448913611,0.5926216778859893,1.9842170844108533,2,left
4.797,-0.3622567292262424,1.9975804711012306,-0.06045989657778125,-5.221392366989951,2.2782034359823995,-2.182429994252806,-0.729068796111342,0.5935964737095591,1.995463857579221,2,left
4.802,-0.45127070504859595,2.0226894210200896,-0.03508514963089227,-5.215688626669973,2.283108966566341,-2.1824457825521715,-0.7243047946251866,0.5923388879879444,1.981047162248064,2,left
4.802,-0.5553954505684102,2.040917690905145,-0.0030507846851755872,-5.215743902517893,2.288060471587563,-2.1835102883455093,-0.7282771765697054,0.5933902246205578,1.993071774243162,2,left
4.8069999999999995,-0.6568321845586091,2.046159015947582,0.0350686145862041,-5.223645276896201,2.2675793748939093,-2.1805711177127014,-0.7281569183011551,0.5933750311745731,1.9927145623891718,2,left
4.808,-0.7386153464446317,2.0360797400012904,0.07478731866057561,-5.2075172746808995,2.3053409732367562,-2.1857120864975936,-0.7206373591979083,0.5913216852203601,1.9699208792463867,2,left
4.812,-0.7902726301440274,2.019925477246277,0.11269391524130948,-5.228564234670832,2.2569111393189383,-2.1791794750250864,-0.7391287360459701,0.5963529940481749,2.0259694485317525,2,left
4.813,-0.7937543967373202,1.9860409522888578,0.1559923620050298,-5.210846883612861,2.297307909076048,-2.184606624367297,-0.7084706621399434,0.5880172361982392,1.9330400302769357,2,left
4.817,-0.7737267968014379,1.9557981963655202,0.18449541702707872,-5.211867778296375,2.296324228323784,-2.1845642355264747,-0.7489048068389867,0.599006274059832,2.0556066869397207,2,left
4.8180000000000005,-0.7622511712041589,1.947513191667655,0.18928329018279202,-5.243902072117553,2.2189681172533464,-2.1738695260377474,-0.9185967869450704,0.6451985929104349,2.569995610444244,2,left
4.819,-0.7246436924108215,1.9201855023135874,0.2027103276809756,-5.164502170678336,2.408939758569362,-2.2000359300652024,-0.9590251924507945,0.6561701048626694,2.692553994250746,2,left
4.821000000000001,-0.6438537880366756,1.8772665976149656,0.21060548091217768,-5.296352598917306,2.09403646642789,-2.156677824908777,-0.9283760899018143,0.6478617431354308,2.5996375079480343,2,left
4.821000000000001,-0.5910813064277187,1.8578774742849058,0.20383103224434151,-5.122383399547976,2.509334077572166,-2.2138703132692417,-0.9468600455965634,0.6528703895330144,2.6556753797485078,2,left
4.8260000000000005,-0.5746878715512984,1.8516082191384622,0.20337968559893005,-4.393421341229472,4.253292359421941,-2.454022365424602,-0.939340057343069,0.6508157336502141,2.6328810782868555,2,left
4.827,-0.5181400317370516,1.8349398473148462,0.18497846341104301,-4.219436907459093,4.66850503963405,-2.5112383722302445,-0.9392341961559972,0.6508445040529109,2.632544618921492,2,left
4.828,-0.4457399597854631,1.815972747732625,0.13193672225743003,-4.351303840303522,4.353693653352513,-2.4678548253415475,-0.9431751480443242,0.6517998629051504,2.644523925992001,2,left
4.83,-0.38428205449604713,1.801963389307302,0.0467517776347378,-4.271910129867381,4.543700186001589,-2.494011538622459,-0.9384559197438705,0.6506790015809625,2.6301717694578404,2,left
4.831,-0.2982874518883122,1.7843974060731775,-0.061746508924844845,-4.303889909805134,4.466039386200352,-2.483401260855546,-0.9421298274188322,0.6515183839940611,2.641354622633582,2,left
4.837,-0.20444713386195806,1.7655340687710395,-0.14666569057289275,-4.30502820515947,4.4657113601631835,-2.483177224582808,-0.9401483235507144,0.6510477263617489,2.6353281915912112,2,left
4.838,-0.1138342102569131,1.7486855187435884,-0.17334158717806158,-4.287142439559373,4.505167991295565,-2.488864805010527,-0.9406060646382324,0.6513088776573597,2.6366768212058824,2,left
4.841,-0.014175221288135836,1.726998799469817,-0.14448080992996531,-4.308357212465211,4.457674417694479,-2.4820728766075333,-0.9411172904829663,0.6510094312569688,2.6383520341647104,2,left
4.842,0.0946886366976114,1.694755367669658,-0.07526840072606296,-4.292156603048671,4.495031891372042,-2.4873257022686355,-0.940232559875541,0.6515233227917547,2.6354539579881004,2,left
4.846,0.21285038193469336,1.6510075528359964,0.0009309326799840732,-4.299914333149355,4.473747152641968,-2.484609287500326,-0.9410550746769393,0.6508216380657685,2.6382124611899758,2,left
4.8469999999999995,0.33033003978600545,1.6005604551353954,0.05435341060271881,-4.300433115602514,4.481287986545617,-2.484956368661911,-0.9405077214188248,0.6514102790732995,2.6363418720245235,2,left
4.852,0.42928639076647723,1.5534857224748,0.0811115054320515,-4.293930286475013,4.481731669151079,-2.486208233562005,-0.940758358233138,0.6514850899962863,2.6370997846421673,2,left
4.853,0.5148130418745149,1.5084999647278248,0.09042237364240954,-4.303043650159748,4.478462664540425,-2.4842970495563,-0.9407108740193555,0.6501036986393549,2.63734793390089,2,left
4.856,0.6009600787137914,1.4564846737656796,0.10116316339085088,-4.295228932143337,4.482387345922561,-2.486002157647452,-0.9406816991005844,0.6532229562868914,2.636363436433357,2,left
4.8580000000000005,0.6725460723090992,1.4022920418207927,0.12041575941863955,-4.297653094175992,4.476463631784182,-2.4851967223750435,-0.9406931903647409,0.6485609621697698,2.6377350311477894,2,left
4.861000000000001,0.7345381048289706,1.3423702411631675,0.14601478601462442,-4.304262583315966,4.488031466939123,-2.4846288862868713,-0.9407234162739704,0.6535422425035153,2.636401642980575,2,left
4.862,0.8012639016030554,1.263855448859057,0.18437155179108844,-4.286702055923395,4.467463936077996,-2.486734740863044,-0.9407063901242827,0.650664219589705,2.637173402435182,2,left
4.865,0.855822682646794,1.1712496951823397,0.21908260202950924,-4.313488242648259,4.496742111275321,-2.483399679995111,-0.9405975958199073,0.6481576055063782,2.6375533767450396,2,left
4.865,0.8956800952849513,1.0795371470953916,0.23886745651891675,-4.284822114786229,4.465791464322048,-2.4869908128704195,-0.9409519265860145,0.6590943935308766,2.635521195690103,2,left
4.87,0.9229279600377295,0.9985218408791687,0.24492146279741622,-4.301562507577323,4.483263885860531,-2.4848592683849846,-0.9403008490321114,0.6388137513171054,2.639308201326251,2,left
4.872,0.9417524141702824,0.922679110785527,0.21137440321923745,-4.315122827599774,4.500365030649256,-2.48330270921032,-0.9411446879364497,0.6648571222988755,2.6344691481838662,2,left
4.876,0.9637116439056278,0.8493397565417037,0.14721877789091395,-4.2543458142070545,4.428856972556019,-2.490574207589569,-0.9404366627053695,0.6431139875029321,2.638498479878158,2,left
4.876,0.9881540448826108,0.779506719120084,0.08918175986651453,-4.367322234589459,4.560871552008966,-2.477006807336471,-0.9404458395892683,0.6436994477522169,2.638358498636306,2,left
4.879,1.0092614628368126,0.7168788207999939,0.04707450627900208,-4.222186334883304,4.391486874112796,-2.4944457281314616,-0.9418384491463376,0.6851716942963559,2.630806236132706,2,left
4.88,1.0236542646531512,0.6679776013961973,0.02082307080894729,-4.343393717646954,4.532853531644545,-2.47988071449545,-0.9384230751847734,0.5832405169032611,2.6493921968266467,2,left
4.8839999999999995,1.0500686733543632,0.6182966297686203,-0.003665671140052982,-4.339983501207949,4.529212685369309,-2.480300648205528,-0.9440869811605004,0.7522473331041586,2.618579592864245,2,left
4.885,1.0730223414182136,0.5881551336234205,-0.02261323991615795,-4.109254058512283,4.259024144531107,-2.5079859115470713,-0.9366129397635141,0.5293266013978266,2.659208346506693,2,left
4.886,1.0773996852960748,0.5839822965080538,-0.028177613507441135,-4.676546350068946,4.922917471719481,-2.439911448065064,-0.9051897165273275,-0.40642421476465906,2.829504899089927,2,left
4.891,1.1057832728559678,0.5545087305120078,-0.03791557708306635,-3.73585959527896,3.82217700443843,-2.552785717093027,-0.8977050630190588,-0.6293549177279298,2.870079374560162,2,left
4.8919999999999995,1.1332262916173623,0.5277293301526531,-0.04701452540643492,-4.9766867373131625,5.2740824841029,-2.4039095763240366,-0.9033897228276233,-0.46032703572405753,2.839377801593992,2,left
4.895,1.1364267730130984,0.5258014491072542,-0.04403209441693369,-10.184182868315762,11.368288252766936,-1.7789866759413875,-0.8999458731931191,-0.5622905134343512,2.8578008294819077,2,left
4.896,1.1506671330002636,0.5056451066117775,-0.022363670595937392,-11.42510764955992,12.820287742497207,-1.6301225744886818,-0.9013681052866314,-0.5207790031020312,2.8504357180174376,2,left
4.897,1.1634080237626596,0.4828568507662483,0.016175804070050415,-10.484315259751444,11.719445544832109,-1.7429838180489705,-0.9013587782107944,-0.5202278870190948,2.8501482193660284,2,left
4.9,1.1664022319147667,0.47056092370853375,0.051023141073043975,-11.05156735846206,12.383300249979744,-1.6749043994571249,-0.9006410707737968,-0.541961918254759,2.8541847806570217,2,left
4.902,1.1643298139712503,0.45731907528677135,0.0790363633777122,-10.821188361660568,12.113448970843635,-1.7026328725010087,-0.9015397833871541,-0.5158774774065169,2.849593683753872,2,left
4.909,1.1546994271712971,0.44859483624638596,0.1054275443215592,-10.817024137597766,12.109082377732264,-1.7029598365179535,-0.900781036790286,-0.5362689352114544,2.85279990587205,2,left
4.91,1.1452057352505896,0.44152305079721366,0.1284962241855721,-10.93931259751371,12.251489677582766,-1.6885281214070136,-0.9012817797184759,-0.5251529102328929,2.851646502114928,2,left
4.91,1.1346863156767708,0.4368012592715015,0.1450683162041388,-10.793100191544873,12.081068651398105,-1.7058343061264416,-0.9010343142316558,-0.5278678453176001,2.851073928173709,2,left
4.9110000000000005,1.1253757355054335,0.4328205367921518,0.14852703561103422,-10.906541065505657,12.213530555124255,-1.6923241763638242,-0.9010671760210693,-0.5305964717226741,2.8524205158997624,2,left
4.914,1.1122366506171373,0.42590614436399077,0.13934878766016728,-10.84668855039843,12.142912054658364,-1.6997096629156445,-0.901236994105632,-0.5255759220425014,2.8515145800638595,2,left
4.915,1.0898259774898333,0.417003625970482,0.1251781145805954,-10.85727096224619,12.157147059375045,-1.6977859271520503,-0.900837078230269,-0.5306019624536404,2.850852141117104,2,left
4.919,1.0646575594521224,0.40200406138865924,0.10761351592373634,-10.879142325689115,12.179558316281364,-1.6962870370240895,-0.9014953638645743,-0.5267196158512684,2.853749082959731,2,left
4.92,1.0397395654299146,0.3812823039461922,0.08658047137678523,-10.844179306135196,12.142546102479017,-1.6991017511029756,-0.900625339759746,-0.529184185100632,2.8488225952729147,2,left
4.925,1.0146074110569707,0.35944457019604165,0.07099720100025889,-10.8759855350369,12.176657414379076,-1.6963856786236855,-0.9015032205986369,-0.528022458161492,2.854340081596694,2,left
4.926,0.9820216373528705,0.33879761167197286,0.06592024900614613,-10.858470076189658,12.15613165971644,-1.6984970728833653,-0.9010217212446521,-0.5279456213055833,2.851017550476735,2,left
4.928,0.9372265740431812,0.31921840841576116,0.06930215972464042,-10.855762931722683,12.158733439336027,-1.6967805038825463,-0.9005518374968373,-0.5294545658047263,2.8484351203789604,2,left
4.928999999999999,0.8807954119501815,0.3052799550666,0.08028658157386577,-10.879478098372813,12.173302494604702,-1.6986002628832513,-0.9024925459061646,-0.5261757864059355,2.860331601032283,2,left
4.934,0.813981234663245,0.29800738683556316,0.09767721318952749,-10.839901141310524,12.146653405257215,-1.6963890412734397,-0.8989277386018805,-0.5312869986260174,2.8380975132205957,2,left
4.935,0.7460554450976846,0.2886766879244268,0.11762647215923003,-10.882873221956123,12.175979088734854,-1.6986527175180481,-0.9034889870223377,-0.5251539336323965,2.8667209771281263,2,left
4.938,0.688489243197404,0.27885447932479046,0.13890917190104324,-10.856808063003593,12.15758581323919,-1.6974924455094191,-0.899689684221558,-0.5300906005351222,2.8427977864250953,2,left
4.94,0.6462925654794147,0.26212259578799035,0.16516812840075368,-10.84045948213536,12.148900258410933,-1.6957598680363777,-0.8997814311528907,-0.5301152179631092,2.8434590567652505,2,left
4.9430000000000005,0.6230956621228583,0.23734164667149035,0.19212667182930337,-10.922028151576367,12.198654208768378,-1.7021443249012913,-0.9070495967175174,-0.5204093663494904,2.889058548237111,2,left
4.944,0.618529122511621,0.21073384563112474,0.2103059059292111,-10.768948021022071,12.104259676127407,-1.690519791911011,-0.889206543454717,-0.5439816830216244,2.7769594542267213,2,left
4.949,0.622783151185423,0.16409575206810872,0.21423593559438378,-10.965919189389878,12.225951978827558,-1.7053989057023928,-0.9187777376105392,-0.505032688901087,2.9628263156679835,2,left
4.95,0.6288924835856853,0.13056892962768024,0.2112584504918661,-10.80130857080873,12.124149600767133,-1.6929949078923334,-0.8797846010861978,-0.5563409240540935,2.7176802416586603,2,left
4.953,0.6296176875198436,0.12188370669577382,0.20884884930134273,-10.806405646354065,12.12767736645389,-1.6932593525104407,-0.7160105052390763,-0.7716667569134373,1.6884091376199395,2,left
4.954,0.6236511936644076,0.08540367952918387,0.1996920434241221,-11.118190699914628,12.319292567301764,-1.717149073786866,-0.67703340885086,-0.8229407882109706,1.4432954469467378,2,left
4.954,0.6149521033377561,0.039172178672621585,0.18418889243615252,-10.351094487557715,11.847383935266608,-1.6585111840151452,-0.7065858236748815,-0.7840713015209401,1.6291350105177111,2,left
4.958,0.5960315562390246,-0.004253229013239929,0.16567862672693387,-11.62318636074042,12.630113463370716,-1.7557197730308416,-0.6887412172324336,-0.8075071526088973,1.5169951799640882,2,left
4.959,0.5809603806411197,-0.0370112759455419,0.15254270375334156,-9.945265423176828,11.597611787843164,-1.627495763242215,-0.6960565434763024,-0.7979889018640766,1.562767401868266,2,left
4.9639999999999995,0.5749811962369558,-0.04409083519383365,0.14994213216023078,-2.903227948242586,7.265109150194605,-1.0892130673195806,-0.6960398669870973,-0.7978172045643823,1.5630947729621076,2,left
4.9639999999999995,0.5580860214571557,-0.07320589249531734,0.14489177961208882,-1.225321137603736,6.232520675198043,-0.9609584281443132,-0.6924015864607588,-0.8028693595257415,1.5396201022062133,2,left
4.965,0.5430087196250057,-0.11429089979073623,0.1458225804180461,-2.4974296918138803,7.015431252323319,-1.0582102436027476,-0.6967955393327272,-0.7968286159509723,1.5678346843375994,2,left
4.968,0.5402769245521122,-0.14122406478609606,0.16087187398023128,-1.7302144441131342,6.543249694341746,-0.9995492276770344,-0.6933158239760597,-0.8015150212527774,1.5457069238164376,2,left
4.968999999999999,0.551008091325373,-0.1722128112168254,0.17732898529922364,-2.042283615189621,6.735189678557335,-1.023402684351609,-0.6953704514729189,-0.7990439934351234,1.5581160307644462,2,left
4.975,0.5796087309086766,-0.20014648436687354,0.1918839580030784,-2.0469253157602734,6.738443722536508,-1.0237943671772092,-0.694482436362463,-0.7994770763395866,1.5541601757840406,2,left
4.975,0.6147222732504684,-0.22457752639611706,0.19623995436364183,-1.8828427612401708,6.6366934621492755,-1.0111685359365157,-0.6947504478625095,-0.8003874332578665,1.55304632466241,2,left
4.978,0.6543333205557986,-0.24762663903920093,0.18334008242820676,-2.0794440473965494,6.758759010817744,-1.0263177660698894,-0.6946776253083233,-0.7989347991585207,1.556020840252418,2,left
4.979,0.6931553428159605,-0.2630120350184614,0.16110125946272402,-1.9262338870472595,6.663413907793851,-1.0144852844422836,-0.694611683824744,-0.8002551980738988,1.5528711635145518,2,left
4.982,0.7228813691787384,-0.2742137612760609,0.13214695546536537,-2.00878758012735,6.714666679482203,-1.0208484029691405,-0.695170875214374,-0.7995320636502619,1.5563610454030945,2,left
4.9830000000000005,0.7501414911864286,-0.2830146558719828,0.09719351048052738,-1.9904140622405546,6.7042827076780265,-1.0195468694490186,-0.6935226709442854,-0.7994072970714403,1.5510768040716174,2,left
4.987,0.7771375633537064,-0.2855625670014639,0.061287850440927175,-1.9671862786918526,6.687039414329189,-1.0174382402772433,-0.696737758542183,-0.800415895606396,1.5596876547981937,2,left
4.988,0.8019957311406842,-0.2794245824971613,0.026615988154825774,-2.007368066578233,6.7168398336688,-1.0210841255244576,-0.6920737435072137,-0.7987383085483393,1.547672210489932,2,left
4.993,0.8281570588881382,-0.2679124032900352,-0.006225908654122305,-1.96898238550034,6.686995553083572,-1.0174448668127374,-0.6970207392216479,-0.8005583701834539,1.5603256499379845,2,left
4.994,0.8573852094093224,-0.2500741961344737,-0.03953005226452849,-1.9950862530626516,6.708018763126487,-1.0200023543227352,-0.6942017535529539,-0.7994567072957586,1.5532596909431384,2,left
4.998,0.8843262972080685,-0.22635535957544808,-0.0727683494444507,-1.9847139288612936,6.70168111249278,-1.0192145671685748,-0.6915776839003929,-0.7987566467791323,1.5459563327026582,2,left
4.999,0.9099422674208544,-0.20364731930128496,-0.10128656244729417,-1.9804007045722152,6.689821611069993,-1.0178416180228258,-0.7027434073179913,-0.8022275743138831,1.575933135407511,2,left
5.002,0.9377596949958698,-0.18028205920073326,-0.12726392035593206,-1.9959726931700685,6.720439874081821,-1.0214159215123773,-0.6820948164231208,-0.7957187349512929,1.5207011463628057,2,left
5.003,0.9613553374552793,-0.15100222425289866,-0.1511378183010419,-1.9740711749563418,6.675580647386318,-1.0161854759055438,-0.7085943509882474,-0.8040905015036284,1.591538470528581,2,left
5.006,0.9792967340928984,-0.1224337647867787,-0.16995972777810764,-1.995656121869074,6.7223176822334825,-1.0216262046356426,-0.6864785804927174,-0.7970984314293801,1.5324368976413179,2,left
5.007,0.9952011188290979,-0.09586825450126094,-0.18226503082258694,-1.9831655841421705,6.695299906955023,-1.0184817119984801,-0.6870523070010288,-0.7973047075749817,1.5339017342190289,2,left
5.013,1.0069474365918754,-0.06819070407513808,-0.18670366140765887,-1.9763064146597942,6.674419756310361,-1.0160679117553724,-0.7292997271948154,-0.8105733750351934,1.647029694789261,2,left
5.013999999999999,1.017558916113692,-0.043596319067915834,-0.18817948989880873,-2.011384319543197,6.768924889195738,-1.0270145544843192,-0.6254943336203937,-0.7779481613345804,1.3691426590008837,2,left
5.018,1.0281487408470653,-0.0148587299231954,-0.18686062085238658,-1.9460804173704505,6.593504743906023,-1.0066963614846445,-0.7975946192002055,-0.8320363439609835,1.8298383491214387,2,left
5.018,1.0309226238830589,0.006482315283451235,-0.18281743971081793,-2.029609812915996,6.818558362894612,-1.0327594089098588,-0.5706035059443678,-0.7607075797735521,1.2222020100352982,2,left
5.021,1.0327758254674908,0.011578060533563965,-0.18149239582728854,-1.9600224838552427,6.630755158725229,-1.0110145699644901,0.3823067253478101,-0.4611842009320295,-1.328705276108502,2,left
5.022,1.0317058713746774,0.028543851237760803,-0.1755644888320294,-1.9623185305954451,6.636111010730237,-1.0116283717831691,0.6092874961712098,-0.3898818403023607,-1.9363311226191051,2,left
5.022,1.020374812262818,0.05234641812378915,-0.16563410069505663,-2.093250095758148,6.993086336694717,-1.0529724548333184,0.4371984016997036,-0.4439414580105179,-1.4756467870294903,2,left
5.027,1.0045733616672832,0.06932783791087199,-0.15854902710413626,-1.7711225227084393,6.115455283298061,-0.9513419441718578,0.5410080466089895,-0.41130537231908537,-1.7535381324728978,2,left
5.0280000000000005,0.973341467775587,0.08796093852176165,-0.14673099754736335,-2.3051958150586196,7.5706140948754435,-1.1198395712450337,0.49872351799620124,-0.4246688135257227,-1.6403725317773026,2,left
5.031000000000001,0.948382178144775,0.09739502341081083,-0.13741617959509667,-1.600856109316717,5.651310535955446,-0.8976059298535772,0.49822964110640233,-0.4246711818688928,-1.6389886936202058,2,left
5.032,0.9401746587961495,0.09890737001777275,-0.13461093915256336,1.3544006103250064,-2.4036394025516374,0.035308859761035344,0.5202309185115164,-0.4179714662994693,-1.697974122449664,2,left
5.032,0.9071384398784927,0.10353193123980181,-0.12126747937203684,2.0585742821083244,-4.322819693806148,0.2575364957485258,0.4938454013409031,-0.42605211865617276,-1.6272524644675341,2,left
5.037,0.8618419402002353,0.10704322509711241,-0.09998308125929534,1.5247835532054546,-2.8679304402896353,0.0890301716962665,0.5144447843828246,-0.4196688713342379,-1.6824345253778255,2,left
5.038,0.8229422201222826,0.10934771340785761,-0.08022991640135206,1.8466148835841587,-3.7451298274542184,0.19071697266547416,0.5031811792953808,-0.4233898243107863,-1.6523584455857776,2,left
5.04,0.7793086966604393,0.11015718068849653,-0.059225049430671695,1.7158390262512635,-3.3887066017626455,0.1492403834633473,0.5061205980742307,-0.42188443599375913,-1.6599816830919698,2,left
5.041,0.7370665545663195,0.11136638944349345,-0.03758625869357114,1.7137100628002921,-3.382827220584125,0.14883756220317657,0.5083961984445536,-0.4221703447382785,-1.6664964312460364,2,left
5.047,0.6955077194746893,0.11573800580145772,-0.017225443503641753,1.7826558249766904,-3.5708491401668163,0.17033924081964458,0.5041160998170938,-0.4222875526895371,-1.6545195139241193,2,left
5.047,0.6559968729486859,0.1195183854284515,0.00016154118618505985,1.7002674559461104,-3.346242154737982,0.14444420713943829,0.508248391935566,-0.4219674958892353,-1.6659955302332672,2,left
5.05,0.6208343505439948,0.12542857065120777,0.01237327436347803,1.7641464957964903,-3.5202357445481205,0.16482754600643745,0.5050286586518022,-0.42298834650605177,-1.6573800376812273,2,left
5.051,0.58698765646578,0.1337802997117316,0.019324133080038393,1.7302376250327436,-3.4281901906089356,0.1534194772588423,0.5076633873019349,-0.4203440081966104,-1.6636649357522968,2,left
5.055,0.5561167002953732,0.14170587639130316,0.02204525645921096,1.7370276337836845,-3.446038456288574,0.15677402170323118,0.5048494911424178,-0.42537865370722316,-1.6578879201348482,2,left
5.056,0.5272115152720636,0.15423256441976946,0.024419997298247682,1.7475389811594977,-3.4755036917971305,0.15860736592389685,0.5082792211020323,-0.4181096032199115,-1.664449870239105,2,left
5.06,0.5014374234825265,0.17100494081847284,0.02866823310011067,1.7306110087414006,-3.428711592233837,0.1544466785843734,0.5047659989042421,-0.4258132560015265,-1.657837492855968,2,left
5.06,0.47914167752867515,0.18738697620861428,0.031423026175641106,1.7454719530474618,-3.4692098332006087,0.15914837271902865,0.5065702632421336,-0.4214336335885189,-1.6610537850140275,2,left
5.065,0.4580488821862531,0.20636693868847295,0.034458720715546794,1.7374969346460858,-3.448693156404724,0.15443695510659972,0.5092438447821086,-0.41730491368753775,-1.6668204984632222,2,left
5.065,0.4421851111615769,0.2269632332715431,0.04112517053360783,1.7373053755554735,-3.445381700539869,0.15938967770414336,0.4993730684485977,-0.4347949146615957,-1.6464830639646912,2,left
5.07,0.4311522841558504,0.24461572369223072,0.04681188095597391,1.7440764416620747,-3.4679994793192512,0.15404893599240496,0.5173485999661658,-0.4024649089058562,-1.6833152825703181,2,left
5.07,0.4184814477307065,0.26396611042700546,0.04942550261041773,1.7344855094722598,-3.437420468995053,0.15899259981135416,0.4943406279161099,-0.4439534880703738,-1.6362182002091372,2,left
5.074,0.410628395906695,0.28694287975226507,0.05377098503235945,1.741618401443283,-3.4594255906144653,0.1566393393173378,0.5135198129990944,-0.40932818994573394,-1.675458707654632,2,left
5.074,0.40820615250186676,0.3112116805555272,0.0657890872940719,1.7428190987111505,-3.46491125184511,0.15304629186969768,0.5131135673100146,-0.41022465640558214,-1.674700593101342,2,left
5.079,0.4024823420813761,0.3377931051893799,0.08560128698142419,1.7284362426663256,-3.416029617643085,0.16588423655496265,0.4761702845540783,-0.47637758011371845,-1.5988754806850318,2,left
5.08,0.3965542473895758,0.3618395173406161,0.10285998520984366,1.7572657124731195,-3.51255636046369,0.1427591658516736,0.5668415050899107,-0.3138338319656433,-1.7848902071549526,2,left
5.084,0.388304453466457,0.37639239830794036,0.10752752071584615,1.719470386748112,-3.3864958682826067,0.1722053735733417,0.41653546809409886,-0.5833202186083244,-1.476555373220135,2,left
5.085,0.38150173381140184,0.38249963255848085,0.10332477695434689,1.7513517575458526,-3.492628148067271,0.1477289444434721,0.6147901449768154,-0.2278784073660581,-1.8832486589832111,2,left
5.092,0.3812189514407238,0.382296295884609,0.10068989989709434,1.7499836012413723,-3.488385934278664,0.14822471202361076,1.4471020856917471,1.2641829322799716,-3.5907331546806143,2,left
5.093,0.3774434053769016,0.3783240391497555,0.09822840276696201,1.6905365582791423,-3.2896591376711166,0.19533775748067997,1.6453829570115097,1.6196078889964964,-3.9974871569128907,2,left
5.093,0.37369895568253636,0.3719013750325788,0.0961491738636388,1.8373801727382664,-3.7800796530620975,0.07978519441664379,1.4950430670885808,1.3501500785570006,-3.689076400668018,2,left
5.093999999999999,0.37001546273993435,0.35751216401832847,0.10658048232579367,1.5936320642745425,-2.966203845111092,0.2712777007397343,1.5857230333169046,1.5126641352374963,-3.875102381330099,2,left
5.095,0.3635764543531774,0.3454241931000424,0.11853339663372717,1.9152331929419537,-4.039956576566945,0.018744912153230125,1.548833507589968,1.446526232548904,-3.799420463660691,2,left
5.099,0.36107747568027887,0.34345881947284285,0.12379037927955903,3.264766415287637,-8.546052394792975,-1.0414546963013924,1.5482847060466052,1.445647892354411,-3.79830433671383,2,left
5.099,0.3549728653245284,0.33367376445902963,0.13894467458502177,3.5863816222340565,-9.619807351120912,-1.2939482538566414,1.5676898171061062,1.4802068122074634,-3.838098121775559,2,left
5.099,0.34575667239998076,0.3174570071081795,0.15909723297259953,3.34256110481806,-8.805790673207822,-1.1025329817090008,1.5444299757245874,1.4388347841922917,-3.7904001732682584,2,left
5.104,0.3384485723943958,0.30637401471653536,0.17688275155929445,3.48960144923211,-9.296700712101785,-1.2179784654674386,1.5625641285542105,1.4710208070629738,-3.8275843539228003,2,left
5.104,0.32644998792610824,0.29536513307458956,0.1920037841233832,3.4297874104670454,-9.096970812088422,-1.1709786596385743,1.5527945462258057,1.4536466239637111,-3.807549278554708,2,left
5.11,0.3125474604368122,0.28503302481138704,0.1999210449630015,3.428929962998416,-9.09421143595215,-1.1704089545033793,1.5549441725449569,1.4577736666638463,-3.811974545800158,2,left
5.11,0.29949341948107233,0.27895866457950547,0.20617517568782073,3.4603023941733895,-9.198758409599044,-1.1948555198769748,1.5577636103952006,1.4619453648879752,-3.8177107829541375,2,left
5.114,0.2860928110010863,0.27671889313949094,0.2130557048055483,3.4227349279082233,-9.073601071063647,-1.1656087752298177,1.5528852065379029,1.4547207065052457,-3.8077843571875687,2,left
5.115,0.2753088499767369,0.2775806476859774,0.22158475287624946,3.4519840567079365,-9.17099244827562,-1.188332600278643,1.5575815064155374,1.4612736185566169,-3.817319140009379,2,left
5.119,0.26630703957118285,0.2829978309627401,0.22992706110523883,3.436211997567118,-9.118445018895631,-1.1760496421044406,1.5543688152327653,1.4570018895615058,-3.810807483762986,2,left
5.119,0.25844680859128416,0.29407626458309327,0.2361997319227409,3.439834358192895,-9.130766833056214,-1.1791043362200953,1.5555937084007443,1.459210692698956,-3.8133213607000616,2,left
5.122999999999999,0.2537346026425314,0.3070912935649333,0.2445968637372854,3.4439603586066534,-9.143815997990183,-1.1816759464975028,1.5563400494310262,1.4577892230321685,-3.8147050510744984,2,left
5.124,0.2518576986418406,0.32258589172808017,0.2510768709045166,3.4368215342991855,-9.12122978716623,-1.177217465052435,1.5539587201184077,1.4598266672968432,-3.810156066089314,2,left
5.13,0.25295619757074606,0.3430062231194355,0.2520481029225271,3.4434875803297076,-9.141955677157464,-1.1810463275152852,1.557354243486658,1.456505581320521,-3.816620711368268,2,left
5.131,0.2575487166557406,0.3639292718068734,0.24606972704325142,3.439035779235776,-9.128311131716647,-1.1786700138628492,1.553942918019516,1.4604195620213651,-3.8101562693320203,2,left
5.1339999999999995,0.26560282655420886,0.3835098040887257,0.2298375423375772,3.4410283948891864,-9.134976357283538,-1.1802457313936074,1.555915946253085,1.4581614719345097,-3.813896188289264,2,left
5.1339999999999995,0.2765094990755101,0.4065589172082838,0.20514571904913387,3.4408321808875098,-9.13205639334825,-1.1780126927541539,1.55715574359488,1.4553888868800111,-3.816172094347327,2,left
5.138,0.28870209780703804,0.4304926755566906,0.1755762896847089,3.440185979987632,-9.135071990128413,-1.1822543499457492,1.5511337171252313,1.4664551844737026,-3.8049840087338604,2,left
5.138999999999999,0.30096474988973265,0.4521263276704035,0.14599754047534272,3.4408946491204246,-9.129722701234556,-1.1757273048960153,1.5623305785496993,1.4459842522820399,-3.825793836213818,2,left
5.143,0.31249769359300306,0.47544579109587015,0.12032438556886099,3.4404776152911767,-9.13655286711325,-1.182949837106177,1.5479923819183579,1.4723403476618062,-3.799151213998148,2,left
5.144,0.3234930724709095,0.496177672206099,0.095479548544788,3.440721293451879,-9.132619037875358,-1.178780508250743,1.55994394108788,1.4503030044789345,-3.821358563616998,2,left
5.151,0.33508914396832534,0.5168029284771426,0.07086816803439272,3.4401849659360995,-9.126724870944408,-1.1745951342948904,1.55957478607711,1.4508187841246896,-3.8206564560482787,2,left
5.152,0.34731948376583144,0.5388649214190578,0.05043475980730319,3.4415681863344236,-9.149278549824455,-1.1921442990680264,1.5369857021707223,1.4931954332436805,-3.7787400500230985,2,left
5.153,0.35893068603239,0.5567773570683692,0.033737710888133966,3.43904885183891,-9.107615371480357,-1.159639779005365,1.5925380171463512,1.3890923501179167,-3.8818434752261908,2,left
5.154,0.37019727618291604,0.5801708901331899,0.022369952265889094,3.442348248263741,-9.161318501246399,-1.2014233209559384,1.5004371797546918,1.5617148098095872,-3.71089900697185,2,left
5.159,0.376462176153611,0.5948879322291751,0.01738464541493249,3.439562088625941,-9.11639277498966,-1.1665219241753388,1.6219028248598155,1.3339989147802513,-3.9363505550019235,2,left
5.16,0.37865386295544845,0.5995818105935358,0.01627815096402302,3.439566457163444,-9.117339096995892,-1.1673959282732298,2.1317021996640206,0.3781099899032029,-4.882360306326785,2,left
5.1610000000000005,0.38772516700600757,0.6191923283786546,0.018530046332622133,3.445196643074489,-9.20414139804976,-1.2342308179384731,2.253151541748543,0.15036635775072424,-5.10777052835857,2,left
5.162999999999999,0.4015023237129042,0.6410768011086789,0.023435170347840234,3.431402345826627,-8.991004620860044,-1.070023499579288,2.1610690658085843,0.3230149528861691,-4.936899471030523,2,left
5.164,0.41472336112491825,0.6662317987562592,0.03285394514570099,3.4542914780794898,-9.344403898270858,-1.3422776889083305,2.2166255297860835,0.21893700641853586,-5.039918249475564,2,left
5.169,0.4219349567453816,0.6873989472069431,0.041282837975679304,3.4240699602475813,-8.878219128460472,-0.9831744997341404,2.193983212946185,0.26118581867805574,-4.998063094801118,2,left
5.169,0.42393468118466426,0.6917585235933563,0.04380718352746957,3.297143890618753,-6.920601129843274,0.5244754460229224,2.193732121066196,0.26195775608643634,-4.9973692007552515,2,left
5.17,0.4330592606680318,0.7116974456139818,0.04995638728809279,3.2668746028615345,-6.45434035156185,0.8835781654184225,2.2055115776987266,0.23956826351975352,-5.0194526830940145,2,left
5.172000000000001,0.4406911003592684,0.7406696696202566,0.05930190194870698,3.289830025013214,-6.807870613166717,0.611313021416861,2.1913482891400005,0.26625613329192954,-4.993073423488658,2,left
5.172999999999999,0.4400690976186241,0.7624314297015944,0.06673261822761495,3.2760036501638807,-6.594592446586917,0.7755611350553603,2.2024631214072707,0.24567712142411646,-5.013509599914121,2,left
5.178,0.4381675128368132,0.7897252474333507,0.0757987837588391,3.281569051250874,-6.6814779298338784,0.7086408548155017,2.1963060232191403,0.25637771614089,-5.0026945161195755,2,left
5.178,0.43116165118039584,0.817671543129248,0.08697872891061154,3.281784065837827,-6.682483086030848,0.707894658681308,2.198006917335995,0.25464410128111625,-5.004799602169946,2,left
5.182,0.4192249776939563,0.845555673244641,0.09923510654300184,3.278638834402293,-6.637282602848105,0.7426575769556094,2.199170734822375,0.2506748329354756,-5.0082487592357925,2,left
5.183,0.40481335201072677,0.8741721948867363,0.11247674512334906,3.282367053701806,-6.691497174334888,0.7009560030096313,2.19676807990934,0.25660481903386945,-5.002762420309832,2,left
5.188,0.385387275648073,0.8997598985398392,0.12855726345080115,3.2795303511765557,-6.649171631254559,0.7335290168903603,2.1993363206391106,0.25180228687161615,-5.00751929636381,2,left
5.189,0.3622965876620916,0.9249081290036696,0.1485925256193798,3.28085029111201,-6.672303929585665,0.7156701322853126,2.197000588135622,0.2535363839722681,-5.005091128800603,2,left
5.192,0.33701733138931567,0.9483944543279705,0.16945226495312302,3.2810424043827124,-6.6662967372535045,0.7204414873642311,2.199161135101213,0.25553073937316895,-5.004744080252208,2,left
5.193,0.3073898877565756,0.9704430073898668,0.18832220830524588,3.279733180459561,-6.661563839134257,0.7238348397882777,2.1970570335924338,0.2504574528785849,-5.007338410209844,2,left
5.197,0.2743670917255687,0.99417075443722,0.2056758631301853,3.281538084315928,-6.670429788102707,0.717316514919172,2.1988903654093033,0.25663340723762884,-5.003812550290424,2,left
5.1979999999999995,0.2413079132391738,1.0166755665652079,0.22255148651342127,3.2800031848434603,-6.661881707238364,0.7236526701880653,2.1981061219029048,0.2525502263135889,-5.006360278690274,2,left
5.202000000000001,0.20381048498303733,1.0370195289620998,0.23540972964105863,3.280423598765587,-6.668495410883938,0.718556521385131,2.1965748422591975,0.2506306187754257,-5.0069691241874805,2,left
5.202999999999999,0.16165367921547102,1.0601094455210327,0.2407242744926592,3.281898558921903,-6.663193391040476,0.7230998010561901,2.2016982229186954,0.26198387601794837,-5.001375279169496,2,left
5.207999999999999,0.12278999835180647,1.0859079848568878,0.23975543170805586,3.2781002362277274,-6.668721586318562,0.7177918801834167,2.1925703613096745,0.2402317434283294,-5.012442414618022,2,left
5.209,0.08731041881287735,1.1139367899689767,0.23214586203412946,3.2838691539712146,-6.662051916916573,0.7244947813931886,2.204155455504663,0.2684137579807482,-4.997979971606785,2,left
5.212000000000001,0.0542689801024837,1.1431480388278994,0.21388227282481304,3.27770021010668,-6.668869355690228,0.7175757992391517,2.194542410430808,0.24478008743273227,-5.010163335899403,2,left
5.212999999999999,0.01984366442294208,1.177072005340429,0.187350046068937,3.2812948261465404,-6.665391640879934,0.721216110608044,2.1947103827460506,0.24558276443538074,-5.009661610122331,2,left
5.2170000000000005,-0.013975212434504832,1.2149991784426484,0.15954760618500122,3.284244086014814,-6.660103630046933,0.7261246883067127,2.2132845408591777,0.29021367281625554,-4.986885230161656,2,left
5.218,-0.04004424442627524,1.2501631060550105,0.13366561266732985,3.2710920718593073,-6.67950188132545,0.7075406066391616,2.1677677352118714,0.18028104315425694,-5.043121209033838,2,left
5.221,-0.06638998604485241,1.300682820486701,0.1159445913017208,3.29552689798241,-6.644199009749299,0.7414818704230404,2.2431814916437762,0.3626426207178236,-4.949775710535409,2,left
5.222,-0.08210739438562606,1.3424524381285834,0.10939048451514688,3.264141265057775,-6.689385320170025,0.6980169693449076,2.1437360012751565,0.12207727739776403,-5.072945406363201,2,left
5.226,-0.08619779392306917,1.3512417010152702,0.10888096449792975,3.2903479321048366,-6.651710802904535,0.7342562169516789,1.726159857037721,-0.8875773176479977,-5.58964611124844,2,left
5.228,-0.09460567032652492,1.3974551074272847,0.1068577022831714,3.2896223409650025,-6.65252359836463,0.7334573294356416,1.6267299368166666,-1.1281467798432976,-5.71284726136194,2,left
5.228,-0.09559993008296107,1.4705568603047066,0.10322442565750552,3.2397041245379388,-6.725064946866359,0.6637591003799332,1.702116744295946,-0.9457617986812188,-5.619448976244918,2,left
5.231,-0.0839571339126925,1.5271147321628797,0.0992593838087734,3.362416830756906,-6.546988475299965,0.834854655938607,1.6566293169803163,-1.0557598450951042,-5.675738443081066,2,left
5.231,-0.05099162372304648,1.6145226386030993,0.07980750978259193,3.1589477542769506,-6.842214266745573,0.5512253034073292,1.675185579468765,-1.0110053616861563,-5.6529379943110225,2,left
5.236000000000001,-0.020269189132589453,1.676602399662351,0.06101098261647145,3.4273236229867923,-6.452789227756169,0.9253270292458172,1.6753427704288022,-1.0103761410707768,-5.652396561989766,2,left
5.237,-0.009950731389137477,1.6918175055364986,0.05474220420775194,4.553777070242942,-4.818717949548687,2.4958657373261715,1.6657846425510234,-1.033835111476797,-5.664710108151191,2,left
5.2379999999999995,0.032369324018860654,1.7558234503607721,0.020822454217242783,4.822149821992317,-4.429294608399747,2.869990442055215,1.6772657628899497,-1.0057346276582062,-5.650026534308697,2,left
5.242000000000001,0.10101785136217342,1.8277682327087135,-0.03130495674594054,4.6186880873390646,-4.72440815555585,2.586337378917495,1.668274289492901,-1.0276232276975537,-5.661358989561018,2,left
5.242999999999999,0.16720488474495185,1.8616552718996262,-0.07147397991788956,4.741388016166152,-4.546722051045029,2.757419401762726,1.673276057616418,-1.0158044452327775,-5.65556352888496,2,left
5.247000000000001,0.24001479810532927,1.886816370235413,-0.10416847275591327,4.691487599408617,-4.618463272983835,2.6878120463437485,1.6717737040602938,-1.0185432034879551,-5.656148299665718,2,left
5.247999999999999,0.30737340089134085,1.8856102582009315,-0.12216164406812191,4.690743074448648,-4.62045903840251,2.6868232480155037,1.6711456016368997,-1.0216012518101496,-5.659119890441941,2,left
5.251,0.3619068350087259,1.8548219169040205,-0.13711658233790291,4.7169613854008325,-4.581519593656474,2.723330293531488,1.6725685423250836,-1.0162731168580512,-5.654667730891074,2,left
5.252000000000001,0.39837886813704126,1.8030499745644222,-0.1609314473217902,4.685583522675856,-4.627426885497974,2.6796043371160168,1.6711184926523157,-1.0212834895469716,-5.658607342749011,2,left
5.255,0.4103862437827267,1.729098465720557,-0.16803135250900597,4.709979035901151,-4.592813123604007,2.7136478136979516,1.6725322848693485,-1.0178771781630798,-5.656875203520487,2,left
5.256,0.395978629671076,1.6455670666847384,-0.14269911392590745,4.696903210149546,-4.60928756388572,2.695311931299859,1.6707095520237165,-1.0194981748805538,-5.6551560429332985,2,left
5.261,0.35488960283086524,1.5595639971409394,-0.08727296330706341,4.699749598199927,-4.60945299980926,2.69946232830629,1.673469893698175,-1.0191921404122377,-5.660825586261801,2,left
5.2620000000000005,0.295972637258072,1.4729723323745838,-0.0057867169376615984,4.703440536621894,-4.598829764924262,2.70438554813507,1.6696884361652307,-1.0188349575177735,-5.651950121094522,2,left
5.265,0.22314855498859157,1.3906753300117671,0.08964582109997372,4.697239334309295,-4.612025835429009,2.695917040954615,1.6736570352037847,-1.019367040992325,-5.661490338544953,2,left
5.266,0.14077413105123965,1.3154206006052869,0.19271521459647736,4.702905543849074,-4.603842872768295,2.7038180563368055,1.6714625961809952,-1.0188205710328153,-5.655853233872284,2,left
5.27,0.05366579021449866,1.2479451661080745,0.29254768238518114,4.699401995158559,-4.601133248366036,2.6986065587159977,1.669081856205043,-1.0195342856965386,-5.651608083178038,2,left
5.272,-0.031281735605705956,1.1864766247683045,0.3792256090148495,4.700389117309308,-4.617509627819048,2.700729717248257,1.6787010701260345,-1.0183494948038028,-5.671195392210749,2,left
5.275,-0.10353287786048644,1.1298270335563991,0.45373797921410153,4.701388302137564,-4.589492156511863,2.701008886807891,1.6610059651529572,-1.020197348554974,-5.634685081402228,2,left
5.276,-0.15868177133011074,1.0857579859306181,0.4943666523565567,4.699419102241172,-4.620672242482939,2.699450385172594,1.6836958683937893,-1.0179022511277964,-5.681612365743786,2,left
5.281000000000001,-0.1975491270828434,1.0487016023327285,0.5018585782801339,4.701162482424339,-4.601775480134794,2.7011958494141792,1.6647648605293577,-1.0197878642696134,-5.642410102944006,2,left
5.282,-0.22125921849694508,1.026496631954935,0.4619064154890112,4.700782552562945,-4.58822490255308,2.7000736328759247,1.665230243034396,-1.01985579585681,-5.643553662306558,2,left
5.285,-0.23246179542483822,1.024075381752287,0.3712536263275521,4.698972680019784,-4.652582272578764,2.7001392945409215,1.7014852659828414,-1.015867121442743,-5.718052126340353,2,left
5.2860000000000005,-0.23505106715927626,1.0276581656276067,0.26265582863554354,4.703148335045208,-4.532035855884174,2.7011615111566933,1.6124271136819477,-1.0255334706222201,-5.5348287756508165,2,left
5.291,-0.22581238518166302,1.066279651169038,0.09455656888787037,4.697493113234673,-4.687255631170971,2.699437956748531,1.7600801363738536,-1.00953798723969,-5.838674171477043,2,left
5.292000000000001,-0.21889759038528528,1.1029243998088516,-0.031077587181465218,4.702335522492698,-4.557485145545011,2.701048361051025,1.5653211001835077,-1.0306390062178614,-5.437863943489763,2,left
5.296,-0.21601208773102054,1.1158071391131723,-0.06358662092285365,4.702020728931766,-4.561285970125262,2.700742758363659,0.7477857115124742,-1.119352018843677,-3.7557612792502337,2,left
5.296,-0.19694385159124442,1.1718675769769995,-0.18389632652246976,4.6932786509098,-4.807967544726195,2.6983710054529513,0.5530029278005515,-1.1404834673552102,-3.3548592581764662,2,left
5.297000000000001,-0.16811806794591982,1.2475829875510067,-0.33984922076090596,4.715025475086332,-4.201231902545617,2.7045750238226667,0.7006899633396506,-1.124447933713618,-3.658851987570994,2,left
5.3,-0.12830534655006717,1.3313749125314183,-0.4330253847759903,4.678878459822737,-5.207394545855636,2.6941533679593377,0.6116121148644849,-1.1341270070645075,-3.4754963232862317,2,left
5.301,-0.09901674152580334,1.3945663620509001,-0.4890551567242061,4.726576911304701,-3.8801990500534433,2.707939579675915,0.6478426620677373,-1.1301954941644758,-3.5500160004852352,2,left
5.303999999999999,-0.09025403724418206,1.4081914529403878,-0.49617128817745065,4.926735082292211,1.6903856511689832,2.7656691282192094,0.648401293255569,-1.1301056649988235,-3.551348174031369,2,left
5.305,-0.055358678835615946,1.457615277500305,-0.4910252824646971,4.974395174345467,3.0176364007397316,2.779430715545352,0.6293040909918,-1.132245313657422,-3.511687921753931,2,left
5.306,-0.0064590522242341224,1.514316702084639,-0.4574833632941954,4.938288906320549,2.0113595160138455,2.7690207638279833,0.6522000803135715,-1.1296624749520934,-3.5593055545500953,2,left
5.309,0.03250763267058833,1.5305936472295563,-0.37794540927435016,4.960054190071073,2.618265321843931,2.775287825283584,0.6343406725193879,-1.131699063106401,-3.5220622852909296,2,left
5.31,0.07222927809660429,1.5363395935622788,-0.2831440094616653,4.9511689296199455,2.3713843642678984,2.7727186183099946,0.6439566207354108,-1.130612545738466,-3.5420593729295566,2,left
5.314,0.1054955929381318,1.5108146882439175,-0.16486411767665698,4.951158528274748,2.367746860306926,2.772764992084622,0.6418852119870002,-1.1307536990393958,-3.538218911964492,2,left
5.315,0.1312165758797708,1.460153458256725,-0.036447428618855,4.955567446496047,2.4974958840320527,2.7739290725652475,0.6389881729546643,-1.1313390824375218,-3.5309055469608697,2,left
5.32,0.1463418205648983,1.3973320837847085,0.08262245962136572,4.950340217852758,2.3420317841549974,2.772577097253576,0.6439991109356771,-1.1303278279512272,-3.5435423116576477,2,left
5.321000000000001,0.1504776055588334,1.3180345439753074,0.18527868518390517,4.954338011789659,2.463177020994081,2.773574285545193,0.6391177227709164,-1.1314314618326744,-3.5306459131916634,2,left
5.324,0.14765499292125206,1.2339583696846539,0.2673777901157244,4.952144946417121,2.3978925264871824,2.7730091185355805,0.6424871967207886,-1.1306081977639484,-3.5398520344497215,2,left
5.325,0.13560337184963464,1.1466904199718628,0.33135941074666037,4.952972367111182,2.4124737392157094,2.7733826019487333,0.6412860277389562,-1.1307345058374314,-3.537400815419453,2,left
5.329,0.12211228129551113,1.0628228871509384,0.37970276933466307,4.952650856073841,2.4307049903947275,2.7728554877595855,0.6401562269453773,-1.1317062375221987,-3.530859209271637,2,left
5.329,0.10760453511714346,0.9850465963309715,0.4196821087845173,4.953199247466307,2.399162591578415,2.7737624051103693,0.6434016767342289,-1.1294134958984843,-3.5471734800122636,2,left
5.335,0.09612221782688571,0.9103621978474092,0.4498947221616375,4.952216338167875,2.4292302660427394,2.7725597790280103,0.638714380095543,-1.1328170792753747,-3.5231533254621126,2,left
5.336,0.09538203773530177,0.845949841551056,0.4706361218049152,4.953127479962125,2.4088174670885025,2.7735554513104046,0.6435063767987641,-1.1292111314948707,-3.548337949176819,2,left
5.3389999999999995,0.0999044437246623,0.7876478625716701,0.4903398357885019,4.953437228485578,2.417024364185517,2.7736513496900397,0.6407357062502503,-1.1312945705878064,-3.533782251736671,2,left
5.3389999999999995,0.11480117042866403,0.7318338602481573,0.5009805363936278,4.950492054386775,2.4199981287916263,2.7714416049089037,0.6387999553078416,-1.133042336194404,-3.522167100949914,2,left
5.343999999999999,0.14617351916458135,0.6820404404812699,0.49643109702547755,4.957059784856736,2.4086818558548417,2.776444652802647,0.6478568114533804,-1.1253317043214222,-3.574206102460615,2,left
5.343999999999999,0.19849226107605344,0.6320971742795602,0.4780013043289913,4.9472244333560855,2.4245116065690024,2.768970079991682,0.6310325186110659,-1.1396333985474092,-3.477640409740085,2,left
5.349,0.2730403880185658,0.588399996661238,0.4298705760059072,4.957758840782074,2.409032225338766,2.776952529713047,0.6525971414961009,-1.1212743543056165,-3.6015568614892928,2,left
5.35,0.3687799683246117,0.5504395598988174,0.354622576432321,4.951673249710568,2.417988717248216,2.7723406177451473,0.6346124987625656,-1.1365981003005874,-3.4981421279722547,2,left
5.353,0.4823538765159012,0.5267031970322364,0.2442143326475611,4.946314184746406,2.422625488433444,2.7683323076635356,0.6351436131981076,-1.1361815831588424,-3.5010357412754183,2,left
5.354,0.6012351911450234,0.5218195307330973,0.10183703696496943,4.969619862575111,2.398346571702574,2.7858316881785186,0.669241396965375,-1.1069760069459096,-3.6978167519476077,2,left
5.358,0.7184738459304653,0.5348333227312341,-0.03848896936838852,4.926408200096825,2.4435645452244907,2.753381545308576,0.5854036793578468,-1.1787570317416418,-3.2140859729860347,2,left
5.359,0.8030651943176755,0.6050085344620886,-0.1955933180402173,4.98190156128314,2.3857652872246167,2.7950512247337334,0.724402446520808,-1.0597456657570123,-4.016121447636369,2,left
5.3629999999999995,0.8513643409947631,0.6528320439552794,-0.30170476356416276,4.935571204345798,2.4338929869545707,2.7602628657011907,0.5410789359863799,-1.2167163800309337,-2.9582688148211393,2,left
5.364,0.8551299260895153,0.6654668664679898,-0.3271672258033621,4.936807948219547,2.43228612312898,2.761199337605457,-0.22838383569615212,-1.8756839263725806,1.4818791754794671,2,left
5.364,0.8264456564224636,0.7393591467502372,-0.4077639136864418,5.025213619780624,2.3418536773210423,2.827552274677245,-0.41169185371339945,-2.032656169620688,2.539695976019448,2,left
5.37,0.7713738430087296,0.8358160195472295,-0.5011622382804117,4.807943753376646,2.5643285516236753,2.664471076709087,-0.2727087444815862,-1.9136319399432056,1.737710639448413,2,left
5.371,0.5602217940768404,1.0121737781156774,-0.5144573474753852,5.16817856189183,2.195513093415731,2.934864454560479,-0.3565567474699316,-1.985452039725001,2.2214158907878643,2,left
5.372999999999999,0.3651158666151942,1.1689607913870526,-0.5122084945780224,4.693038428339654,2.6818625311584157,2.578219417763912,-0.3223953012520089,-1.956170096830441,2.0245893074210133,2,left
5.372999999999999,0.30523996430890293,1.213277496875922,-0.5065855108526294,2.698555329192197,4.722694796625545,1.0811787357771654,-0.32199577956471104,-1.9558632089490062,2.021849216506349,2,left
5.374,0.05252829116956412,1.4167144533631997,-0.4583763994193429,2.2234376743809356,5.208837798154047,0.7245403476785603,-0.33979605513913447,-1.9710735487118316,2.124999420187238,2,left
5.379,-0.3327549933960253,1.7395567189607142,-0.37490552583321207,2.5836373458954562,4.840345034424921,0.9949233339466657,-0.318409642140631,-1.9527727486084772,2.0014018619446654,2,left
5.38,-0.6706355830638167,2.038762303374233,-0.27361882870316445,2.3663965417986503,5.062552977477809,0.8318507279116419,-0.33516702895543327,-1.9671508585114432,2.097726929892424,2,left
5.382999999999999,-1.0240544965084046,2.371998377187519,-0.15819991893636698,2.454803902830538,4.972105086438228,0.8982041730054879,-0.3259341355952391,-1.9591562246249608,2.045651510284138,2,left
5.3839999999999995,-1.2994227179978577,2.667752310563391,-0.05180720101907528,2.455984244769076,4.9710160923724604,0.8991239501694073,-0.32839734647432417,-1.961416289446171,2.057792374517651,2,left
5.388,-1.4615423026648844,2.8921338535082044,0.018202443600855753,2.409777003878598,5.018013252910858,0.864372019292418,-0.33028170064680284,-1.9628455560387637,2.0712104587651003,2,left
5.388999999999999,-1.5324257874225058,3.040949761603066,0.026573154583628977,2.465094993703662,4.961824474478231,0.9059898202419661,-0.32655345130069435,-1.9597997088941248,2.0476680049683997,2,left
5.392,-1.4846463331621262,3.1069119597475674,-0.055828726614688476,2.422057004615893,5.005447438121015,0.8735910389793572,-0.3304286479441824,-1.9631194446384332,2.0700116094141263,2,left
5.393,-1.3349214139586563,3.12586049702048,-0.207676500046414,2.445287440897087,4.98185976752802,0.8910681950637622,-0.3270928799483037,-1.959990863841647,2.054527608882632,2,left
5.397,-1.088059351718052,3.088183727464993,-0.3740505068768045,2.4397822579526163,4.987837950647792,0.8870166098832182,-0.32992085990737696,-1.9630343070675595,2.0622422301081755,2,left
5.398,-0.7727407314793213,2.995620196194747,-0.47897460900788297,2.4341689475003676,4.992457828014027,0.8825444622724181,-0.32739074590128375,-1.959940024135155,2.0604782271872697,2,left
5.402,-0.4389999651010858,2.847117674484427,-0.45249232218979824,2.4438896313675897,4.984450807674291,0.8902861643851787,-0.3294699449274231,-1.9627096970008864,2.0587929027290466,2,left
5.404,-0.11002345258658128,2.6356003207870558,-0.32154516282494056,2.435052659412917,4.9911119630780085,0.883106905663243,-0.3286830142040605,-1.9614636852146676,2.062157731869733,2,left
5.4079999999999995,0.18802810530121672,2.3791386611810244,-0.16224358423653487,2.44082459405109,4.987104687249477,0.8878746608425299,-0.32671611176068033,-1.9592880747397172,2.057624212146006,2,left
5.409,0.43832052066580574,2.0950768059392697,-0.004359712609570569,2.437872373265291,4.990141277307957,0.8856626054978398,-0.3329469553847242,-1.9667778405064946,2.0637501457378926,2,left
5.412000000000001,0.6470291917981273,1.8032170000231826,0.16357991604958172,2.439658413174154,4.984793496982954,0.8861955202207255,-0.32195352932463617,-1.9533673774915568,2.0556297981111595,2,left
5.412999999999999,0.8169000333937195,1.5138237698548165,0.349146730543758,2.4371959244233503,4.995359383901125,0.886192930109182,-0.33586706406016753,-1.9704152470522969,2.064889037515941,2,left
5.417000000000001,0.9713300556193931,1.2432993048438699,0.531256187599691,2.4412456554401767,4.9792115660286616,0.8864791445700757,-0.3243371164410056,-1.956253892182462,2.0576521573490734,2,left
5.417999999999999,1.1070983850232121,0.9944816182257727,0.6799183199207832,2.436429469637831,4.996936352020427,0.8857994140300303,-0.324516831394966,-1.9565293110187854,2.0570881304365747,2,left
5.422000000000001,1.2051373757042754,0.7739343508384782,0.7869286479987859,2.439207043903412,4.986700218171935,0.8861882410666593,-0.34685402917823227,-1.983820579857773,2.0729088940199913,2,left
5.422999999999999,1.264630133266051,0.5915273327962416,0.8563615199115228,2.4427077299373057,4.976744606646563,0.8873538488838821,-0.2921437174630214,-1.9168948387082385,2.035122041256393,2,left
5.4270000000000005,1.2413980184123112,0.41158219216020603,0.8934297264642613,2.428818916741176,5.018850428564079,0.8833274055489369,-0.38278301806338855,-2.0278075763317016,2.0973602213654914,2,left
5.428,1.1956025288202732,0.30129810046823247,0.9096864572231165,2.454505116169951,4.940836967546796,0.8907412211312706,-0.2632574313274484,-1.8815270899866372,2.0154180549447966,2,left
5.432,1.1737182078228452,0.27977528320149014,0.9076849627736401,2.421430172254629,5.04110516191248,0.881152460384272,0.2385585132204129,-1.267479493264152,1.6708805741068815,2,left
5.433,1.061984253996172,0.22600461923879425,0.8839073259290038,2.4490863379421732,4.95735077610566,0.8891891015592216,0.35807690577257717,-1.1211781257639597,1.5889623783731284,2,left
5.433,0.8562723169725022,0.20434103957686556,0.7967676979512481,2.4484491698398605,4.959506805224709,0.8890590835910859,0.26746197438330965,-1.2321122638715751,1.6510873550186784,2,left
5.436,0.6296262140706825,0.26546964295823366,0.6463794405452612,2.3952316942151017,5.119694528433953,0.8733612114927204,0.3221164999228006,-1.1651993357966568,1.6135997466908214,2,left
5.437,0.4016711047110193,0.3363788531193002,0.47844917956658717,2.525952507836225,4.726052531294483,0.9118792546318077,0.2998745947502548,-1.1924069632260315,1.628869281506399,2,left
5.441,0.19477798569151225,0.4270149879614283,0.26270560086461725,2.309203733396947,5.378733912927407,0.8480057293700292,0.2995707556571391,-1.1928565348626115,1.629065567308626,2,left
5.442,0.08302427072278565,0.4855023000470236,0.11379847867890372,2.595110045703999,4.517847602908911,0.9322819313560777,0.31121389459133364,-1.1784501319695089,1.6210793931684706,2,left
5.442,0.060438485459913,0.49557382003980305,0.08062858556280396,3.7950056577819975,0.9049109170606363,1.2863994373653336,0.2972685583181933,-1.1957362110182062,1.6306590327270996,2,left
5.446000000000001,0.017977082787254867,0.5305299730634575,-0.03761131533287116,4.080836957799669,0.044209540829155014,1.3707488199555296,0.3081254525766457,-1.1822337424942306,1.6231910203319395,2,left
5.447,0.00849104936992057,0.5532004075194191,-0.19168449085793204,3.864278907373815,0.6964603313646893,1.3067366708477128,0.3022681382635083,-1.1894941331674183,1.6272201363707195,2,left
5.4510000000000005,0.0894278050849425,0.5379472143379012,-0.28498152438798674,3.994642502841231,0.30355869098446286,1.3454351644049298,0.3036274279099045,-1.1880146667433538,1.626307048265628,2,left
5.452000000000001,0.20667328986664502,0.5171862334521906,-0.3821494509725396,3.9419558962289996,0.46272690959502455,1.3295658302935707,0.30512315430608683,-1.1855934787578872,1.6252129670824123,2,left
5.456,0.357138763548754,0.4957158700995924,-0.4573491657155385,3.9407109860146208,0.4659520667956636,1.3295147327959351,0.30253320983160487,-1.18977947800769,1.6271101580143297,2,left
5.457000000000001,0.529684420926009,0.49105549187239117,-0.5251763543495075,3.9688106306890893,0.3815649943069842,1.3376703935752365,0.304933952622096,-1.1855949231629377,1.6253134665903306,2,left
5.46,0.7143861862548341,0.5177978176881779,-0.601173726901661,3.935828523413563,0.4813388137071112,1.3276731114486613,0.3033401643561825,-1.1885387540220018,1.6265270091348556,2,left
5.461,0.9107828699450263,0.5822982817152709,-0.6540037944389026,3.9604822859270876,0.40562650332658756,1.335801708618516,0.30408168155867205,-1.1876403784821772,1.6260192892678034,2,left
5.466,1.0986284512201117,0.6921479358012987,-0.7073046550303909,3.9488002933727504,0.4433462246007187,1.3308852297168494,0.30389530951959404,-1.1860249854088867,1.6259233186686026,2,left
5.4670000000000005,1.2729660189936955,0.8335301832969659,-0.7537298565413094,3.949126294925014,0.43924268030311814,1.332783116862958,0.30391369880390173,-1.1902148145491476,1.6264227479184765,2,left
5.47,1.429923651685216,0.987564016649849,-0.7660761920462031,3.955139984573868,0.42362303577350746,1.3331222354599022,0.3037917706685659,-1.1840803726006004,1.6257422122173997,2,left
5.472,1.5555577788438506,1.1342732507183348,-0.7399633929563186,3.9487259645654142,0.4429613449362717,1.3312160803142135,0.3040472066763483,-1.1904658774561727,1.6263816212178523,2,left
5.475,1.6351921141681638,1.2496819467695786,-0.6707359125827752,3.9505009171479903,0.4329915802840745,1.3344039739673206,0.3039010324100875,-1.1867752083176697,1.6260115574138303,2,left
5.476,1.6581583258006987,1.3236149427974033,-0.5765846022487191,3.9561925518439187,0.42641931043320336,1.3299969927899493,0.3034964230288554,-1.1839328662264101,1.6258822806531592,2,left
5.481,1.610218921315644,1.3477918871060952,-0.482813444059004,3.94343666805704,0.4490690817234009,1.335311248049071,0.3049063546432189,-1.1968099567319852,1.6266927856439823,2,left
5.483,1.4932267385810754,1.3163872244044317,-0.3928785824015667,3.9589122318583274,0.4192669852510524,1.3302021481103017,0.30230971034562704,-1.1729087718338909,1.6251784340997033,2,left
5.485,1.342534548108385,1.2417846474660013,-0.3102994210525277,3.9490142494718747,0.4393722759986348,1.3328687902133072,0.30566687881151045,-1.20356936772949,1.6271060031302942,2,left
5.486000000000001,1.1999755769069709,1.1380189122730267,-0.24629115307584723,3.942492067678168,0.4506302842263331,1.335770657875941,0.3028538181762928,-1.177987331017404,1.6255056765524336,2,left
5.4910000000000005,1.0878688624950885,1.0248466897929487,-0.2062200120080192,3.9752796095208622,0.38853972328428293,1.3243440141615637,0.30290024475678756,-1.1787107841103497,1.6255650917813451,2,left
5.492000000000001,1.0161282290245919,0.9246601745830526,-0.18398954036083937,3.9132401789107294,0.5074223934812897,1.3451617186875673,0.3083901236202745,-1.2273492023635275,1.6285405089119722,2,left
5.495,0.9751718677963581,0.8581739711718299,-0.1748849811385493,3.993445109110344,0.3531182561131205,1.3185996955896726,0.29491972897136826,-1.107784495052166,1.6212201346400648,2,left
5.496,0.936909932306543,0.840341234826143,-0.1809956294183813,3.9262622694885168,0.48263746415871656,1.340696626434701,0.3172557054951467,-1.3060182855619644,1.633350091576578,2,left
5.5,0.9022315764420765,0.8509112250108114,-0.1885811667752353,3.9282573073763687,0.47854377912104606,1.340178723289313,0.28778829901243586,-1.0445649250103342,1.6173617200976147,2,left
5.502000000000001,0.8853377015508447,0.8615996491396264,-0.1905777195137438,4.0560482984535415,0.23265263267446287,1.297885591643991,0.16401419763953182,0.05287214491032613,1.5502331316870088,2,left
5.502000000000001,0.8401170482439209,0.8971315855986246,-0.19825886057210496,3.7416449709222217,0.8380694521875737,1.401687406262508,0.13453755440673212,0.3143008231664652,1.5342621310637627,2,left
5.505,0.7215511229775717,0.9882415939010176,-0.20426661823029849,4.26306854320426,-0.16622088558917647,1.2296645147018723,0.15688894973494932,0.11610037738935221,1.5463695807984554,2,left
5.506,0.6328793109907951,1.0564135944791637,-0.20255369844117244,3.5752804437464785,1.1586393254532348,1.4564986794708927,0.14340313962333687,0.23565172192671122,1.5390552103076889,2,left
5.5089999999999995,0.6050186938902291,1.0759858590215032,-0.20364739683337604,0.6879927498752546,6.720065139763193,2.4088314975391913,0.14889948510690043,0.1869732092652585,1.5420658557334412,2,left
5.51,0.5013096704786122,1.1459598977403649,-0.211402069918114,0.0002935037151538533,8.044932378281867,2.635554731568427,0.1489584643318569,0.18636841723442354,1.5420313591118688,2,left
5.511,0.35327567645114943,1.2375862624670568,-0.22289974057877276,0.5216087249187352,7.040539117135376,2.463714251244366,0.1461062157547522,0.2117543830949229,1.5405801856065167,2,left
5.515,0.2333687385150414,1.294997133511897,-0.23256348158386267,0.20721210922164557,7.646290672592949,2.5673407212541237,0.14952887696254283,0.1813214298118206,1.5423411132947218,2,left
5.516,0.11343481213230226,1.34132071131519,-0.23598150166615295,0.33523277245352706,7.399728689112224,2.5251050682318628,0.1468548176835867,0.20506422779098168,1.5409323070571557,2,left
5.519,0.013351427214639895,1.3617037589524275,-0.22858877546108153,0.33667403425382064,7.396613403275907,2.524767859887389,0.14832178257853212,0.19213029514334865,1.5418083845679378,2,left
5.52,-0.066772055394215,1.3572860785802736,-0.20722264727116513,0.2703329347505342,7.5251020341527735,2.5463620270725182,0.14792831014430743,0.19539423144354323,1.5413345198226114,2,left
5.526,-0.13473639414125835,1.3343021084634832,-0.1791585156030986,0.34964000769197745,7.371359221481466,2.5206050441132635,0.1476523430229397,0.19822310611054197,1.5416338928038265,2,left
5.527,-0.1856293243996434,1.2897372041859347,-0.15020589390296712,0.28809883150094284,7.490862908319721,2.540510127149798,0.14818449400256234,0.19303896012104232,1.5413713680283079,2,left
5.529,-0.23014364100408957,1.2381942818069163,-0.12176037179247409,0.3214018445562825,7.426301486274927,2.529694714704809,0.14766658561124046,0.19800098205409078,1.5415299207431683,2,left
5.529,-0.2655654911782197,1.1804309985924102,-0.09883810800025808,0.3127798976646558,7.442096664467449,2.5328683911133383,0.14808505780172748,0.1942946936611825,1.541760595354475,2,left
5.5360000000000005,-0.296497654483026,1.1227636938410466,-0.0860312908315841,0.3067488489439072,7.456327876958971,2.533794696443696,0.1477077778127272,0.19695275254674108,1.5407410774306438,2,left
5.537000000000001,-0.3288971988251314,1.07408408728848,-0.09148048298385568,0.3172151868462324,7.431668839853049,2.532172125071769,0.14815319305306074,0.1945719022766877,1.5428452191015074,2,left
5.539,-0.36087139616679254,1.0346708813974748,-0.11987321117532168,0.30884493434582505,7.4533082339207315,2.5326891104584517,0.14758860574469554,0.19723915427823635,1.5397602262806243,2,left
5.54,-0.3885046995263014,1.0079987119398472,-0.16328538861392777,0.3136763864743979,7.439606516598222,2.5328838438990795,0.1481717985691067,0.19456045179208029,1.5430389183620123,2,left
5.544,-0.40875202651747083,0.9925034958619258,-0.20924171987406648,0.3093694883232992,7.447861215871623,2.5343197051320234,0.14786427222013737,0.19584817150254274,1.5411602300549407,2,left
5.544,-0.41477112747736156,0.9841189209400083,-0.246969404393753,0.3184978872180187,7.43843642449392,2.5279931356807395,0.147453548890158,0.19824657188795292,1.5394624864208901,2,left
5.5489999999999995,-0.40306094872191567,0.9836340319599727,-0.27413821919326825,0.2999840572616643,7.4554586209589235,2.541677505688157,0.14901255390411008,0.18985866518426475,1.5467647463868752,2,left
5.55,-0.3800301258870348,0.9884336458081919,-0.29208108749302114,0.32814541609086456,7.4290162302701495,2.521083838294587,0.14616455056826982,0.20503377182629678,1.533245451263508,2,left
5.553999999999999,-0.3405695311076023,0.99490618806532,-0.3003399644159235,0.2974051840678971,7.4585955008899525,2.543274874395665,0.1498116588483172,0.18563321543401332,1.5506001305011212,2,left
5.555,-0.2869756596107049,1.0074818457962327,-0.3004135710567243,0.31515461427582836,7.441520225114068,2.530456061959001,0.14677109931282675,0.20179578128626108,1.5361129949244638,2,left
5.559,-0.22988637017153404,1.0200832256841905,-0.29716316769985973,0.3320712951870116,7.423712389747367,2.5188758246477825,0.14683768479446935,0.20148959879434847,1.5364986359366035,2,left
5.56,-0.17505088608361924,1.0279571465192197,-0.2993020294991548,0.2601397279155317,7.497647858782431,2.5688686325801857,0.15268630154191032,0.1702388810436671,1.5641453733000548,2,left
5.563,-0.12672082558956693,1.035338187242554,-0.30382577960371865,0.3934218424020518,7.3607344106300765,2.4761921320772533,0.13833026000753815,0.24689585795866195,1.4961993207440067,2,left
5.564,-0.08269232113602652,1.0309128157030343,-0.3026532205740592,0.22216086528522547,7.536792176903307,2.5952355220344465,0.16212754662996356,0.11983316629823569,1.608857032715145,2,left
5.569,-0.05793055851917812,1.0246339080753986,-0.302900528288511,0.36517953292413696,7.389696325769975,2.4958344798835643,0.1307405485835516,0.2874272900714257,1.460259729533855,2,left
5.57,-0.05329354784149168,1.022328976923219,-0.30260749141180593,0.36152235030385726,7.393347044415329,2.4984640631910686,-0.0010405527760123587,0.9910663356500811,0.8365419677516125,2,left
5.57,-0.04155019167943519,1.005067890201408,-0.297457146098301,0.08798478751202976,7.675228835685415,2.6882517733538727,-0.032427537075051846,1.1586809369227629,0.6879392118482623,2,left
5.5729999999999995,-0.033117608847361826,0.9797851813542439,-0.28828009404718613,0.7600914554417372,6.982655191122897,2.2218291343045173,-0.008630266572241042,1.0315960877211399,0.8006028246051369,2,left
5.574,-0.0484275175241629,0.9468696153095404,-0.2643308802382107,-0.3542457066026218,8.130990246157307,2.9951763355325927,-0.022986309350721067,1.108244646163772,0.7326590112142068,2,left
5.577999999999999,-0.06275563662643742,0.9222600018923308,-0.24416940677450644,1.1155562260712657,6.616268125867033,1.9751269772735427,-0.017137652363122906,1.0770674033762924,0.7602861889028301,2,left
5.579,-0.06769377010769487,0.9156143218824848,-0.2386241222377277,7.2868222224588886,0.2571673019281566,-2.306820621308857,-0.017071159540997506,1.0766031194431998,0.7607139213317473,2,left
5.58,-0.09184566851619538,0.892989469726237,-0.21975183755812888,8.756739280801863,-1.2576899496031029,-3.3268972616731762,-0.020111581355416304,1.0929923793132903,0.7461664301547937,2,left
5.582999999999999,-0.1272271417578002,0.8669750795202289,-0.19516207136407165,7.64207287431262,-0.1091135957081718,-2.5534899292399453,-0.016464616295511027,1.0733660722071146,0.7635812172818073,2,left
5.584,-0.15807996383424489,0.8558640365856753,-0.17974035860218998,8.314857171798078,-0.8019684657169216,-3.020009776530147,-0.019312546545734208,1.0886386061229716,0.7500359750045191,2,left
5.587000000000001,-0.19133377055622544,0.8536684998897817,-0.16627958741706794,8.040238117570656,-0.5198772354388566,-2.8300964301954368,-0.017753444560668637,1.0804445080710838,0.7572866466103373,2,left
5.587999999999999,-0.21777025816276757,0.8636135749043754,-0.1576563840807017,8.037909373298472,-0.5162132403513287,-2.827587824547644,-0.01816452500994447,1.0822185182683888,0.7557551296634172,2,left
5.5920000000000005,-0.23907523696236344,0.8786706704326629,-0.15484252638583182,8.179822765117684,-0.6636995471444975,-2.9269349773530244,-0.018471410629358257,1.0845821330092607,0.7535899995806334,2,left
5.593,-0.2636745869058955,0.9045518231352336,-0.15228635944940971,8.008663835980617,-0.48678901461649127,-2.807795895681336,-0.01788903110224509,1.080582990296307,0.75722025537338,2,left
5.598,-0.2873874125574162,0.938718953134345,-0.14463157204843916,8.143756250255628,-0.6249319908793527,-2.900791035599917,-0.01845292975199673,1.084303031430021,0.7538549374593562,2,left
5.599,-0.3125608025178378,0.9691401017866269,-0.139508148909245,8.067464205090804,-0.5497434691076379,-2.850241308658411,-0.018007601016792482,1.0819314012150731,0.7559566765384638,2,left
5.602,-0.3367125051973925,0.9994597044679435,-0.14346294322510517,8.091076349943078,-0.5681723732486073,-2.8625160854831875,-0.018385946510998067,1.0826361331683194,0.7554571487406692,2,left
5.603,-0.3549403954019471,1.0251886053712838,-0.14686052024961377,8.101462333358626,-0.5861162635460199,-2.8747623200387116,-0.0179648711294986,1.0833941403530916,0.7544992996185195,2,left
5.607,-0.36472286585137914,1.044145161133927,-0.1503443911709611,8.075327000602496,-0.5534123719566931,-2.8526111776132907,-0.01848679803810522,1.0816959227615928,0.7564310756727294,2,left
5.608,-0.3634871601199672,1.0559258858720142,-0.15512639686639057,8.106438512245564,-0.5854208079409222,-2.874163204392674,-0.017950197510824377,1.083612039974021,0.7542780821836046,2,left
5.614,-0.35569753958831196,1.0555331542209814,-0.15964823029561628,8.072706741484824,-0.5613702177077291,-2.8582079186947804,-0.018229019376657316,1.0823379380659972,0.7556700458885326,2,left
5.615,-0.3401850296877541,1.0459043956489489,-0.16884806190664728,8.111335389725308,-0.5767023521993699,-2.867985473043134,-0.018624059760361654,1.0820663470232652,0.7561371633764394,2,left
5.617000000000001,-0.3204126478592964,1.0314675156975,-0.17913972610807283,8.06725281888733,-0.5677870781472212,-2.862796921250029,-0.017148357144682054,1.0846083980590522,0.7528932459674311,2,left
5.617999999999999,-0.3025985962322882,1.0125189944291286,-0.1882825767763734,8.109289447697243,-0.5721831098242016,-2.8648891943846246,-0.019839396110346394,1.0796496455422813,0.7591257658268071,2,left
5.622000000000001,-0.2784911305893494,0.9880975918645795,-0.1932070105291745,8.088323746558999,-0.5730683427398124,-2.8659860177839653,-0.016394170184719194,1.086072069821789,0.7510741045083967,2,left
5.622999999999999,-0.2534267565503464,0.9633938096007341,-0.19269376709237948,8.059919847646816,-0.5631826307045975,-2.859762935499793,-0.019266358398552924,1.0806875830553588,0.7578160791860272,2,left
5.626,-0.22914991061400772,0.937998566264419,-0.1910493827717041,8.165169213916956,-0.5868005235003982,-2.873773010469556,-0.01920431758559363,1.080919699237017,0.7575572418682434,2,left
5.627000000000001,-0.20075333139776436,0.9109750101915506,-0.18501218400907415,7.974486123718608,-0.5476436624207799,-2.850915593905086,-0.013675934617739223,1.0909045328476692,0.7449513922656186,2,left
5.632000000000001,-0.16984412966425028,0.8880523895990754,-0.17429828440064316,8.217710298591413,-0.596248510830738,-2.8791399742114283,-0.027245704352679388,1.066260301358823,0.7760256739988817,2,left
5.632999999999999,-0.12725447468007672,0.8644488177658236,-0.15598971914882112,8.015338727374584,-0.5563801721872916,-2.8560517678144435,-0.004750935724835438,1.107149029632394,0.7244790344734695,2,left
5.636,-0.09511409941967507,0.8490307419855085,-0.13945754722363846,8.019763793255322,-0.5563638720549451,-2.8559456409554036,-0.03442127944017001,1.0532137905355983,0.792471419997917,2,left
5.638,-0.08348897100573588,0.8451741816463969,-0.1346390640235535,8.408445775090035,-0.6352970286638023,-2.901915215600299,-0.15897810377190622,0.8269827154694995,1.0777316631048475,2,left
5.638,-0.04983665944078599,0.8339857302960668,-0.11968699923906813,7.454633053522192,-0.44287629728548816,-2.789983760222219,-0.188650235624654,0.7730598823231365,1.1457132662169867,2,left
5.642,0.010417453198576006,0.8220123218090467,-0.09739788625494536,9.035526821889674,-0.7613160429909591,-2.9751739855108994,-0.16615439429715342,0.8139299177087873,1.094182209064156,2,left
5.643,0.04719400608157547,0.818567237046198,-0.08985390315119257,6.950541239959403,-0.3415174843725778,-2.7310519434871736,-0.17972037518239134,0.7892992493644622,1.125247055315861,2,left
5.647,0.05842142426343861,0.8171559744951177,-0.08809442426398273,-1.8018441233783544,1.4216195628343191,-1.7058461668723954,-0.17420470376313538,0.7992901202755271,1.1126311082108917,2,left
5.648,0.09849927545384252,0.8183961998626681,-0.08126377970176729,-3.8867887565572383,1.841388614583805,-1.4617510116352777,-0.17411951732200254,0.7994835354456233,1.1124131029178073,2,left
5.648,0.15229176414758153,0.8250322162571018,-0.07307862083115667,-2.3060806141385637,1.5230826168956662,-1.6468193040739623,-0.17702152520503442,0.7941751225660648,1.1190812363182825,2,left
5.652,0.19106773883157374,0.8359748510045991,-0.06616242025644398,-3.2594096193149156,1.7151548285764902,-1.53520563769183,-0.1735508101340398,0.8004960812272206,1.1111222121481932,2,left
5.653,0.2335347361021844,0.8472964752748563,-0.059047808753717186,-2.8716126439535783,1.636859314305942,-1.580593743873668,-0.17624503863917065,0.7956288552015575,1.1172792805302174,2,left
5.657,0.2683655563271299,0.8581137274177721,-0.05614253670880212,-2.8659727904121874,1.6360003749847913,-1.5812858006712034,-0.17480921659980078,0.7981480180371865,1.114037569390478,2,left
5.6579999999999995,0.2968786866049492,0.8675465685012183,-0.0608029514203529,-3.0695341674832015,1.6767259434175619,-1.557415772613043,-0.17510674505621798,0.7977608836364933,1.1146382292613684,2,left
5.6610000000000005,0.32572504433401495,0.875277145555575,-0.06481202656543139,-2.825814634114734,1.6277642191073713,-1.5859657490005055,-0.17553601049330728,0.7967933220417459,1.115720244067595,2,left
5.662000000000001,0.3433199431317937,0.8821356311276243,-0.062491547826499454,-3.015431200628236,1.666152628292232,-1.5638089258557737,-0.17483344231719092,0.7982191136664912,1.1140324414997065,2,left
5.665,0.3571430655616377,0.8852316278630425,-0.05401125107448341,-2.9135572288121976,1.6449667015322458,-1.5756013565362146,-0.17545979950653146,0.7970823241304398,1.1154666330451823,2,left
5.666,0.365556148515674,0.8875725339291851,-0.040361635396420265,-2.9361632164489557,1.6506750711607734,-1.573187732161068,-0.1751038623126454,0.7974527355017286,1.1147960918145758,2,left
5.671,0.36855072987719345,0.8902068717432351,-0.02439696389518992,-2.9642376727858952,1.6549115860920458,-1.5696135946304142,-0.17514109332063427,0.7980163949727588,1.114550568422687,2,left
5.672000000000001,0.3705546379104814,0.8910021012196991,-0.00821602672175881,-2.916536944716168,1.6464347269535564,-1.5754279243572784,-0.17535891276126464,0.7966789660185406,1.115542878314558,2,left
5.676,0.36567690326135815,0.8945814181725541,0.005909231648163309,-2.9605629529836643,1.6553090923297726,-1.5702757638751361,-0.17502668603473326,0.798286371302287,1.1142560513839106,2,left
5.676,0.3593266503171095,0.8992019981545836,0.01671035127325114,-2.932460992050351,1.647561505807809,-1.5731376864901554,-0.17528570511663022,0.797235745553503,1.1151530905839948,2,left
5.68,0.3547115608525676,0.901776154802947,0.02715789660976594,-2.942143864574689,1.654284990014267,-1.57298301929367,-0.1753005094911865,0.7967090680038553,1.1154490062435671,2,left
5.683,0.35112659175252314,0.9036403326859668,0.039586995043982554,-2.94690569663645,1.648122882916331,-1.570964391880437,-0.17485111079856958,0.7997132123510853,1.1132734221136955,2,left
5.684,0.351312596415367,0.9059227280724136,0.0519585409361937,-2.934801870775149,1.6532761841317805,-1.5739397589022976,-0.1757753771114616,0.7939768056128074,1.1175159329660782,2,left
5.688,0.3527596240500269,0.9116228604225524,0.06069900513712616,-2.946506431544301,1.6512476318104725,-1.5716681668618953,-0.17455585970379084,0.8014022041858793,1.11199365234845,2,left
5.688,0.35563081349110437,0.9167666789788919,0.06504994224290658,-2.941949899583169,1.646549036080204,-1.5714271720397375,-0.17558774497803506,0.7951778583832148,1.1166351172470166,2,left
5.693,0.35815919797278617,0.9192593655007905,0.06927927818229151,-2.934872333748512,1.6616696974313951,-1.5756505597871437,-0.17553865282492015,0.7953853659088285,1.1164618331129559,2,left
5.694,0.3586378293868985,0.9236224990909445,0.075225738860045,-2.954379205527225,1.6349142975242987,-1.567068797605698,-0.17362738150528065,0.8071501439170572,1.1077385316324775,2,left
5.6979999999999995,0.36207774580033547,0.9255976452467348,0.07923940433668869,-2.9270348731373916,1.6688060680332955,-1.5783593691378002,-0.17835557625647122,0.7781771813086023,1.1292476594999679,2,left
5.6979999999999995,0.36472352745232484,0.9235608044952694,0.08100420320329076,-2.9508281552980566,1.6407072015935467,-1.5688172102080302,-0.17050459176078886,0.8262371723887714,1.0935594604665522,2,left
5.702000000000001,0.36253178251582163,0.9233994032427959,0.08166852634001336,-2.948702975560845,1.6411664749461958,-1.5692562743131306,-0.18086405536901928,0.7628383644673795,1.1406404816744338,2,left
5.702999999999999,0.3621509782507786,0.9232545578181184,0.081725718627295,-2.907278947339134,1.6955467361278367,-1.5869719932423494,-0.22433588243783104,0.4967617010397822,1.3382593157035356,2,left
5.702999999999999,0.3640617243346268,0.9214337398098944,0.08171226818931432,-3.011225130397621,1.5623221394066076,-1.5431640343936706,-0.23469622809509544,0.4333619478763032,1.3853432281547824,2,left
5.707000000000001,0.365195033173332,0.9187641495372347,0.07843961625149198,-2.8380891845938363,1.7830507071560007,-1.6159044379727443,-0.22684124635273228,0.4814262389380972,1.3496419089066676,2,left
5.707999999999999,0.3663944222974387,0.9147570459175912,0.07448699235520764,-3.066718229862456,1.4919696733484678,-1.5199152174539496,-0.2315798562754793,0.4524420570374464,1.3711852392524388,2,left
5.712999999999999,0.3663787013177202,0.9145577852796778,0.07432156236126154,-4.025401407274992,0.2699303412124152,-1.1171926560614653,-0.22964953036214691,0.4642273742288301,1.3623993496202735,2,left
5.7139999999999995,0.36676028587895604,0.9153575946663094,0.07045483044811521,-4.253997256549239,-0.021143190495166123,-1.021170690305225,-0.2296265921744477,0.4644066768128764,1.3623119871566736,2,left
5.7139999999999995,0.37051479144310084,0.9115495505420563,0.060850936551749314,-4.080763927144723,0.1995435918151693,-1.0939797587635658,-0.2306328625477314,0.4582099712526343,1.3668692832753424,2,left
5.7170000000000005,0.3769805958702639,0.909019494206641,0.052970099637073345,-4.185195920740672,0.06643516331248285,-1.0500675492739457,-0.22942400731341625,0.4656238341807778,1.3613820708371847,2,left
5.7170000000000005,0.38615769106253983,0.9078775439295589,0.045407376122729964,-4.142679370848619,0.12059649223027286,-1.067908450950209,-0.23037123951234967,0.4598627152965731,1.365699970425415,2,left
5.722,0.3983727158256769,0.9055075424819932,0.03657852005485042,-4.142254612636004,0.12136257928569438,-1.06824030859703,-0.22984916557487448,0.462945177178649,1.3632856934391926,2,left
5.723,0.4125224607893418,0.9043606729638978,0.02839575652245889,-4.164130448257702,0.09295530167930435,-1.058722049266399,-0.22998879920760879,0.4622839114968271,1.363991668624006,2,left
5.728,0.42846758748640734,0.9041062288442256,0.017273284492677014,-4.138045210535797,0.126989933430002,-1.0701509732409322,-0.23009477175841053,0.46139836898678604,1.3643858775907125,2,left
5.729,0.4459354064248916,0.9044846011338203,0.0035930896654370716,-4.158216332116016,0.10047789997140245,-1.0612083990836392,-0.2298844812947246,0.46287414076831945,1.363499785381501,2,left
5.731,0.46160491484892213,0.906785989166271,-0.008676680253907084,-4.147275183922872,0.11477307482177829,-1.0660068359184467,-0.23010353644642922,0.461535624720828,1.3644958883696354,2,left
5.732,0.47777039113709213,0.9120537237664731,-0.024931586331239184,-4.150377444765611,0.1115244944495116,-1.065107106112741,-0.2299141084209231,0.4623434025227949,1.363506081058374,2,left
5.737,0.49815939400749515,0.9199315420231693,-0.047945056883132386,-4.151603360862003,0.10768394663488245,-1.0632929262315378,-0.23007595577543222,0.4621556975192247,1.3645362829270051,2,left
5.7379999999999995,0.515720941356588,0.9303213520329601,-0.0649529733104037,-4.149472685232388,0.11433196245504051,-1.066426508825041,-0.2299299685104146,0.4618517717943678,1.363433200491567,2,left
5.742000000000001,0.5271533340869996,0.9422172863958591,-0.07310133979352672,-4.150597293003713,0.10806753154825297,-1.0632067935999108,-0.23005064815509715,0.46238936718440327,1.3644503752925097,2,left
5.742999999999999,0.5376457171615532,0.9550417120259652,-0.08012629362777193,-4.150314319431411,0.11228197339388701,-1.0655160144920228,-0.23000438273251178,0.46193560577043524,1.3639691028404863,2,left
5.747000000000001,0.5448642644943799,0.969180987498042,-0.08419610408357733,-4.151755945673237,0.11047906943827887,-1.0649298182944877,-0.22989153978782362,0.4619894992722296,1.3632232532560025,2,left
5.747000000000001,0.5446466419102871,0.9785700543732759,-0.08654423232087696,-4.146270308856782,0.11031508862258999,-1.0631697110062712,-0.23025075929655758,0.46257454862547664,1.365876822611626,2,left
5.751,0.5414623923772794,0.9830349192118161,-0.08856589722543942,-4.15802923279638,0.11168235473492813,-1.067519060044266,-0.2296164421644883,0.46129581492726957,1.3611000299292546,2,left
5.752000000000001,0.5364876832899046,0.9862522443945405,-0.09056557628719006,-4.140305285302926,0.10987267840481645,-1.061106548124521,-0.2304193805392809,0.46300731905233095,1.3671816527061948,2,left
5.757000000000001,0.5301305754797219,0.9851692385225533,-0.09223481066820996,-4.159439742878773,0.1114964318453516,-1.0678418102759881,-0.22975404998977283,0.4615495339756521,1.36212640963683,2,left
5.757000000000001,0.5222197681177403,0.9855548140849162,-0.09102066221627583,-4.148386512066326,0.11055453174973892,-1.0639486215335356,-0.2297642221461073,0.46163312007813007,1.3622293121315519,2,left
5.761,0.5096861415243321,0.9902304007020329,-0.09240640135971062,-4.138325319376633,0.11042186433669929,-1.0608177566104655,-0.23105360444399536,0.46429501043974053,1.371958863110553,2,left
5.7620000000000005,0.49565229746725936,0.9936548552025294,-0.09550313427124327,-4.181667429540992,0.11188286216511384,-1.074812618914998,-0.22789603847044054,0.4576895102760078,1.348093925772458,2,left
5.766,0.47652572309555685,1.0002595593717387,-0.09921462262457778,-4.10132387055666,0.10912869234266917,-1.0488432508497207,-0.23312670922830375,0.46866416517843335,1.3876444860912573,2,left
5.767,0.4607079126786561,1.0072801389776052,-0.10464843260155779,-4.2045324939381565,0.11260998122720921,-1.0821720344616688,-0.2262296931374383,0.4541823737122692,1.3354843321378622,2,left
5.771,0.4559425194542118,1.0083990255268924,-0.10675990577488809,-4.118349592420329,0.1097277526297383,-1.054353857206268,-0.19726976127805051,0.3934157864496737,1.1165155091181815,2,left
5.772,0.4394704212501448,1.0127706287258966,-0.10894253984102156,-4.12062412383152,0.10988052843335974,-1.055135229026177,-0.19037489617357473,0.3789394794504055,1.0643567738959785,2,left
5.773,0.41599898305156313,1.0203837658725619,-0.11520660459818655,-4.28520159740631,0.11506389244637376,-1.108066776421956,-0.19560146312912857,0.3899101001031062,1.1039017460216884,2,left
5.776,0.39758218216046387,1.0251758219868696,-0.1229074470607444,-3.880737063017847,0.10226280782620648,-0.9779397545712992,-0.1924493047108009,0.3832956147153106,1.0800505814919235,2,left
5.776,0.3703873150592192,1.03106543022119,-0.12571369601054047,-4.551358469436073,0.12348775697869552,-1.1937021534848853,-0.19373343370331086,0.385991059493612,1.0897556265872743,2,left
5.782,0.35205096209286935,1.0355228508385985,-0.12383660519015623,-3.6668020554222953,0.09550393812682317,-0.9091106643622464,-0.19374624224584974,0.3860117156688824,1.0898914836461335,2,left
5.7829999999999995,0.3463702627253624,1.0362128647751243,-0.12269816989518731,0.046298013584929465,-0.021708039565802726,0.28530885479683543,-0.1930840704767118,0.3846367408269621,1.0848048208554748,2,left
5.7829999999999995,0.32390112312280067,1.039162685031312,-0.12158232257191609,0.9308697447077046,-0.04967572142337914,0.5699051803126717,-0.1938751958907936,0.3862750487105731,1.0908979574206539,2,left
5.7860000000000005,0.29342519956687363,1.0462293925862487,-0.12326937566248466,0.2602213610729275,-0.02848143934799434,0.35414190503764065,-0.1932620714635339,0.38501069401452515,1.0861529157750445,2,left
5.787000000000001,0.26753160486703953,1.054228629117394,-0.12882934540438917,0.664716447664057,-0.04124238157614298,0.48425150664454886,-0.19359434585038077,0.38569823607357523,1.0887119886943353,2,left
5.791,0.24077768781248282,1.0620475238383267,-0.13703640318035093,0.500117965225516,-0.0360975505277779,0.4313691270001469,-0.19350449586283808,0.3854901746579596,1.088124978172866,2,left
5.792000000000001,0.21762499266515395,1.0704486532521422,-0.14749779418019632,0.49783787699002086,-0.03592629935792957,0.4305032162776432,-0.19345483242037137,0.38544903920438345,1.0874526566148401,2,left
5.796,0.19834818238648216,1.0784887935214555,-0.1563387797269188,0.5840693862788281,-0.03878343024451089,0.45842559023182355,-0.19354122142933405,0.38552140253032163,1.0886165312153921,2,left
