time,gFx,gFy,gFz,ax,ay,az,wx,wy,wz,subject_number,foot
0.7170000000000001,0.09889007058541613,0.9943048096028191,0.05989449993036499,-0.00840008737606916,-0.04679997781527306,0.006299976571420767,-0.01139997534030634,0.015199891004655196,0.006399964390604156,3,left
0.721,0.09637994447515778,0.99273869776907,0.05807550976524707,-0.011667610555548574,-0.0437650337099427,0.00635045162920971,-0.01139994755914154,0.015199768017046526,0.006399924237792377,3,left
0.721,0.09615594708012978,0.99298132278031,0.0570162016517947,-0.07457264107761391,0.014651757089554742,0.0073176719615401075,-0.011400165357286022,0.015200731323662583,0.006400238863563005,3,left
0.722,0.09650064808495515,0.9907166632624672,0.056677509902792654,-0.08556919256670262,0.024866039144032827,0.007487732032389787,-0.011399717175278873,0.015198749252400877,0.006399591469184127,3,left
0.726,0.09575661703123588,0.9919196139351381,0.05588166323780978,-0.07529160878418617,0.015319125572343611,0.007328600137906366,-0.011400345093128218,0.015201526014933632,0.0064004984561732495,3,left
0.727,0.09695514200258215,0.9930007971435729,0.055093379126101266,-0.08278683515954455,0.022281415984363638,0.007444620811472178,-0.011399727460653727,0.015198794978104004,0.006399606370212066,3,left
0.731,0.09998332390662748,0.9890439607618642,0.05697137170713705,-0.07869264590907118,0.018479818001794858,0.007381867818932856,-0.011399992200670922,0.015199965150271189,0.006399988668267249,3,left
0.732,0.1027257978787133,0.9883628521489526,0.05769159122611836,-0.07989338259456302,0.019590534375854264,0.007398503117917487,-0.011400517202588249,0.015202287627734533,0.006400747151804375,3,left
0.736,0.10748963960565709,0.9891273893453435,0.05712827437808249,-0.08053529945219101,0.020195662960138833,0.007412159831574042,-0.011398829284826743,0.015194822480826233,0.006398308901452028,3,left
0.737,0.11152251867587039,0.9886057407274819,0.05814806460611326,-0.07912623346798162,0.018874496723797554,0.007385184723404354,-0.011401734634058228,0.015207670942551757,0.006402505583508208,3,left
0.741,0.1141866070368357,0.988709514215759,0.05913519373275062,-0.08051358709908556,0.02017529207613719,0.007411738720939342,-0.011398170963304385,0.015191912234494244,0.006397358175922168,3,left
0.741,0.11800051657281041,0.9883861964356611,0.060022795506419695,-0.07955399388513122,0.019278831731672025,0.007394743079933319,-0.01140101144303491,0.01520447134687102,0.006401460701504347,3,left
0.746,0.11755044223657737,0.9901099689608618,0.05821710132809522,-0.08000657427383084,0.01968858688028257,0.007397275846439476,-0.011401036172269155,0.01520458439814572,0.006401497100141139,3,left
0.746,0.11538779590835076,0.9927276006215343,0.05528203968323427,-0.07994082139988054,0.019661416022808197,0.007410504798678503,-0.011395767722975307,0.015181281567044494,0.0063938862766395495,3,left
0.752,0.11595655045843584,0.9929665788311973,0.054439957412259946,-0.079806739131831,0.01947856382384696,0.007383931581392908,-0.011407808325522748,0.015234531509240874,0.006411278942121183,3,left
0.753,0.11658154611370533,0.9923377134522788,0.05288036485275109,-0.07998571664879453,0.01971632348971874,0.007416747931076068,-0.011389845342942092,0.015155095067549175,0.0063853323857150385,3,left
0.755,0.11858389128463656,0.9929337313437522,0.051269408995092206,-0.07983377665237565,0.019518197340297423,0.0073904503651985205,-0.011408995084666258,0.015239772983544479,0.006412991929940092,3,left
0.755,0.11980046148233978,0.9931402108581986,0.051909571281635127,-0.07997487143835043,0.019648720239324916,0.007392407769931365,-0.01139792875985732,0.015190850383036207,0.006397010021836286,3,left
0.76,0.1199976373175482,0.9916339921498982,0.051679297398035715,-0.07977152426442616,0.019565669880515054,0.007433730544356898,-0.01138839454211688,0.015148665150452512,0.0063832341837247,3,left
0.76,0.12317547885902733,0.9910250624458774,0.048781458032491176,-0.08011149910133643,0.01963963577359841,0.007337379944992387,-0.011430131644766353,0.015333260390255314,0.00644352561151903,3,left
0.765,0.12655346957213728,0.9891221333288336,0.04856599436372151,-0.07962529406805988,0.01954876692901858,0.007481438366048063,-0.011352725341996347,0.01499093816852288,0.006331713870207967,3,left
0.7659999999999999,0.1261219296699895,0.9859867338923901,0.05023333021316182,-0.0801446893551668,0.0196466514979002,0.007327887334511486,-0.011452123210391785,0.015430485623588033,0.006475286363219788,3,left
0.77,0.12360724487567686,0.9864561373474166,0.04988387898796044,-0.0798521176809497,0.01959708864398181,0.007416724026655787,-0.011369134489996801,0.015063544869264194,0.006355423654297369,3,left
0.7709999999999999,0.12292735944541526,0.9863802371317867,0.050577908350234145,-0.07955000661305214,0.019508021659401242,0.007492537455549359,-0.01137139547663204,0.015073442154351796,0.006358670909445096,3,left
0.775,0.12163011918782554,0.9850562987570475,0.050423946518942345,-0.08079490561283262,0.019826063589659056,0.007159557660552818,-0.01152960328167518,0.015773205751932425,0.006587217831595091,3,left
0.775,0.11815737610198454,0.9865639719505143,0.04895425638226961,-0.07849799840941413,0.019247176534390856,0.007777251230238777,-0.011140717108216054,0.014053344325669447,0.006025471242107323,3,left
0.7809999999999999,0.1147579260292434,0.987466304637165,0.04912779142612808,-0.0814459508150558,0.0199892106950278,0.006984081577989612,-0.011785533112268067,0.016904895086172232,0.006956877854486995,3,left
0.7809999999999999,0.11210386556046815,0.9875165731751034,0.04892299657499115,-0.07898536417887098,0.01937019409810683,0.007646269064897714,-0.010934995711811843,0.013143778961182344,0.005728351256985998,3,left
0.785,0.11124584027738986,0.987829760862807,0.04896836585392196,-0.07904678637771959,0.019382146722136635,0.007628257063924778,-0.007365025082210807,-0.0026438235196386416,0.0005716536923842089,3,left
0.785,0.10913216501589296,0.9875673862185596,0.048539906169667565,-0.0837569479930226,0.020579486466702556,0.006365909551428661,-0.006514412804036135,-0.006404779193033382,-0.000656890726753446,3,left
0.7859999999999999,0.10471128143601052,0.9895936625609487,0.04671485469945154,-0.07218546945141316,0.01764168523108607,0.00946869748472847,-0.007159345849983434,-0.003553479235286474,0.00027454374006837293,3,left
0.79,0.10156603399347,0.9932064078918684,0.046782841567762176,-0.0913704788596298,0.022511752759137443,0.004324132963161182,-0.006770362872426564,-0.005273133226025864,-0.0002872258802402203,3,left
0.7909999999999999,0.09970979765883572,0.9944056025891842,0.047375119515497895,-0.06606521990241249,0.016087829816172815,0.011109727082925607,-0.006928565041966608,-0.004573357550402219,-5.8680319002724654e-05,3,left
0.7909999999999999,0.09857686495765876,0.9934997174025564,0.04709366610973929,0.04016476852468423,-0.010887389553080698,0.03959037878794178,-0.006931013917609826,-0.004563862885953307,-5.5388315327097e-05,3,left
0.795,0.09886175915029234,0.9945408675115782,0.04822267616238497,0.06547169539871879,-0.017312951190145524,0.04637552611236242,-0.0068476150795830915,-0.004929924817180584,-0.00017534866751531622,3,left
0.795,0.09878359411893672,0.995710854289259,0.04977235077549767,0.04628390959446817,-0.012440109970993348,0.041231920847465554,-0.006947597125213666,-0.004491629167185656,-3.1637116566179854e-05,3,left
0.799,0.09698810898005264,0.994328569369533,0.05022515051718275,0.05785814401465675,-0.015380781517795475,0.044333207146331544,-0.006869612314943334,-0.004832711736780301,-0.0001435865318039869,3,left
0.8009999999999999,0.09520416810420046,0.9951164696116872,0.05137304545775857,0.05314687186042738,-0.014182015233867872,0.043072730947911225,-0.006911600022301786,-0.004648653497515759,-8.323552913180425e-05,3,left
0.804,0.09317500953184657,0.9965128033254362,0.05324971703561135,0.053083098331559206,-0.01416825015245634,0.043053013923651746,-0.00690255258333361,-0.0046918818369467204,-9.68953751607735e-05,3,left
0.804,0.09173349283543365,0.9961195281451786,0.053993823114621975,0.055550851697348386,-0.01479377376273764,0.043715787630134645,-0.0068899130004518895,-0.004737433165909874,-0.00011325191025017823,3,left
0.81,0.09230137160302003,0.996427181106027,0.05420164058454467,0.052591022189940655,-0.014040378399650081,0.042924355471235354,-0.006911773354839281,-0.004658563698004636,-8.494705550213629e-05,3,left
0.8109999999999999,0.09301044270074499,0.9956410791155298,0.05616351322184901,0.05490185661330814,-0.014633231972026513,0.04353698910227001,-0.006890484709882423,-0.004730873745544772,-0.0001116851916051667,3,left
0.8140000000000001,0.09552123998316181,0.9941542199604875,0.05920408623670687,0.05364687463400652,-0.014304060593980036,0.0432124486993397,-0.0069051760628215594,-0.004683303938911277,-9.36618211755027e-05,3,left
0.815,0.09891666110991852,0.9934197163682437,0.05921621275594594,0.05394657034823372,-0.01439304496438448,0.043278163443827955,-0.006899931302302277,-0.004706657585929287,-0.00010126647640244137,3,left
0.8190000000000001,0.09838167064089134,0.9934074653919552,0.05804549196936343,0.054263118464052164,-0.014463154336015426,0.04337469835165606,-0.006895038089333493,-0.004696006043089489,-0.00010240144576319544,3,left
0.8190000000000001,0.098654277855784,0.993880756223579,0.059630182552663266,0.05369324609388893,-0.014318375870185824,0.04322200727630463,-0.006909116695214346,-0.004707528630985113,-9.562315958622843e-05,3,left
0.8240000000000001,0.10210356780679208,0.9929189587420647,0.06006110236311814,0.05425116306243291,-0.01447903580920305,0.04334997291906412,-0.006888788758236683,-0.004687363988861095,-0.00010476130964365567,3,left
0.8240000000000001,0.10335091244735085,0.9923716079474275,0.05766314508290538,0.05383934393053746,-0.014331053346629229,0.04328896462065138,-0.006909563749229587,-0.004712807436643853,-9.631169822582223e-05,3,left
0.8290000000000001,0.10523429873739124,0.9932745362643113,0.056109001865089936,0.054075976374314966,-0.01445589928540715,0.04327870823394367,-0.006897553180515856,-0.004698152887743761,-0.00010120509219980967,3,left
0.83,0.10940846654930211,0.9942271205550496,0.05552072804864398,0.05399011990587732,-0.0143650714842601,0.04333425036808428,-0.006889172283183034,-0.00467674605037195,-0.00010256988671875585,3,left
0.835,0.11306281443843533,0.9954173355201512,0.054847848153227186,0.053954762045179516,-0.014395964791101761,0.043279384461239925,-0.006928397495676539,-0.0047590627739649205,-9.290963033503902e-05,3,left
0.835,0.1169841181236562,0.9946203808911119,0.05437813618984698,0.0541032269310587,-0.014468067984295134,0.04328004723421111,-0.006855534027504289,-0.004606981449972325,-0.00011100172080147504,3,left
0.838,0.12014436459493126,0.9928199430644676,0.0530177439794815,0.05383121479185027,-0.014248503709957967,0.0433783822731148,-0.006948922406109401,-0.004802976463084294,-8.801511673276496e-05,3,left
0.8390000000000001,0.12043928606545426,0.9928941233566063,0.05184383390189247,0.05422550934949102,-0.014627682408146525,0.043166503458974256,-0.006871042986006429,-0.004639035655541449,-0.00010708683496050769,3,left
0.843,0.1200946300050687,0.9941262909708659,0.051750069862789655,0.05376814432306795,-0.014153257721783472,0.04345166634251377,-0.006873333897302523,-0.004642513151217574,-0.00010629401360043871,3,left
0.843,0.12349960130321289,0.9959055086267918,0.05070687960090797,0.05412897260253167,-0.014543947396109345,0.04320799275811936,-0.007021006215908011,-0.004959137776014861,-7.115359310176112e-05,3,left
0.848,0.12545294749570945,0.9957446635007444,0.04955821610859454,0.0541375579534772,-0.014538147139255202,0.04321945059817879,-0.006657939268642969,-0.004181688950171108,-0.00015770314866913964,3,left
0.8490000000000001,0.12238313171742125,0.9947804842917037,0.049394090911986877,0.05341538790598183,-0.013784241226403954,0.04367506918300353,-0.0072598668637295135,-0.005470741962708064,-1.4259098185911089e-05,3,left
0.8540000000000001,0.12121266807858942,0.995749067561576,0.050094203547000074,0.055157414512553155,-0.015628636624677384,0.04254649315980611,-0.0064660166014648855,-0.0037703256574711345,-0.00020335121157985512,3,left
0.8540000000000001,0.1220862263805843,0.9955642109184819,0.0493121642086759,0.052285004505989455,-0.01257478879327202,0.04442190218253095,-0.0031339431619247576,0.003370266840688592,-0.0009966973955265648,3,left
0.8540000000000001,0.12286915261582439,0.9940587585882946,0.046273218129348107,0.056065617418878264,-0.016600527759465404,0.04194619047649661,-0.0023402308152034785,0.0050709103786003035,-0.0011856208578262183,3,left
0.858,0.1231735090301724,0.9934112190546392,0.04592703501738944,0.07193567408897159,-0.03349995558017743,0.03155407872340359,-0.002941970580357085,0.003781440751262009,-0.0010424150437920569,3,left
0.8590000000000001,0.12264862118419574,0.993498712420792,0.04654093378384179,0.07571095698423658,-0.03752378155768013,0.029077215494971616,-0.002578983654487235,0.004559400921489955,-0.0011288364703807095,3,left
0.8590000000000001,0.12397558425550839,0.9932332548898039,0.04586458670573467,0.07284958162898446,-0.034473610372715444,0.03095514924727132,-0.0027268689656958925,0.004242344855997702,-0.0010934980031845015,3,left
0.863,0.12446627171304597,0.9923802587701984,0.04669160224357191,0.07457514236356895,-0.036313101203591866,0.029822517312937412,-0.002728513221479356,0.004238962608362509,-0.0010934033564838751,3,left
0.863,0.12220952196607722,0.9920587761899108,0.04728810541655946,0.07387231126417967,-0.03556406392239587,0.030283341785161188,-0.002651711794350207,0.004403433821768008,-0.001111256218640302,3,left
0.868,0.1213966171320946,0.9910666916084443,0.04807529037079197,0.0738649848579804,-0.035555627220453995,0.030289837124389738,-0.0027438383181489874,0.004206077479030697,-0.0010897554273277044,3,left
0.868,0.12053289604307245,0.9902201453090903,0.04984322839573497,0.07422805343531538,-0.035943821103108654,0.030048284204081968,-0.0026718691861977568,0.0043602934186271515,-0.0011067011341462066,3,left
0.873,0.11758665469482402,0.9910945193709968,0.050244654155434346,0.07379415524401671,-0.03547972071588182,0.030337573694938173,-0.0027113717480230642,0.0042755803363892664,-0.0010969293402912218,3,left
0.873,0.11483789133306277,0.9910961040153866,0.05175555298895031,0.07413060665450293,-0.03583988829759434,0.030112330564088814,-0.002700710535802635,0.004298573227896807,-0.0011006563908302978,3,left
0.877,0.11052671773466242,0.9916848636843572,0.05466509593498056,0.07394839220946796,-0.035644999058423374,0.030233812613622242,-0.0026934162653924863,0.0043139762726860315,-0.0011003426105745022,3,left
0.878,0.10577353418520716,0.9928816260004553,0.054199637314594165,0.07399675824271687,-0.035695321659577624,0.03020583355828534,-0.0027075673919035232,0.004283918133932521,-0.0010994905516902667,3,left
0.882,0.1029963833444436,0.9913140183492726,0.053228538965418334,0.07402646757961918,-0.03573098106704156,0.030174243883866542,-0.0026937685132286367,0.004313281737945759,-0.001100768917181813,3,left
0.883,0.09945740679481974,0.9917813117939969,0.05486418163512482,0.07397485966473882,-0.03566910550732516,0.030228922148665488,-0.002705032597870952,0.004289137112259202,-0.0010980693661796419,3,left
0.887,0.0963426343190151,0.9941962620068077,0.05453905299179483,0.07401364696100077,-0.035718861020360745,0.030177947003366797,-0.002694612149660957,0.004311856336464327,-0.001104274187556522,3,left
0.887,0.0953395036576076,0.9939084536052112,0.05511859548054196,0.07399282754397324,-0.03568997338272476,0.03021194590032793,-0.0027072117443980846,0.004283976609348313,-0.0010927642090592861,3,left
0.892,0.09506147443983237,0.9938080791940933,0.05830009162558361,0.07401651356251338,-0.03571515293329192,0.030196590128062546,-0.002691100939284241,0.004319807654982357,-0.0011092953987050583,3,left
0.893,0.09438110495241031,0.9940877784307238,0.05790809418389257,0.07395585686344794,-0.03566292961995221,0.03019865306992324,-0.002707775550672902,0.004282686480244391,-0.0010917924867679292,3,left
0.8959999999999999,0.09321784666936875,0.9937510720999587,0.05700675197563626,0.07408159194390805,-0.03576856448913357,0.030202377083646276,-0.002698930473280639,0.00430243803135855,-0.0011017162781663645,3,left
0.8959999999999999,0.09254016484571062,0.9938316322411602,0.05732623379559797,0.07389104501908433,-0.03560778777653246,0.03019878504860631,-0.002687394084130541,0.00432786177716985,-0.0011112067207664795,3,left
0.903,0.09086331550414134,0.9953141503969206,0.056736903236084664,0.07409811958821624,-0.035783410456877704,0.03020000949905864,-0.0027314805304218177,0.0042303469432898,-0.001071205966967866,3,left
0.903,0.08904554085423408,0.9966450841916906,0.056120533398762294,0.07397854108870663,-0.03568197125843965,0.03019927894228768,-0.0026508766203627975,0.004408701077429789,-0.0011451086922124256,3,left
0.9079999999999999,0.08965152864306844,0.995288522581812,0.05333345019610976,0.0738665869810086,-0.03558518625938457,0.030204404571990754,-0.002754117840438304,0.004180252000857199,-0.0010502796855054927,3,left
0.9079999999999999,0.08974301347850622,0.9948474477060775,0.05222883987855686,0.07434499515410828,-0.03599669453751413,0.03018941083365439,-0.0026680300231265823,0.004370732240688484,-0.0011294166614026907,3,left
0.9129999999999999,0.08876736950940882,0.9943116385824026,0.05217388528946388,0.07345842106521894,-0.03523412456153095,0.030216858560839353,-0.002669961882461842,0.00436647609683845,-0.001127384885350604,3,left
0.914,0.09091032329356455,0.9921726975398966,0.04911301798578151,0.0745974836043643,-0.03621410708899736,0.030181122499867707,-0.0028354244230905717,0.004000347919949824,-0.0009761370130494979,3,left
0.917,0.09524339612483071,0.9920295414202318,0.05029103180845876,0.07364630837017902,-0.03539557250810088,0.03021119422898585,-0.002429203391271057,0.004899159140935548,-0.001347745154202406,3,left
0.917,0.09895286145044094,0.9915920464941866,0.052383943659680354,0.07367089069475519,-0.03541684038234955,0.030210942100166206,-0.003102620243650341,0.003409197907857151,-0.0007316495811454173,3,left
0.9209999999999999,0.10140625692729979,0.9907252659296396,0.0502918115240176,0.07548910486287876,-0.03698158908958814,0.030151120544434837,-0.0022143916843385646,0.00537439357390081,-0.0015442601413155595,3,left
0.9209999999999999,0.10229256087834265,0.9903583870808222,0.05010683133234464,0.07102133927774565,-0.0331361751630485,0.030297786125936824,0.0015143759922546297,0.013625569340537762,-0.004955734975257143,3,left
0.922,0.10471913316517728,0.9885354503460632,0.049447095637235775,0.07842879972209107,-0.03951226977465524,0.03005449495198464,0.002402651084593771,0.015590914096047414,-0.005768372861554932,3,left
0.9259999999999999,0.10769553930796996,0.9881893240973757,0.04749531504261868,0.06865854209717628,-0.03110184326711707,0.030375610167169532,0.0017292011777649578,0.014100657959315855,-0.005152195815118214,3,left
0.9259999999999999,0.10734439923542288,0.9890851218695423,0.0475043177642349,0.02764135976298132,0.004201664871641185,0.03172429474810998,0.0021353418155096613,0.014999881040740702,-0.005523976572307347,3,left
0.927,0.1078504942321655,0.9883310331710676,0.046450049036299026,0.017871378956281624,0.012612705429355163,0.03204574063648297,0.001970172540824932,0.014633312359661015,-0.00537244772372146,3,left
0.9309999999999999,0.11074614909520557,0.9878513396012578,0.04591438496462372,0.02527871139310607,0.006235763748163526,0.031801979216818446,0.001967694035340899,0.01462935227876891,-0.0053707672779490755,3,left
0.932,0.11274731914266525,0.9874961759461429,0.04583731141183318,0.02081022447215721,0.010081572150494244,0.03194890713113309,0.0020544980987847747,0.014819929812081445,-0.005449603252599308,3,left
0.9359999999999999,0.11496899627942678,0.9873948405554337,0.04298116854328661,0.022630684371743225,0.008517693028771435,0.03188945097785463,0.0019506280025674376,0.014590732091121996,-0.00535482074570143,3,left
0.937,0.1174165796838052,0.9889944256193051,0.042909563459057706,0.02265127132492513,0.008493662816672794,0.031887863925260926,0.0020313466162538893,0.014770619543910304,-0.005429173653524308,3,left
0.941,0.1195867827296277,0.9905393628836153,0.04552736641748416,0.021705154826256706,0.0093168716499289,0.03192028898559129,0.00198816113972327,0.014670958781135505,-0.0053880494114193,3,left
0.941,0.12251520909154784,0.9910789519864341,0.04549044557964165,0.022840016629477267,0.008331343115406623,0.03188166071448764,0.001997416222888535,0.014698497361530002,-0.0053992947869151015,3,left
0.945,0.12330155130000699,0.9907919952656451,0.046215782711199235,0.021953701255273256,0.009097961531243676,0.03191137550449034,0.0020098395484229054,0.014717328781633003,-0.005407253066513162,3,left
0.946,0.12263220287911684,0.9914951034898238,0.04770270134277356,0.022439297202246793,0.008687400964666251,0.0318965169169755,0.0019891479487165933,0.014678443957596099,-0.005391038331816064,3,left
0.95,0.12299816746357736,0.9918122908990709,0.04850574600535426,0.022310348732381365,0.008774570888029944,0.031897167322919785,0.0020079018554422833,0.014720003438451864,-0.005408221935038744,3,left
0.951,0.121425056112622,0.9903543391161874,0.049480990692116075,0.0222165560406341,0.008896302074580382,0.03190644084563884,0.0019966138632798378,0.014682222909575235,-0.005392851085429808,3,left
0.956,0.11865114101284915,0.9911972334926575,0.04845637889030168,0.022395696830490294,0.008691821443723668,0.031892953239243446,0.001999174080857518,0.014717145464050167,-0.005406717022005935,3,left
0.956,0.11473042955539006,0.9933794137432466,0.049323253222674765,0.0222218765981078,0.008881511057003064,0.03190472621382727,0.002003537934923615,0.014683155424499434,-0.005393519793770533,3,left
0.961,0.10978796718878872,0.9955490798153896,0.05185412368115863,0.022360518970611108,0.008762541366625246,0.03190021928346379,0.0019958918002339456,0.014712763755168869,-0.005404847287353227,3,left
0.961,0.10799967816006392,0.9968813202751504,0.05245971597893846,0.02223955908582345,0.008792286320825488,0.03189296177307853,0.0020023168164631103,0.014700097432074857,-0.005400141427405497,3,left
0.965,0.10734146782517495,0.9953877100532367,0.054839051818336954,0.0223779069544688,0.00884314209656466,0.031914090582023824,0.00200161555190156,0.014675371422926384,-0.005390366898040455,3,left
0.965,0.10682891207425557,0.994653309330199,0.05709171707246753,0.02220460058940819,0.008738813227579537,0.031881480844165797,0.001993173490162302,0.01475811214430505,-0.005422594137516565,3,left
0.97,0.1063490040634989,0.9956105678469239,0.05808450339209463,0.022383170617865274,0.008855330652803084,0.031916447614192496,0.002011548073021916,0.014610684830702055,-0.005365323598644516,3,left
0.971,0.10478752742023609,0.9945964484398548,0.05918700296663304,0.02228974918912774,0.008779636057429156,0.0318959219034851,0.001986975883980293,0.014797823700365472,-0.005437959076611838,3,left
0.975,0.10436078001343221,0.9925570697864453,0.05756796280304268,0.022160950806651755,0.008755848765877552,0.031879818646358395,0.0020079008677884864,0.014642500090943974,-0.005377706181258402,3,left
0.976,0.10264568613195768,0.9937799546009957,0.056747632546784776,0.022645580462676177,0.008927823125204341,0.03195290041026244,0.0020067038887159085,0.01464530897494424,-0.005378735289875393,3,left
0.98,0.1004322511210167,0.994357089573087,0.05947700271433716,0.021761147885022245,0.008596644936331626,0.03181689604487116,0.0019684838443381246,0.014945195977078704,-0.005495220789688858,3,left
0.98,0.10015867212150117,0.9920785215671972,0.05935897719333188,0.022893521660956775,0.009024643273717416,0.03199164286455046,0.002063331034775585,0.01421011695103577,-0.0052097950492505565,3,left
0.9840000000000001,0.09955897573413816,0.9919229487954555,0.056640923788656136,0.02194958452731237,0.00866621414797454,0.03184570452975521,0.0019057348797321997,0.015428170349971865,-0.005682695586988433,3,left
0.985,0.09970047400008544,0.9914808932702399,0.05740093690418843,0.021969860692780098,0.008680189778458185,0.031849837937697426,0.0021137149168136593,0.013821809912691541,-0.005059091171486483,3,left
0.991,0.09950450917160922,0.9913362039378588,0.05697363414576148,0.023786796394631285,0.009349623063255135,0.032127528211042936,0.002986293970045074,0.007078211499605859,-0.002440883680484427,3,left
0.991,0.09877705893897173,0.9925949625430489,0.05456806200670732,0.019327439603354812,0.00769919935229954,0.0314447682732031,0.0031942579905866308,0.005471809328115755,-0.0018173844469305887,3,left
0.992,0.10059084585995248,0.9910929410982879,0.05550909186575558,0.026719345621751617,0.010436977312637818,0.03257689097589908,0.003036623270628521,0.006689787228340378,-0.0022900623792670334,3,left
0.995,0.1021756987524814,0.9904864427038372,0.05551212135549668,0.016969882326741244,0.006825759965766135,0.03108360357692569,0.0031316750290740418,0.005955152729915113,-0.002004978748518943,3,left
0.996,0.1010303942205644,0.9911080921986279,0.05481372707400248,-0.02396966115196063,-0.008325930853429038,0.02481638835465845,0.0030929893534077024,0.006254008919708342,-0.002121047212727844,3,left
0.996,0.10158246785780878,0.9900866833665328,0.05527026685472293,-0.03372009615975953,-0.011936589361113404,0.02332314448462492,0.003092521571571975,0.00625844714664934,-0.002122442835595926,3,left
1.0,0.10548650160734219,0.9904401254886677,0.052505856205662255,-0.026325973829313613,-0.009199460060316956,0.024455141551383286,0.003112619332308551,0.006101258607476486,-0.002062089395058614,3,left
1.001,0.10858631393413264,0.9917262024609563,0.048956472866285,-0.030789057165459776,-0.01084995776711118,0.02377264189409604,0.0030885982158999166,0.00628966597624602,-0.0021342941675774278,3,left
1.004,0.11054919431320091,0.993188958554347,0.04765759793041284,-0.028967101850281885,-0.010178840409957257,0.024049914866747922,0.0031072413466744697,0.006142784278423338,-0.002078195216878312,3,left
1.005,0.11106920718952307,0.994632781833082,0.04654230932576607,-0.028951942852541532,-0.010168703074684586,0.024054563003691284,0.003097159397416521,0.006221917354959531,-0.0021085208739227905,3,left
1.0090000000000001,0.1113039961292982,0.9938107051090461,0.04624543871261033,-0.029893093005709692,-0.010521456892110356,0.023908193402679627,0.0030997334868290757,0.00620447988897318,-0.0021009642500973767,3,left
1.01,0.11345565877949784,0.993055273038799,0.04807670423414077,-0.028757811116192168,-0.010099324785866708,0.024082986513898924,0.0031016545222140547,0.006181715030049498,-0.002094655127902036,3,left
1.014,0.1139721551290514,0.9932054815162956,0.049099939849624866,-0.02965405226742893,-0.010427572914108365,0.023947673686318026,0.003098325438538001,0.0062211038522631094,-0.0021055945765888606,3,left
1.014,0.11345233200535222,0.993579345591164,0.047316211785974845,-0.029147601457947602,-0.010251480290882395,0.024019076208671254,0.0031010564044194116,0.006183221085401249,-0.0020962257637330934,3,left
1.02,0.11164859083364995,0.994593131004867,0.04657619370851854,-0.029304854920173835,-0.010290114905157364,0.024005561703850754,0.0030994367751573616,0.006209117351116613,-0.002102024760227291,3,left
1.02,0.10855947252737902,0.9936073217831487,0.04831985889700057,-0.02937299880811451,-0.010339329232151875,0.02398217675483883,0.003100736999562129,0.006199193742538006,-0.0020981342730449536,3,left
1.025,0.10885130370244753,0.9934625582793851,0.04791435397049092,-0.02920022467385707,-0.010256263162781585,0.024018951846709175,0.0030982725000818817,0.006193388267196962,-0.0021037738027009185,3,left
1.026,0.11063629620975982,0.9947547237506944,0.04699142469030956,-0.0294066014229944,-0.010332498446140294,0.023987441483002928,0.0031031959177167156,0.006212128309055701,-0.0020930109903504242,3,left
1.028,0.11232947988785638,0.9943156294735028,0.048378366417057506,-0.02918176791524587,-0.010284672201389901,0.024002729544016804,0.0030956866657067574,0.006185444392661094,-0.0021095610686937003,3,left
1.0290000000000001,0.11401017218989813,0.9959006064953783,0.04829687945526717,-0.02944046902192422,-0.010299536052980722,0.024006855534425164,0.0031039095321190027,0.006212200774040758,-0.00209126264141796,3,left
1.034,0.11529175422717704,0.9970639889230841,0.04932851206639571,-0.029144379750638112,-0.010310613165541608,0.02398694087478375,0.0030991619074893185,0.006196726874060102,-0.002101830106987248,3,left
1.034,0.1157986239409391,0.9958141259020001,0.05130507924538816,-0.029427141504616262,-0.010286641826422537,0.02401320884795672,0.0030945810171454638,0.006187116945158222,-0.0021123866568436983,3,left
1.038,0.11391518662082148,0.9961165826418501,0.04907394553332288,-0.02928579873466111,-0.010308644919794347,0.023994646954128354,0.0031139938506858623,0.006233991465573049,-0.002068055270951985,3,left
1.038,0.11263703519554447,0.9970319824391166,0.047815735258171455,-0.029095451142597366,-0.010302261680892374,0.023989168761974204,0.003078027237322493,0.006146832750576395,-0.0021501795506880385,3,left
1.044,0.11239535599122293,0.9980167638908256,0.04907303277634973,-0.02980211838996688,-0.010283437642221484,0.02403256405537367,0.0031242467125882694,0.00625842667442594,-0.002044602426652659,3,left
1.044,0.11193802713839945,0.9978841387891217,0.05051889054580125,-0.02852144858211795,-0.01032938482741848,0.02394748816572427,0.003085647571410809,0.006165421737057832,-0.0021328062060559146,3,left
1.048,0.11269359441726158,0.9967100414531669,0.053317222553578264,-0.03015514764651369,-0.010266421723066441,0.02405840267071572,0.0030866282782701007,0.006168290237946631,-0.0021305527770730335,3,left
1.048,0.1133040669008438,0.995846806700926,0.052648060174584066,-0.02879576727924557,-0.01032064078163545,0.023965073935129748,0.0031604784678170455,0.006344056568834118,-0.0019617603159180702,3,left
1.053,0.11345434100839386,0.993720865738229,0.05033765120386391,-0.028825635618364244,-0.010316644827487847,0.023968754000303107,0.002979027603938253,0.0059118287252119435,-0.002376552326591806,3,left
1.054,0.11385695995522824,0.9918892997056326,0.051752933278520354,-0.03143614498299239,-0.01022000602738797,0.024143667268920362,0.003279868201890014,0.006628397581046974,-0.0016887724342435407,3,left
1.058,0.11463246417859937,0.9921323154521433,0.05109806742778279,-0.025029794398673887,-0.010461146141977113,0.023712031730143947,0.002883061315712071,0.00568338598406635,-0.0025960066846736057,3,left
1.058,0.11490482803814848,0.991600520047919,0.04986044982794574,-0.03564813377572844,-0.010060021560939443,0.02442842505497323,0.0012169451598501235,0.0017165747053655403,-0.00640397828922361,3,left
1.06,0.11421389705698026,0.9891354333464762,0.052009918470349706,-0.021643822175722232,-0.010589489357069212,0.02348313931787694,0.0008201040716599058,0.0007716750751968137,-0.007311252703839131,3,left
1.063,0.11441096973803017,0.9892190035537188,0.05129512756865649,0.03714371603254849,-0.012810594685477666,0.01951697458635233,0.0011210414375369565,0.0014881866414956405,-0.006623465511324134,3,left
1.064,0.11513855219707098,0.9908849867813272,0.05108349186125473,0.05114823434713171,-0.013339824805134418,0.01857125182251878,0.0009393929634280802,0.001055686561029776,-0.007038112933058086,3,left
1.064,0.11550932846560552,0.9901212403496057,0.05479107457670525,0.04053027014905744,-0.012938813289584131,0.019288435165066745,0.0010135568133117622,0.0012323209863543522,-0.0068697286284502964,3,left
1.067,0.11457503934411617,0.9899597951825988,0.05578846320548595,0.046934414596339985,-0.013180561560089184,0.018855855989330934,0.0010141541871997004,0.0012336331562427315,-0.006866773373024106,3,left
1.068,0.11308755705277537,0.9913020461114911,0.0555195881535239,0.0443290199130542,-0.013082017620882642,0.0190315169615295,0.0009758712510438216,0.0011426103144029382,-0.006955842226180861,3,left
1.073,0.11330219611815814,0.991751154090937,0.05406854994384421,0.04429106797355467,-0.013081417928019121,0.019035135581930845,0.0010220674134097986,0.001252541947248356,-0.0068495800368107845,3,left
1.073,0.11258317786661032,0.990325871162679,0.05207677217307484,0.04565969980339832,-0.013131330153872831,0.01894065610829624,0.0009855694366578463,0.0011655221453662364,-0.006931672417068092,3,left
1.077,0.11131356852505556,0.9902248889134003,0.05336329469660077,0.04401970950417369,-0.013071952914384618,0.01905426398215465,0.0010062498636387014,0.001215156639898843,-0.006888683895898045,3,left
1.077,0.11194365098893844,0.9930187271508529,0.051763404359861764,0.04529766925686504,-0.013117657931310232,0.018965152255738964,0.0009997319816578208,0.0011989487638918912,-0.006896212971861658,3,left
1.082,0.11223085077685749,0.9927573978195982,0.04973785227554654,0.04460890372125414,-0.013092747647334133,0.019012856593746377,0.0009971034210946791,0.0011935415024782875,-0.0069112597359166795,3,left
1.083,0.1120563335619596,0.9918054555095593,0.05104293469147617,0.04476308921126275,-0.013100796222137966,0.01900488937868271,0.001004019672937458,0.0012093268638587581,-0.006888247225062347,3,left
1.087,0.11251233116855597,0.9950265663003983,0.05072476853831982,0.04495453150033041,-0.013100870517815876,0.018984149661254168,0.0009956188304247804,0.0011893216733249237,-0.006907385051369548,3,left
1.088,0.1114404641503413,0.9960453788223009,0.050372438598968346,0.044623253823534,-0.013100689940553977,0.019019956763140278,0.0010049852347203503,0.0012128845407897012,-0.006899341213386007,3,left
1.092,0.10641610177898818,0.9949589090880084,0.05059684358036806,0.04493864198869641,-0.01309746603569632,0.01898218061627355,0.0009939635038625184,0.0011837518292610871,-0.006893991350481689,3,left
1.093,0.10208116131667239,0.9959659604877227,0.05171210212224096,0.04472474058912723,-0.013101454499377062,0.019009756195561223,0.0010067489809532505,0.0012185108959141054,-0.006910330671008024,3,left
1.0979999999999999,0.10259088673503235,0.995212886747774,0.05425878696574228,0.04481135309636623,-0.01310483658031717,0.019004033083727678,0.0009944577970458289,0.0011846378988657666,-0.006889853739680897,3,left
1.0979999999999999,0.10187537009561119,0.994439913642728,0.05484524076611294,0.04483996903440053,-0.01308351260301598,0.01897771419512223,0.001000661988150911,0.001202081346634498,-0.006903736929622236,3,left
1.102,0.09799295761111496,0.9948422508722801,0.05370644237404564,0.04472687327963169,-0.013130439777789445,0.01904106836744663,0.0010088008381359305,0.0012237353151811567,-0.006909325996947229,3,left
1.102,0.09582575607441242,0.9938051962563398,0.05426254925971838,0.044884487129615874,-0.01306001462814065,0.018947313086602323,0.0009783303190598284,0.0011411690326288467,-0.006873097118838253,3,left
1.1079999999999999,0.09475965844115283,0.9938031262234222,0.05536338645076182,0.04473120148368995,-0.013135643393591582,0.01904625508138892,0.0010336211406619265,0.0012914153717569678,-0.006943065452195791,3,left
1.109,0.09245846035515393,0.9930948760349361,0.05442197235912577,0.044819881875463354,-0.013091954983920134,0.018989092088306604,0.0009630643609540948,0.001099513878235316,-0.006852218678820906,3,left
1.112,0.09130490639550992,0.9919120237240088,0.05444410110551008,0.04486385006882449,-0.013053048779824522,0.018941967736190838,0.0010217819634914171,0.001259313173787056,-0.006928488867939729,3,left
1.112,0.09166552649192097,0.9916626113872984,0.054796811025556114,0.04462949921863223,-0.013221697813461292,0.01915095009439846,0.0010204815386217168,0.001255594874673916,-0.006925763945774905,3,left
1.1159999999999999,0.09052798903965631,0.9912227066924258,0.053899664652373384,0.045066076903211696,-0.012909027247253685,0.0187632934043298,0.0009077515273725212,0.0009492563896934869,-0.006782086909020349,3,left
1.117,0.08930121000298656,0.992648104871155,0.05399782083213437,0.044508327121312606,-0.013310602272884532,0.019260835515784853,0.001184408288981866,0.0017013630287035443,-0.0071361876223197205,3,left
1.122,0.09046523786300018,0.9935501123164294,0.054111234676981756,0.04497253222576579,-0.012975318199040398,0.018845614007438963,0.0007258599044945678,0.00045459538964456577,-0.006548703663681854,3,left
1.122,0.09245777096788921,0.9931335059268391,0.054446730099526906,0.04495701133570744,-0.012984222328853136,0.018856922295595813,0.0013306209579486143,0.002099053127066879,-0.007323734219637014,3,left
1.126,0.09214162555512029,0.9936514971428995,0.05496787119360694,0.04408534227145352,-0.013624195434905423,0.019648073942189363,0.0038693823892988494,0.009000889643965622,-0.010576256987114618,3,left
1.126,0.09023079541473286,0.9938563387816435,0.054605770557972784,0.046229475691131935,-0.012051397717042413,0.01770365816098614,0.004474125286171204,0.010645513601742889,-0.01135133271160274,3,left
1.127,0.09081466327182992,0.9937696906321593,0.0541619412901486,0.04267527849109627,-0.014659124025948614,0.020927360213614375,0.00401562956726818,0.009398644729462446,-0.010763724415602392,3,left
1.1320000000000001,0.09214809914083322,0.9943494587643774,0.05381183639863543,0.04736193170695614,-0.01121955532055939,0.016675530607138066,0.004292176837696422,0.010150404544181507,-0.011118073851868785,3,left
1.1320000000000001,0.09205649780756618,0.9936033261909171,0.05337802688061778,0.06703840285798329,0.003219538329754033,-0.0011755435463376182,0.0041796227942517816,0.009845236605144456,-0.01097400783488199,3,left
1.133,0.09417778993116774,0.9909665025300552,0.05207432878234717,0.07172419512912959,0.00665920121303957,-0.005427452383788736,0.004178104841391528,0.009839383196864109,-0.01097175169537678,3,left
1.136,0.09825870040601702,0.9903254340897841,0.05061806875774287,0.06816997573212707,0.0040511964085402094,-0.0022031258412389685,0.00423700536544881,0.01000193679711817,-0.011047644495906894,3,left
1.137,0.10132352369706321,0.9909527451094611,0.050858230829083875,0.07031784139896619,0.005624580899016242,-0.004149417347320587,0.004166427528722913,0.009807676072668128,-0.0109568053524013,3,left
1.141,0.10517928373392291,0.989869077049314,0.05108456301809191,0.06943611847237953,0.004983656203475754,-0.0033546158466161054,0.004221428289847446,0.009958228266252284,-0.011027454071064553,3,left
1.141,0.11112844652375356,0.9890243963500199,0.04937231019683988,0.06943757738889314,0.004975938018455448,-0.003348532399188763,0.004191665155913398,0.009879328752024746,-0.010989643287336974,3,left
1.146,0.11596736030496956,0.9885623355173091,0.04843982619104556,0.06988116152806079,0.005310211433242007,-0.003758366769338591,0.004198711187192113,0.009891993970891813,-0.010997617900882193,3,left
1.146,0.11881335962166313,0.9871765619549739,0.048014226808273046,0.06933929369403735,0.004908781251921404,-0.003263560768388996,0.0042061251084137535,0.00992332276965651,-0.011008929342329336,3,left
1.15,0.12144377424899627,0.986944876853297,0.04594543735434478,0.06977765727821983,0.0052229892172699875,-0.003654917602726495,0.004193064311671235,0.009874111080790346,-0.010989974442276706,3,left
1.151,0.12355785605330162,0.9876901230200755,0.04547442951454053,0.06950976353785414,0.0050505292409813805,-0.003432339418117469,0.0042053950074702265,0.009918555693006289,-0.011007541973082274,3,left
1.156,0.12467650058280286,0.9875116427986377,0.046452625119437735,0.06962753687488463,0.005095369317724051,-0.0035039116433581876,0.004196829008381349,0.009895364776969201,-0.010996581391466915,3,left
1.157,0.12536387014418848,0.9872385367443937,0.045344725241138084,0.06960849252619652,0.005132433949293776,-0.0035299344231009,0.004201395572377833,0.009887518859376183,-0.01099915681336657,3,left
1.161,0.12700631997267275,0.9871877624098475,0.043556730152240555,0.0695667557337468,0.005061110393593035,-0.0034575426598032507,0.004199504234286052,0.009928676874187735,-0.011004218489394441,3,left
1.161,0.12942762446001516,0.9885703193094615,0.04351853555410534,0.06966631064464732,0.005133816190179439,-0.003547563025135018,0.004200279231700127,0.009861714685708683,-0.010994046627591934,3,left
1.165,0.13032577485135063,0.9908258652445621,0.04406110828571849,0.06948159601771539,0.005073756478420854,-0.003444038259615953,0.0041998341878400226,0.009934131745764664,-0.011005376748807121,3,left
1.165,0.12953535095370922,0.9912994956787895,0.046372102458989026,0.0697811279823715,0.005121025050512483,-0.0035693827547634872,0.0041994896014656705,0.009890656202753062,-0.010998061315906206,3,left
1.171,0.12918943636781227,0.9916572909911991,0.04969605373799574,0.06937744557813129,0.005082200563904593,-0.0034215656912188917,0.004202173311132764,0.00986127446643149,-0.010995568571864817,3,left
1.171,0.12929606798079307,0.9933136836262885,0.04835839321101982,0.06979199548026227,0.0051119901824476875,-0.003564809644328655,0.004195306999293607,0.01000310853950663,-0.011012716335327157,3,left
1.175,0.12702069879112562,0.9943727442528874,0.04750423891754628,0.06956303714099521,0.0051025564222612115,-0.003491648901112309,0.004207160313295698,0.00973769045072484,-0.010979793354220637,3,left
1.176,0.12364255198119574,0.9942034970708384,0.050777854723449395,0.06933281058121607,0.005070240243664046,-0.0033987193867473613,0.004192137236433233,0.010079028527845674,-0.011022315014214886,3,left
1.18,0.12122131295944924,0.9941274023581059,0.051370858486501865,0.0702797915446104,0.005167051788848841,-0.003750334064018324,0.004204599947085534,0.009793857813373875,-0.010986722393631621,3,left
1.181,0.11660374779038708,0.9939748879271609,0.0509307092976639,0.06853789348297068,0.004998059264321283,-0.0031112686498607498,0.004204567884461095,0.009802381466775225,-0.010988058097280914,3,left
1.185,0.1118497734679364,0.9949465576572958,0.05155410538897416,0.07076946986514462,0.005211248673370124,-0.003927184110889305,0.0041798010331034995,0.01034347711005661,-0.011054685845087453,3,left
1.186,0.10854137806737678,0.9963394639595173,0.05094964008729781,0.06890852726831229,0.0050348823734280655,-0.0032479731813384307,0.004240316730423363,0.00901260679685209,-0.010890502173692999,3,left
1.1909999999999998,0.1023347548825346,0.9953659697610381,0.05135833667371176,0.0689557463238788,0.0050371606046485,-0.0032633626397449563,0.004140069450961051,0.01121945839165212,-0.01116281320264754,3,left
1.1909999999999998,0.09847334790530728,0.9955999903835505,0.051940170615273486,0.07251264300146261,0.005380085506024459,-0.004566467131096033,0.004272290507554663,0.008308658056511119,-0.010803659569064036,3,left
1.195,0.09838660355831211,0.9962235455325312,0.05183699199429368,0.06377462468786024,0.004540843066528397,-0.00136788151231559,0.0048276961259968824,-0.003908713065051605,-0.009296308335775851,3,left
1.195,0.09487210265323269,0.9949093277158333,0.05370937004183775,0.0782612367180123,0.005930953111416847,-0.006669733241519917,0.004959960120113061,-0.006819336686057776,-0.008937257809906438,3,left
1.196,0.09221134627685754,0.9950232384106537,0.05514421937241933,0.05915360387755988,0.004097948518326734,0.0003229288709194224,0.004859666391387338,-0.004612676295032301,-0.009209457265790533,3,left
1.199,0.09142716848352725,0.9949936208809972,0.05547020382777072,-0.021053128711540706,-0.003598001994611135,0.029676940320308872,0.00492016439778457,-0.005943619287265804,-0.00904523122740788,3,left
1.2,0.08826581898315164,0.994804198209378,0.057167484634991945,-0.04016248354942878,-0.005430742724855634,0.03667002416514809,0.004895551690102477,-0.005401889516448767,-0.009112228889983772,3,left
1.2,0.08611369747664502,0.9955163477995334,0.05774375604294156,-0.025673136244586073,-0.004041328817481244,0.03136770938476754,0.0048951879989316185,-0.005394730319725757,-0.009112768591460877,3,left
1.204,0.08366804071925413,0.9951341310692429,0.056381996326815335,-0.03441353526187782,-0.004879225284503558,0.03456614541938841,0.00490812617278286,-0.005677944639172502,-0.009078317343599585,3,left
1.205,0.0803430751692658,0.996126677917879,0.05676975191076673,-0.030856449787099664,-0.004538352103952497,0.03326450509935908,0.004892629664836104,-0.005338554774436842,-0.009119702350717556,3,left
1.2109999999999999,0.07848158775531688,0.9972345810259449,0.059085952857307375,-0.030805382050797372,-0.004533662656152451,0.033245932266844955,0.004904687197949755,-0.0056031321505224385,-0.009087269969966769,3,left
1.212,0.07606480661840473,0.9956579123480157,0.058674493520554365,-0.03267524963174507,-0.004711882249372414,0.03392973401698629,0.004898227559742107,-0.005459625343827854,-0.00910539343184897,3,left
1.215,0.0763771763295675,0.995092883067803,0.05662275023912846,-0.030430529989531784,-0.004498850815076852,0.033109213806215364,0.004899601490576129,-0.005494395790999238,-0.009099757078425166,3,left
1.216,0.07924333479418566,0.9948388187992037,0.05752995257659921,-0.03218600298129254,-0.004664054725210231,0.03375032809741749,0.0049015135773060655,-0.005528586149531128,-0.009097858564185282,3,left
1.219,0.0801451781549211,0.9935198770518934,0.057487842943623205,-0.031232094143080036,-0.004575680498081684,0.0334025241664946,0.004898299168674021,-0.0054675645611559015,-0.009102540398767301,3,left
1.22,0.08224586885612362,0.993739042037433,0.05579370230666396,-0.03145330700798124,-0.004595566035182911,0.03348293292436046,0.004901281829459906,-0.005525441399038211,-0.00909766942292468,3,left
1.224,0.08492470718553694,0.992899638558424,0.05653500511353193,-0.03171557628358053,-0.004618046054720493,0.03357780472244467,0.004899410644175307,-0.005484203178254091,-0.009102777070692685,3,left
1.225,0.08579814323139648,0.991441996265342,0.055249731152629,-0.031241275660603317,-0.004581135964068076,0.03340777398414755,0.004899879269239207,-0.005508907365708529,-0.009095518357153158,3,left
1.229,0.08891556398620501,0.9928389544818255,0.05181324051506232,-0.03172076156560148,-0.004612356144361572,0.033577151079324845,0.004900677555025266,-0.005493570149962278,-0.00910703434421255,3,left
1.23,0.09491666199390537,0.9917859551648198,0.05099743681089419,-0.0313571050568487,-0.004595593085955059,0.03345154333012961,0.00489903895415093,-0.0055066043597688154,-0.009091068645128809,3,left
1.235,0.09872156815008254,0.9894431502313847,0.049831484598892584,-0.03154972438647809,-0.00459962640751258,0.03351607380088602,0.004900868911163711,-0.005494540889924914,-0.00910786321893929,3,left
1.236,0.10035857969585074,0.9922865773485213,0.047962092660441755,-0.03154979359704105,-0.004599508471734822,0.03351605195492456,0.004899680507122143,-0.005498618789805534,-0.009098515026665005,3,left
1.24,0.10543254375520528,0.9940583588203682,0.04806272991661154,-0.03134830490369539,-0.004606968621967342,0.03345336008444118,0.004899306131925797,-0.005516469486401837,-0.009088691491972473,3,left
1.24,0.11183703540007604,0.9935653134964145,0.04926359991610958,-0.03174303847883128,-0.004583608338037205,0.03357256497547238,0.0049020077521041115,-0.005461805092872191,-0.009128797058849078,3,left
1.2429999999999999,0.11450019889978102,0.9945781890658617,0.04877510925443759,-0.03120830383071778,-0.004623657620532499,0.033414554489290926,0.004896806676937069,-0.005558953366012627,-0.009054939374485947,3,left
1.244,0.11507345030131,0.9934259911081215,0.04492467612949902,-0.03174671535586207,-0.004577920621650808,0.03357140975828782,0.004903526546645694,-0.005435149820847574,-0.009149663405873011,3,left
1.249,0.11543535978023742,0.9942595084364461,0.04231080810959187,-0.03144567707759379,-0.004605330127335211,0.03348448194530463,0.004897901643838411,-0.005538138933707847,-0.009070623939757157,3,left
1.249,0.11507730315270592,0.9965401870095614,0.04145210899254466,-0.031190588228646288,-0.0046293235582160926,0.03341109018337322,0.004898114768306504,-0.0055367896542619375,-0.009072596434478268,3,left
1.253,0.1143859773893605,0.9953384259632672,0.03867277859817736,-0.03229522658692027,-0.00452306896846949,0.033727833339997675,0.004908635089629932,-0.00533565688081079,-0.00922386975786637,3,left
1.253,0.11477370031907001,0.9977711465006416,0.038696087091477024,-0.030258125252269338,-0.004721268826313194,0.033144688368466554,0.00488271099829816,-0.005828355292626779,-0.008852241914538707,3,left
1.2590000000000001,0.11614764557360457,1.0000198451676285,0.04097342628331788,-0.03286598150436121,-0.004465964079468473,0.03389052689115743,0.004925705077954872,-0.0050118269334874215,-0.009468386281287386,3,left
1.26,0.11714717486049923,0.9975984895808263,0.04040834249258754,-0.030692083646125044,-0.0046794936546180645,0.03326915469133252,0.004869004202914891,-0.006088849409872744,-0.008655675338876321,3,left
1.264,0.11784231728288849,0.9972133081855992,0.04092678373661794,-0.030751980757465023,-0.004673641551293316,0.033286141402408265,0.00463098816055834,-0.010611061176882298,-0.005244344533933626,3,left
1.264,0.11918306641925566,0.9960696593407514,0.041683349061057584,-0.03488836843632288,-0.004266057118717231,0.03446827751444597,0.0045743118155103955,-0.011688370904773236,-0.004431569745682926,3,left
1.265,0.12097875250059548,0.9940883707981926,0.041502060428076734,-0.024722431011549997,-0.0052682783890888015,0.03156346579104759,0.004617279363829071,-0.010871531684093914,-0.005047783214381521,3,left
1.268,0.12237088037850223,0.9940769870195953,0.04303961805655781,-0.04157675386255266,-0.0036061611299379767,0.036378977417078476,0.004591345148427016,-0.011364112156606099,-0.004676181554906585,3,left
1.268,0.12356813301261757,0.9928983304295166,0.042622309287957384,-0.01934674907137736,-0.005798827775017952,0.030027958777381746,0.004601953566998624,-0.011164009751544766,-0.004827225925479611,3,left
1.2690000000000001,0.12330083458676876,0.9922876873892104,0.04283815954048253,0.07394670010700581,-0.015001034935808073,0.003371882328095925,0.004601977180718313,-0.011160443143550117,-0.004829691162448949,3,left
1.273,0.1197374601135083,0.992582245914573,0.045563235153795886,0.09617661898866625,-0.017194165944434042,-0.0029785368677302253,0.004596623964560925,-0.011266611744550188,-0.004749945106767545,3,left
1.274,0.11678761128056325,0.9913757109896485,0.04751500125339862,0.07932347379847929,-0.01553144222052262,0.0018359292324569788,0.004603073332674751,-0.01113964173184017,-0.004845372875271933,3,left
1.2790000000000001,0.11555223205797131,0.9909433681610147,0.04994049835277008,0.089485604504839,-0.016533840968581764,-0.0010677230950543214,0.004597988896665241,-0.011238156947277016,-0.004771211315986531,3,left
1.28,0.11344005957907895,0.9912599749150313,0.05100106058189803,0.08535682926656345,-0.016127163260579,0.00011366562615358882,0.004600922977796225,-0.011186210092260236,-0.004810713094908546,3,left
1.2819999999999998,0.11340079789563498,0.9898252751727417,0.05130180942951358,0.08528584469562198,-0.01611885261003765,0.00013032387994935156,0.004599800088424061,-0.011195304195307683,-0.004802835420269664,3,left
1.2830000000000001,0.11298617729769066,0.9900746361884576,0.052812902623571384,0.08747140295246117,-0.016336313664316832,-0.0004890268714565003,0.004599901231228331,-0.011214471574125402,-0.0047901339239176145,3,left
1.288,0.1108436801001691,0.9927664919572398,0.054009063360222105,0.08485722790724387,-0.016076586287316053,0.0002528618319134297,0.004600148776222038,-0.011183887937008748,-0.004811044379323186,3,left
1.288,0.11152542219360692,0.9925465496571683,0.05405263307717051,0.08688722686401054,-0.016277637278755523,-0.0003249818662617303,0.004599771473674136,-0.011211689695707258,-0.004791796499582119,3,left
1.2930000000000001,0.1106410327047338,0.9910677343970504,0.05331188316910245,0.08581066399003781,-0.016173007755704343,-1.3135852565008556e-05,0.004600581637208341,-0.011196478612250461,-0.004803285080716864,3,left
1.294,0.10839476143438456,0.9915124574308763,0.05515398096361837,0.08601427540369938,-0.016188028945081354,-8.501106472686624e-05,0.004598708163386431,-0.011193790678244334,-0.004802112998540857,3,left
1.297,0.10921807268379735,0.9914057635751936,0.05591611911396191,0.08638189811540489,-0.01623301925978971,-0.00016645926746427782,0.004602188296267028,-0.011215162489552226,-0.004793307324616594,3,left
1.297,0.10920554594982612,0.9907700884317162,0.054622362814171134,0.08578524491790401,-0.016163454402663244,-2.491954179154722e-05,0.004597188587061167,-0.011179627372381516,-0.004809195446481831,3,left
1.305,0.10821772648708333,0.9904705187263683,0.05763534774292739,0.08633136209218692,-0.0162258626933717,-0.00015789248851538662,0.004602482438753523,-0.011218194908991116,-0.0047917443010099614,3,left
1.305,0.10864025700666045,0.9894691885679451,0.05966862668976248,0.08601738535161763,-0.01619496463568828,-6.798148332958883e-05,0.004599480454695269,-0.0111948266977441,-0.004802639685678815,3,left
1.307,0.10999607049327188,0.988203592306946,0.05967424856002098,0.08601278179150076,-0.016178675940890397,-0.00010944418754433297,0.004596611975346721,-0.01118002962648917,-0.004808015000889567,3,left
1.308,0.11148813709260423,0.9868258307468729,0.06101352200376842,0.08633729479135524,-0.016246876363709258,-0.00010440199793545125,0.0046087057872330126,-0.01125355797346683,-0.004777910380941643,3,left
1.3130000000000002,0.11170439503825803,0.9858260899596534,0.06093951703677494,0.08577798637798667,-0.016137715149608392,-9.043963847693065e-05,0.004586361307641894,-0.011115598094671941,-0.004834932361775598,3,left
1.3130000000000002,0.11131792797287388,0.9850512351642653,0.06163661252393367,0.08638821773485063,-0.016255464461871608,-0.00010932343548589136,0.004615033163500098,-0.011293129010017836,-0.00476143875286416,3,left
1.317,0.11145834522687964,0.9831455867147195,0.06233402318758119,0.08601351256153986,-0.016185247259832593,-9.209405090220971e-05,0.00459110544983426,-0.011144728370963437,-0.004822915738360658,3,left
1.318,0.11205433800853704,0.9828648602426617,0.06325330891525342,0.08580006276600302,-0.016135525804487988,-0.00010854357680927555,0.004591720903894894,-0.011149399568981515,-0.004820808279600046,3,left
1.321,0.11295268243870876,0.9851391696674997,0.06378261882957575,0.08691353811748084,-0.016370820827151883,-8.778596275270034e-05,0.004637448814746136,-0.011430317660042058,-0.00470501168959556,3,left
1.321,0.11331647900873287,0.9860328547105746,0.06022387494773047,0.08481622644278283,-0.015931269425212932,-0.00011703855831672721,0.004525096006373658,-0.010738993155815276,-0.004990174206118783,3,left
1.3259999999999998,0.11303936005508944,0.9842131857296047,0.05950052996661389,0.08751654071648646,-0.01649639719753429,-8.154139147031244e-05,0.004711368134964837,-0.011885572067837271,-0.004517189025914742,3,left
1.327,0.11387960672681519,0.9818392702423375,0.062109744716731016,0.0852592236371329,-0.016024292785177384,-0.00011036089176962922,0.004465682059277056,-0.010373060776059144,-0.005141111729847788,3,left
1.331,0.11442050427328998,0.9823835959196991,0.06188270182328877,0.08533167811986883,-0.016038240939973587,-0.00011272751264761662,0.003434316431669105,-0.004027005333856536,-0.007758879117671236,3,left
1.331,0.11078482531840822,0.9840477731566816,0.061057891247300856,0.08959868425137311,-0.016934631430543814,-4.741854545202695e-05,0.0031886351925525854,-0.002514281652397825,-0.008382831214416122,3,left
1.3319999999999999,0.10766152625157273,0.9831516689749261,0.06145529135743639,0.07909755026014503,-0.01473003970842176,-0.00020423424736369425,0.003374902138139342,-0.0036610904248766214,-0.007909814273266532,3,left
1.337,0.1085772148649473,0.9818054873154916,0.060578419678825754,0.09651221861371345,-0.018385639919843638,5.474654033444934e-05,0.0032625471629819684,-0.0029698530742293967,-0.008194964552612007,3,left
1.337,0.10879583871274709,0.9811168117338651,0.05715386584497524,0.07354251975261279,-0.013564136762481822,-0.00028649409603774816,0.003308292795700425,-0.003250009426699796,-0.008079273742997344,3,left
1.338,0.10838493705024868,0.9816345126870167,0.05642006316861041,-0.022843737844786906,0.006664646667907452,-0.0017139368302092227,0.0033088703621285192,-0.0032563199358663104,-0.008076938880373504,3,left
1.341,0.10813597459146115,0.9818834856062522,0.05912465038692578,-0.04580872058803921,0.011484025455914617,-0.002053209029679373,0.0032849967769242815,-0.0031055685895306,-0.00813874175994232,3,left
1.3419999999999999,0.10768370418109689,0.9798084877027451,0.05871754235475173,-0.02840273652143296,0.007832892740655538,-0.0017989631534310554,0.003313614975359752,-0.0032854406531773565,-0.008064923824570039,3,left
1.347,0.10609993046788485,0.9797763074201845,0.057512249038776816,-0.038893124469854365,0.010030675720245137,-0.0019473611824016134,0.003291293196265614,-0.0031464699912095327,-0.008122085382240404,3,left
1.348,0.10269930924875798,0.980798983081822,0.056036252686182196,-0.03463534770585234,0.009142500236665619,-0.0018940115377603988,0.0033034341252449933,-0.0032179893977309255,-0.008092260104064004,3,left
1.351,0.10118995973615649,0.98003353968643,0.05121429400183997,-0.03456050787322853,0.009121457773117177,-0.001883355018944241,0.0033004156593349422,-0.003209666136493835,-0.00809673702583551,3,left
1.3519999999999999,0.09989926120724321,0.9817315380382658,0.04791008262247708,-0.03680725656915784,0.009595262723772858,-0.0019206725204553136,0.0032976710919310507,-0.0031751418868454723,-0.008109179560248977,3,left
1.3559999999999999,0.09885152420873491,0.9840229098882464,0.04565720618690447,-0.03413493825730862,0.009039022436712868,-0.0018894214307697739,0.0033026501081187083,-0.003227402157593239,-0.008089830544638986,3,left
1.3559999999999999,0.09992166891228754,0.9850904143605533,0.044607429231276904,-0.03618772691343752,0.009455091796170793,-0.0018932442814604824,0.0032978997889614964,-0.0031809483260208465,-0.008107230439795741,3,left
1.361,0.09955797346398447,0.9892096453373895,0.045944992461179564,-0.03512496494454165,0.009257435007774224,-0.0019232127693287492,0.003301385854666013,-0.0032022279095138637,-0.00809844123149098,3,left
1.361,0.09828840439073219,0.992230232010462,0.04339074262484953,-0.03530366653177583,0.009263800169701627,-0.001869806729191634,0.003299041067982879,-0.0032197905826466975,-0.008094456831478846,3,left
1.365,0.09579121718861001,0.9924290790500303,0.040028986763858646,-0.03566521547054644,0.009364496674405023,-0.0019198237904911476,0.003300921606488704,-0.0031582909187153627,-0.008112367063474344,3,left
1.3659999999999999,0.09113980999381034,0.9947461394159447,0.038468956130610035,-0.03514871536242069,0.009256326327448241,-0.0019126110667075935,0.0032989528757726943,-0.003255155103575998,-0.008083543478089423,3,left
1.371,0.08707839771355863,0.9979521779461263,0.03526495185014612,-0.035517327154660314,0.009287620930962071,-0.0018351035035051278,0.0033008903067032833,-0.003150940224144291,-0.008114656528067973,3,left
1.371,0.08550219505465678,1.0008338707500477,0.03287832932077271,-0.03545821454698969,0.009380479116026807,-0.002023770459704137,0.003300026350924253,-0.003212666686253864,-0.0080960691645117,3,left
1.375,0.08445979758609995,1.0022568912231145,0.03142859240974519,-0.03520368197220849,0.009170030693265692,-0.0017372762143124819,0.003298035945222893,-0.003258401381471203,-0.008083088760096432,3,left
1.376,0.08301672699191598,1.0029122155391934,0.03116808173636138,-0.03562595435419054,0.0094260442531248,-0.0020448784932912394,0.0033046918706295635,-0.0030460001266015982,-0.008144861615482526,3,left
1.382,0.08415041395246387,1.0048046820479963,0.03277647034409218,-0.03530495326411842,0.009261966337617212,-0.0018660751385535454,0.003292736351224273,-0.0034421203473549338,-0.008029423437869467,3,left
1.382,0.08629418116077588,1.0048766807773193,0.033609736389524116,-0.03519036517061046,0.00915452279710059,-0.001714123447974614,0.0033079775980850747,-0.0029329703868408155,-0.008177827249049467,3,left
1.386,0.08797103451663876,1.0027331957371723,0.03287958608369418,-0.03603407198285702,0.009696506414897745,-0.00238374384374477,0.0032953298980397585,-0.0033582615775997926,-0.008053891070473801,3,left
1.386,0.08783550776421346,1.0010899592542835,0.031669845743221174,-0.034369693992878037,0.00867049000559188,-0.0011406377511274388,0.0032954456002198254,-0.0033459187103071506,-0.008057466763587384,3,left
1.391,0.0867238067394035,1.0007218062192411,0.03340880501146018,-0.03655099522602222,0.009997189118526307,-0.002737318365069457,0.0033202156619376753,-0.002537646307564316,-0.008292978035705893,3,left
1.392,0.0893715334990877,0.9986691734151535,0.036725851257172995,-0.03471122093878339,0.008885700032311039,-0.0014043130922211527,0.0032596870824715546,-0.004525314989930532,-0.0077139403522455165,3,left
1.395,0.09200590284308366,0.9955066414370156,0.03689732920371593,-0.03477689322663897,0.00891904102015276,-0.001440035524113655,0.003359851891207669,-0.0012293381772305832,-0.00867396075533794,3,left
1.396,0.09168803369524417,0.9956529938840792,0.03652808404137631,-0.038255822389340166,0.011032486628221816,-0.003982777766770722,0.003227895486715503,-0.0055768325387436975,-0.007407838657284725,3,left
1.399,0.09190699254090276,0.995384432907069,0.03750175626103032,-0.02967673426895351,0.005832111394085063,0.0022661579296272315,0.002672027339472717,-0.02382314376271412,-0.0020920727273326745,3,left
1.4,0.09515281027124448,0.9940345510169369,0.03671562625134446,-0.043914413808551184,0.014457206931065137,-0.00809405979489951,0.0025403188611170732,-0.028170714267889037,-0.0008262352953174678,3,left
1.401,0.09847954428303385,0.9946174087869537,0.03490977488250756,-0.025129133975153126,0.003079662197919085,0.0055699767892063885,0.0026402153865610037,-0.024874655012659095,-0.0017859477339979008,3,left
1.4040000000000001,0.09887481245127139,0.9941725997118751,0.034227484955925744,0.05372901249832014,-0.04467973384337973,0.06293082127788174,0.0025795849409334243,-0.026862292575168346,-0.0012067928215683632,3,left
1.405,0.1005650401975432,0.9938443717936064,0.03438212491614491,0.07251534623498906,-0.05605714997809119,0.0765919931808971,0.002605244461838246,-0.026054293004003408,-0.0014433259120652808,3,left
1.405,0.10295175242587368,0.9938009030408521,0.03513388778021043,0.05827356642421172,-0.04743174061462612,0.0662362170565843,0.002603446169367883,-0.026041362812378663,-0.0014447031600154528,3,left
1.409,0.10391870150852234,0.9947318803201373,0.033967316340364706,0.06686270536226688,-0.05263377317639334,0.0724815774430348,0.0025935429181449202,-0.026467496341443457,-0.001323919004760061,3,left
1.41,0.10586164153899774,0.9985788343814752,0.03206850305956356,0.06336594359490763,-0.05051655836413953,0.06993835522899239,0.002606051055791009,-0.02595750729497026,-0.0014691841846444266,3,left
1.4140000000000001,0.1081946449632119,0.9996007719231281,0.03228548941031993,0.06332420075708038,-0.050489117667197776,0.06991021329190378,0.0025952752141217986,-0.026353990109537602,-0.0013551000340673775,3,left
1.4140000000000001,0.11110537329473122,0.9994511237462292,0.03157815560689667,0.06514122490712276,-0.051593915815948646,0.07122710726007359,0.002604277189804212,-0.02614230813457525,-0.0014195686087903844,3,left
1.42,0.11405299142721809,1.0005514585695154,0.03140457268215786,0.06296814019091537,-0.05027167032931004,0.06965301879768082,0.002594727959939011,-0.026185723676485854,-0.0013979054815848088,3,left
1.42,0.11421991386472058,0.9997345702077964,0.034108637952677726,0.06465578071791978,-0.05129986672344672,0.07087421543827095,0.002606889050456468,-0.026251447358461015,-0.0013942782796237904,3,left
1.425,0.11368021098707037,0.9991020156302233,0.03725337677961897,0.0637432520132167,-0.05074460884498727,0.070213219007909,0.0025928405551377486,-0.026142325591653824,-0.0014070320275335981,3,left
1.426,0.11493640020175834,0.9986684285664085,0.039919021408531395,0.06397325847975499,-0.05087855155000089,0.07038559855344972,0.0026036179613233732,-0.02624310371891795,-0.0013928445152294434,3,left
1.43,0.11535710723135834,0.9983994502760039,0.04118024493051138,0.06415574438480144,-0.051006206881689505,0.07050184080228969,0.0026056089035541075,-0.026181634482984932,-0.0014108871329308588,3,left
1.43,0.11510097293239514,0.9980555472068292,0.04113351336477299,0.06383932339707443,-0.050785073429344144,0.07030006684991899,0.0025796179579753126,-0.026191944121001023,-0.0013797375657491765,3,left
1.436,0.11432129739860594,0.9971173729722554,0.04035591995614429,0.06410538052819952,-0.05098240443605112,0.07045880675647997,0.002637149142254871,-0.026229807384038212,-0.0014330262491909977,3,left
1.4369999999999998,0.11146958723275903,0.9975037420528611,0.03944275406791628,0.06394360897355689,-0.050855568334678386,0.07036884303098664,0.002551767643443667,-0.026158606904883308,-0.001357818865897001,3,left
1.439,0.10849645224157455,0.9972910794626156,0.04036537166832212,0.06406094832202083,-0.05092638044064275,0.07045443424377323,0.0026427071221011653,-0.0262372556700328,-0.0014371879119468942,3,left
1.44,0.10334293749440791,0.9963656356383919,0.04083664057886757,0.0638669600456447,-0.0508624518880733,0.07026198749325507,0.0025902854306826205,-0.0261874706531106,-0.00139259785667111,3,left
1.443,0.09773945300512761,0.9964652233677196,0.03943703746360601,0.06424625220595034,-0.05096975058985078,0.07065518947903267,0.002544472222951996,-0.026166034513922957,-0.001347889360994592,3,left
1.444,0.09360419422117108,0.9973821030545119,0.038507761554729056,0.06366553550225088,-0.050800690177306734,0.0700578090465043,0.0027439626478038513,-0.02629503092543932,-0.001533277102195653,3,left
1.4480000000000002,0.08583444088216302,0.9986167150317378,0.03545840545992913,0.06430433836548424,-0.05099284266475773,0.07070895647091222,0.0023741747820092947,-0.026049431962328846,-0.0011913427229596155,3,left
1.449,0.07947770532843394,0.9987262307859627,0.03122798580247047,0.06393542560779952,-0.05088197801468815,0.07033291270463254,0.002848980588665356,-0.026366255745743767,-0.0016299653161793038,3,left
1.453,0.07645156681304813,0.998390959613731,0.030850704936793365,0.06357372353551075,-0.050759803075446454,0.06997681869346009,0.0024525724257221074,-0.02610111900971729,-0.001263983094397589,3,left
1.454,0.07310639125275556,0.999433195571955,0.03151787251605355,0.06510020533954965,-0.051259970854859734,0.07149382386544424,0.0024633130437890817,-0.026110642034460417,-0.0012731686184267285,3,left
1.4580000000000002,0.07297067715898597,1.0004993232148993,0.030436079851374545,0.062272079906197673,-0.05033420116655157,0.06868266717889558,0.0032192183169518353,-0.026608633661668213,-0.0019733150887132757,3,left
1.459,0.07654530659180131,1.000319996745758,0.029719863623851837,0.06590723190700126,-0.05152504475161811,0.07229487778852692,0.0013612116106698653,-0.025381739741616192,-0.00025335949879695034,3,left
1.464,0.08318022003731099,1.0008876686566583,0.030182212216390152,0.06287066465363317,-0.050529996000213795,0.06927815258192077,0.004441983666072669,-0.027416892325036208,-0.003104798657828324,3,left
1.465,0.08813689798428703,1.0023078532266387,0.029792364034425384,0.06294850346009855,-0.05055384448102952,0.06935615777253953,0.0003783121686800348,-0.0247322155474533,0.0006560727898997693,3,left
1.4680000000000002,0.0893304977848574,1.0034647762444404,0.03032586188317003,0.06875765517137933,-0.052463803453131126,0.07512344150026284,-0.016678199561098277,-0.013467893702122626,0.016444006055679618,3,left
1.4680000000000002,0.09174635317918764,1.0064154721207417,0.03276958614839374,0.05448244709475819,-0.04777206989877797,0.060951306634744865,-0.02074227551849165,-0.010782789377140275,0.020204583646615922,3,left
1.4680000000000002,0.09315863593337137,1.0119337117710518,0.0323583958557366,0.07815211357620025,-0.055550923795785696,0.0844491341767604,-0.01766087535290073,-0.012818746134179658,0.017353643366652943,3,left
1.473,0.0934906529373361,1.0155068485254306,0.03141094136374871,0.04693044532764505,-0.045290443331472856,0.05345527607642407,-0.0195193904199865,-0.011590818209789973,0.019073078965101718,3,left
1.473,0.09347781780884502,1.0169533853350567,0.030216539594654968,-0.08412978366842958,-0.0022095916224600803,-0.07665518076566438,-0.01876354555667486,-0.012089769816325903,0.01837319917579355,3,left
1.474,0.09218404889463763,1.0223651006890235,0.0280893609150612,-0.11535376884306171,0.008051116983403312,-0.10764948423887595,-0.018751745575268167,-0.012098893755802875,0.01836432257324214,3,left
1.4780000000000002,0.09343772030015007,1.0286879312696997,0.02988402300194982,-0.09168074201001514,0.00027149953352728997,-0.08415055402221536,-0.019150416750223387,-0.011832995018971445,0.018729155125846417,3,left
1.479,0.0968805201681191,1.0307341190069002,0.031115398760919646,-0.10595802011627478,0.004964969436738252,-0.0983247045421494,-0.01867242795482474,-0.012152244237663465,0.018292560193741154,3,left
1.482,0.10291663205778698,1.0305014348608101,0.03152137423138831,-0.10015095049570213,0.0030520560582457277,-0.09255448592702346,-0.019045315367526766,-0.011902503678358083,0.018631980198821736,3,left
1.483,0.11161258782975111,1.0284961337212208,0.034092619910919386,-0.10006446768136557,0.0030320436046523177,-0.09247976696761578,-0.018844580572283054,-0.012036549446308251,0.01844862920302575,3,left
1.4880000000000002,0.11921386880256385,1.0244674103783231,0.03589298196521562,-0.10311676264559108,0.004023610480163731,-0.0954942051569326,-0.018887559720980614,-0.012011116918269645,0.0184932757357949,3,left
1.4880000000000002,0.12669131052483612,1.019722220859976,0.040225961968245766,-0.09946178447542335,0.0028337130479543513,-0.09188124300780341,-0.01894874852132925,-0.011961253802846024,0.018534283659311916,3,left
1.492,0.13440569166723465,1.0157142924515765,0.046674034995374765,-0.10230619857286605,0.003763756283994073,-0.0946983489000475,-0.01884292609582478,-0.01204739207363133,0.018463227252906222,3,left
1.493,0.14125496071591598,1.0113464768584366,0.04928336286303255,-0.1007789198217435,0.0032519875504104364,-0.0931690272911703,-0.01894633121199256,-0.011959178601610174,0.01852595838696488,3,left
1.4969999999999999,0.1460610944414391,1.005479067737192,0.04941549361544241,-0.10111253101729037,0.0033929735086347225,-0.09354249845959142,-0.018874787577668646,-0.012022303304517654,0.01848601996387688,3,left
1.4980000000000002,0.14892969867683586,1.0008102973857853,0.05121549944005198,-0.1015472474565271,0.003481960254241631,-0.0939012570207602,-0.01889983946561341,-0.01200589599601204,0.01850944635833817,3,left
1.5019999999999998,0.1524588926948791,0.9979960548905649,0.054545080252596016,-0.1008092115233882,0.0033054733064074035,-0.09325788573574699,-0.018925712901481206,-0.011959369581300556,0.01848462674613632,3,left
1.5019999999999998,0.15431925012727954,0.9951891036651188,0.05837885144767434,-0.10149663362135808,0.003478747247801839,-0.09386913423726458,-0.018852737189481564,-0.012074844639634048,0.01852851783608479,3,left
1.507,0.15457260553505642,0.9921448105713933,0.06293259024716516,-0.10105478965550937,0.003333044634183492,-0.09342987049140716,-0.018958387730334585,-0.011904696460618525,0.01846007234124026,3,left
1.507,0.15532172939652678,0.9894924511733537,0.06780657665814328,-0.10119641372607668,0.0034773251211839815,-0.09370251462559692,-0.018850028439708982,-0.012083268234577232,0.018536976446364383,3,left
1.5130000000000001,0.15596769280556433,0.9852060904889643,0.07241265053530282,-0.10131397544009618,0.003292637639857001,-0.09351745324562763,-0.018912687564957682,-0.01198004054007168,0.018492600079824263,3,left
1.514,0.15635326405254024,0.9792669350250048,0.0777064250458539,-0.10103288333277802,0.0035334049982763335,-0.09368858654928201,-0.018957224463477057,-0.011897368425654697,0.01844553505018373,3,left
1.518,0.1538598444720084,0.9759523809908781,0.08412865529703183,-0.1013522738445416,0.003283233798426474,-0.09352575324041922,-0.01875003291269728,-0.012267401340948263,0.018640065080722912,3,left
1.518,0.15061919379489222,0.9711975794223638,0.08860453050406508,-0.10113655004076384,0.0034175339624873766,-0.09358888531855045,-0.019134890868832223,-0.011580715484775336,0.01827991667437546,3,left
1.521,0.14878947068965376,0.9644280275818505,0.09026293894449225,-0.10110484443216608,0.003584001961465158,-0.0937964350593109,-0.01864148927573321,-0.012461990912249815,0.018743045573994147,3,left
1.521,0.1470529700195159,0.9627785451290587,0.09119661200403598,-0.10149624798362736,0.0029384957634465076,-0.09313890139795727,-0.019053064223330404,-0.01172640810195919,0.0183561406851738,3,left
1.526,0.14337867108077332,0.9620359228945214,0.09249904576718973,-0.1007246261170647,0.0041205541476273515,-0.09431287805496255,-0.01904088869264254,-0.011747183067672001,0.01836552671326895,3,left
1.527,0.13594160279563677,0.9613405450672937,0.09425610543070402,-0.10172590942492349,0.002606176006178989,-0.09281583909524047,-0.018260443995969777,-0.01314647677300286,0.01910761036850851,3,left
1.5319999999999998,0.12839897553298196,0.9644729271609276,0.09324281809277161,-0.10088545386751627,0.003868970877238101,-0.09406114627565412,-0.020179511789900476,-0.009706285568766154,0.017284675284864708,3,left
1.5330000000000001,0.11823819614826175,0.9688774519625002,0.08939958091902539,-0.10092496929748718,0.0038402843589808626,-0.09404406959204671,-0.01699763296845707,-0.01541049906700699,0.020307039650553978,3,left
1.536,0.1112975739147414,0.9721128432839573,0.08820500868505893,-0.1024733815485357,0.0014146286912410594,-0.09161578442719662,-0.02119430725217153,-0.00788663071905616,0.016320491078498214,3,left
1.537,0.10928128823385463,0.9732944661459835,0.08696848290882589,-0.09864698879521533,0.007369865512566307,-0.09756381010869762,-0.03880580340287951,0.02368671766385126,-0.0004203793273308818,3,left
1.537,0.09627063701054771,0.9778222800457556,0.08246952240168677,-0.1049976840625334,-0.00250213005417274,-0.08770799888026606,-0.04300203499343723,0.031210096083296137,-0.004407470441981669,3,left
1.5419999999999998,0.08626879447252951,0.9829300072046829,0.08055101954699002,-0.096619015656707,0.010518319725278034,-0.1007056814452296,-0.039821024146651854,0.025507352054451024,-0.0013837004386187488,3,left
1.5430000000000001,0.08571009313529182,0.9826890368565886,0.08013585928773477,-0.06148164046488328,0.0651818596126165,-0.15529493320986182,-0.04173889622480781,0.028944417486514593,-0.003209311920243475,3,left
1.5430000000000001,0.07517441890596743,0.9857135111718641,0.07639476112325778,-0.05310036408796726,0.07820158299311906,-0.16829015890499993,-0.04095970338780981,0.027550225190576854,-0.0024631974765752036,3,left
1.548,0.062164960023190274,0.9919212172034292,0.06831959464837356,-0.05945611202491079,0.06833104363198042,-0.15843915706231892,-0.04094673204846985,0.02752305660010324,-0.0024584905856703675,3,left
1.5490000000000002,0.05546278766153953,0.994340508595976,0.05858384346888389,-0.05562289013369198,0.0742842051832415,-0.16438057408967358,-0.041357928660798,0.028264137596458076,-0.002841883891907512,3,left
1.551,0.05153988355195778,0.994846981595248,0.05129178370121137,-0.05717823400000054,0.07186083714104878,-0.161959180093023,-0.04086680168487984,0.02738197004031513,-0.0023782579661178697,3,left
1.551,0.04900703433195349,0.995690754926285,0.04420566307551315,-0.057213718925297766,0.0718304984342801,-0.1619377706265357,-0.04124715381317011,0.02806053047850025,-0.002746037299224317,3,left
1.555,0.04615288438160435,0.9960581364879288,0.03803412642663791,-0.05637032835893647,0.07309304418134313,-0.16318088789605623,-0.04104613019315814,0.027710873628870224,-0.002534844607186079,3,left
1.556,0.04548174898442256,0.9960104624695825,0.03238895318317185,-0.057385419435995774,0.07158218445428714,-0.16169652538913012,-0.04108476947272932,0.02776164511404091,-0.0026061847607482614,3,left
1.561,0.046722048135305255,0.997577738759136,0.02544607073714949,-0.056587625383006705,0.07275665146764193,-0.16284554105888632,-0.041149659516527326,0.027900686530625635,-0.0026254244057662733,3,left
1.5619999999999998,0.048886836204807424,0.9985215527006889,0.01939406748947069,-0.057013753013914134,0.07212211881998032,-0.16222203677704738,-0.04104698409201048,0.027698502558988945,-0.002561644401252463,3,left
1.5659999999999998,0.052638283437662886,0.9972449108455222,0.011911372080593967,-0.05695032232606048,0.07227731258710968,-0.16239723302832254,-0.04113552268175466,0.027857086230102863,-0.0026461077143463295,3,left
1.567,0.058471298699259516,0.996054019109373,0.005475603704116721,-0.056743778831819844,0.07241737364627038,-0.16247225510448654,-0.0410913544275828,0.027811473009798755,-0.002541394438613451,3,left
1.57,0.06739006517198437,0.9956738845522431,0.0030194745341919713,-0.057100192017774075,0.07217464046719387,-0.16234139172654444,-0.04108254735803567,0.027718937863681133,-0.0026763588368039996,3,left
1.571,0.07620154478356522,0.9955548176039243,0.002944510033957558,-0.056717466537054395,0.07238781090356104,-0.1624174995329422,-0.041134328636602394,0.027926282920517485,-0.0025117673103487357,3,left
1.5759999999999998,0.08441011355600839,0.9931004572431334,0.004960429092779538,-0.05700009936637627,0.07225274382009703,-0.1623916312643825,-0.041064996540353685,0.0276798879681623,-0.0026737694645173823,3,left
1.5759999999999998,0.0928190678400376,0.9915061285790547,0.0059722180935484846,-0.056949635941321866,0.07233386116277142,-0.16247354256026042,-0.0411145225223986,0.02783926684515211,-0.002589196671520713,3,left
1.58,0.10038388361829922,0.9919643292185469,0.006124894340696619,-0.0566455957154859,0.0722420203512875,-0.1621797597387306,-0.04112778368135883,0.027923760700546914,-0.0024882138499065357,3,left
1.581,0.10858239304741027,0.989797982360308,0.006288607344762672,-0.05736901972538461,0.0724075226868103,-0.16280691577818873,-0.04101546454447964,0.0274563861077946,-0.0028783450535334342,3,left
1.5859999999999999,0.11580324820287366,0.991039004630438,0.006558802217772117,-0.0562963564103304,0.07215031516739615,-0.16186093480924432,-0.0412365652054527,0.028346203032284356,-0.002167105345911303,3,left
1.5859999999999999,0.12102963646823564,0.9945195823870858,0.008834632485003532,-0.05743115610292311,0.07243818664399607,-0.16288315134982406,-0.04094807627358238,0.027195307337299496,-0.0030759254405214086,3,left
1.594,0.12584084298258622,0.9941593860583272,0.010960945236853646,-0.05677516013347504,0.07227198390160436,-0.16229242680867775,-0.0411908124098726,0.02815967397458488,-0.002319117260700266,3,left
1.594,0.12857794549925894,0.9949241026273853,0.01420379185475687,-0.05622986974804833,0.07209843921897616,-0.1617536713127827,-0.04118137270754614,0.028128090192666932,-0.0023366024296496276,3,left
1.595,0.1295129354027502,0.9953963664526125,0.01801689453830968,-0.05864301091381892,0.07281880700122811,-0.16407388370574583,-0.04072620682885455,0.02630379368097139,-0.003787615276467109,3,left
1.595,0.1290817546435135,0.9956765998090467,0.01846624671703105,-0.054165961729518694,0.07148478033252312,-0.1597723235109021,-0.04184899466161203,0.030795672399865047,-0.00022563454116033286,3,left
1.601,0.12426063463272587,0.9969557625312696,0.019807965940274515,-0.059913695619777545,0.07320030411188136,-0.16529890518505352,-0.039985991345544605,0.023344838833222626,-0.006129747767253264,3,left
1.601,0.11902385688898134,0.9953449026024526,0.02173480104244189,-0.05511504509420219,0.07176687324331024,-0.16068292248170607,-0.04244353276031104,0.033173704939694515,0.001656867311098032,3,left
1.605,0.11748932848388427,0.9933333948459608,0.022928842949700143,-0.05524905956978848,0.07180266917314473,-0.16080694013125446,-0.052756765785683266,0.07442611063303013,0.03434341296265476,3,left
1.6059999999999999,0.11430836286656226,0.993338470066812,0.025647964381720866,-0.06438537840594143,0.0745490897522387,-0.16961684607535837,-0.055213247362352905,0.08425581007138447,0.04212889309864978,3,left
1.6059999999999999,0.107746474939064,0.9950823053772287,0.027734885198810483,-0.041923661545480106,0.06780076034260113,-0.1479610064114845,-0.05335184019172659,0.07680300059379032,0.0362270540483116,3,left
1.609,0.10109198755174387,0.9952792240280378,0.03037683941863904,-0.07916926027104731,0.07899031713554203,-0.1838710838112948,-0.05447347211400311,0.08129834159812566,0.03978579599359084,3,left
1.61,0.09773253923019834,0.9932014901927246,0.03279159801130359,-0.030039777241532496,0.06423029078624042,-0.1365016052384274,-0.05401778469565728,0.07946919104734589,0.03833834984210065,3,left
1.61,0.097111216802577,0.992630014415765,0.03368075507415343,0.17613827921035044,0.002270175243318743,0.0622994537787733,-0.054011659871637245,0.07944281052090033,0.03831829444344788,3,left
1.615,0.09257045120970117,0.993902632218339,0.03456702065257589,0.225272489315159,-0.01249148072036005,0.10967597600843494,-0.05424788747989748,0.08040391268693475,0.03907470138855482,3,left
1.6159999999999999,0.08551042718963386,0.9953946225214955,0.034734842746085855,0.18802215648368595,-0.0012995697348649623,0.07375768813268704,-0.053968072978568905,0.07925102643714521,0.038171385430924104,3,left
1.62,0.08275007887885308,0.9953128598891448,0.03471068876853853,0.21048058122291302,-0.008049322102237747,0.09541271810681626,-0.05418135733054909,0.08015143543892614,0.03887077065679869,3,left
1.621,0.07976199791404914,0.9953146240822432,0.0343286882815073,0.20136400415670136,-0.005304434001292306,0.08662378487566155,-0.05407097669134567,0.07966334195919915,0.03849775711616957,3,left
1.625,0.0734464352385166,0.9953955734273756,0.03399300712766239,0.20118936794252507,-0.005262457357360117,0.08645176503021117,-0.054094140052922485,0.07977599378814507,0.038581176628737765,3,left
1.625,0.07119514472840016,0.9960934631192944,0.03198768661384704,0.20604477647771113,-0.006707058670073066,0.09113887638205356,-0.05411744171365453,0.07990875743986928,0.03867468212091942,3,left
1.629,0.07177528863433862,0.9978465245072432,0.026273879318501413,0.20024237886097113,-0.004977527702284402,0.08553858829969518,-0.05409001588347288,0.07967176933208985,0.03852436307121478,3,left
1.63,0.07058019517040963,0.9952102445417256,0.019856182413074866,0.20473956881630884,-0.006322953545297907,0.08987729444755937,-0.05409387775523023,0.07990635403412175,0.03864581952083418,3,left
1.636,0.06957353257563792,0.9925624817330594,0.014108890842899728,0.20238130792672449,-0.0056022733561298145,0.08760806247892979,-0.05411801761830678,0.07973409648634273,0.03858831004310241,3,left
1.6369999999999998,0.06986188331873514,0.9915176506858775,0.008331632073835752,0.20276347245435744,-0.005755595622566792,0.08796141615430955,-0.054086266184588484,0.0798213712100952,0.03859453235551434,3,left
1.639,0.07268507988370776,0.9865073685676119,0.003931323738524804,0.20369278819637077,-0.005968692163986959,0.08888361766250752,-0.05408579100374676,0.07982131510122908,0.03859391178870836,3,left
1.64,0.07563520100123738,0.983742627795012,0.0028793246500754,0.20223078782375908,-0.0056104771586279936,0.0874418322939344,-0.05416469847728664,0.07973954453881268,0.03864589589708327,3,left
1.6440000000000001,0.077025070380229,0.9832920729161191,0.002673105062493848,0.20355201844968263,-0.005942871644531361,0.08874137524902809,-0.0539758927933387,0.0798925852962849,0.03850033092683321,3,left
1.645,0.07976975157576441,0.9794323793084234,0.0013728714644691063,0.20285910151933878,-0.005734067740815305,0.08807350028010288,-0.0542645390933705,0.0796921353998351,0.03873953623959821,3,left
1.649,0.08366673311169875,0.9750096465444151,0.0017100708149677512,0.20263697476891873,-0.005787236736025703,0.08781178714258997,-0.05395274357067892,0.0798895386557342,0.0384716616950673,3,left
1.65,0.0882640009430879,0.972386142354189,0.0054635057861291934,0.20383856640263892,-0.005874287814113083,0.08907897445801514,-0.05413423776588931,0.07978067129084067,0.038630523153103585,3,left
1.656,0.0948465872900257,0.9713548312731765,0.011510951060205086,0.2018798168146238,-0.005694473408091549,0.0870283535100625,-0.054291112095524646,0.07968903337124901,0.038769304189929354,3,left
1.6569999999999998,0.10338797823969266,0.9692077255888596,0.015170781479066548,0.20399882499669456,-0.005895457980297214,0.08924413472665021,-0.05360273973607236,0.08008391055523971,0.03815723180895297,3,left
1.659,0.1109504307336964,0.9683862048593364,0.012084877029404941,0.2027255771025592,-0.005764647566520157,0.08791682400703835,-0.05488093414052403,0.07935755485396748,0.039296957826752965,3,left
1.66,0.11502164028619107,0.9736755646240577,0.0018237844738178527,0.20187017713580563,-0.005724624232229809,0.08700582690326045,-0.053238526408508714,0.08028612638328839,0.03783032195996773,3,left
1.6640000000000001,0.11640405797688602,0.9801391613430216,-0.012791903916948243,0.2060102056744506,-0.0060188339302648525,0.0913743011259472,-0.054610309630793094,0.07951266327501103,0.03905601473315155,3,left
1.6640000000000001,0.11507095905132972,0.9893097010200881,-0.022489251948970883,0.19826093736644357,-0.005451747734856598,0.0832042260960648,-0.05457284158790995,0.07953397746331121,0.03902341794159367,3,left
1.669,0.11335828439596363,1.001821101787825,-0.01698058075101093,0.20822743932788446,-0.006184710776096595,0.09371020205004466,-0.051957155137482156,0.08100467858946887,0.03668231234660982,3,left
1.67,0.11298231640043033,1.012188750965909,0.0009133111732664962,0.19990037780480446,-0.005570883086249081,0.08493341765618781,-0.058387217968143126,0.07739063010117653,0.04243652257009825,3,left
1.6740000000000002,0.1078665813522181,1.0275581372049976,0.01728385422850507,0.20015077747007504,-0.005594898247293445,0.08519411248168152,-0.047725086074126705,0.08338195299454604,0.03289540235139026,3,left
1.675,0.10292024049067702,1.0386856213313833,0.02419293457511036,0.2159468045269507,-0.0067409822347570545,0.10185295931764121,-0.06178898559454857,0.07548014829407448,0.04548038477193804,3,left
1.675,0.10119221908657189,1.0403835036991742,0.02464025552293036,0.1770925659976894,-0.003915406458269143,0.060881060296364094,-0.12081099185914936,0.042319628044303725,0.09831941787595422,3,left
1.6780000000000002,0.09015501555943972,1.052985538231875,0.022743032255847617,0.24152235594287563,-0.008602472417823519,0.1288202443865013,-0.13487465458674733,0.034418775656276886,0.11090544259353799,3,left
1.679,0.08009221653594817,1.063601740967481,0.020630083059723865,0.1565390694891546,-0.0024202207464385506,0.039209628807518444,-0.12421415804272079,0.0404080253868255,0.10136137355824142,3,left
1.679,0.079417462652623,1.0650294221255807,0.019062837541453312,-0.2001399375788241,0.023520583501271057,-0.3369112540829932,-0.13063943330504485,0.03679727872973418,0.10712160533209908,3,left
1.683,0.07704865598218247,1.0755396640464587,0.018766624983657932,-0.28512043555108657,0.029701669758915188,-0.4265166486015032,-0.1280329679556248,0.038263782684189326,0.1047709422027481,3,left
1.6840000000000002,0.08016817648477136,1.0846290326837646,0.024479271618668398,-0.22069366164027904,0.02501586507927389,-0.35858311316627467,-0.1279823875136766,0.038289040343582506,0.10475002560271582,3,left
1.689,0.09303692738503189,1.0871235148708922,0.037905495488426644,-0.25954905087073366,0.02784191907534632,-0.3995571612964719,-0.12936758480470517,0.03751399612730285,0.1059660840971627,3,left
1.689,0.11113044328603358,1.0860560803984831,0.05378302086038522,-0.24374300957865783,0.026691655325483125,-0.38287957532381744,-0.12771854757393913,0.03843905430904879,0.10450015732207768,3,left
1.693,0.13219297457469376,1.0777359518946068,0.068742581313328,-0.24351415230519402,0.026676635292772644,-0.38265919916488966,-0.12898710875380348,0.03772366280681786,0.10565607612202368,3,left
1.694,0.14759172944712906,1.068206823142274,0.07932486898058477,-0.2518103300119517,0.027277564319287226,-0.3913781755341771,-0.12833321751927157,0.038099785144876275,0.105005377220173,3,left
1.6980000000000002,0.1578629792512825,1.0550908618908146,0.08353112012550473,-0.24187457738674936,0.02655744749651029,-0.38092976335628015,-0.12842854601962989,0.03803110817369093,0.1052031819010438,3,left
1.6980000000000002,0.16481271354956895,1.040959212161083,0.08563489818355492,-0.24961058628089733,0.027118987366940288,-0.389075002451295,-0.12868796764256707,0.03790393831659883,0.10529747152352292,3,left
1.702,0.16663378469451395,1.031428087141435,0.0841642861085726,-0.2454441336743831,0.026813754349488274,-0.3846570934632765,-0.1283104010337333,0.03810122960424138,0.10506941473049645,3,left
1.703,0.16790027676868235,1.0199362463471036,0.07947992255990234,-0.24638461968856584,0.02688930037521521,-0.3857273264938301,-0.1286068571508639,0.03793458538413874,0.10533577707304073,3,left
1.7069999999999999,0.16882485723888072,1.0109824072764015,0.07579306999047415,-0.24751127962948657,0.026958896032484223,-0.38678027114063684,-0.12852087423208775,0.038010321790005894,0.10505485696703479,3,left
1.7080000000000002,0.17022919210426496,1.0058157609389629,0.07170845439510065,-0.24557215156398066,0.026833045461493833,-0.3849012015169164,-0.12834951778758363,0.03804383160956312,0.10536752637177421,3,left
1.714,0.17339439792263578,0.9994903278371708,0.06706915391911981,-0.2473875220360901,0.02695294724491632,-0.38668338629545884,-0.12873470410657775,0.0379211145297541,0.10501706945740757,3,left
1.715,0.17607449798167996,0.9960233456953347,0.05936512732003237,-0.24618458356260173,0.02686539027337732,-0.3854137916308618,-0.12827667151390476,0.03807850391323128,0.10534820391320648,3,left
1.7180000000000002,0.17925754379576875,0.9941735443002585,0.05067536270511142,-0.24667294265666825,0.02692333895349945,-0.38617368613787295,-0.12857313375458027,0.03796980713275395,0.1051853667415327,3,left
1.7180000000000002,0.18264873675007529,0.9933585851707354,0.04370985120241286,-0.24675755535365157,0.026878151252042223,-0.38570307847817387,-0.12872978448573172,0.03793131582817824,0.10495641609522208,3,left
1.7209999999999999,0.1864458882578006,0.9939398923517424,0.036024650982878784,-0.24634371574111572,0.026924711524058467,-0.3861019446490766,-0.1278617166359168,0.03820154242109422,0.10579495846074796,3,left
1.722,0.1874229964289626,0.9942992939378035,0.030215585901113222,-0.24683853769921005,0.026878902344866208,-0.3857332123185851,-0.1295147017209763,0.03767647670241859,0.10427853599144198,3,left
1.7269999999999999,0.18420523510626108,0.9973116371689795,0.024526291453688683,-0.24646784345040393,0.02689933192711505,-0.38585706928337526,-0.12737659548640326,0.03835914224074743,0.10621170080318662,3,left
1.7280000000000002,0.18335602131628187,1.0004803083879574,0.017566975230392204,-0.2465679030036284,0.026947065049431153,-0.38640564266315636,-0.12916825206388766,0.03778591603242598,0.10460380915420964,3,left
1.732,0.18155900027213812,1.0030542544753653,0.01028458993536555,-0.24681715129976486,0.02678730226929746,-0.38472802678834245,-0.1291094202015322,0.037806240342302885,0.10463796624860087,3,left
1.732,0.17686616513728082,1.005841161357083,0.0021636686108269824,-0.24623054359815577,0.027074891849051853,-0.38770861852952765,-0.1257205235536722,0.038886218081058924,0.10772870316676979,3,left
1.736,0.17332739743154135,1.0063172991636167,-0.005294339073756822,-0.24701217839925863,0.026707317412612813,-0.3839107387088251,-0.13406511360232237,0.036225362976233626,0.10014579058433065,3,left
1.7369999999999999,0.17015020317846605,1.0072358356830957,-0.0122671996957427,-0.24634741489512416,0.027013846687951294,-0.3870694408190272,-0.12022349688184213,0.040638814330602985,0.11271313811628673,3,left
1.742,0.1689594474255552,1.0077744210893047,-0.015041175735156218,-0.2464108658592794,0.02700754934754198,-0.38702967010711614,-0.1384829641033881,0.034818025699327806,0.09613925816306285,3,left
1.742,0.16732365935846522,1.0083627962798518,-0.015305203825442999,-0.24753122974498018,0.02641555139249381,-0.3808568483842006,-0.21511668094354053,0.010380804763402078,0.026560298633734415,3,left
1.743,0.16390899829618671,1.0109240856480919,-0.018746073362271968,-0.24472220764608188,0.027869114507800708,-0.39597484193701527,-0.23337767937014542,0.004564085457711277,0.009988241148202086,3,left
1.749,0.15991419785423977,1.0123346489958625,-0.021397216464175063,-0.2493957847812885,0.025458514281558074,-0.37092262099243634,-0.21953266236474478,0.008971741386661654,0.022551838639342285,3,left
1.749,0.15507993924753938,1.0134445759111839,-0.021336178134458886,-0.2432280917533082,0.028639127946509607,-0.40396508658467756,-0.2278827982810556,0.006314144681265604,0.014974474726885654,3,left
1.75,0.15297657025862474,1.0145908965442967,-0.021300219097884127,-0.21747000923883286,0.04196083271026106,-0.542733080521409,-0.22448666463703076,0.007398557128518505,0.018058767093524053,3,left
1.751,0.14860033751526455,1.0166870801333514,-0.02313857939974772,-0.2113103988709057,0.045140627452193285,-0.5757816659646535,-0.22443489810140027,0.00740254554836673,0.01809811553183021,3,left
1.751,0.14038875249372162,1.0195923068849142,-0.0238035942100613,-0.21596639027628844,0.04273512941731754,-0.5507217899577331,-0.22622323448976228,0.006858181357350333,0.01648972587970266,3,left
1.758,0.13302690694927355,1.0214225156766013,-0.02213601888907904,-0.21318535663469806,0.0441740957277473,-0.565840926921481,-0.22407992793213288,0.007505311147595405,0.018414711045968084,3,left
1.7590000000000001,0.12283764024225308,1.0230792870644256,-0.02283750397234261,-0.21427017047609828,0.04360994620885007,-0.5596825196601023,-0.22575095345916368,0.007008197942404967,0.016917928477086147,3,left
1.761,0.1119849847456347,1.023132897591145,-0.023426602071578213,-0.21436698344543412,0.043564297306366274,-0.5596066912995102,-0.22485095152426093,0.007279859132364629,0.017726371593840565,3,left
1.7619999999999998,0.10315449380227411,1.023077218618472,-0.0224969072261873,-0.21368891464006076,0.04391078189284063,-0.5628211303313002,-0.22504785108472442,0.007186723062795577,0.017530514939530936,3,left
1.767,0.09250697279806738,1.0232678637606318,-0.02206206029387489,-0.21444066881814028,0.043523988894564075,-0.5589627048753372,-0.22531051128104662,0.0072005729480192305,0.017346909616044355,3,left
1.767,0.080847697135112,1.0232650623528148,-0.02245095529636842,-0.21394704457087466,0.04378167589462571,-0.5619787861279839,-0.22485621189142568,0.007177428989168023,0.017665033024155424,3,left
1.771,0.07017462542641677,1.0250589868830817,-0.02347252274258842,-0.21403740429949286,0.043726426664661665,-0.5603315818944928,-0.22529481758861766,0.007243640975708378,0.017382460628478986,3,left
1.771,0.059631678659774034,1.0272672935443734,-0.02160392427752556,-0.21433179601653965,0.04358890413533212,-0.560745065939005,-0.22499410844739937,0.007175288783592555,0.01756334187036543,3,left
1.776,0.04932932166422016,1.0303089382199069,-0.019745344222174048,-0.2138065066263907,0.043842577244295355,-0.5611227641461123,-0.2251068424687136,0.007137881778658574,0.01746016981316231,3,left
1.776,0.039439032878672384,1.0332871377439874,-0.01896382418900494,-0.21429962064603414,0.04360181488841483,-0.5604201201455523,-0.22518461661645228,0.007417776051947591,0.017560438501970574,3,left
1.78,0.028679151413554763,1.036660999603065,-0.017110860951817332,-0.2141731731797786,0.04366739355797312,-0.5611186428018611,-0.22494468789306313,0.006797984710214015,0.017387794944424786,3,left
1.781,0.0185893467869159,1.0415157827036852,-0.018238337215488357,-0.2136017886729351,0.043936441305084735,-0.5605736994092438,-0.2252881489746688,0.007727202188701227,0.017658456418481766,3,left
1.786,0.009281438594246641,1.045546866509666,-0.019127416324503453,-0.2150678371832725,0.04323849563617531,-0.5609541954786532,-0.22494119993336564,0.00673052910827825,0.017352524725649878,3,left
1.787,-0.001200716769406617,1.049646555384442,-0.017034838307413088,-0.21282455663556848,0.044308989599101005,-0.5606912690877345,-0.225141862276451,0.007306336941351714,0.017529103460502134,3,left
1.791,-0.010446679605512479,1.0525411963569584,-0.015819871904412794,-0.21523618631043107,0.043157069028784384,-0.5608599092480023,-0.22527233325256177,0.00781626427325471,0.017719922311942783,3,left
1.7919999999999998,-0.019408752136938063,1.0540374151079472,-0.015386186436671166,-0.2138295959113805,0.04382991671922673,-0.5608375129779553,-0.22464633149519975,0.005602154754518729,0.0169347918840568,3,left
1.795,-0.030358269078565335,1.0571664662784914,-0.014751943527916577,-0.21265800187443287,0.044387320176130694,-0.5605849227221882,-0.2258099668947066,0.009707358613048719,0.01838831917782372,3,left
1.796,-0.03854532917702149,1.0602088283872875,-0.013270518313903395,-0.21786032580701198,0.0419060803934448,-0.561259713041063,-0.2243193659780035,0.004434961661160917,0.0165187673764963,3,left
1.8,-0.04438003704746766,1.0600709469491751,-0.011238763066193947,-0.20819574115550046,0.046517540989965314,-0.5601104431967232,-0.22556212019558158,0.008837120549448758,0.018080884184425487,3,left
1.801,-0.053748420410677636,1.0593619604547821,-0.011024521040339082,-0.22061037066834865,0.04059244635293808,-0.5615488076299413,-0.22552419259358825,0.008719427350342202,0.018043104569911414,3,left
1.805,-0.06190979038550543,1.060109062133363,-0.01163720266442276,-0.21024594429612858,0.045540855036975816,-0.5603646387126672,-0.22317309835409047,0.00031922629524613194,0.015045851523955645,3,left
1.806,-0.06801193352648162,1.0590304756104643,-0.010586660725171414,-0.21052454861986863,0.04540380155214173,-0.5603701330666929,-0.22895492177811438,0.020964770324287972,0.02240918405235668,3,left
1.811,-0.0781688768670047,1.058376683162459,-0.010080180018971305,-0.2302906585107164,0.03597623009650236,-0.5626979118409359,-0.21936872711226219,-0.013266599473410565,0.010199724457702331,3,left
1.8130000000000002,-0.085032411380631,1.0595173045491453,-0.010789417285181041,-0.1817147973645617,0.059153086243239034,-0.5570167051231709,-0.2320121563391745,0.031884846697615446,0.02630685654832045,3,left
1.8130000000000002,-0.08766371297243017,1.058960633826529,-0.010589502840739883,-0.2622475054301728,0.020722142747008176,-0.5664187147259305,-0.2850874157185741,0.22141479313892,0.09398900644737627,3,left
1.817,-0.09074353672713514,1.0584861044611629,-0.010078453611462802,-0.15603646374573985,0.07141441876069954,-0.5540275522402808,-0.2977329805671966,0.2665676722312951,0.11011346551100024,3,left
1.817,-0.09370845912920453,1.0581654772207023,-0.00962855860693012,0.28984505245262043,0.28418439732921685,-0.5019685628515085,-0.28814108169049524,0.2323335214909336,0.09786725348111963,3,left
1.818,-0.10253722122057563,1.057362138041547,-0.009356221327942076,0.3960252769830731,0.33488099370331126,-0.489591984639047,-0.29393404659835026,0.2529828347585137,0.10528723312835445,3,left
1.82,-0.11272611034354887,1.058035618858054,-0.008104833016840266,0.3155403012071002,0.2964430694713175,-0.4989688299669166,-0.29156583575476347,0.24457879001999464,0.10222068149357888,3,left
1.821,-0.11998071005910113,1.0578600116596286,-0.006658249381621972,0.3640778732372362,0.3196263170929963,-0.4933148639500291,-0.2915481818017938,0.24446336367955576,0.10224416923052669,3,left
1.824,-0.1291257430833658,1.057019561019481,-0.006960278661943895,0.3443062439511033,0.3101974091781471,-0.495626452376212,-0.2927751211350949,0.24886707858987042,0.10378876266025056,3,left
1.825,-0.1377303222042191,1.0580508615384225,-0.005868370329930009,0.3441097158676906,0.3100519798363438,-0.4956209986585168,-0.2912837150416543,0.24358712889083556,0.10184882628761399,3,left
1.83,-0.146525803900645,1.059020752230411,-0.004400459027684148,0.35430025626695655,0.31502140607522533,-0.4944891828075312,-0.2924784346896194,0.24770673915783348,0.10349582034457548,3,left
1.831,-0.15565427496856624,1.0588596200235765,-0.0018893986434493555,0.3421289905361901,0.3090641296204518,-0.4958296263108781,-0.2917823039622684,0.24547342929109064,0.10239533002603501,3,left
1.8359999999999999,-0.1631870016522196,1.0590203379950758,0.004262603734911592,0.35155818390390586,0.3137103729960269,-0.4948076378629109,-0.2920168292731133,0.24600101501573998,0.10295545208010712,3,left
1.8359999999999999,-0.17266840602776912,1.0601224254547588,0.008107397613554652,0.3464473318998388,0.3112086146238131,-0.4953705774226208,-0.29210739631446375,0.24657148726579517,0.1028628265467148,3,left
1.839,-0.1833839765594694,1.0604341257980288,0.011113026990020421,0.34784111823664277,0.3117492775231907,-0.4951412224017727,-0.2918220380961809,0.24555471005181745,0.10249726078892979,3,left
1.84,-0.19254476899007444,1.0593883514359232,0.01524397877710307,0.3485714937636536,0.3124979901034103,-0.4952701254264095,-0.29222631789323306,0.24653978617947006,0.10339841456064011,3,left
1.844,-0.20205252851568056,1.0600246893440943,0.017492272247887033,0.3473012115088048,0.3112030413636413,-0.4950499241281639,-0.29173371469010734,0.2458287695920583,0.10188878871298246,3,left
1.844,-0.214018153914629,1.0624154377626684,0.022249950603959272,0.34816941212247005,0.3124621252242852,-0.4954004490109955,-0.2922798697054787,0.2462154893595213,0.10390034258933986,3,left
1.849,-0.22554982339443944,1.0622092486046602,0.027303204103741936,0.347761615463191,0.311594251121621,-0.495087947480097,-0.2917807856292737,0.24610018527066715,0.10186185722048324,3,left
1.85,-0.23444721328269097,1.0613810661022165,0.030665350696186085,0.348429452492817,0.3119069517035715,-0.4950067910777877,-0.2920267163287246,0.24601510290007897,0.10298581437167074,3,left
1.854,-0.2443651485536887,1.0637135784537235,0.03609829558361743,0.3463928843985199,0.3121841392759652,-0.4959125185850859,-0.2923280924600272,0.246261386232744,0.10406788759893165,3,left
1.854,-0.2558555761318695,1.0650433514470494,0.041899321403139164,0.3506849438994006,0.3113779932481012,-0.4938849964480195,-0.29119779226748466,0.2458582336708366,0.09957119406229843,3,left
1.861,-0.26704758717316224,1.0660854149605026,0.049606023643026534,0.3441979769071989,0.31254046304195304,-0.4969194512061386,-0.29323894076905943,0.24640904737224611,0.10784086513091622,3,left
1.8619999999999999,-0.27725601636860653,1.0685590995446934,0.0580414399375577,0.3512247095149609,0.3113545089087947,-0.49367167533302353,-0.2906424176601492,0.24578936511848432,0.09725269983104344,3,left
1.864,-0.2855222770502377,1.0699962769782552,0.06401266461579319,0.34716589640475615,0.31204029687564516,-0.4955480812168088,-0.2927996827042165,0.24626881326658745,0.10607982835412069,3,left
1.864,-0.2920059565393955,1.0737326026662743,0.07224786572621228,0.34341965509822736,0.3125134578915012,-0.4971944911703979,-0.29275034346106793,0.24628953982101295,0.10585035134060977,3,left
1.869,-0.2957931483623121,1.0779987343724708,0.08208209991713496,0.35949453071044574,0.3102899889849553,-0.4900264753206615,-0.28862009361688656,0.24531213704177124,0.08900236603552861,3,left
1.87,-0.2967296119411527,1.080168514633614,0.09059842248476119,0.32969963162903504,0.3144209501782097,-0.5033177493617341,-0.29875551377492837,0.24765363441605487,0.1303963228770143,3,left
1.8730000000000002,-0.29558616857760023,1.0851765824431299,0.09988085762470932,0.36797788530570896,0.30912650255787205,-0.48624869103018015,-0.28195828951527663,0.2438014008583858,0.06176961507532923,3,left
1.874,-0.2947974901062643,1.0900842312360481,0.10473812555558595,0.33601286509076345,0.3135418861852857,-0.5004999872331072,-0.3041099395015934,0.24886622994273738,0.15228705268765802,3,left
1.879,-0.29396889380200975,1.0904283062419522,0.10598865217220971,0.3368491375198417,0.3134105855162944,-0.5001169178713393,-0.3970905273081612,0.27013738743564497,0.53221063417759,3,left
1.88,-0.2904979066285403,1.090787278983209,0.11284942741823176,0.39791937446215064,0.3050425979415675,-0.4729307150339075,-0.41924015688899546,0.27518797831162745,0.6227359685426364,3,left
1.881,-0.28457115072771816,1.0942837639843896,0.12249878374006791,0.2478391225270311,0.3256186110612502,-0.5397491682819675,-0.40244744142088584,0.27136282425338043,0.5540986388429389,3,left
1.883,-0.2738054597983385,1.0998397510938194,0.13087414465860053,0.49668341856289255,0.2915034853813607,-0.4289612691474374,-0.4125754653700558,0.2736688284709843,0.5954967069550513,3,left
1.8840000000000001,-0.2663590647320345,1.1040583343975414,0.13473515624278298,0.16844072398998067,0.33649962691789814,-0.5750890344568067,-0.40845492657690974,0.27272557797120733,0.5786618874605893,3,left
1.885,-0.26512722354354157,1.104817208276013,0.13619266950377518,-1.2098146069289657,0.5253982973408515,-1.1884137860970194,-0.40839602425893506,0.27272977427496503,0.5783939443542168,3,left
1.8880000000000001,-0.25492140797660656,1.1076215194603853,0.14446350903522415,-1.5381666589797849,0.5704041463211927,-1.3345293320413405,-0.41055792900333254,0.2731873271161044,0.5872843432338648,3,left
1.889,-0.23793201034918696,1.1135382693351978,0.1540437308833929,-1.289090500539582,0.5362649624950984,-1.2237687406667737,-0.4079681166455389,0.27264640081146674,0.576623031869497,3,left
1.893,-0.22159646356427914,1.115115535583263,0.15980403911391994,-1.4395279317353493,0.5568849944969103,-1.2905423247598777,-0.4099853296534579,0.2730574760357856,0.5849431014898183,3,left
1.893,-0.20183925672968817,1.1150812797965868,0.16606741571486833,-1.3780210316223767,0.5484528609734634,-1.2634151366904631,-0.4088977456276907,0.27283037888151146,0.5804658056936172,3,left
1.8980000000000001,-0.1808744423236643,1.1175972310741629,0.1745916705039527,-1.3775703916073454,0.548393451967286,-1.2629738108731936,-0.4091449291308758,0.27292878043744445,0.5814107272739302,3,left
1.899,-0.16047052440295928,1.1172636934447597,0.18364132053676996,-1.4094259421972244,0.5527586969161113,-1.277253617819079,-0.40943687499099535,0.27286047491665966,0.5828133616250731,3,left
1.903,-0.13831831177642032,1.1156820344792227,0.18834373504045335,-1.3707028134523493,0.5474480552131324,-1.2602248866223191,-0.4089316359741706,0.2729774183188871,0.5803879411014351,3,left
1.9040000000000001,-0.1162577282724734,1.1138286281487015,0.19081666807658182,-1.4017181612389886,0.5517087808486538,-1.273371160864007,-0.4094074845625084,0.27280114049847104,0.5827749899361454,3,left
1.9080000000000001,-0.09560464779427943,1.1099686831893774,0.19451539585180755,-1.3836555037852145,0.549216326992951,-1.2664625213605176,-0.40908749042265735,0.2729551722877082,0.5811146529386544,3,left
1.9080000000000001,-0.07499914378603911,1.1095117726274615,0.19604267070306636,-1.3897277327223907,0.5500692382310607,-1.2677792468635851,-0.40922463926498365,0.27298847220809563,0.5816720092279696,3,left
1.913,-0.054015369094219105,1.1092865441996165,0.19540576335432006,-1.392093840130676,0.5503770874630829,-1.2699364855709505,-0.40923592400180486,0.27256983429217563,0.5823723385719013,3,left
1.9140000000000001,-0.033077006470217135,1.1062739387475276,0.19424954207655468,-1.384685041034944,0.5493612948964078,-1.2666492134383376,-0.4091346869513416,0.2735093462330822,0.580463540617832,3,left
1.9169999999999998,-0.013189935642629564,1.1058381097171193,0.1925864332065617,-1.395152692196207,0.5508271188158317,-1.2692590125757195,-0.4092681623748843,0.27210373279705147,0.5832394199988787,3,left
1.9180000000000001,0.008079282071798574,1.1056854997438108,0.19067996287853894,-1.3824296581935056,0.5490124146713243,-1.2682783230502062,-0.40914915946971375,0.2736075013923478,0.5803753836294165,3,left
1.922,0.032133526934642144,1.1030264006450206,0.18636964866829514,-1.3965098905233986,0.5510478432284167,-1.2675607754254048,-0.4092181306006983,0.27273858878337565,0.5820311853865785,3,left
1.922,0.05485475145938279,1.1000548077726255,0.17994249860179012,-1.3836583380209322,0.5491740380976855,-1.2692860129947303,-0.4092261131756808,0.27197809033795695,0.5832478556037031,3,left
1.9269999999999998,0.07562528718373346,1.0974492309398152,0.17619820477483106,-1.3899827229996546,0.5501054334828615,-1.2677992940008143,-0.40912464109446883,0.27529177417662887,0.5776505477293514,3,left
1.9280000000000002,0.0989751787996685,1.0937763373740683,0.17590024513622715,-1.3977525772810626,0.5512271750685742,-1.267548753014138,-0.40931603791532856,0.2691470111463244,0.5880442341642221,3,left
1.931,0.12547327285404838,1.088464438894159,0.17447307130463666,-1.368641412805856,0.5469909644278481,-1.2708216930489673,-0.4090746621803366,0.27703843663996885,0.5747158647760483,3,left
1.932,0.14873241595052805,1.0845173615391324,0.1720718475044844,-1.4212022812736493,0.5546506287958466,-1.264117892164363,-0.40927406224218216,0.2704494119800443,0.5858348851827968,3,left
1.936,0.1730858152691852,1.0816975739160828,0.1714558796944096,-1.3543432659984393,0.5449027896614647,-1.2730065104763082,-0.40926362532427996,0.27062753810556506,0.5855122080469526,3,left
1.9369999999999998,0.1983605395432485,1.0775793619914067,0.16948267243660797,-1.4098925983458441,0.5530026369135936,-1.2654673369173175,-0.4089056144376916,0.28319425645720236,0.5644039871921411,3,left
1.9409999999999998,0.2175409291231673,1.0748464976657912,0.1669546698426358,-1.4086164994877781,0.5528178628163007,-1.2657710060182499,-0.4097889186343452,0.25230576494635526,0.6163013046328,3,left
1.942,0.23915806606358958,1.0741387076326203,0.16688428707686415,-1.302277653173069,0.5373079780169663,-1.279964727899098,-0.4083252688195321,0.30352170565215275,0.5302554460455152,3,left
1.9469999999999998,0.25400636947563027,1.073158198565862,0.16597044156627702,-1.5632393755166396,0.5753670567138289,-1.2449008029929463,-0.4102540943114033,0.23596684507634025,0.6437435474853743,3,left
1.9469999999999998,0.260686027859349,1.072655100138113,0.16259187025260596,-1.130743107632653,0.5122944789264532,-1.3031205600785265,-0.4183464624509436,-0.047566791304901004,1.1200588161131384,3,left
1.9480000000000002,0.2719413831533192,1.0722390859055762,0.1590276588085855,-1.7011160485276031,0.5954698258639634,-1.2262925401468339,-0.4202735363512934,-0.11512100889826242,1.2335384919060575,3,left
1.9509999999999998,0.2793077310301755,1.0717425811112475,0.15596308671868597,-4.095090532941514,0.9446337202011242,-0.9037092334903004,-0.4188116167294977,-0.06390940204162532,1.14750546333283,3,left
1.952,0.29131399298964733,1.0727046420282584,0.1507566023336107,-4.665428296228762,1.0277957519256273,-0.8268692708328966,-0.41969622583262933,-0.09478527158942768,1.1993930927596517,3,left
1.952,0.3107139692395503,1.0742306941689606,0.14338495347025787,-4.2330326857256235,0.9647461601414126,-0.8851298025409319,-0.41933072441658265,-0.08224281252456543,1.1782817537307886,3,left
1.959,0.3243232178982377,1.0755273487516066,0.13803784550111664,-4.493787161033396,1.00278032798615,-0.8499721344417109,-0.41933559985989044,-0.08203023772687115,1.1779839041223346,3,left
1.959,0.3364723242733905,1.0754508081176724,0.1344503790928864,-4.38777917026141,0.9872853086067725,-0.8643263880873367,-0.41951368902544384,-0.08865444539485809,1.1890528205767874,3,left
1.962,0.3468753316706473,1.0750103107625941,0.12878699841185434,-4.38609656214215,0.9871104043861477,-0.8644205294144196,-0.419292730454323,-0.08074573373797217,1.1757924651100227,3,left
1.962,0.3534268933321919,1.0750925694779059,0.12379932267830107,-4.441984272551985,0.9951625919173467,-0.8570729951788905,-0.41947681018774763,-0.08686499680534374,1.186123152962446,3,left
1.966,0.36062271936494955,1.070870819890684,0.12193744200396014,-4.375093658589597,0.9855040648463606,-0.8659066515327357,-0.4193543675031627,-0.08364210098740546,1.1805449866485054,3,left
1.9669999999999999,0.36428763145798526,1.0650455735726663,0.11937890652040203,-4.4271011573556365,0.9930474774101821,-0.8589742717447442,-0.41942398442199436,-0.08424079975448365,1.1818333935466636,3,left
1.9709999999999999,0.36313999320652257,1.061903440866604,0.11404984519392417,-4.399323583277075,0.9889136403571323,-0.8628757287701032,-0.4193901206050149,-0.0853143240184403,1.1832898736551152,3,left
1.972,0.36405605416296416,1.0574735466731977,0.10799963718364777,-4.405045326652142,0.9900136919903709,-0.8616007203844775,-0.4193937418249595,-0.0836382273492843,1.1807508391793706,3,left
1.976,0.363405509243093,1.0529950390796703,0.10412515532744983,-4.413622382488299,0.9908075252998524,-0.8613112948500021,-0.4194348198285967,-0.08506351463255934,1.1831475682008086,3,left
1.9769999999999999,0.3588844720950477,1.0493342396147294,0.10024691795285501,-4.399362179403414,0.9892883925664673,-0.862170492747371,-0.419320378413763,-0.08439521126553849,1.1815116578402,3,left
1.982,0.35553419783462237,1.04410534953151,0.09710624014383493,-4.41253867991542,0.9907632634675675,-0.8612415594623254,-0.4195315939065325,-0.08415546056291677,1.1822819554943322,3,left
1.983,0.35232627663073635,1.0387958804273576,0.09767292319097114,-4.404475641239554,0.9895833798573063,-0.862336081502308,-0.41923416691696835,-0.08513542549774639,1.182178055131585,3,left
1.986,0.3487044564152065,1.0330742927024432,0.10039837717937065,-4.405906777063699,0.9906210140483839,-0.8605710309015026,-0.41954483740945325,-0.08386304336216806,1.1819064416231053,3,left
1.986,0.3449316750578332,1.025859628036534,0.10615284947570537,-4.41069210831232,0.9894245941128188,-0.8635185798834838,-0.41936951586743043,-0.08475093573474879,1.1823196503294768,3,left
1.992,0.3432932689181163,1.0164295581597758,0.11223330280062219,-4.401624405484371,0.9909281606261594,-0.8593814501746414,-0.419205377394811,-0.08504152571012571,1.1818790573364164,3,left
1.993,0.3435855995548292,1.0065390223640294,0.11637346008444296,-4.411649193871599,0.9893775370591673,-0.8637433679134471,-0.4198998697538697,-0.08289381556019998,1.182337522886464,3,left
1.996,0.34199915808975845,0.9994312534098131,0.1193816563656297,-4.405290846091836,0.9901910759925434,-0.8612993557151807,-0.4186173609573731,-0.08708374096394111,1.1818342737213012,3,left
1.9969999999999999,0.34053993889684364,0.9926926799434584,0.11967664265346431,-4.4026163652242,0.9913012219164121,-0.8588142577429294,-0.42026249817978334,-0.08162904576509131,1.1823558119673296,3,left
2.001,0.34004816306669183,0.9870379831947308,0.11894416639389004,-4.418912885728368,0.9871114101949435,-0.8690712944721225,-0.4188892909231988,-0.08621448209502941,1.1819724468692006,3,left
2.002,0.3404620194883695,0.9827199594560845,0.11748553780173068,-4.387864420125781,0.9947613261478095,-0.850160903153062,-0.4189265869944252,-0.08604163359893793,1.1819032754571857,3,left
2.005,0.340711986853169,0.9770256812017959,0.11640055723656963,-4.427914446669344,0.9849646418880128,-0.8744182374105178,-0.4215451233016027,-0.077427716985169,1.1828464731647386,3,left
2.005,0.341157885640343,0.9735840131952428,0.11631315549612276,-4.394409151266794,0.9931338699943338,-0.854176286824093,-0.41510793339570584,-0.09867026712942648,1.1806419614708266,3,left
2.01,0.3414658904407976,0.9703293179771001,0.11119217282160607,-4.395591805245454,0.9929515450652749,-0.8546872413067458,-0.4257828875583698,-0.06342234271189351,1.1842560416786128,3,left
2.01,0.3388378406045006,0.9670533481337493,0.10694292500046448,-4.45856277114253,0.9772441944735768,-0.8934075471237907,-0.4117000622840271,-0.10992414970247613,1.1795013877278189,3,left
2.016,0.33874151372017286,0.9664092149051395,0.10789321822401172,-4.303474519949513,1.0158081417067837,-0.7982795063365103,-0.35260201404920327,-0.3050754378344965,1.159501158036853,3,left
2.017,0.33662913719123655,0.9614079906561771,0.09986312575451087,-4.5606847306597755,0.9518749004887094,-0.9559975209817473,-0.3385117466827534,-0.3515799455668589,1.1547393789578049,3,left
2.017,0.32973339306310523,0.9560162888473388,0.08946855842045665,-4.221440053702086,1.0362068294983995,-0.7479659249778865,-0.3491981958492183,-0.31632296325445486,1.1583564716379957,3,left
2.02,0.32851105737736574,0.9556024875832398,0.0876016455396879,-2.7976378195485627,1.3901887337956758,0.1252626323018863,-0.3427518726222528,-0.3375861354675087,1.1561715268705515,3,left
2.021,0.32698601404848715,0.9521871845834199,0.08113738533530783,-2.458464223784989,1.4745349150209748,0.33330480592344625,-0.3453688426899237,-0.32893710596989545,1.1570548586162177,3,left
2.021,0.3186798547286883,0.9440257020342073,0.07261069483696364,-2.7155975279824527,1.4105862558231577,0.1755753466005368,-0.34542630569684774,-0.32880987446848964,1.1570915857796222,3,left
2.025,0.30668538865236084,0.936364623795956,0.06798070669969652,-2.5604800319821086,1.4491443313305652,0.2706990361386044,-0.34401073483221933,-0.3333538698681999,1.1565747254375043,3,left
2.025,0.2936505710632633,0.930426145525129,0.06280660206408238,-2.6237060899481843,1.433488144679322,0.23201668925884505,-0.34571485652884226,-0.32791050709472,1.1572062877784859,3,left
2.031,0.2811397352378449,0.9237340915743553,0.06183599437926882,-2.6243398750153983,1.4331957438127576,0.23142405948214356,-0.3443756997622295,-0.33215112943082725,1.1566981044028437,3,left
2.032,0.2656663704721608,0.9172076295361629,0.06334301054150951,-2.591621551159753,1.4415227906792454,0.25178311734637737,-0.34509143094612393,-0.32986560271403575,1.1569640755653952,3,left
2.035,0.2501665237115443,0.9117968791540334,0.064883025351143,-2.6308879121577196,1.4315689616126668,0.2274091668336971,-0.34498254350520197,-0.33037978385557587,1.1569749229046558,3,left
2.035,0.23613709217569548,0.9053170564706696,0.06944330204120522,-2.600177595094748,1.4392866645454863,0.24636987933308307,-0.3446418276053942,-0.33100751732330647,1.1567060389130706,3,left
2.04,0.22087333835323608,0.8975687626728515,0.07625631485587689,-2.617147032192514,1.4352318366106973,0.2362129744608035,-0.34523000204942045,-0.32992155669521805,1.157169786165818,3,left
2.04,0.20760374941394918,0.8910436612487972,0.08489998112506915,-2.6123048573628047,1.4359072344604122,0.23837550667536522,-0.34460004131508326,-0.33095139908401694,1.1566317032409092,3,left
2.044,0.19507559112226483,0.8870269904741122,0.09204125532570565,-2.6096815609897996,1.4374698215049095,0.2413753206695099,-0.3450644311769901,-0.3302550766057193,1.157047835374599,3,left
2.045,0.1846221198316355,0.8814628543134213,0.09904854985372377,-2.6151224797431034,1.434999971694936,0.23633128683108295,-0.34497960425829,-0.33054277402701837,1.1570216570846907,3,left
2.049,0.17855907121661213,0.8745302670512094,0.10738831398827196,-2.609709295829166,1.4372363245512636,0.24101224426143414,-0.34448819976131523,-0.33061193651543697,1.1563741781175463,3,left
2.05,0.17316221295390488,0.8681370054652984,0.11273433899595586,-2.6145271108875603,1.4360465850083979,0.23806951436810125,-0.34565906235399413,-0.33029553089292263,1.1578697161572307,3,left
2.0540000000000003,0.1697899064878305,0.8585255363995542,0.11834590077784085,-2.609176616787601,1.435724017185688,0.23882542721348252,-0.34392358532859435,-0.33073067968884073,1.155642704820682,3,left
2.055,0.1686364108524317,0.8480605102579638,0.12514004634334344,-2.616612011142176,1.4376523750118517,0.24003716963256225,-0.3457587490500366,-0.3303156856810959,1.1580113567328651,3,left
2.06,0.1696026750938037,0.8388342667542701,0.1296364295066434,-2.606667241930464,1.434490473547743,0.2375254924754807,-0.344698391450292,-0.3305559402173932,1.1566433883571974,3,left
2.061,0.17483187431508318,0.8267770729191153,0.1309798750593742,-2.617055022098771,1.4379139816100646,0.2403341129230259,-0.34381665344898715,-0.33065487977754826,1.1554730621352818,3,left
2.064,0.1821487611506078,0.8137992278080016,0.1303815997747061,-2.6113903661781084,1.4358524533661627,0.23850422409958308,-0.3477169907234401,-0.3300819736129734,1.1606047136052962,3,left
2.065,0.19104276172718232,0.8012433347040636,0.12977231916142612,-2.6048355573273474,1.4344895100087265,0.23795244880151348,-0.3404820954075215,-0.3311512754991841,1.1510892168007008,3,left
2.069,0.2007166918867157,0.7856101923207217,0.12480531753341878,-2.6307863661332913,1.4411315583138842,0.24204613523312116,-0.3497689110490556,-0.329787350612085,1.1633047570925046,3,left
2.07,0.20815264382229617,0.7700005572445964,0.11731745826636766,-2.583153942159079,1.4286923600592782,0.23415130074588597,-0.3420176648587985,-0.33092175006155067,1.1531098247287659,3,left
2.075,0.2137621101549474,0.75636937878265,0.11291192080823698,-2.644205853646911,1.4446911464209449,0.24435670737278067,-0.34222950805247465,-0.33088006605631837,1.1533804650114594,3,left
2.076,0.2188283189815034,0.7433556225440594,0.10809369635834665,-2.5932809971447526,1.4313252311864808,0.23580909146838724,-0.3569982230560739,-0.3287646049494636,1.1728306759265201,3,left
2.079,0.2238909564094522,0.7319114946142157,0.10264426494806073,-2.594488449352199,1.431725738962606,0.2361462806352887,-0.3206987628429955,-0.33397194445600153,1.125036643973771,3,left
2.08,0.22895685190320117,0.7202837420664201,0.09920940443646464,-2.692153827096562,1.4570808607960672,0.2520978841963159,-0.3808825172718302,-0.32533939077519325,1.2042713169390948,3,left
2.083,0.2317616623246862,0.7129749098329825,0.09791093753444813,-2.4523043704489513,1.3947194089984765,0.21276585248659288,-0.30150344595397016,-0.33672231564792643,1.0997714530545197,3,left
