time,gFx,gFy,gFz,ax,ay,az,wx,wy,wz,subject_number,foot
4.363,1.2040163644530097,0.6865234521976651,-0.202045199090115,-7.206251678870139,6.094742855972356,-2.376881957370986,-0.985928366706026,0.36456863743414114,3.1959434284564416,4,left
4.3660000000000005,1.289803242862982,0.6270814785706058,-0.28063517610633615,-7.214057417430153,6.104899494786629,-2.3801015525213454,-0.985421014293535,0.36678727643467496,3.1941831978901707,4,left
4.367,1.370676382160977,0.5780654394413167,-0.33219691354323644,-7.219152096728985,6.110341497527205,-2.383835728869598,-0.9855791715956944,0.3665527996826323,3.1951418295027527,4,left
4.371,1.4408915555588278,0.5377731098060797,-0.3456734894056446,-7.209143260392272,6.0990141457366525,-2.3773726184097512,-0.9858436872338303,0.36349495050427305,3.1943542319121887,4,left
4.372,1.5003134808555574,0.502593417810048,-0.3304919238406768,-7.218940480045294,6.110294619733588,-2.383435644473665,-0.985151588562892,0.3706193831857398,3.1956292186748336,4,left
4.376,1.547814120116056,0.471743976565761,-0.3028804158426466,-7.210802075236135,6.100218473448397,-2.379371190684954,-0.9861635847452647,0.36002358180741356,3.193604706454295,4,left
4.377,1.5817086823317221,0.44677260100835525,-0.2890787781348574,-7.218648461395734,6.111483284411429,-2.381150193991164,-0.9851119719038981,0.37127586145466096,3.195925407335811,4,left
4.381,1.6031350814343934,0.4243577419615637,-0.28811604201925584,-7.208815941275139,6.095761011761142,-2.3811408206261455,-0.9857195975590896,0.36477503367850916,3.194585115374091,4,left
4.382,1.6118400108109272,0.4082021028169389,-0.2824533732980471,-7.221547402803283,6.1168176124188225,-2.380183209052757,-0.9861843246078639,0.3592613429359405,3.1930742321189562,4,left
4.385,1.6139899740067905,0.3989501095902706,-0.26865586459845403,-7.208332080372398,6.094814615624994,-2.381385168978538,-0.9840747367941214,0.3835055796381431,3.1992292315400452,4,left
4.386,1.6183162013643204,0.3940784036415439,-0.25064324921644,-7.2154051151201495,6.106827644280557,-2.3804046053836085,-0.9879900426003404,0.3385416475023454,3.1878346626472913,4,left
4.39,1.6178435669364475,0.39259582512220725,-0.234343004979135,-7.224304553224984,6.120662471061124,-2.380975691609236,-0.9829683977312978,0.39626643555122965,3.2024989073905585,4,left
4.391,1.6108228942949994,0.39058543186574446,-0.22650520721121195,-7.189931592280587,6.065801348159548,-2.3807952601131106,-0.9871571979542794,0.3480834173721592,3.1902378881219886,4,left
4.396,1.5943281820112944,0.3843689255142302,-0.22517463023214335,-7.2528633202703165,6.166524533655586,-2.380710766249665,-0.9870404984839525,0.34938567482393,3.190543939823141,4,left
4.397,1.5629993340446942,0.37531158184155017,-0.22819793313927095,-7.172221366080244,6.037406902766378,-2.380914075029656,-0.9790729065301599,0.44124761917134697,3.2140550911608456,4,left
4.402,1.529508254745692,0.3663203061643202,-0.2353208263696268,-7.2395016931528495,6.145130451011639,-2.3807048786886122,-0.9986552715284447,0.21547750619673323,3.1562730158319683,4,left
4.4030000000000005,1.4790982289570134,0.3452757183549996,-0.22730701490829142,-7.237896807143344,6.142520012034609,-2.380859686604251,-0.9661911685841988,0.5897985913087238,3.252096676184466,4,left
4.405,1.4406335559125143,0.32773690616365264,-0.21727813106702318,-7.108831361238586,5.936062962522634,-2.380772301161719,-1.0090066582888695,0.0960850667501125,3.1256847082973316,4,left
4.405,1.436835980444033,0.32367455798644784,-0.21558573229959038,-7.425867193836096,6.4431958893119035,-2.380808472527532,-1.188793799261652,-1.9765852619471507,2.5953184603264017,4,left
4.406000000000001,1.3907166484465219,0.29863513064076974,-0.17857976881058182,-6.900180488994611,5.602371338968295,-2.380797973569159,-1.2316099551589081,-2.4703072201463376,2.468904351154279,4,left
4.41,1.3426324912875747,0.2775313536636222,-0.14296304056645764,-7.593667669446937,6.71149105748468,-2.3808030797996587,-1.1991356044766457,-2.095936598860349,2.5646944792154938,4,left
4.41,1.334643270791413,0.27566225536433026,-0.13771396699820795,-10.503660337862101,11.366550288933354,-2.381094018234907,-1.2187514400971877,-2.3218463801539286,2.5070402632397686,4,left
4.412,1.283467350330025,0.25536818895387414,-0.10532438825526759,-11.1973787952153,12.475858426659034,-2.381108445258106,-1.21071667090609,-2.2297196087185873,2.530281951645648,4,left
4.42,1.2090162454987339,0.23419702812963053,-0.05917215085142252,-10.671441843591943,11.634830028085357,-2.381087868961797,-1.2106980361541533,-2.2287900195736032,2.530992903901831,4,left
4.42,1.1410248392655897,0.22429564999203827,-0.018550351764736624,-10.988382579166014,12.141885389614348,-2.381120179556409,-1.2147834401476771,-2.2765965395761083,2.5182913515580614,4,left
4.421,1.0636442869995426,0.21439994052084183,0.024702471629888954,-10.860147009267948,11.936104619335811,-2.3810662975002703,-1.2098182796344759,-2.2190495183847014,2.5332193892748585,4,left
4.422,0.9987976866234818,0.21176785769346596,0.054395905413484096,-10.856756442099323,11.932039124981237,-2.3811490535668494,-1.2137955182285625,-2.264302839942852,2.5220357511446325,4,left
4.426,0.9445911821696166,0.2097664540860069,0.07955637319045597,-10.926597152204469,12.041848891540258,-2.38104313700167,-1.2114385613843206,-2.2390623912551013,2.5272159292398237,4,left
4.427,0.9004665217644783,0.20115325942735884,0.1006882910365684,-10.843405492691598,11.910653867379292,-2.381143635599733,-1.2123580050447487,-2.246333903383377,2.5275578350120855,4,left
4.43,0.8707243677358889,0.18524925477539378,0.11028403433892119,-10.90743755358718,12.01227332642053,-2.3811034375754208,-1.2123763731087833,-2.2506298479572537,2.5237560125763974,4,left
4.431,0.8454498729397681,0.1629490280231065,0.11706883367061073,-10.875253634503125,11.959196277179279,-2.381011439826092,-1.2118416238207939,-2.2412084428465158,2.5283213059506764,4,left
4.434,0.8195515186403743,0.1379051888032778,0.11987789372986968,-10.877100845849078,11.967284443129017,-2.381297913770238,-1.2127498150618528,-2.251652087339333,2.52566733672377,4,left
4.436,0.7890861064385795,0.10977353579815649,0.11670231790468731,-10.896325567547414,11.989199017625666,-2.3808076029231273,-1.2113470084725613,-2.2415158372716464,2.5242656218979755,4,left
4.44,0.7518623286656221,0.08059101343314488,0.11069079664374357,-10.868196649394156,11.955044545428247,-2.3814080549963057,-1.2134327709203054,-2.251763437190381,2.5307751601537904,4,left
4.441,0.7045391118336498,0.050049832339291125,0.1043236575637834,-10.892818588413132,11.98578858283462,-2.380929762667164,-1.2107155158481788,-2.241024868083804,2.5198994489797273,4,left
4.445,0.6522265967921216,0.01935393216156726,0.09939113423113613,-10.883090562352978,11.970153346535168,-2.3809251945100893,-1.2134680767243695,-2.2508077445899817,2.5319198001244843,4,left
4.446000000000001,0.6006360528502082,-0.008578844444153492,0.09861336544334628,-10.868874733511575,11.963439215372158,-2.3818134837404763,-1.2119739520650845,-2.2462714845228016,2.5246876849938618,4,left
4.449,0.5529049081764568,-0.03655315575138639,0.10442255256766692,-10.911158493259371,11.99444965095082,-2.3797836395170755,-1.2103865966417868,-2.238890585151748,2.5193450602928062,4,left
4.45,0.5154617034531153,-0.06102118500978387,0.119341435444053,-10.845731895522572,11.944436644990658,-2.3828121350742713,-1.2167816863708842,-2.264790020885755,2.544372741145458,4,left
4.454,0.4877201201702858,-0.08242403144048507,0.14083953659270312,-10.9159160659207,11.998448348766999,-2.37958295487672,-1.2050517416008641,-2.218272200053913,2.497568523011295,4,left
4.454,0.47234027928933614,-0.10435252393214337,0.1652298905344449,-10.874671299814558,11.966140047579291,-2.3814502157615927,-1.220067643281767,-2.27745790513752,2.5578099316472214,4,left
4.459,0.4719900309949802,-0.12177134490927999,0.19439260988140328,-10.842542988610075,11.943746289904837,-2.383055273917313,-1.2075496228772344,-2.2282774387574245,2.50745410237359,4,left
4.46,0.48866517861049485,-0.13772139826830385,0.22080951752174313,-10.988762363436582,12.05067891176991,-2.3760211302684984,-1.2078621739031956,-2.2292528222544385,2.5089178832437353,4,left
4.4639999999999995,0.5164682490166109,-0.1507758072416286,0.24172599508098286,-10.716580783135106,11.850765401246798,-2.3890701128723157,-1.231802719163709,-2.3239761174237996,2.6046710528017814,4,left
4.465,0.5464397749081673,-0.15796225054646018,0.2577036891680118,-11.066308478992472,12.107817412653983,-2.372310427161089,-1.172994905443299,-2.091672869419643,2.3691693167577688,4,left
4.47,0.5859389020763225,-0.16816440455188253,0.26197874141897043,-10.774236457716217,11.89308396979412,-2.3863084138516424,-1.2704917751376397,-2.476647198617866,2.7597084077840597,4,left
4.471,0.6161740619481975,-0.17621585008411067,0.2604600530354191,-10.782517748918345,11.899428795080055,-2.385915196680277,-1.1418913539977562,-1.9689397649474685,2.244552167287786,4,left
4.473,0.6263619276197241,-0.17730440938753028,0.258405927223051,-11.338228023203191,12.307107658612395,-2.359258233687762,-0.6021148294316294,0.1624415105774198,0.0823621024389315,4,left
4.474,0.6545760387603483,-0.18273930505798403,0.25087242530134857,-9.97189707622487,11.30448086245842,-2.4248068224209636,-0.4734929127204106,0.6701337734394475,-0.4328477965894066,4,left
4.475,0.7051979859829902,-0.1939164611907197,0.23186823923940694,-12.237479749947445,12.967006267653902,-2.3161022236934894,-0.5710203165609375,0.2852185102155212,-0.04221578222137176,4,left
4.479,0.7354300966002115,-0.19996490505592712,0.2147219006362073,-9.249142102948554,10.774176925281683,-2.4595052498454137,-0.5121955716552077,0.5173769258695098,-0.277818942477698,4,left
4.48,0.745338488899135,-0.2020833103754865,0.20981837123854177,3.293435222880085,1.5700777860065689,-3.0611831210638956,-0.5361121123775087,0.4229106403528435,-0.18200373121135063,4,left
4.481,0.7747621004649419,-0.2072293941081385,0.1954063288095403,6.281794974237832,-0.622606071790561,-3.204623504008161,-0.5365118139903298,0.4215903394173201,-0.1805033406311734,4,left
4.484,0.8121565577922267,-0.20867326415405285,0.17418531316660768,4.016188373727351,1.0397619410435035,-3.095878492080362,-0.5238404127709155,0.4710987631958231,-0.23104784810861137,4,left
4.485,0.8369010070514447,-0.20728958421776894,0.15953260269163377,5.3825102649928285,0.03707523489853792,-3.1614116931327576,-0.5390445575778471,0.4117945603020394,-0.17044843829510092,4,left
4.488,0.8610470259490346,-0.20568814271203967,0.14500321644394376,4.826879237882315,0.4452763154072073,-3.134888831228644,-0.5271674470406673,0.4579771150942263,-0.2177230406266047,4,left
4.49,0.8816738584869304,-0.19805136692249548,0.13442964355475293,4.818427381253549,0.45049758614773516,-3.1342071002701317,-0.5335528478536302,0.43306978293841436,-0.19227481626738918,4,left
4.497,0.8994497632675367,-0.189353909220074,0.12703285952674664,5.110744002877283,0.2373750435153158,-3.148618739866491,-0.5322580976290721,0.4387865764516763,-0.19771982204029448,4,left
4.498,0.9177135497278728,-0.17918879775991153,0.1205077624918881,4.760772680989541,0.49282299570458366,-3.1314471638271035,-0.5301114449042335,0.44532056629515915,-0.2054863972778453,4,left
4.498,0.9310146897222731,-0.16662307139977672,0.11774276128953344,5.033059483791037,0.2936014933269519,-3.144673829293093,-0.5338223031149645,0.43400953098935047,-0.19205532792127333,4,left
4.499,0.9407541991248223,-0.15636401862767207,0.11875585429903536,4.887049077580617,0.4019118016766253,-3.137993473307052,-0.5301059112555491,0.44458652319225583,-0.20518314271697652,4,left
4.502,0.9483203577327033,-0.14336350814971116,0.12540927055591958,4.918503837720857,0.37508058870725514,-3.1384590436726345,-0.5327238271929216,0.43751452482128583,-0.1960986372217573,4,left
4.503,0.9497972389604464,-0.12962835105595827,0.13369347148207048,4.96090939038796,0.35041794969530826,-3.142289598470269,-0.5319343668194461,0.4406612230098846,-0.1992737515872922,4,left
4.507,0.941788889780325,-0.11713601587416556,0.14448390938329725,4.889300399848476,0.39504678465346477,-3.136651061428573,-0.530458652985536,0.44043069575196414,-0.2025826410581434,4,left
4.508,0.928087240118129,-0.10250303269176456,0.1591891376795317,4.955863297234664,0.35251384185852075,-3.141600267353615,-0.5342689440514081,0.43922710237790774,-0.19326649593614315,4,left
4.512,0.9091329357927391,-0.09023660558806529,0.16821170109300748,4.9135888255047275,0.38359188793391824,-3.13958787423879,-0.5286867403722091,0.44062087619277746,-0.2067559967212408,4,left
4.513,0.8832949648066042,-0.07821154349528914,0.17544339142573886,4.9256979051511625,0.3629945540626971,-3.136911065208129,-0.5345021194954422,0.4396683387654999,-0.19291768704510887,4,left
4.518,0.8517584793772845,-0.06547341947101323,0.18821198891644175,4.9402420745731135,0.37908532751745405,-3.145053325362174,-0.5311410322891613,0.440224239676109,-0.20091815492502474,4,left
4.519,0.8127141677777894,-0.05475806515378508,0.20140232535500052,4.908434012620307,0.36250069553935493,-3.1324217751517978,-0.5285417430985675,0.4395215075870765,-0.2066181675890849,4,left
4.523,0.7702494384048728,-0.0426015493033602,0.21508355964873635,4.944225003623897,0.3787980187023179,-3.1459772938248167,-0.5403020721854435,0.44106745034986305,-0.18012595126417785,4,left
4.524,0.7278938814689999,-0.03328356295797684,0.22718440740132148,4.920570635536476,0.37156479604181475,-3.1380026551287408,-0.51847446790003,0.43827601543260636,-0.22933030164445115,4,left
4.527,0.6847348885038878,-0.027677394232468414,0.2323490430048365,4.914912755869219,0.3545162202925535,-3.1318338621504624,-0.5464760233604586,0.4419591043047192,-0.16625197167968958,4,left
4.5280000000000005,0.6458521697848136,-0.023441511918656233,0.23453440187806443,4.963790387236207,0.4114272952003579,-3.1599856611141757,-0.5231121444816569,0.43883857888502564,-0.21886333250429785,4,left
4.532,0.6119765159398414,-0.02118073014939738,0.2332594568128511,4.868792836195816,0.3090818692745224,-3.107570175696307,-0.5237716612067732,0.43880103434405404,-0.21732285074168467,4,left
4.532,0.5827575806529811,-0.016808012979814754,0.22599556937453885,4.991752502320017,0.43977865752156065,-3.1749200230067833,-0.5681979369008463,0.4452761248587066,-0.11751865164987745,4,left
4.5360000000000005,0.560527910432156,-0.014671324662314968,0.21792972034605307,4.888701472642976,0.3309613100374986,-3.118675497561054,-0.4589885653719723,0.42945056380930724,-0.3629010613770924,4,left
4.538,0.5399361221417409,-0.010531171294691617,0.20517306124167628,4.893014157257279,0.3327827389107165,-3.1202673252425805,-0.6400537138564744,0.45570267016142585,0.04393014968708871,4,left
4.542,0.527652737016222,-0.0036797148518446505,0.19470035369049232,5.084519435952491,0.5439530945511539,-3.227283410126467,-0.40124399606665256,0.42104274255801505,-0.4926328675590868,4,left
4.543,0.5259660722772642,-0.004275931552790459,0.1926456345247742,4.6120224814035815,0.026255442447016247,-2.9641719026681805,0.6011504568312747,0.27527120641555924,-2.744686933435792,4,left
4.543,0.5177510273678743,0.004826963727715609,0.17475999502950998,5.395914423743142,0.8842674462567971,-3.4004398217050698,0.8399381108756444,0.24056130214438876,-3.281181096970715,4,left
4.547,0.5103504568581299,0.019472905151664867,0.1551943245142451,4.361918704836363,-0.247403060201217,-2.8250079692746164,0.6589026717816822,0.2668905225420511,-2.87444777051265,4,left
4.548,0.5099929682652236,0.023098483051979434,0.1528274881787291,0.024028153806237684,-4.999361942419855,-0.40968679700607263,0.768100444578312,0.2510039093624038,-3.1197756673960813,4,left
4.5489999999999995,0.5055321300440441,0.03637262617611922,0.1392390029218022,-1.0097968493064913,-6.131144880046012,0.16572824264312844,0.7236376140024474,0.25746790096164696,-3.0198951546592,4,left
4.552,0.5033491801680029,0.06063477781086407,0.12025024987269714,-0.2260896203792485,-5.273011214708923,-0.27052148712929347,0.7230852289653225,0.2575666474068095,-3.0186329735248885,4,left
4.552,0.504566632392054,0.08532815272550898,0.10931596395790821,-0.6986567876265826,-5.790662667142997,-0.007403057548449943,0.7462727011807448,0.2541607084519174,-3.0707539531907235,4,left
4.5569999999999995,0.5053988344061078,0.11643997091182824,0.09462474249512753,-0.5065389046859156,-5.579895679043494,-0.1144794892076272,0.7184752927757299,0.2582404340798649,-3.008278057085901,4,left
4.558,0.5075455045260926,0.15062521853159805,0.08105086640142985,-0.5035443640136892,-5.577206264856967,-0.11594147844391078,0.7401619168427411,0.2550690779719976,-3.057010546248319,4,left
4.562,0.5086649180989726,0.1853725732360933,0.06871453996795458,-0.6047054038632991,-5.687268198509939,-0.05988311077074477,0.7283481716787539,0.25675552519445655,-3.0304893551385996,4,left
4.563,0.5115465416174283,0.2215743424469924,0.05450196899110414,-0.4836278217405989,-5.555331973047568,-0.1270475890521787,0.7313292049390858,0.25642780165330836,-3.037122772047817,4,left
4.566,0.5152842181902071,0.25464424284355375,0.04134471760145725,-0.5778131982129997,-5.658212358691166,-0.07471207716369155,0.7339135162428069,0.2558677833055375,-3.043038111356392,4,left
4.5680000000000005,0.5172687287781208,0.28464405259160996,0.02515765665657629,-0.5273196070154966,-5.602365221671636,-0.10302307721147018,0.7291777928289916,0.2567835022653509,-3.0322650272030094,4,left
4.571000000000001,0.5179511494064934,0.3119883423117047,0.00822699892830275,-0.5381832939566021,-5.6159859055848536,-0.09634149262156323,0.7337105363072043,0.2559429676747619,-3.042554727797789,4,left
4.572,0.5163337600530187,0.33575156786351384,-0.008914149708230757,-0.5528676390476446,-5.629125899309052,-0.08925039297892123,0.7303251991075437,0.25643371465024023,-3.034950119251084,4,left
4.5760000000000005,0.5153598301181108,0.35680782220504537,-0.027460747446563252,-0.5280853260365611,-5.6055790947584345,-0.1017216115083016,0.7327522887158483,0.25641758619398797,-3.0402059279222033,4,left
4.577,0.5147140343493614,0.3713007359358962,-0.04349034729189198,-0.5511164249905153,-5.62794394830127,-0.08995448205096787,0.7305794510034365,0.25596364619087275,-3.0357742027473957,4,left
4.581,0.5123896247310281,0.3815336990123646,-0.05757872119494261,-0.5364947590869819,-5.611903340172341,-0.09810452775857276,0.7330129438463586,0.2567583437665092,-3.0405705450830167,4,left
4.582,0.5091765449966608,0.3902631692122899,-0.06524235860141643,-0.5406717515766787,-5.621777196608939,-0.09382339374167631,0.73056923075756,0.25588951943309224,-3.035795270416961,4,left
4.587,0.5070573420329016,0.39338380595678846,-0.0682134867008034,-0.5457258252340793,-5.615208304676203,-0.09547726758383918,0.7317435995312904,0.2564255169679369,-3.038020952091029,4,left
4.587,0.5072115615435476,0.3931903177834827,-0.06835500594527394,-0.5346907635896226,-5.621175612255273,-0.09495711857386847,0.7339330067112544,0.25671827174055184,-3.042582990460027,4,left
4.59,0.5063492270076999,0.3885927784367047,-0.0597346767042246,-0.5471044719879048,-5.615529018336881,-0.0951488971900143,0.7262777572499487,0.25516079132360847,-3.0269436160758993,4,left
4.592,0.5037970689409781,0.3798790925529498,-0.048431695083524684,-0.5389037353662098,-5.617663883559645,-0.09561098865966243,0.7401268272728645,0.2580980468420787,-3.0551668499783338,4,left
4.595,0.4988274439880224,0.37215605395816687,-0.033108219844723105,-0.5369292494413397,-5.625087339976919,-0.09317189099142348,0.7224218549928736,0.2543168737809275,-3.019100923881669,4,left
4.596,0.49150488055630753,0.36428387806263307,-0.01426710692934723,-0.5539090373709924,-5.601739383376703,-0.09920172216809288,0.7371714427411644,0.2574754736375882,-3.0491414240160313,4,left
4.601,0.4809495221427289,0.3577801795154799,0.004532977398322215,-0.5209154008965797,-5.643387032941949,-0.08885804798772562,0.7368929665153705,0.25737883870310196,-3.048596226961876,4,left
4.602,0.4656201977772705,0.35359202077837937,0.027425705730354955,-0.5636179552005219,-5.59028188558508,-0.10195113478041229,0.7083719504502979,0.2513979684174944,-2.990432438998811,4,left
4.605,0.4497022529095021,0.3469572299103344,0.04880823295050009,-0.5278315467798642,-5.634463479539882,-0.09109747475072476,0.7783312258419284,0.2661064461271212,-3.1330796627561064,4,left
4.606,0.4304357047871915,0.3372167237736071,0.071935473960037,-0.5293238006825589,-5.6338498158870305,-0.09109697850707013,0.6623717041905812,0.24172219521550123,-2.8966408819401193,4,left
4.612,0.41858746238776223,0.3319320771994353,0.08641739005171639,-0.5958422412728732,-5.547701556986155,-0.11275613094688494,0.8153193698540941,0.27387893293359034,-3.208500464715665,4,left
4.613,0.41704033270685387,0.33044262218683496,0.09043516742988983,-0.4317320850497995,-5.758750605075561,-0.059869259450795485,1.4574758331108417,0.40902127997698334,-4.517789012304528,4,left
4.613,0.40253117527119936,0.32455804347103534,0.10870295331359264,-0.7039917596790819,-5.409008906230657,-0.14746575773700482,1.6104385732732234,0.4411827078588916,-4.829678848542743,4,left
4.6160000000000005,0.38968625996849926,0.32050962003828537,0.12119475447072076,-0.344871864041912,-5.8702882275580315,-0.03193758474022695,1.4944642392445253,0.41676941341548435,-4.593223173235057,4,left
4.617,0.3882540677213212,0.32133389528416867,0.12125413879382511,1.1617930205347355,-7.807399881827317,0.45342933615812653,1.5644120082989015,0.4315608602726676,-4.735801850068423,4,left
4.617,0.37490986523463155,0.32195788409806436,0.134681541539876,1.5208448455732457,-8.268713129364818,0.5689826942862475,1.535956025975266,0.4254217946329801,-4.677862289152968,4,left
4.62,0.3549132333578746,0.3258187420433692,0.15302993630018258,1.248659294284685,-7.918953776714323,0.48136480324792513,1.5355449255534268,0.42554860791745586,-4.676911901301899,4,left
4.62,0.3382693818565612,0.33227182445018033,0.1677589563884973,1.4127957772197042,-8.129921381351664,0.5342205694682858,1.5504788217426904,0.4284804429781267,-4.7074715060641665,4,left
4.625,0.3212344410175384,0.3410260833529588,0.1834581955667989,1.3460365111511097,-8.044034001763855,0.5126945643513827,1.5325976210866565,0.4248081471427957,-4.670965924821428,4,left
4.626,0.3039718521383307,0.3562096038424877,0.20379294763384587,1.3450647426183329,-8.042951967094568,0.5124371448080639,1.5465091664779305,0.4279155643253597,-4.699235384323069,4,left
4.63,0.2894307797158873,0.37313194690260076,0.22580765468934766,1.38010302399456,-8.087730695755267,0.523637731529077,1.5390365008368097,0.4257642476894037,-4.684304152789967,4,left
4.631,0.2789148316194463,0.38952369246691443,0.24366153945945482,1.338147767332312,-8.034123882327217,0.5102277492448788,1.5406915249527449,0.4271091337937376,-4.687153836164274,4,left
4.6339999999999995,0.2707698020917737,0.4092367545559307,0.259508788902153,1.3708146517439515,-8.075815366914354,0.5206550995127011,1.5427561315498635,0.4263209491030664,-4.692007073667625,4,left
4.636,0.26469592702164313,0.43119541029899044,0.2692391555134295,1.3532030753041793,-8.053295983860208,0.5150196553036763,1.5392522948216911,0.4265582124363053,-4.684350075034663,4,left
4.638999999999999,0.2586447990793508,0.4555597139512628,0.2748030237421655,1.357229798314412,-8.058734668926562,0.5163986503390834,1.5424825271936176,0.42724656587967424,-4.6909314573756,4,left
4.64,0.25392691487729735,0.4831108228257691,0.2792364226137905,1.361884755104331,-8.063900963499897,0.5176437753669338,1.54042832351956,0.4250062027770749,-4.6876954150839385,4,left
4.644,0.25026935788795046,0.5116021575290941,0.2748362129249545,1.353832894527721,-8.054946422259114,0.5154835637993083,1.5411209688797147,0.42928406213776926,-4.686931753238682,4,left
4.646,0.24521670899498904,0.5440691304650418,0.2678172302024153,1.3613751179911595,-8.062935124358974,0.5173837490503792,1.5414971967503688,0.42319878623900276,-4.690944639126276,4,left
4.649,0.24241418123701786,0.580111436392212,0.263589557242633,1.3563252739968459,-8.057801644603241,0.5161778309849914,1.540580163983305,0.42957735937923014,-4.685615122442131,4,left
4.65,0.238683721468147,0.6153448505448956,0.2566817746380338,1.358548970774248,-8.06067331552306,0.5168987381886951,1.5414561927415906,0.4259644480879765,-4.68939979841125,4,left
4.655,0.23333027373143467,0.6535346498430301,0.24548584315858452,1.358478776233547,-8.0580630330012,0.5160944546619005,1.5411351903231747,0.42262427049888157,-4.6904697214342965,4,left
4.657,0.23217901378869338,0.6918983189378753,0.23223765061288804,1.357417006526679,-8.062455071520453,0.5175370087102298,1.540554301239315,0.4368260584931909,-4.6817419126623605,4,left
4.659,0.23229231786193144,0.727629812484562,0.22386902884070733,1.3587163886861755,-8.055537841621081,0.5152944380158522,1.542101188422755,0.4105869273280305,-4.698883807840206,4,left
4.66,0.23002525476836833,0.7656442732510429,0.2195072998540635,1.3577082479705187,-8.063396766686274,0.5178055871978027,1.5399450096366873,0.44424411309111483,-4.676527776871141,4,left
4.664,0.22811167099325247,0.7998894037239104,0.21802349431313206,1.358295184621906,-8.058859927518741,0.5163572319772509,1.5418179227977378,0.41615981435166155,-4.695338139547147,4,left
4.665,0.23434433353382614,0.8360243716383473,0.21819868063447956,1.3579635132610282,-8.05387812443103,0.514835542973448,1.5416538719678317,0.4168982909754472,-4.6946026323042584,4,left
4.669,0.24364516969393543,0.8723063225210931,0.21415675513517515,1.3583295910768085,-8.074297534868476,0.5211383286113502,1.538383219786513,0.47050739985500534,-4.659336607422865,4,left
4.67,0.24955343179141154,0.9011914975507826,0.2106714374055758,1.3577058470301786,-8.036495277021187,0.5094705384965676,1.5465879920748766,0.33877326272076946,-4.746344840177446,4,left
4.6739999999999995,0.264406510210089,0.9434705183773808,0.2042409128608781,1.3585746823158664,-8.085128051567741,0.5244714291778634,1.5329188689499107,0.5571841055962838,-4.601955500723783,4,left
4.675,0.2755204767881844,0.9706001495621144,0.19976127198317184,1.3578200358879184,-8.044480635456761,0.5119429503039062,1.5509754100738573,0.2691036004042049,-4.792452103023064,4,left
4.678,0.2791471503130424,0.977257667646087,0.19858935658202898,1.357746939681887,-8.045481553423688,0.5122414081109017,1.6266215560363553,-0.9401023568029474,-5.591845472920612,4,left
4.678999999999999,0.29554068559235,1.0113565589605185,0.18721646980112974,1.359574789371273,-8.12343649742105,0.5362816594818816,1.6446906969336044,-1.2281862559934207,-5.782355678636454,4,left
4.68,0.31559516375543084,1.0547038106329096,0.17229085772130273,1.3551594587157778,-7.9318916815704705,0.4772389225727795,1.6309952144667248,-1.009774421540635,-5.63792568006922,4,left
4.683,0.34138657732522937,1.104094396902747,0.14219826347493825,1.362479630478893,-8.249508052122636,0.5751205898627054,1.639239882149472,-1.141497667640083,-5.725020199191931,4,left
4.684,0.36152603628092034,1.1428799732642139,0.11236778121814792,1.3528081046000735,-7.830532280090419,0.44602027854903814,1.635921511959972,-1.0879203130837078,-5.689613567335158,4,left
4.685,0.3670759141407446,1.1534816321898274,0.10387926530950281,1.311801805029941,-6.0719788627864855,-0.0963162948054171,1.6357980449676508,-1.0871265894339404,-5.689054044539917,4,left
4.688,0.3909313152766327,1.1955457294476437,0.06902896627757427,1.3020891965589172,-5.6529730603378265,-0.2254410770335017,1.6376624770177037,-1.1152796320898504,-5.7077133978287655,4,left
4.688,0.4234967824079166,1.2557375910690973,0.00566815438025069,1.3094950660153284,-5.970596207476289,-0.12748086956314303,1.6354526539776177,-1.0815670686045604,-5.685381187023617,4,left
4.6930000000000005,0.45377368918509703,1.2997239873673938,-0.06098182053666604,1.3049505355832474,-5.779154830028235,-0.18669794977090204,1.6371379856521435,-1.1078058110104982,-5.702747809249807,4,left
4.695,0.49247717073704844,1.345003432569397,-0.138954586652905,1.3069321541162302,-5.856814225526291,-0.16236533649895318,1.6363374878180468,-1.093707530775137,-5.693458038986429,4,left
4.698,0.534773692530915,1.387740274599466,-0.2176537391813674,1.3067294318522023,-5.858325611314075,-0.1624419454674776,1.6362668459355112,-1.096810544012202,-5.6954065970390495,4,left
4.699,0.5862854025291979,1.4230171645995062,-0.28838294205841564,1.30599953627057,-5.817046715342494,-0.1746359998179583,1.6369709763273108,-1.1007774488087998,-5.698206237727231,4,left
4.702,0.638862327738001,1.449675020151386,-0.35009772212681495,1.3070449662176133,-5.866182874804167,-0.1597141281198123,1.6359893169232866,-1.0940224795583355,-5.69352388920897,4,left
4.704,0.6839188673801935,1.471349438756511,-0.39432867564045726,1.3059713192648643,-5.828396336475053,-0.17181948981510997,1.6368288368205097,-1.1003211127334522,-5.6978601054936995,4,left
4.707,0.7273035316242444,1.4905779180212808,-0.4157179834316005,1.3070468753017144,-5.847846801290897,-0.16436201299292225,1.636577552260405,-1.0962448282844013,-5.695166951556933,4,left
4.708,0.7647024420267308,1.5054909987735967,-0.41347568516468014,1.305911191011278,-5.845062881002183,-0.16773352260199323,1.6358388516435407,-1.097631120561807,-5.69576458261731,4,left
4.715,0.7997842948726372,1.5183418274041722,-0.3882800404692537,1.3070425078314667,-5.837263292068366,-0.16705604379582253,1.6377816048980711,-1.0985325833865944,-5.6970882459221155,4,left
4.716,0.8424211439489832,1.5251946568991679,-0.34563299721413565,1.3062593158519247,-5.848569431215351,-0.16602649739661934,1.6348225678162618,-1.096213358116743,-5.694470473801166,4,left
4.718,0.8950173735133047,1.5315747972284743,-0.3047546965809095,1.3060452782599055,-5.839736465553357,-0.16877217013274787,1.6379880846372634,-1.0988667775163008,-5.697379440617237,4,left
4.718999999999999,0.9618430834043217,1.5474886118355409,-0.29919445220592294,1.3080411327589347,-5.842193943571225,-0.163456294844478,1.6361414266383527,-1.0970477085745958,-5.695511771769342,4,left
4.721,1.0310432593220193,1.571989610011575,-0.343440183567963,1.3037339525474363,-5.847539510613119,-0.17222398645237375,1.6346375388749448,-1.0968973305832321,-5.694832452957859,4,left
4.725,1.0857556036495344,1.6025045355906822,-0.42202376806008157,1.3100706135087195,-5.835703540532595,-0.16033531877898036,1.6413627654155234,-1.0998749010758542,-5.69932484668437,4,left
4.726,1.1172864806500544,1.627705311177901,-0.5120063989256051,1.3033471025225396,-5.849735221784986,-0.1725722407473972,1.6288653769250168,-1.0939355367033805,-5.6907236186936,4,left
4.73,1.111478694343794,1.633350541983921,-0.5806943086074808,1.3072124972476704,-5.840677440353803,-0.16579557156032737,1.6449176600923594,-1.1016540070480088,-5.70182294198591,4,left
4.731,1.079946581638504,1.6197894731070561,-0.6109711357255718,1.3106047305951838,-5.835823949867205,-0.15904048721261016,1.631515275324369,-1.0951751963077072,-5.6925421782044525,4,left
4.735,1.004571723939137,1.5771547157416164,-0.5877928044376458,1.2958677041393534,-5.86251849707701,-0.18691724747918942,1.6318843257105666,-1.095489664743572,-5.692865260730201,4,left
4.736000000000001,0.8852444405894715,1.5094798466780128,-0.530765414217832,1.3231749543128357,-5.811721007323857,-0.1356201335020335,1.6574167752428515,-1.1073807773464848,-5.710304030776479,4,left
4.74,0.7478241524701223,1.4328856765211517,-0.46213994952915394,1.2881148303532013,-5.877418607772074,-0.20134077306463902,1.5946561541856035,-1.0779960095567378,-5.667377971185228,4,left
4.7410000000000005,0.5548822329250993,1.3438080147855935,-0.33523715354553946,1.3173904286355511,-5.822363158736109,-0.14654090341436637,1.698714503196466,-1.1267507339138367,-5.73854257386316,4,left
4.745,0.4133708454943487,1.2875797975477128,-0.2263664085067596,1.316581697155025,-5.82418277411276,-0.14791600806601496,1.5614662748791277,-1.0624510392134576,-5.644712880481524,4,left
4.745,0.3734337569503222,1.273691585173561,-0.19164177270409877,1.260795647618667,-5.928294435444183,-0.25269142520128957,0.9853311181104089,-0.7926375733701163,-5.250563424606421,4,left
4.746,0.2502165256245776,1.2309211993917664,-0.07076322791269107,1.3979493962407967,-5.671906260102043,0.004667630032406736,0.8480912649177053,-0.7283744614646408,-5.156809849775477,4,left
4.749,0.062280274353878826,1.1720355456864828,0.14713517312852709,1.1705066364262007,-6.097221702746147,-0.42196901393891906,0.9521405514561614,-0.777089599478386,-5.227892097077916,4,left
4.75,-0.02877181205283385,1.1485592801550801,0.2687979672999622,1.4705456712131046,-5.53611905690832,0.14071518041124448,0.8893764881112391,-0.7476897998980769,-5.184934715491757,4,left
4.754,-0.059748155408380965,1.1379470292663358,0.3034541444842384,2.729722203786933,-3.1814208596890836,2.502805571223049,0.9149389866417732,-0.7597121587141851,-5.202646665022124,4,left
4.755,-0.14401548404283238,1.1090802388710799,0.40662305968375057,3.0298767460683163,-2.620166935671846,3.0654127136556815,0.9152433773080132,-0.7597442044802786,-5.2023819672882325,4,left
4.755,-0.2503687331178264,1.0794657935427243,0.5290366898977987,2.802254120934067,-3.045748849318449,2.638905768372919,0.9019337058665499,-0.7536703544577181,-5.193943961218499,4,left
4.7589999999999995,-0.33132438098045414,1.0668131123921525,0.6024655159578245,2.9395547737745273,-2.789058811507787,2.8961324155331525,0.9178936604035399,-0.7609855385666331,-5.204204073603437,4,left
4.76,-0.4252092732308538,1.0671642236777203,0.6663906131792516,2.883782421641598,-2.8933782054890016,2.791418805471437,0.905436120230417,-0.7552202402117878,-5.195964949767205,4,left
4.763999999999999,-0.5225336176712014,1.084517653820503,0.6912139785116069,2.8826764259878335,-2.895252343039841,2.7901367470894396,0.912240606893957,-0.7585439894952136,-5.201177983318399,4,left
4.763999999999999,-0.6088071355780004,1.1168017459343322,0.6663153991237258,2.912592645681967,-2.8397172169230487,2.8446222389449503,0.9104813600088935,-0.7572782547671137,-5.198177285232283,4,left
4.77,-0.685147728416166,1.1585882553744198,0.6085661291389373,2.876626769893334,-2.9063940086111817,2.779440709782128,0.9090747192937603,-0.7573811161919408,-5.200309448814552,4,left
4.771,-0.7310120212511613,1.2084888895667112,0.5176410839330277,2.904822207712795,-2.854242653781972,2.8300854125339754,0.9117002003652893,-0.7576757136244552,-5.19830961996404,4,left
4.774,-0.7453772609420888,1.258323202353923,0.4124301313508356,2.889716841210894,-2.8822425045242825,2.8027130545545385,0.9091717419891263,-0.7572372512587916,-5.199605373818239,4,left
4.775,-0.7314170449770205,1.3061941307777225,0.30079647025333367,2.8923239938622416,-2.8768762693642818,2.8095074176431636,0.9111182492174439,-0.7581550234585767,-5.200963919991561,4,left
4.779,-0.6909174949315179,1.3529378656553217,0.1874941200603078,2.8986612223069956,-2.866606203205237,2.815271801278589,0.9095806991747397,-0.756052151715083,-5.194299064796409,4,left
4.78,-0.6298334202105549,1.3940268254261865,0.07815253815950061,2.8877160130437054,-2.88435098418067,2.805280170031852,0.9111552019134557,-0.7599505861851634,-5.208203093995462,4,left
4.783,-0.5512025096866109,1.429840431893685,-0.015219249956507095,2.8991928182619096,-2.866230836293642,2.8138807554684857,0.9092708233459454,-0.7543515776055079,-5.187779020588845,4,left
4.784,-0.45821442754644015,1.4593381186179524,-0.07232813527143861,2.8908476988872587,-2.879171393628212,2.808531777335449,0.9111930514184942,-0.7602805831281295,-5.209491715936599,4,left
4.789,-0.3607695365887076,1.4825827435555379,-0.0906468492568908,2.8926714268077527,-2.875739947966969,2.812040311227534,0.9102190867497345,-0.7569173999432302,-5.197040514766593,4,left
4.79,-0.2686771348745419,1.501196983214017,-0.07962367370606785,2.900261177189431,-2.8664856967821795,2.8071695058927304,0.9087025780338228,-0.7537056399402671,-5.185841576819316,4,left
4.793,-0.1832480401697933,1.510799841614078,-0.04450088601825968,2.8818917698300255,-2.8895455221249517,2.816384677422561,0.9142313511568521,-0.7672521345058466,-5.234089700410607,4,left
4.793,-0.10912292344597894,1.509569109927058,0.013763449097242524,2.9090600687790586,-2.8555888645418444,2.802190654001733,0.9041783598760871,-0.7422198949179704,-5.144752422236381,4,left
4.798,-0.049948029127238905,1.4919202418820996,0.0924897113920855,2.880410624583732,-2.891198123888644,2.817914401402846,0.9170417691125388,-0.7743452402896449,-5.259432626349863,4,left
4.798,-0.0026168125059330416,1.462079148019579,0.18059125216687993,2.8969722874518395,-2.8706162855327007,2.8088325699041405,0.9063213041727851,-0.7475284178793073,-5.163707931925923,4,left
4.803,0.03641852691147731,1.4140374611802784,0.26936057438313077,2.9105352166140337,-2.854183054077458,2.7997026427243066,0.906540912961237,-0.7482343736469788,-5.1662429135569115,4,left
4.803999999999999,0.06621245646285126,1.3518980193049477,0.34723194219119125,2.8502417709444057,-2.9277983214299392,2.8379827116918763,0.9272133705764014,-0.7994451473426503,-5.348946811838455,4,left
4.808,0.08289728058264094,1.2922277051877722,0.40426064165459075,2.96211438227975,-2.7911924093110034,2.7670680535805485,0.8764868776020747,-0.6735879739710706,-4.8999559505558015,4,left
4.809,0.09323631604638977,1.2064659392136603,0.45649844093360575,2.8185096182784197,-2.9664943131265495,2.8582429657625843,0.9605712169052292,-0.882274591633986,-5.644376084535313,4,left
4.813,0.09850985757552136,1.1476882789967426,0.4900205015508101,2.9383906213647237,-2.820190303377382,2.782063757669646,0.8496674109345299,-0.6069990462924633,-4.662503594321569,4,left
4.814,0.09829271218825456,1.1324647556788339,0.49876409820050616,2.9350281155252858,-2.8242940359831077,2.7840165075510175,0.3840346279524388,0.5482873973994162,-0.5408919814227929,4,left
4.814,0.09902270529450365,1.070483546114506,0.5289850033489834,2.7068588491748784,-3.1026646780993232,2.929794128658351,0.2731242720460922,0.8236003655961797,0.4409662967598935,4,left
4.817,0.10171050937662315,0.9911579221191597,0.5649592673121602,3.2678161821512877,-2.418346788836377,2.5715369438373523,0.3572156985282603,0.6148732523345594,-0.3034384635586709,4,left
4.8180000000000005,0.12151657726362947,0.9078302063174493,0.5759182904188207,2.3376606737338044,-3.552976917091447,3.165597695214058,0.30649189876573996,0.7407150495291154,0.14555825589557073,4,left
4.824,0.1430269841202993,0.8422005921050235,0.5785365579960391,3.5645819043366824,-2.056428618371894,2.3819570827926437,0.3271408536838972,0.6896385342541252,-0.03719666825565249,4,left
4.825,0.15036059075386626,0.8260281622200731,0.577997935033463,8.713589055917073,4.224836166404336,-0.9072203307742428,0.32741103428224716,0.688643672894552,-0.039621875131892706,4,left
4.8260000000000005,0.18604741813705056,0.7628184043252995,0.578717044845674,9.940600521764257,5.721354504829926,-1.6909847321261569,0.3166180573949961,0.7158747526405085,0.05594543565401092,4,left
4.827,0.24964394953247748,0.67462427823585,0.5723558658679294,9.010361002495962,4.586782270661233,-1.0967645143593654,0.32955367618837306,0.6833368617644575,-0.05857806104913664,4,left
4.828,0.31553872905591107,0.6125712924222625,0.5355444702857176,9.571232969807157,5.271022241239482,-1.455061205836823,0.31946952264014006,0.7085471658733935,0.030691626496869413,4,left
4.832,0.392521819098167,0.5391505732994837,0.4581836143321296,9.343486986258124,4.992730127913655,-1.3095413874667938,0.3249363005075053,0.6953547935363416,-0.0176911228481201,4,left
4.832,0.48128725861895016,0.48662086910701785,0.3424996865351233,9.33928016714638,4.988581726974907,-1.3069093740446323,0.3236195160505185,0.6974255957273494,-0.006058620370307979,4,left
4.837,0.5792258834811777,0.4684970389481481,0.19921667563794754,9.46031855527637,5.13485026574946,-1.3841622424044269,0.3223014066096308,0.7027548284129029,0.005645589145247987,4,left
4.838,0.684206195958329,0.4540339286882934,0.02298866355874611,9.315627718805167,4.959707995559649,-1.291793604555201,0.3246459988018098,0.6944128478166469,-0.015150421983937214,4,left
4.841,0.7845094973915734,0.44122875343092766,-0.20722339789319216,9.42784556395157,5.096014173067929,-1.3634546942897834,0.32242487300032496,0.7019358045211308,0.004542918971364679,4,left
4.842,0.8503557554993337,0.44739300749232946,-0.4785065602899835,9.368769066444532,5.022793798027134,-1.325666555234804,0.32399641655441336,0.6980540372251902,-0.009367835134908315,4,left
4.848,0.8475915414700258,0.48758642524083795,-0.7207458676009304,9.378900980561514,5.038870094742306,-1.3322947159597813,0.323083684589191,0.696587666659351,-0.0013464451999570855,4,left
4.849,0.7499873356573347,0.5681169622285499,-0.8634823869908251,9.40109679852944,5.05954751042169,-1.3462077670639667,0.32360219892282005,0.7038276679314486,-0.005804738124284363,4,left
4.851,0.5388673283879957,0.7041381403742935,-0.8835733238838247,9.365827588241832,5.024372434255,-1.3240022168121417,0.3232041347501767,0.6920953616606849,-0.0024764830643210795,4,left
4.852,0.22868618373561297,0.910955722296333,-0.7864786717217004,9.397833284369163,5.057159336034954,-1.3441892482341915,0.3235584902942418,0.7047759466685715,-0.005405578503658222,4,left
4.857,-0.16115415177040468,1.203280489013959,-0.6100560827919084,9.380520102606955,5.035984603379753,-1.333127830551228,0.3234642173488173,0.6971746579856932,-0.004690492772379725,4,left
4.8580000000000005,-0.5902774313387521,1.5645171739379435,-0.41198011020863323,9.37680919030266,5.043061965252802,-1.331234329401118,0.32283593204271827,0.6919807536058533,0.0007667910220355255,4,left
4.861000000000001,-0.9885808513815468,1.9509559399317151,-0.26267109769273733,9.402620298662526,5.0480287402856945,-1.3466315807762208,0.32469008944522837,0.7169363020579067,-0.015192843621213445,4,left
4.862,-1.2920068385341925,2.328954150970589,-0.2132182750836602,9.359964515691859,5.035556680710999,-1.3210112102823661,0.3214132790511632,0.6702536696857745,0.012974056620006572,4,left
4.867,-1.4549422235913936,2.633520222934518,-0.22168611449816494,9.406209018658899,5.04979414279918,-1.3488153485523275,0.3255844318506333,0.730287878106312,-0.022872409754892777,4,left
4.868,-1.5377152214905903,2.8423872275634814,-0.2917202186809827,9.378268381327008,5.0400798531345075,-1.3319727978530451,0.32211707853035465,0.6801296614289563,0.006923601072696887,4,left
4.871,-1.5376052341314987,2.9540546413660014,-0.44692501625587366,9.360229843199352,5.039078778316015,-1.321309251990804,0.3221540482231741,0.6816322669176624,0.006616599552183262,4,left
4.873,-1.442192304715013,2.9919249066665827,-0.599118637683232,9.449072547927521,5.055526246363545,-1.3742844553068676,0.32895168154354154,0.7768028264175393,-0.05183607674473805,4,left
4.876,-1.3127433369543229,3.0090028607802726,-0.6859530459213501,9.282526881599534,5.0228485662827485,-1.2749072888031354,0.31231143276462703,0.5427099559685092,0.09124409778152481,4,left
4.876,-1.0517906197110247,2.9299411151454375,-0.675607180062398,9.49678008026821,5.065293611789505,-1.4027612569318766,0.33988375525380826,0.9308971213898847,-0.1458365056775179,4,left
4.881,-0.8502476626333482,2.849586207968831,-0.6416884190374282,9.317748849291654,5.029665827074989,-1.2959295758494056,0.3035182211080047,0.4188687160444089,0.16685820387744954,4,left
4.882,-0.7950690262192424,2.8179157832134214,-0.6239990177854684,9.323216832061952,5.031376835569805,-1.299193136454543,0.1507835185917775,-1.730069678709425,1.4801231537167512,4,left
4.883,-0.5722615898043797,2.658282075880005,-0.5142328101039013,9.662551358863727,5.09685129846388,-1.50165763024284,0.11441239613742948,-2.2420949906124736,1.7928777503969406,4,left
4.887,-0.2928515461433879,2.427943602572589,-0.34517967487349277,8.82777610478075,4.935053245996318,-1.0036060035829273,0.14199076313297937,-1.8539111762718252,1.55573235531975,4,left
4.888,-0.025162106157862026,2.1327713172458527,-0.1456159855356525,10.212059495734913,5.203535259002881,-1.8294853141157046,0.12535281984991514,-2.088005304852396,1.6987878784168968,4,left
4.8919999999999995,0.18701787867837877,1.9053266669360753,-0.0021733465469892382,8.386183290199641,4.849404134466461,-0.7401710898908659,0.1321303851677006,-1.992823673880552,1.6405501466678931,4,left
4.893,0.23725971309323562,1.8508954349362656,0.03393058387588807,0.7229918174128658,3.363666518223358,3.8323850527306282,0.13221052549459203,-1.991344910433312,1.6397806764321246,4,left
4.894,0.41907430255236,1.6505528693239266,0.16827815901056045,-1.1028033952234122,3.009619837080894,4.921675026598637,0.12868128081581692,-2.0414689261507952,1.670239764255692,4,left
4.896,0.6808824111784055,1.3738277751809336,0.3647427792093907,0.2813877837640597,3.2780543445331976,4.095730055661839,0.13291405628374042,-1.9814687951225545,1.6337330231937635,4,left
4.896,0.8499929424346215,1.1876613987983273,0.5175240603410474,-0.5534045654469837,3.1160662026593338,4.5941171652810935,0.1296106720927958,-2.028136685896045,1.6621847981517006,4,left
4.902,1.0029514944839462,0.9965137330580879,0.6788135352939175,-0.2138128308667035,3.1821639740533865,4.390894581673191,0.13141187826087922,-2.0031519619712332,1.6467921988672352,4,left
4.9030000000000005,1.0809696835020213,0.8444453966443242,0.8085574210129818,-0.20892061992347982,3.1827478032484726,4.388813839655555,0.13095410297771345,-2.0084399985307724,1.6504229918111764,4,left
4.905,1.079985089981558,0.7233656206816983,0.9031759199894229,-0.3871084118301968,3.1485648762513594,4.494308518393935,0.13056606854812997,-2.0158790084615665,1.6542851478505982,4,left
4.906000000000001,1.0209928630882472,0.6249969378547515,0.9800470013921965,-0.17371746006503389,3.1897851001910915,4.3673376023809585,0.1312809065152692,-2.0033976704776713,1.647493861298223,4,left
4.91,0.9083461619021637,0.5722997969414838,1.0361101485134623,-0.33984956564487856,3.157238601856924,4.467166266179341,0.13059550301860381,-2.0149709925445753,1.6539011616270618,4,left
4.91,0.7710788108610438,0.5433834814920524,1.072727063801127,-0.2503621047429868,3.175653325277401,4.4115144583809345,0.13111133083761073,-2.007729884845524,1.6494704923162886,4,left
4.915,0.6000088674051066,0.5598865036690581,1.0542705200536084,-0.2706421599841354,3.1698901655265406,4.427499848549212,0.13073211344083335,-2.009490576146421,1.651777564785708,4,left
4.916,0.4080131569948927,0.6158519427359543,0.9726746726771985,-0.29462713498007687,3.1674869895571307,4.437046260237867,0.13108462711966423,-2.012699159565038,1.650925592004099,4,left
4.92,0.21298615735813162,0.6832671657755482,0.8423608056347253,-0.25333645490258233,3.1737015394236368,4.416206399430962,0.13068191278558877,-2.006180935356079,1.6511376207046524,4,left
4.92,0.04288234044374054,0.7412676940314235,0.6735654120560357,-0.2918945433591832,3.166206811057755,4.43924772261035,0.13108825933294288,-2.0134512938265337,1.651108824617625,4,left
4.926,-0.08483169241340628,0.7690064995787701,0.47110158419351955,-0.2663882896326623,3.174484877210933,4.416981947796091,0.1308896711963241,-2.0087421826678926,1.6508144440085344,4,left
4.927,-0.16347364021215627,0.7623486666913004,0.23742799565578568,-0.2769201891308296,3.164829885933825,4.439368065241736,0.1305392050164741,-2.0072030008274937,1.6521014770004543,4,left
4.93,-0.1851953408994201,0.7265226876161919,0.006305372913581457,-0.2780262190256859,3.175971008883144,4.416008386813127,0.13177956655682793,-2.018062564437182,1.6489904502525317,4,left
4.93,-0.16649879644779636,0.6734390263511933,-0.19428778232916577,-0.2706943959643592,3.165289184695088,4.4372371512639415,0.12953224322490614,-1.997181050709936,1.6543053241895977,4,left
4.936,-0.10873261052726063,0.6209836941236315,-0.36957948706457683,-0.279055125517085,3.170657862589746,4.4274352140443085,0.13240608100241816,-2.0241580036235307,1.6475819029744572,4,left
4.937,-0.024480688637286623,0.5794068107958105,-0.5079174476616559,-0.27343870040846746,3.177783982768247,4.411324600089655,0.13001158037928895,-2.001573232723988,1.653155248858888,4,left
4.941,0.09512237591088839,0.5711236980414514,-0.6035832941107242,-0.2743631818166195,3.1512077176230395,4.4676972339357786,0.13005815034865556,-2.0024336080682845,1.6531591639275431,4,left
4.941,0.24397460723756026,0.6061593864346899,-0.6591682277616346,-0.2782346634418091,3.1994007816101844,4.366495066833,0.1346840160706852,-2.044671466573252,1.6420206762238023,4,left
4.945,0.38573264621479886,0.6790650026834542,-0.6774663071813612,-0.2712545973362497,3.137917538985807,4.495236723896224,0.12333550630393966,-1.940571668616306,1.6692187573833048,4,left
4.946000000000001,0.5569816549881317,0.8010433032138883,-0.6991402980265222,-0.2779238819466052,3.1890699059412713,4.388270846556152,0.14214659531599677,-2.113236153101931,1.6241651205776884,4,left
4.949,0.6796672318942575,0.8883282400792365,-0.723227605139823,-0.27645281578913594,3.1879668015166507,4.390369499029191,0.117334950966334,-1.8855031022361584,1.6835930924254638,4,left
4.95,0.7148478071287936,0.9103468412293196,-0.7308846043468971,-0.26717522246675207,3.0896888216538647,4.596446710080583,0.01316595909973177,-0.9297782017076263,1.9331974757796444,4,left
4.9510000000000005,0.8313293781577267,0.9845114315552801,-0.7505337855097101,-0.29183085489084826,3.3308200622451682,4.091094617216044,-0.0116486086599231,-0.7021052122251463,1.992655744092118,4,left
4.954,1.0037953785305778,1.0823076617055056,-0.7752316897153109,-0.25027137475993655,2.9311976392096906,4.928541488480567,0.007165642735162846,-0.8747047080415191,1.9475693402231828,4,left
4.955,1.0824546825427501,1.1186482876167747,-0.7856130484797879,-0.30530640213635385,3.458196094152199,3.8241337879742874,-0.004181662100324741,-0.7705802171106622,1.9747549130378037,4,left
4.959,1.106838794391143,1.1291548179357005,-0.7909169357664649,-0.5355198603317772,5.670740988385543,-0.8123535578855849,0.00043370780856054683,-0.8130335833740707,1.9637252412612394,4,left
4.961,1.1645091853798002,1.1390499095633702,-0.7927359201793494,-0.5904931688889836,6.197599541006003,-1.91667046702157,0.0005028581245302699,-0.8134302366445667,1.9634950824630293,4,left
4.961,1.2130713909762232,1.1254921163113203,-0.7808445566274707,-0.5488994530428752,5.79822114948732,-1.0794435047258708,-0.0019240159556647128,-0.791510373061102,1.969403996868696,4,left
4.965,1.2077956975298618,1.0774353387273483,-0.7539648338898849,-0.5739382678885603,6.039081732713058,-1.584401968878417,0.0009820563080152668,-0.8178251871263409,1.9623464767838135,4,left
4.965,1.1838124019992833,1.011536658525146,-0.7289465947677647,-0.5637015624118398,5.9409783293006715,-1.3788874431564029,-0.001279170554720749,-0.7972294296169251,1.9678054016999043,4,left
4.97,1.1468117483388487,0.9375223317503106,-0.7144615688103626,-0.5638013826035546,5.939951661536115,-1.3761716920251659,-6.650078981244021e-05,-0.808657451583861,1.964981514974827,4,left
4.971,1.1003254701194303,0.8636204825411319,-0.7054586107441572,-0.5686128404779851,5.990632501492381,-1.4835471252853032,-0.0003277841966186475,-0.8052868891969185,1.9653440133588207,4,left
4.974,1.0563302954132445,0.80467942976903,-0.6980411700443789,-0.5629900226712172,5.930070905235937,-1.3549912605604701,-0.000680026549962623,-0.8037334470925451,1.9666424042810158,4,left
4.975,1.010327803046616,0.7669881076650995,-0.6875902462762338,-0.56719088410994,5.977026723990381,-1.455010908663478,-8.511990607028194e-05,-0.8071308773160406,1.964659133439643,4,left
4.979,0.9658812082175491,0.7590104828494267,-0.6694037831703924,-0.5648415397767712,5.951593665615892,-1.4010188451011323,-0.0006381452784723085,-0.8037005338273611,1.966428982275129,4,left
4.98,0.9176760490510503,0.7847285413553686,-0.6484157209538781,-0.5661437182021594,5.958365332912351,-1.413830858703947,-0.00028701296076168056,-0.8069361859720179,1.9655917704400296,4,left
4.985,0.8614821753122521,0.8390751413829353,-0.6299909497562097,-0.5646429020035026,5.962455539643053,-1.4268356666130813,-0.00038719679027558344,-0.8029676169541866,1.9650059257404822,4,left
4.986000000000001,0.7980105759259544,0.9124033312269563,-0.6123854579847413,-0.5672259484966891,5.95534870120628,-1.4043106698544228,-0.0005089775464064133,-0.8088205895488322,1.9671849408355362,4,left
4.99,0.7238524968476443,0.9921134018655381,-0.5991927086920144,-0.5636968941495083,5.960643412897454,-1.4247679356699652,-0.0002432334985959683,-0.8008590173051047,1.9637329433156931,4,left
4.9910000000000005,0.6348417036559962,1.0689932136395555,-0.5847623205539818,-0.5666581983762229,5.957833056574984,-1.4114169174421765,-0.0005422669072887526,-0.8092031436790853,1.9674503378452208,4,left
4.994,0.5351874648808472,1.1390589193473546,-0.5548818911099785,-0.5670317840492574,5.9611401329455305,-1.418280890079278,-0.0003446210453405085,-0.8046079767371981,1.9652433274278096,4,left
4.995,0.4276496718793923,1.1962401108237797,-0.5076000816307809,-0.560091047836472,5.952494381646279,-1.4140062264190036,-0.00029709433693767234,-0.7995259323911164,1.9636336242790469,4,left
4.998,0.31333415864943914,1.2339255413391137,-0.44729892749494615,-0.5757660075817035,5.97045513965909,-1.4200091604431244,-0.0007064258079424893,-0.8199333984297308,1.9711576049523403,4,left
4.999,0.20126106012601713,1.254093680524756,-0.37819019220950123,-0.5523379874500582,5.94324465318571,-1.4101812262092075,8.927905813757242e-05,-0.7824177626775599,1.9571179637308627,4,left
5.004,0.08867870694565357,1.259376023788508,-0.30758980866057356,-0.5773702767946608,5.972804313582003,-1.4218164553995374,-0.0009410046471878556,-0.8305166594654945,1.9751647264004353,4,left
5.005,-0.018335483015211727,1.2520876286911733,-0.24857409587074222,-0.5629080748926012,5.955731673320306,-1.415108159716595,-7.692891563959497e-05,-0.7903893853645226,1.9600909000830713,4,left
5.0089999999999995,-0.1194281493601656,1.2334778152146555,-0.20241436310817146,-0.5503103365431208,5.939784197324494,-1.4067465586761259,-0.00011444170220113891,-0.7913646747085203,1.9605281938578116,4,left
5.0089999999999995,-0.2127178654934292,1.2115096714698252,-0.16558859955789035,-0.6052722042176264,6.007982565801955,-1.4399971530999278,-0.001717071351762521,-0.8682470804594615,1.9891740566108824,4,left
5.015,-0.28944426707739,1.190973400509085,-0.13998758674952744,-0.5033556408980167,5.881589624638764,-1.3785047407461488,0.0022399315051498878,-0.6794060613708135,1.9187322574081491,4,left
5.016,-0.37345724665166635,1.159689365830927,-0.1181884041818037,-0.6342296129632758,6.043983781421493,-1.4576721497716114,-0.004327130298888096,-0.9924853439477421,2.0355357836674566,4,left
5.0169999999999995,-0.42682123358756996,1.1397769050369808,-0.10717919660842781,-0.5249682570577836,5.908365867587006,-1.391489370090679,0.004337453102176498,-0.5795306953613892,1.8814731606864756,4,left
5.018,-0.4378708814380362,1.1349080882741038,-0.10430153041355585,-0.5279039379238,5.91190037010559,-1.3929936298485692,0.04066180145921259,1.1539221963844377,1.234825020820699,4,left
5.018,-0.48177958259636966,1.10971155668192,-0.09269797435203084,-0.736320152673954,6.171063836614576,-1.5203839264425034,0.04932877964545328,1.566904149102064,1.0807682388759283,4,left
5.026,-0.5333008315518797,1.0784092045380738,-0.08311963329444019,-0.22408580333921074,5.534184406582223,-1.2075137006559875,0.0427591263640427,1.2537953178363597,1.1975654489353715,4,left
5.027,-0.5563030879515534,1.047674952907423,-0.07438028927672,-1.0733809805849663,6.590156760149962,-1.7262579727571192,0.046715145470081446,1.4426251276806044,1.127121234073252,4,left
5.027,-0.5701021755966142,1.024385317181275,-0.06573884053525847,0.046822917431293576,5.197317341517957,-1.0420044920047327,0.045121106929884414,1.3658406590174765,1.155788084552694,4,left
5.0280000000000005,-0.5712136113096884,1.0191759926787891,-0.0623037465531233,4.748986282625694,-0.6495144995234263,1.8310023706948773,0.04506510697175424,1.3646546096462795,1.156180237287232,4,left
5.0280000000000005,-0.5637909769300257,0.9955857055618815,-0.048667868701782246,5.869157053183423,-2.0423641517730884,2.5152634892058297,0.045955691409608854,1.4050840996974858,1.1411711206889879,4,left
5.032,-0.5422192676563466,0.9654205091253037,-0.03402377473545777,5.019913652699635,-0.9863758027279578,1.9965072821279832,0.04489900824974338,1.3566842228731164,1.159153462687747,4,left
5.033,-0.5008274311594714,0.9521775775571337,-0.025996536728016013,5.5321051916162824,-1.623268460375995,2.309387369274243,0.04570610829101184,1.3943297928279121,1.1451415867706778,4,left
5.037,-0.44190455236452164,0.941370627846874,-0.012947221024024035,5.3236864470577885,-1.3641057696510648,2.1819976742318534,0.0453194364341849,1.3741806277415396,1.152720957715058,4,left
5.038,-0.366807472015105,0.9397036093217075,-0.0043821494076099945,5.3208339464104295,-1.3605455798719999,2.1804742095838767,0.04529395326734726,1.3784303487187968,1.1509329502850365,4,left
5.042,-0.28561159080512594,0.9479679930802398,-0.008326301168875175,5.429913799560889,-1.4962195537964764,2.246698865066867,0.04561740782217529,1.384459793578955,1.1490330956752277,4,left
5.042,-0.19717446288465826,0.9606843904467258,-0.018418402616150423,5.299298313182248,-1.3337455517721257,2.1674718436432547,0.04516396539756415,1.3743552895268332,1.152373607292732,4,left
5.046,-0.10832381693658777,0.9766690375187599,-0.033478978250051035,5.400958963611444,-1.460217553468085,2.2290232429994186,0.04555282699223143,1.383720557197298,1.1492219680422124,4,left
5.047,-0.027110996883288926,0.9930851391779851,-0.050280431413086815,5.346107835450654,-1.3919849548948369,2.195747183498739,0.04543210838336413,1.3778795476395662,1.1514039152947224,4,left
5.051,0.05114422177606913,1.0140707650881136,-0.06023466010745483,5.35892118430371,-1.4078658642710886,2.2040589492530387,0.045103531260919386,1.379244481541325,1.1502600989741893,4,left
5.051,0.12052605177406378,1.0352117243318695,-0.07101935219545051,5.372687016360883,-1.4251535733810687,2.2109279617194346,0.045976681760885985,1.3819599923972978,1.1506975743395693,4,left
5.056,0.1785598887087879,1.0543865269396413,-0.09038947062590902,5.34885425218358,-1.395223405858347,2.1990160269006163,0.04464483910288285,1.3765113729288512,1.1505661685801143,4,left
5.0569999999999995,0.23053634414186946,1.0717011306245114,-0.10547563740111769,5.370810858188555,-1.422888425119274,2.209183241601411,0.046070046001393646,1.3825801026998232,1.1506092250565172,4,left
5.061,0.27386554275790786,1.080208633496228,-0.11499786808303478,5.356308270957854,-1.4045654433801733,2.202910196600837,0.04523795522353025,1.3786623994812988,1.1507375966645106,4,left
5.062,0.30704766206217415,1.080743481104292,-0.12326517739770619,5.363260479718168,-1.413207805723371,2.2071817187584393,0.04456334110318536,1.3773216448133154,1.150089002468798,4,left
5.066,0.3360020322545849,1.0733204075939073,-0.12502456638043688,5.360709503424418,-1.4105731125154972,2.2008205541458103,0.04758559766954329,1.3865230109116449,1.1516848701188045,4,left
5.066,0.3571040669323539,1.0589170407996944,-0.12406656258850711,5.362722013949297,-1.4118472621442049,2.2130239082146126,0.041968200815707665,1.368857018195794,1.1489495051649978,4,left
5.071000000000001,0.3625570592749774,1.0415996097970692,-0.12158167120740909,5.358832906934186,-1.408843939614131,2.1942776004462843,0.04918403206757041,1.3916764924087761,1.1524116805822784,4,left
5.071000000000001,0.35952765901928674,1.0214225730882078,-0.1219001539676329,5.364155409485406,-1.4135085677486559,2.214980096361752,0.0431587543984242,1.37257022572996,1.149541416483112,4,left
5.0760000000000005,0.34596384857713325,1.0019711944689957,-0.1272724325226515,5.3610924094097445,-1.4108286918466821,2.2030259349195918,0.04332623555248263,1.3732988248420908,1.1495414898468415,4,left
5.0760000000000005,0.3224824202246901,0.9839040287134605,-0.1257104917511171,5.355843630382821,-1.405275182728965,2.1911270647242027,0.05480079631352329,1.409038508972071,1.155269657960949,4,left
5.081,0.30020748231607397,0.9680508932658974,-0.11994685426346786,5.375438714084948,-1.4253821342419588,2.2411385899201592,0.026592548123523962,1.3209440587300978,1.1412814669610594,4,left
5.082,0.268733603008754,0.9567549583169743,-0.11410418754442711,5.339266796980803,-1.3883014364347868,2.148494095520772,0.07336444904954981,1.467075104626978,1.1644516978394588,4,left
5.086,0.24335026540509583,0.9509182558031304,-0.10770177600575055,5.385930162283803,-1.436185177008832,2.267587069530284,0.011672435755673834,1.2743211848627016,1.1338912238454664,4,left
5.086,0.23760981587874327,0.9485398108348694,-0.10451479707074157,5.346874502250242,-1.3960849117355152,2.1681004074305434,-0.24727257798156713,0.4655722297266113,1.0055122979876527,4,left
5.087,0.21401871706665232,0.9428288658887412,-0.10023768894090866,5.347656571469825,-1.3968337357208152,2.1706304215388363,-0.30896413430535363,0.2728394647544885,0.9749405101432754,4,left
5.091,0.17637045814839808,0.9393531610778382,-0.09529154600870648,5.423301827270777,-1.4747409966874012,2.3610332092943116,-0.2621927281373879,0.4189476245933569,0.9981229826060383,4,left
5.091,0.14720192382755987,0.9383563637263832,-0.0915719319067764,5.237580767546479,-1.2835039707809508,1.8931664139594082,-0.29040116314094944,0.3308444620546923,0.9841394445667966,4,left
5.095,0.11443855510136289,0.9338451604697545,-0.08740252882434164,5.545542497631654,-1.6006142250152586,2.668922968435318,-0.2789249648994887,0.36666008304473696,0.9898270140588672,4,left
5.095,0.09457786000288429,0.9332544643224752,-0.08573462176658353,5.1392564152890845,-1.1822611678605977,1.6456741228280385,-0.2787610086789834,0.36722530446479135,0.9899144440417383,4,left
5.096,0.08991236535040753,0.9340073893414117,-0.08538161581407715,3.4327027937503556,0.5745288501359925,-2.6493817192328772,-0.28478123095744223,0.3483532801990076,0.9869189254277413,4,left
5.101,0.07104624487301761,0.9323802139144548,-0.08198591034850827,3.0261839095903142,0.9929955433460513,-3.6725864624465183,-0.27757043550754495,0.3709395079050457,0.9905058317599392,4,left
5.102,0.04982591059180703,0.932850407868874,-0.07991966117543099,3.3345874989811923,0.6757185567024,-2.8969654850681836,-0.28318565637164084,0.35337413807062146,0.9877166411194028,4,left
5.106,0.035565077484419755,0.9323727644074618,-0.08072702705659537,3.148289310544099,0.8670639114414926,-3.3645392207015217,-0.2801590827258478,0.36277583869651364,0.9892054160928707,4,left
5.106,0.018336632191243506,0.9290489337937411,-0.07839825527252553,3.224486371625148,0.7892447466555936,-3.1746197429525895,-0.2808476157681966,0.36078982556780315,0.988901822969812,4,left
5.11,0.006403811878994014,0.923496174017363,-0.07552343569587391,3.2250079569893764,0.7880927679502951,-3.171478434747077,-0.28165571661803845,0.35798388721718327,0.9884357286704263,4,left
5.111000000000001,-0.0015290934817936107,0.9152830654029702,-0.07071921770489689,3.1855837856045857,0.8289421001175934,-3.271498438102361,-0.2802599588517668,0.36268824792848386,0.9892083593382516,4,left
5.1160000000000005,-0.008651460388396336,0.9052130752215186,-0.06367950731480383,3.233540908620858,0.7800987976697666,-3.1523029321690066,-0.2815683120784428,0.3583273016882721,0.9884952787868467,4,left
5.1160000000000005,-0.008392237855968498,0.8921246337798467,-0.05990995193842065,3.1950897702238326,0.8179903056845641,-3.244195910260872,-0.28069497793592374,0.3610526613185223,0.9889276234220593,4,left
5.121,-0.002970387114637894,0.8776952015981978,-0.052167820259045455,3.2175393830210277,0.7977929926023672,-3.196105907007689,-0.2810670863204252,0.36039880354064135,0.9888631204327909,4,left
5.122000000000001,0.006245168078532012,0.865719318016787,-0.04157319826634044,3.2099177263796275,0.8020647778036095,-3.2049696736012923,-0.28108827491260946,0.359171121628564,0.9885783817563139,4,left
5.125,0.022965844696403177,0.8539639634879309,-0.0359863658016806,3.207069824360584,0.8078457207428065,-3.220361959074081,-0.2808479333105847,0.3616542804695486,0.9891067141950347,4,left
5.126,0.04754166572791217,0.8434118533572506,-0.03566692010369292,3.2162427627672643,0.7984279159368943,-3.1973437279432577,-0.28114300406160553,0.3588859910602349,0.988524193877535,4,left
5.131,0.07662921031655334,0.8365813120221794,-0.037304121137516195,3.2031353595753487,0.8066350255092314,-3.2150898415115714,-0.28091113389581596,0.36067709649374985,0.988891200876987,4,left
5.132000000000001,0.10652420971393348,0.8311639346901816,-0.03592681305003065,3.219224186019801,0.8021532640495233,-3.2094351016716507,-0.2810153235862803,0.36127155453055626,0.9890568955991583,4,left
5.136,0.13459274327898296,0.8311096122253396,-0.03594715319663783,3.2012904153691992,0.8025925012177693,-3.2025988909318484,-0.2810570301178149,0.35711597982490034,0.9880851097478531,4,left
5.1370000000000005,0.15762734773516662,0.8381531526799433,-0.03670726593696355,3.21773513638815,0.8048762661062048,-3.216613774520601,-0.2808898829737488,0.3651027601101388,0.9899317875631339,4,left
5.141,0.17381082139500117,0.8479088177200969,-0.037686275802632806,3.2095978664342297,0.8021516341425304,-3.205081571518421,-0.28112462554785533,0.3547847496918563,0.9875506194899614,4,left
5.141,0.18348851466314575,0.8607161706181696,-0.046139311154674525,3.199710580656088,0.8027615763074295,-3.2023726922374696,-0.28092054560130253,0.36342375151966266,0.9895425017516535,4,left
5.145,0.1862897226905711,0.8766799548709273,-0.059622829288294224,3.236917344085046,0.8063381249916741,-3.229494646759208,-0.2809572520985936,0.36309317079137593,0.9894732644189256,4,left
5.146,0.18463414373611947,0.89248454695419,-0.07506034902590725,3.169685422261014,0.797883825990901,-3.174745570622769,-0.28124396897175474,0.34693875114921713,0.9857255921598933,4,left
5.15,0.18145304594345385,0.9076202634272992,-0.08831318504925584,3.255229588647624,0.809548688584012,-3.2470217464768933,-0.2805026333414826,0.386757365672294,0.994954792059475,4,left
5.151,0.17705411082017278,0.9226531371871691,-0.09674800676320297,3.184148781924671,0.7994629975787808,-3.1858364937630075,-0.2817410868453515,0.32070837838243155,0.9796479737899529,4,left
5.154,0.17532000422868116,0.9308733307036445,-0.10114184149655155,3.1857818503387585,0.8000392764848123,-3.1882262183077525,-0.28010706901290294,0.4078270119336832,0.9998375935432546,4,left
5.155,0.17565161272337687,0.9335213286327309,-0.10137631827409663,3.3218576297472255,0.8187065831209285,-3.303533412372155,-0.27329155687742607,0.7733781087963303,1.084563255042583,4,left
5.155,0.174428968785944,0.9383985848161668,-0.09807863081159851,2.9879216059224953,0.7722795698891871,-3.018806402050191,-0.2716620027616622,0.8604798154536983,1.1047500593426245,4,left
5.16,0.17609915798188014,0.9419993720380577,-0.08657800817456718,3.5413532069941063,0.8495212274380064,-3.4915276232115695,-0.2728954061803558,0.7944512687253713,1.0894466860317786,4,left
5.1610000000000005,0.17893068222982006,0.9436970934275781,-0.07572653245558439,2.8115019376562542,0.747506433750031,-2.8676997178061807,-0.2721530152557616,0.8342693154951413,1.0986756318351674,4,left
5.164,0.18072431642194056,0.9436229228245574,-0.07391563656518486,-0.2520168686033649,0.3193148596862934,-0.24914161703841187,-0.27245414073334895,0.8180696773971619,1.0949207675392247,4,left
5.165,0.18624852527087643,0.9428412487248183,-0.07196513696122248,-0.9818034589413777,0.21721215449889952,0.37486260201990823,-0.2724587689705717,0.817846765019289,1.094868950380044,4,left
5.166,0.19149038168078478,0.9445646017640349,-0.07218007935542477,-0.428516383221099,0.2946359321166262,-0.09824351734156644,-0.27230154448921384,0.8263230855552456,1.0968342979281052,4,left
5.169,0.19589228245450807,0.9450718677159037,-0.07673721567903474,-0.7622149744670604,0.24793691743500326,0.18709858538117585,-0.2724885523344517,0.816177448193463,1.0944814987354774,4,left
5.17,0.2036592165549086,0.9491779067821717,-0.07930482958192407,-0.6264514316108079,0.2669240578287426,0.07100650935278999,-0.27234400090798816,0.8240705829477382,1.0963123223415174,4,left
5.175,0.21153244578928188,0.9566749903270311,-0.07853953602039979,-0.6245102071501891,0.2672366122115791,0.06935849643443709,-0.27242209126920364,0.8198113936668042,1.0953245027027956,4,left
5.176,0.21982760923875333,0.9602181260814938,-0.07561959408113204,-0.6957417062366485,0.2571892472887606,0.13023848940751537,-0.2724011542820649,0.8208160087788772,1.0955561709681343,4,left
5.181,0.23207486276561434,0.9665288161127857,-0.07359108844519469,-0.610411124143871,0.2692403711911996,0.057319268525023115,-0.2723893805203428,0.8218570388690315,1.0958013721574777,4,left
5.182,0.24674613342016755,0.9748406833781385,-0.06858345341051797,-0.6768756557149838,0.25983129790464476,0.11410429558609674,-0.27240956243786274,0.8200553122010394,1.0953769703133698,4,left
5.184,0.2601269180942154,0.9785242474018688,-0.05710075368800117,-0.6410413094837435,0.26489208772934725,0.08348272930438143,-0.27239550717558436,0.8216991342150917,1.0957663514026992,4,left
5.185,0.2723849666394801,0.9813854689396219,-0.04458745054305109,-0.6491844644922697,0.2638451376235816,0.09049371367095198,-0.27240229884867734,0.8206221914721981,1.095510044476335,4,left
5.189,0.2845320017117946,0.983558041009515,-0.03434837933360983,-0.6588069908971517,0.2622014487769466,0.09857152508203391,-0.27239212632904797,0.8211630225237125,1.0956353459333816,4,left
5.19,0.2938245044067619,0.9836025686087133,-0.027377802610245028,-0.6421543167718764,0.2650431540691307,0.08459075049046472,-0.2724222149571205,0.8208710182440037,1.0955800852887014,4,left
5.194,0.30103214474457235,0.9830708676450993,-0.023556979542894874,-0.6578400497620462,0.2622209014688554,0.09768560582978748,-0.27235891801113704,0.8212417793561422,1.0956376180218408,4,left
5.195,0.309407624884045,0.9815960949145528,-0.02112172757695722,-0.6472908550001398,0.26419700954993025,0.08891859387669243,-0.27245466807886715,0.8206196267029944,1.0955357989508356,4,left
5.199,0.3175580718945954,0.976406572726967,-0.01981207486069155,-0.6518097590864318,0.2635692444646241,0.09278544860418722,-0.2723508748657449,0.8213743597955304,1.095665540630249,4,left
5.2,0.3248645224846991,0.9661345966863758,-0.02241539027174802,-0.6521923314939393,0.26258787184797905,0.09264023911515168,-0.27241082987898657,0.8209392632312653,1.0955908132543648,4,left
5.204,0.33332388008654606,0.9569381849264363,-0.029413981987529182,-0.6488318639773958,0.2651782503061262,0.09084573817780928,-0.2724663066860448,0.8203612733968881,1.0954793407179795,4,left
5.205,0.3417867506100748,0.9496289377889989,-0.03520000747771537,-0.6532670182888574,0.26139491935464343,0.09302864790401585,-0.27222842847748374,0.8226280911093431,1.0959062520880036,4,left
5.207999999999999,0.3471901035100883,0.9401313243510514,-0.03722917671496123,-0.6493059360757357,0.26532055377832553,0.0913572091170915,-0.27266932409592204,0.8184373746782657,1.095117601527146,4,left
5.209,0.3497612975376888,0.9309727866365687,-0.03610949046624412,-0.651602116718095,0.2630515280643226,0.0923297658444637,-0.27210289165984763,0.8238352166552365,1.0961341323711014,4,left
5.2139999999999995,0.35143425473002443,0.9233048236993817,-0.030985575069448268,-0.651883990068527,0.26133233861616645,0.09171516906701072,-0.27257589652648495,0.8193212759267544,1.0952837578299846,4,left
5.215,0.3495583372425419,0.91926716860474,-0.02457261836449224,-0.6484547796139106,0.26916193754492257,0.09252456276425647,-0.2725635517052625,0.8194218490509438,1.0953017061653028,4,left
5.218,0.34453065178032505,0.9178796073665342,-0.01912851409189522,-0.6549216817523004,0.254627511866782,0.09111651148687422,-0.27165978352109454,0.8281206852131051,1.0969445898719015,4,left
5.218999999999999,0.3383984761191292,0.9182182407141655,-0.015614465608952932,-0.6467608814247525,0.2732697670083669,0.09304571651448644,-0.2738807130208095,0.8067567149103789,1.0929105784044977,4,left
5.223,0.32740378386621527,0.9252157610720088,-0.018469988442120215,-0.6535067577038183,0.2577165908854478,0.09137926965567385,-0.27019837375619016,0.8421802768194764,1.099599320041467,4,left
5.223,0.3188738822964393,0.931502225090086,-0.024361729428213574,-0.6531521128360687,0.2581595844603939,0.09127361668431891,-0.2750553633031667,0.7954520712135937,1.0907759074341996,4,left
5.224,0.31644911399527564,0.9338241607043382,-0.027060465598027827,-0.6410357496558775,0.2877167276103819,0.0950982832068209,-0.29544464499953815,0.5992497913779653,1.0537244741711382,4,left
5.228,0.3071041249894359,0.9411782652391163,-0.03516592679879138,-0.670937861598452,0.21505614677086368,0.08580921834846306,-0.300301624633372,0.552514715486195,1.0448996302866982,4,left
5.229,0.29423683439297854,0.9523620421676025,-0.05275410414080409,-0.6213826514272525,0.3355239170046319,0.10122521601774534,-0.2966192213484332,0.5879496658780772,1.0515908365377031,4,left
5.232,0.28985729903370205,0.9600555893448135,-0.06432188007536434,-0.6866908486609414,0.17663909044268594,0.08085154198213881,-0.2988404196780576,0.5665745129631674,1.0475541693085049,4,left
5.233,0.286813912987424,0.9626881646038395,-0.06774777179985754,-0.9604342780072825,-0.490245306369172,-0.005034947176936887,-0.2979360701095208,0.5752775747485096,1.0491986056252263,4,left
5.234,0.2774445346151685,0.9655625208443609,-0.07525200589472411,-1.025651994910593,-0.6491077494365387,-0.02546837882422588,-0.29792461157191985,0.5753883512738082,1.049217682239044,4,left
5.2379999999999995,0.26874764220446046,0.9707530247277025,-0.0834298068723795,-0.9762382194843836,-0.5286749686291032,-0.009958969783298762,-0.29839663763089724,0.5708443323405521,1.0483621119928062,4,left
5.239,0.26454441001205303,0.9754062754797445,-0.08831987331697444,-1.0060233406017831,-0.6013066056732019,-0.019325304565677315,-0.297830815198663,0.5762914237277263,1.0493882861533588,4,left
5.242000000000001,0.2621559707963107,0.9789089458562509,-0.0898791121443707,-0.9939001989913905,-0.571747789756686,-0.015505107648763717,-0.29827212485526855,0.5720436197787027,1.0485871745562831,4,left
5.242999999999999,0.2638537678796679,0.982660606954297,-0.08492892540951097,-0.9937725478859162,-0.5713609449708013,-0.015460853579525622,-0.29803216222478895,0.5743507280494465,1.0490249314642346,4,left
5.247000000000001,0.27173437278721735,0.9846118406990895,-0.08005887211225757,-1.0000228983927637,-0.586791541909035,-0.017454558294410144,-0.2980916689044816,0.573785011901847,1.0489114245203832,4,left
5.247999999999999,0.28597526942884127,0.9825764572221111,-0.08277609877011927,-0.9925679742098745,-0.5683239062951781,-0.015059164943379185,-0.29814620410954173,0.5732481316753151,1.0488215268522545,4,left
5.252999999999999,0.30590708384272464,0.9805301557161128,-0.09234572492005383,-0.9983357960730715,-0.5826853863957979,-0.016928928889992,-0.29804744452434995,0.5742133888605794,1.0489897140527769,4,left
5.254,0.3259482014857271,0.9775459075372004,-0.10569602571494854,-0.995209524418011,-0.5749307450273848,-0.015919433487310695,-0.29814159768097726,0.5732955427162623,1.0488276327505976,4,left
5.2589999999999995,0.34542130948832217,0.9740132140139642,-0.12057701837299165,-0.9960793945457449,-0.5767953681158227,-0.016145737621468353,-0.2980727257865581,0.5739579223493818,1.0489527792706932,4,left
5.26,0.36450207994221695,0.9738457587027043,-0.1313506958512906,-0.9964747718501836,-0.5785942000627946,-0.01642849952186455,-0.2981185321676152,0.5735397332674999,1.048853035516777,4,left
5.2620000000000005,0.3770078830508554,0.9737709666701451,-0.1308258089287967,-0.9957888721948354,-0.5754787643816754,-0.015936905904173033,-0.2980825298072648,0.5738349885556746,1.0489563297982962,4,left
5.2620000000000005,0.3852805154817439,0.9724008106653568,-0.12206524167670736,-0.996205443718166,-0.5782679652528286,-0.016408050320743838,-0.29811976160114306,0.5735526972258685,1.0488320489483651,4,left
5.266,0.3896111719348412,0.9700007054331253,-0.11090765114964851,-0.996048394621919,-0.5764701078451298,-0.016086782631746024,-0.298083181823493,0.5738241947964452,1.0489590461041611,4,left
5.267,0.38486879362654414,0.9691537553956587,-0.09914148328756381,-0.9964587450725002,-0.5774582394869537,-0.016213844515256835,-0.2980994005417106,0.573713763023016,1.0488943168165035,4,left
5.272,0.37317619768856,0.9709931917424875,-0.0889764655324363,-0.9950362890139779,-0.5766163813548348,-0.01627063391748997,-0.2981375867490979,0.5733884174535306,1.0487954355087394,4,left
5.273,0.35670696891407944,0.9725379893269814,-0.0822755947342586,-0.9980654040861745,-0.5779991353041105,-0.016070242205684426,-0.29801020801242784,0.5744356751169013,1.0491578635702652,4,left
5.277,0.3383900985342184,0.9768277283696079,-0.08264111483900397,-0.9934947050508589,-0.5758104013965546,-0.016353441206683056,-0.29823913133645163,0.5725613669730139,1.0484982176306805,4,left
5.278,0.3176456229291671,0.9831651740937987,-0.0871444957787119,-0.9984356250853474,-0.5783106549257198,-0.01607273041060661,-0.29794699585926543,0.5749530343443149,1.0493427251659286,4,left
5.281000000000001,0.29688116918908786,0.989226093280585,-0.08901376743293767,-0.9955816875772796,-0.5768675298697334,-0.016235514796568873,-0.2981899109060163,0.572962177109007,1.048638304008081,4,left
5.282,0.2782847386080309,0.9974335336454313,-0.09010497717134627,-0.9929689892111119,-0.5752543039385177,-0.016327118706879508,-0.2981865701192409,0.5729931785179131,1.0486541731055294,4,left
5.2860000000000005,0.2582893432754461,1.005848644808132,-0.09380392619452657,-1.004205377638076,-0.5818372479648057,-0.015862286904770713,-0.29771344910995934,0.5768651587197717,1.0500089840979991,4,left
5.2860000000000005,0.2417607810963437,1.014419361106233,-0.09122883352933786,-0.9833778047662765,-0.5696522042536557,-0.01672828788987726,-0.2988718623942137,0.5673745551739798,1.046681706055337,4,left
5.291,0.22438159545508715,1.0231638260093416,-0.0733844979318567,-1.010133326261926,-0.5853298436387326,-0.015619390106852515,-0.29695308849630025,0.5831045025336727,1.0521990960241103,4,left
5.292000000000001,0.21145097783179423,1.0258236622133206,-0.059098798302276864,-0.9877918264519848,-0.5722262346088882,-0.016544622838303026,-0.29948269556405865,0.5623560396363185,1.0449198083700961,4,left
5.292999999999999,0.20829141968148335,1.0265835887555719,-0.05488044073013801,-0.9883779777915904,-0.5725447290240122,-0.016511559878498547,-0.31011782640014607,0.4752455694796312,1.0143814023046849,4,left
5.297000000000001,0.1963055055179586,1.0321221677689043,-0.041115377204731234,-1.031053181073895,-0.5976899957437122,-0.014776066995345704,-0.3126457566855889,0.45449193756548156,1.0070982254746923,4,left
5.297000000000001,0.17807939881635548,1.0371100059899967,-0.023057004595185837,-0.9261798453593109,-0.5359101458674251,-0.019051299265340965,-0.3107287969678274,0.4702274766828771,1.0126198230695778,4,left
5.301,0.15792163779392276,1.0431177344769869,-0.013320106321731534,-1.1000624338356233,-0.6383504249081223,-0.011959249237549945,-0.31188790019682766,0.4607390029178601,1.0092941461339047,4,left
5.3020000000000005,0.14203342283358555,1.0483061373958207,-0.011729737980402022,-0.8707108269946066,-0.5032199293574036,-0.02131532802450893,-0.3114087615056249,0.46459242645783355,1.0106349978353146,4,left
5.3020000000000005,0.13870487162800887,1.050054551519369,-0.012600060745690964,0.09210891717167602,0.06401594094094314,-0.060485438597062624,-0.3114183685703298,0.4646633510407997,1.0106809010808864,4,left
5.306,0.12728449306727835,1.0590727675280953,-0.010822265186294287,0.32146955650645254,0.19915894016163424,-0.06983629886712414,-0.31164271898584983,0.4626152551387744,1.0099334178723005,4,left
5.307,0.1098423487082606,1.069622508532674,-0.009914046594068245,0.14756427326022853,0.09670651064125575,-0.06276218599734806,-0.3113690700567088,0.4650639164490111,1.0108208051956198,4,left
5.311,0.09969621942451949,1.0745266322648543,-0.0075302946882003455,0.2524796629253344,0.15847633553548113,-0.06699603038538321,-0.31159001668466807,0.4631650235848417,1.0101426593282852,4,left
5.312,0.09188109544232308,1.0777715642333887,-0.002788452602914887,0.20974251535785216,0.1333860033222925,-0.06533156104382662,-0.3114467635478416,0.4641633235019472,1.0104682616224228,4,left
5.316,0.08755658055427476,1.078262056225411,-0.001867820924850186,0.2092266060787707,0.1329560307789974,-0.0652056418576383,-0.3115360859187436,0.4639956560810281,1.0104879986492525,4,left
5.316,0.08333135470123787,1.0797235363679627,-0.003091899088078193,0.2315178630126225,0.14621409737286084,-0.0662160069464395,-0.31146419472113784,0.4636135543641293,1.010218889397993,4,left
5.321000000000001,0.07978196341656679,1.080065183009963,-0.0047280053023229015,0.2047493305008688,0.13038936793231803,-0.06508229751513209,-0.3115357480592307,0.4642184419525189,1.010596707305465,4,left
5.321000000000001,0.08105970460036475,1.0776788943214832,-0.00796879025960704,0.2256995861970491,0.14262540806451895,-0.06584765602139295,-0.3114867707131045,0.46367038160253193,1.0102724671588676,4,left
5.3260000000000005,0.08183883158544335,1.0788926588698944,-0.0084373690050887,0.21420461336151753,0.13619749899918562,-0.06566070377015083,-0.31145000049637717,0.46396320953304926,1.0103739629733406,4,left
5.3260000000000005,0.08447682362426576,1.0790289663855988,-0.005931422881240971,0.21718620685327208,0.1373607562482486,-0.06529858254104669,-0.31165578742079564,0.46403835266976035,1.0106453289219859,4,left
5.33,0.08935677654795549,1.0764161875341451,-0.00632660150655818,0.21966797787610187,0.139551098622634,-0.06599256409535559,-0.31122130587489316,0.46357341110455585,1.009922395890293,4,left
5.331,0.0908182261979678,1.0773064522747653,-0.008912742016041735,0.21490401491790456,0.1361637191934849,-0.06532607808969451,-0.31186089029712694,0.4643372591332465,1.0110254886362409,4,left
5.337000000000001,0.09220234870122762,1.0792854055869796,-0.013818423169628315,0.2197516273043753,0.13901493322644137,-0.065519203847268,-0.3111806860268048,0.4635098958015783,1.0098449965742105,4,left
5.337999999999999,0.09530181800754904,1.0786258625174963,-0.021792960299497392,0.21576268070149118,0.1377413970311892,-0.0662334923778388,-0.31157118050448873,0.4640085981310864,1.0105343142449157,4,left
5.34,0.09684619445441102,1.079127173596421,-0.027478461369714286,0.21887901034497292,0.13711640273135844,-0.06435697919371519,-0.31192029287820766,0.4643362036227692,1.0110926768863786,4,left
5.341,0.09817322878074693,1.081294900157367,-0.03450988618361957,0.21634263852782454,0.13929402575399685,-0.06724235374847976,-0.31041288260347166,0.46273501702872494,1.0085903723939573,4,left
5.345,0.10041293934819491,1.0830833655098258,-0.046496775798965884,0.2182738493887698,0.13651676382219186,-0.06413505486867752,-0.3132046753318194,0.4657346481619671,1.013241461756329,4,left
5.346,0.09984065340847062,1.0853315316080656,-0.05708305472337913,0.2176753769540743,0.13842742003099118,-0.06595151970778812,-0.3096207476796596,0.46187620114410444,1.00726696042963,4,left
5.35,0.09840910094817928,1.0852000211760395,-0.06562935485079871,0.215550978617016,0.13912324729086706,-0.0674518212126478,-0.3126123574599282,0.46510016267907556,1.0122554940375958,4,left
5.351,0.09838068085773116,1.0827626607551268,-0.07250652179748146,0.2218817579592115,0.1343227058357046,-0.06076493127617907,-0.3125329615077188,0.46500238231267355,1.0121175133977496,4,left
5.355,0.09538482194943587,1.079836896160725,-0.07416977843461067,0.2108408049732627,0.14364065137326754,-0.07319434535760354,-0.30682351748126313,0.45888946609045644,1.0026154014482913,4,left
5.356,0.08915897835319606,1.0760669882681482,-0.07287727525820928,0.22476788136746112,0.13152540730894963,-0.05722414394858877,-0.3208547681582434,0.47392663408139346,1.0259739046184053,4,left
5.36,0.08145170341193964,1.0743295093894871,-0.07440969022520982,0.21324298532943103,0.14170490607520392,-0.07056111706823873,-0.2975905204173396,0.4489911818923601,0.987242841247284,4,left
5.361000000000001,0.07650622969316129,1.0747952787597146,-0.0761187706085795,0.21340168038177892,0.14132734015676762,-0.07019363855103108,-0.32827696698820164,0.4818810676572475,1.038331693512514,4,left
5.361000000000001,0.07423338599336546,1.0752238267745553,-0.07760798627295051,0.23578742243023787,0.12218747491374571,-0.04478004806763888,-0.45712086359773835,0.6199194619410804,1.2528630565449865,4,left
5.365,0.06469942977837775,1.075854216840927,-0.08688707169277982,0.1809819605578768,0.1693808762200919,-0.10725281625169555,-0.4878164918933322,0.6528075310094864,1.303974410949202,4,left
5.3660000000000005,0.04989589636355,1.078022874260912,-0.0973692715770434,0.271777043597807,0.0910727043160547,-0.0036667548103547845,-0.46453244168762997,0.6278745590288071,1.2651938601712165,4,left
5.369,0.04277606126370234,1.0791955208995163,-0.10004298275346271,0.15204001546729473,0.19438479423401742,-0.14029732710903425,-0.4785948684734311,0.6429106516306171,1.2886321560863514,4,left
5.37,0.0404963675734465,1.0807558508325705,-0.10002464329763092,-0.35034128281462223,0.6278153506416271,-0.7138026447472101,-0.47284631456138154,0.6367949737044134,1.2790272111603955,4,left
5.371,0.03160490061846631,1.0894155987300427,-0.10241308155329296,-0.47006026370900017,0.7311253492592498,-0.8504336046553453,-0.47280292746581176,0.6367056461505347,1.2789878410833497,4,left
5.376,0.01985500967821137,1.099944004422511,-0.1071332936898797,-0.37934704060157765,0.652826691644417,-0.7468457983108429,-0.4757814488969476,0.6399154780682701,1.283933177166775,4,left
5.376,0.010409099753007224,1.1086969411333603,-0.11007110847641327,-0.4339391401063515,0.6999952680101058,-0.8093231020764159,-0.4721624155542835,0.6360736117516144,1.2778790492017778,4,left
5.381,0.0013306889577256926,1.121005324488876,-0.11212481084633705,-0.4119438060598014,0.6809008504932649,-0.783901223311978,-0.47505874335273807,0.6390614268606161,1.282792226474101,4,left
5.382000000000001,-0.0076282486709324335,1.1342406206405897,-0.11621740173085147,-0.4112491846373106,0.680460873929989,-0.7835451116823535,-0.47337551720953425,0.6374567435668519,1.2798335754877754,4,left
5.3839999999999995,-0.01523433733270691,1.1461578199471996,-0.11959317059841085,-0.4232990361710649,0.6907015346071049,-0.7968709640549076,-0.47393662521347574,0.6378140932978082,1.280959173091098,4,left
5.385,-0.020256982842132502,1.1605003168205545,-0.12282392450296216,-0.4091533101205419,0.6785607631649346,-0.7809053699643849,-0.47416305128791564,0.6382510516050636,1.2811837359706413,4,left
5.388,-0.025551069704119474,1.1755928509918556,-0.12736527929917726,-0.4197239116360982,0.6878240294227249,-0.793344804333518,-0.47347043733141353,0.6375106118201831,1.2800290167304453,4,left
5.388999999999999,-0.029606848891173425,1.1880613445490846,-0.1324042112194333,-0.4148820789226116,0.6831967827598577,-0.7866262881779118,-0.47443943451439885,0.6381884966617221,1.281925592873152,4,left
5.394,-0.029212417089725207,1.198919268510409,-0.13599531934435136,-0.41444871116783777,0.6835948008725741,-0.7881808637667258,-0.47327197539145227,0.6377611682934037,1.2793348639391087,4,left
5.395,-0.028219536355691917,1.2087020213102346,-0.1377258356309084,-0.4181834497527538,0.6858707475593995,-0.7899308372256025,-0.4745554479790158,0.6379077524571446,1.28243672769834,4,left
5.399,-0.02809583625538399,1.2191271465390914,-0.13911239557803257,-0.4137530069886195,0.6828022064671014,-0.7868764374129433,-0.47338909402522283,0.6379677804168076,1.2794663739946381,4,left
5.4,-0.028028700123632823,1.2290371123335984,-0.13744522633678777,-0.41626516715613027,0.684977435603237,-0.7897625238320417,-0.4739599045250238,0.6378225808877281,1.2810106253568607,4,left
5.404,-0.026422748726678554,1.2366872219169742,-0.13642541889834783,-0.41779193103691425,0.6848926008538574,-0.7877872770894374,-0.4746691686184259,0.6379302938273312,1.2827045346041297,4,left
5.405,-0.02234181860117051,1.2445727653068688,-0.14043826322572847,-0.41117207711643644,0.6823841015203334,-0.7887267958614645,-0.47202361317101676,0.6379504624977643,1.2760568721694603,4,left
5.4079999999999995,-0.02037069990829838,1.2530610652819272,-0.14464342141560058,-0.4221505238100865,0.6870782396713228,-0.7885842168587849,-0.4767960647836375,0.6377696357673013,1.2881613898832676,4,left
5.409,-0.020150457056853737,1.2650891254256416,-0.14980765492761372,-0.4100433781955341,0.6817254755809687,-0.7882752464848016,-0.47072749794177815,0.6380656803210449,1.2727185749467618,4,left
5.412999999999999,-0.01690405111820488,1.2781208214178177,-0.15674845628909148,-0.4173102386115544,0.6850527885303437,-0.7887632563912025,-0.4757681485374296,0.6377908328165717,1.2855668884536717,4,left
5.414,-0.016129037803042943,1.2961885939463365,-0.15985323415391497,-0.4227307478403486,0.6871918413813751,-0.7882216883970529,-0.47565447757977386,0.6378230597091885,1.2852601333418314,4,left
5.419,-0.01808616592878061,1.3203083658857468,-0.16001718216537342,-0.39745083051053004,0.6764843282653905,-0.7888161081060556,-0.4660003475836934,0.6383005048042647,1.2606825752251347,4,left
5.42,-0.016760570642668518,1.340830707083674,-0.15829295736759283,-0.44470158964983036,0.696660705393652,-0.7881340387366863,-0.4896880117220653,0.6370822626064114,1.321016645032096,4,left
5.422999999999999,-0.018952808394370052,1.3709586909661724,-0.14880277702465633,-0.38389488785918746,0.6706364798190709,-0.7888573018996341,-0.4504328666116935,0.6391242917353537,1.2210182092085002,4,left
5.4239999999999995,-0.021291427963499414,1.391672721973588,-0.14008188351710965,-0.43471853157004,0.6924149561814386,-0.7883196662036531,-0.5021997095705542,0.6364190045853944,1.352893371152553,4,left
5.428,-0.02131721784444198,1.3978103150326757,-0.13793701818638718,-0.43324917951329733,0.6917421305871416,-0.7882304199080405,-0.7195021149076428,0.625083292799435,1.9065121466895807,4,left
5.428999999999999,-0.028914921434100627,1.426953835931905,-0.13274863881034155,-0.33658578540407624,0.6504340242225216,-0.7895300367382097,-0.7712617847792713,0.6223692210902965,2.038367398550779,4,left
5.43,-0.03973720602407513,1.463748268292472,-0.12644532349740417,-0.574313045997015,0.7520906320642025,-0.7864893977683278,-0.7320202523768184,0.6244270180422034,1.938400246473174,4,left
5.433,-0.05721691757613925,1.5046115979834376,-0.11646963382022671,-0.18009039333516857,0.5834834342521829,-0.7914678964836382,-0.7556901405876646,0.6231902050988614,1.9987080014729586,4,left
5.433,-0.07463533057798255,1.5363786484885984,-0.1068120678106167,-0.7000999528773857,0.8059075970845906,-0.7849313772411306,-0.746052999369759,0.623681861268146,1.9741301296684404,4,left
5.437,-0.07969806005221824,1.5440809058864762,-0.10382513225330756,-2.882688890737436,1.7393795842253545,-0.7573607225627756,-0.7459313220894503,0.6237140663511035,1.9738715753001654,4,left
5.439,-0.09592180704203915,1.5762131659326633,-0.09024116231870138,-3.402740778557305,1.9618517665649344,-0.7508551101971991,-0.7509605976353069,0.6234147881034391,1.9866127301938072,4,left
5.439,-0.12578413127276097,1.621395104168493,-0.07035333487168802,-3.0084433878175663,1.7931621068857084,-0.7557755145452665,-0.7449319039356943,0.6237657143859441,1.9713241466582554,4,left
5.443,-0.15250722865859642,1.655316553192458,-0.05674699110214703,-3.2462557425636738,1.8949070146604066,-0.7528094866945038,-0.7496341449744515,0.6235044728701572,1.9832738710512912,4,left
5.443,-0.18000362042575013,1.6942214162971467,-0.045161793313003504,-3.149532921558693,1.8535484695096935,-0.7540399874327812,-0.7470764833323895,0.6236082377693423,1.9766970978507385,4,left
5.449,-0.20715916200770704,1.730821206136043,-0.039336192941130714,-3.1480502461901434,1.8528353407220375,-0.7539791765916481,-0.747712746995254,0.6236715738444825,1.9785124806128265,4,left
5.45,-0.22898689522774723,1.766847703627057,-0.0402020431092113,-3.1990060317700584,1.8747907603511165,-0.7534970666494646,-0.7482900252478557,0.6234751301679167,1.979648790580946,4,left
5.452999999999999,-0.24369071937678052,1.8040864168521251,-0.047257272497231585,-3.137926543086806,1.848441492639233,-0.7540447510790073,-0.7472424930557346,0.6237337228751514,1.9773901140127321,4,left
5.452999999999999,-0.2513773783473513,1.8396311208170433,-0.06084073994899918,-3.1855572195644655,1.8690345274615228,-0.7536618151484814,-0.7482417633663917,0.6235192024984795,1.9796091589474591,4,left
5.457000000000001,-0.2569255449295169,1.8793212019960324,-0.07558458435248296,-3.1599073235816206,1.8579692004605355,-0.7538922855650182,-0.7475081610063197,0.623555741295174,1.977737070213054,4,left
5.459,-0.26610170046715015,1.9211781299532484,-0.08934455965330461,-3.1654801942477633,1.860165167745051,-0.753637620230006,-0.7480030085229962,0.6238317364022241,1.979604523002092,4,left
5.462999999999999,-0.28732437856567505,1.9619142419142872,-0.0968235275916769,-3.1730745699867833,1.864016384241607,-0.7541339391090377,-0.7476033579363327,0.6231635108403792,1.9772001144166098,4,left
5.4639999999999995,-0.32621695077305257,2.0003819421645064,-0.09565663862009666,-3.1599389639528805,1.857360254018279,-0.7532810207419429,-0.748024483687846,0.6241689238255765,1.980340762297125,4,left
5.468,-0.38656798375397666,2.0348336648237604,-0.09174469922003606,-3.1726731658645297,1.864079904545405,-0.7543694007426347,-0.7476080852159077,0.6230961886161719,1.9770759186027986,4,left
5.468999999999999,-0.4732964687166008,2.063057141509219,-0.08647371861595815,-3.1639148898308598,1.8593189977245295,-0.7534845801509018,-0.747797322354026,0.6237174141484729,1.9788310508474547,4,left
5.472,-0.5765387761333591,2.0838112552345964,-0.0790673779737766,-3.167124686624274,1.8606834738347935,-0.7534352096136441,-0.7482151224548956,0.6242436421305919,1.9809942495639803,4,left
5.473,-0.6792861151856265,2.0949053860556974,-0.06976163139370352,-3.1696981715745345,1.863665517053478,-0.7552490637860396,-0.7468032690744975,0.6219273161827312,1.9725914852370567,4,left
5.476,-0.7683303458934492,2.0953499481707074,-0.05790535170699703,-3.162044087357521,1.8560913444285678,-0.7511265103571738,-0.7493466065708017,0.6262233756517056,1.987982305295223,4,left
5.477,-0.831162260775117,2.088054005436069,-0.043769610050933556,-3.1730518480021024,1.867215821799314,-0.7572815960620252,-0.746097332588357,0.6207095993186044,1.968262949396056,4,left
5.481,-0.8672374111001051,2.0739636098305256,-0.027568474559424357,-3.1618622816013158,1.8555888501935303,-0.7507134239490348,-0.7488037446170807,0.625308162041802,1.9847080537742159,4,left
5.483,-0.8732833057553555,2.052711494051825,-0.005231688395561568,-3.1683356624417653,1.8623123650294025,-0.7545082859162605,-0.7487553808842308,0.6251936486567228,1.9843301921096494,4,left
5.487,-0.8531119626311754,2.030011922233938,0.016704395765238446,-3.1726976119546677,1.8675807395871855,-0.7577951972629674,-0.7435118765631563,0.6164028370188692,1.9527523537599316,4,left
5.4879999999999995,-0.8212210048484078,2.0099509293811084,0.03208678832580347,-3.152024960371334,1.843833521210052,-0.7434307441412418,-0.7563716948894391,0.6379876129784023,2.0302873021051937,4,left
5.492999999999999,-0.7687190072063466,1.9864566161150188,0.04659777543476824,-3.1904466152895905,1.887914414829354,-0.7700684047251048,-0.7350551677684636,0.6022177620218552,1.9017516528744935,4,left
5.494,-0.7257088173164499,1.9691903449046437,0.05143494533634513,-3.141205876288006,1.8313474166428558,-0.7358634245415403,-0.7631735724891089,0.6493764660970581,2.0712873618764664,4,left
5.496,-0.717300042121326,1.9662278493796934,0.05524914900679219,-3.1822772925067877,1.8785642831392724,-0.7644195766304792,-0.8812235108773021,0.8474390452726022,2.783010386260841,4,left
5.497000000000001,-0.6776678232803448,1.9526818974688327,0.05415603891284192,-3.1810186775036633,1.8772055304463475,-0.7636492344128678,-0.9093520119902314,0.8945419141992121,2.9525531690317104,4,left
5.497000000000001,-0.6179917165205311,1.933327846931098,0.04038132675296986,-3.103293419338944,1.7874670341109464,-0.7091892864136102,-0.8880213193072922,0.8588592594578033,2.824010580993445,4,left
5.502999999999999,-0.5793111182621424,1.919801148160551,0.021202970805529547,-3.294469915965532,2.008129278195655,-0.8430419394141496,-0.9008884659996785,0.8803721338373974,2.901540087586871,4,left
5.505,-0.5037324607198079,1.8848940847191598,-0.05110791244422181,-2.977466446794331,1.6422206690200167,-0.6211096336017788,-0.8956575232219239,0.8715765349613469,2.8699928538849315,4,left
5.506,-0.44157300001075434,1.8556387336036497,-0.12112550421653959,-3.3955998198567503,2.1248896312834216,-0.9138358241313633,-0.8955663164213165,0.8716029952616372,2.8695526283218853,4,left
5.507000000000001,-0.42617895526687216,1.8479099469184561,-0.14321198930293505,-5.150184524714652,4.150478979800743,-2.1425651494498528,-0.8983468190608905,0.8758948083049181,2.886084358960904,4,left
5.507999999999999,-0.34749568906484546,1.813225770997602,-0.21459951089813667,-5.568374270388106,4.63326097115067,-2.4352878341167132,-0.8950079489770699,0.8708171804446837,2.866282227687727,4,left
5.5120000000000005,-0.2321144900330714,1.7657875748986447,-0.28419423881623607,-5.251282690417172,4.267175685599115,-2.213361008620555,-0.8976193193547486,0.8746823501266023,2.8817022894873436,4,left
5.513,-0.13393956259275205,1.724024118315978,-0.2857744239182839,-5.442532047256416,4.487984056293055,-2.347209128157674,-0.8962167157103118,0.8725507629671098,2.8733855243764292,4,left
5.516,-0.013463298522216047,1.6660669491907603,-0.25999570878372863,-5.364811072963255,4.398254068259625,-2.2927489183217364,-0.8964882807872065,0.8734439690150062,2.875297360435168,4,left
5.517,0.11633136505697432,1.5961305508219026,-0.21262413462786178,-5.363410942414944,4.396611692061567,-2.291987370285175,-0.8969955793375461,0.8728867905049351,2.8774710333924842,4,left
5.521,0.24746230764121968,1.5148388706894096,-0.16923962691933603,-5.404791186201114,4.44444763980172,-2.3205243234078248,-0.8961186701883515,0.8738400261689592,2.873708001717292,4,left
5.521,0.38223629062456543,1.4250983612542252,-0.1427020908353659,-5.355110604460787,4.386998815633291,-2.2863466932317507,-0.8970117313714462,0.872364379542349,2.8772227308135623,4,left
5.526,0.49887501465619577,1.3397813632228184,-0.12956800986880554,-5.393967761140147,4.431952974185968,-2.3129572657042545,-0.8963751039678429,0.873666807168102,2.8748748165427505,4,left
5.527,0.5975028372336797,1.2572370558005608,-0.12588013965269904,-5.373106588629913,4.407827469229502,-2.298604553572213,-0.8965473514180291,0.873976298219338,2.875926141486853,4,left
5.532,0.6839993249797945,1.173299622638626,-0.1087820640005426,-5.377101780038398,4.412361033985238,-2.301914242647632,-0.8969886452129561,0.870320237633254,2.8758227118509945,4,left
5.532,0.7605194738922322,1.087973705833901,-0.08813443433059892,-5.384759976461796,4.421459419097089,-2.305635460994111,-0.8958841149566089,0.8785149823470793,2.8754805800622263,4,left
5.5360000000000005,0.8316496642100757,1.0007594553539838,-0.07248654512418837,-5.371529361201567,4.405740724121294,-2.29919418664925,-0.8975097664358545,0.8662522615339772,2.8758572965045146,4,left
5.5360000000000005,0.8992811939591521,0.9131112439957059,-0.06334398470815347,-5.385040969127773,4.42188534315897,-2.3051935649744504,-0.8958061506020081,0.8793745675850371,2.8756331899019183,4,left
5.54,0.9625023877221052,0.8320699323184002,-0.0790042122991256,-5.375391655316431,4.4103098368843465,-2.301195143437604,-0.8967911109891562,0.8717921462713034,2.8757655557210224,4,left
5.541,1.0233905267502048,0.7583639848314793,-0.1146199754293168,-5.377946191529135,4.4132560810955095,-2.3030100519890495,-0.8975737330268918,0.8651489257609638,2.8754816998504804,4,left
5.547000000000001,1.0850268621022738,0.6913283273713846,-0.15291001728654252,-5.384860307657487,4.422044333344997,-2.3027305053460454,-0.8940618564461185,0.8940865637756545,2.8762063634329573,4,left
5.547999999999999,1.145893545847552,0.6341729305517588,-0.184053349224653,-5.367639213755046,4.4003192209310225,-2.3023717661921874,-0.9005796878425054,0.8404260323113968,2.8748905284847472,4,left
5.55,1.2047649630705979,0.5837636813939542,-0.19998637940882752,-5.392996049928112,4.432344858072486,-2.3026752941393123,-0.8922151088564877,0.9093403876283139,2.8766102834385645,4,left
5.551,1.2550039032206186,0.5407907850345581,-0.20453087723976193,-5.366407487836154,4.398714210339429,-2.302659075855394,-0.899196978132156,0.8517993528063916,2.8751634252152427,4,left
5.555,1.2996071532181008,0.5050451829573732,-0.2058569508284005,-5.381769812404828,4.418147561905757,-2.3026718963687998,-0.8989983750015911,0.8533540044466065,2.8751522368293037,4,left
5.556,1.344218458663513,0.47507074037680563,-0.20908739708776358,-5.394054957178588,4.43378726774366,-2.3020006148828545,-0.8857213140701781,0.9631014029748948,2.8781094148068975,4,left
5.56,1.383533526674349,0.45036397872675793,-0.20957880280071434,-5.339063061966394,4.363910364076667,-2.304054749498056,-0.918365464917082,0.6933467426224222,2.8708903352365285,4,left
5.561,1.4268831229114256,0.4244238018296819,-0.19885731646181873,-5.441094311329783,4.493559519208063,-2.3002896657976044,-0.8642362648383419,1.1406265810648886,2.8828493589507884,4,left
5.564,1.4565543632491007,0.40843260778382384,-0.1901232383131961,-5.310176597503902,4.3271876345004685,-2.3051803401770092,-0.9356349875480211,0.5506503714218793,2.867079113884201,4,left
5.565,1.4633235937490394,0.4053864575692299,-0.18877653619448673,-5.419414413002659,4.466024637981221,-2.3010722594531727,-1.2352634446839978,-1.9256419461233223,2.800617813446561,4,left
5.566,1.4860645204676737,0.39339758797496943,-0.1821050517764507,-5.416407579513981,4.46218657738918,-2.301110135655743,-1.3066669170849559,-2.5156457012903513,2.784855712142905,4,left
5.569,1.5118410795887574,0.37693375226512926,-0.17619248163153844,-5.20842218153194,4.197863905352078,-2.3092532964388566,-1.2525338567339153,-2.068333920710531,2.7968136274399886,4,left
5.571000000000001,1.521837730725438,0.3655232596970809,-0.17630082126361118,-5.719601163074725,4.8475525277701355,-2.289295746092024,-1.285171524347598,-2.3380848250558266,2.789563913996936,4,left
5.575,1.5345005218078072,0.35128470331112704,-0.17386980921121628,-4.872118754825881,3.770397529573818,-2.3223895721162977,-1.2719208459296545,-2.228420659646776,2.7926065648050327,4,left
5.5760000000000005,1.5415194929061862,0.34191792635932133,-0.1699037771427358,-5.989866898959821,5.191092661962834,-2.2787228335258343,-1.2716717149277237,-2.226676483356575,2.792449047114233,4,left
5.577000000000001,1.542309591207424,0.3398150296818345,-0.1690852573074706,-10.682840247697445,11.15521728608373,-2.095185025236061,-1.2787210369899435,-2.2844976151960203,2.791181910429316,4,left
5.58,1.5445226938056935,0.33060896824235186,-0.16965837668711364,-11.800603105014112,12.575905304518763,-2.0514879802544304,-1.2702955273289196,-2.2152939023038742,2.7927602812551675,4,left
5.581,1.5361213572898857,0.3169716018827825,-0.17137204051730975,-10.952936760230475,11.498647198602388,-2.084637166399843,-1.2768280643811956,-2.2690986728736036,2.791435660453092,4,left
5.587999999999999,1.5084663965183869,0.3089837959291596,-0.17660260124455943,-11.464704811126914,12.148731221166233,-2.064612141403723,-1.2733952050916506,-2.2403648359852717,2.792442553756989,4,left
5.5889999999999995,1.4598430206262045,0.30351319024875867,-0.18025171139954638,-11.255545311116101,11.883573896686677,-2.0728113514107562,-1.2739692134137748,-2.2462747075831526,2.791526211022684,4,left
5.591,1.396398289400584,0.294725888309218,-0.1754375149077479,-11.254245061123974,11.880991156256146,-2.0728387380075928,-1.2752875574727058,-2.2551643401422843,2.792591345903728,4,left
5.5920000000000005,1.3254619481638157,0.27992252877399704,-0.161834205744858,-11.361692196059172,12.01846104425604,-2.0686575423652904,-1.2732024708642529,-2.2403914469117607,2.791389217557689,4,left
5.595,1.2519504000116268,0.26261393114413334,-0.13865009999939107,-11.231737960605354,11.8529099719276,-2.073731141086602,-1.2750909188376234,-2.254039258417259,2.7922966737729533,4,left
5.596,1.1814453976383812,0.24757904994108085,-0.10708384938247273,-11.334875562826323,11.983208728268668,-2.069682638857205,-1.2740838521595,-2.245697679478286,2.792532311683474,4,left
5.599,1.109817957544931,0.23301146981281426,-0.07288581930351419,-11.275549115474924,11.91031409116218,-2.0720509008874313,-1.273819289614367,-2.2471484748480304,2.7901296179268433,4,left
5.6,1.0391722805075394,0.21897955326437107,-0.04062569737041709,-11.295763271722697,11.93169563168435,-2.0711783459138404,-1.2754320467909985,-2.25216759047847,2.795395693314733,4,left
5.604,0.9771434352579395,0.2050868985683612,-0.012592740313681666,-11.300889166774002,11.943494684600985,-2.0710778150137044,-1.272784864067746,-2.2426840609903183,2.7875941263644632,4,left
5.606,0.9224345254864099,0.19056691277340854,0.009347356004821372,-11.283224913653308,11.916833723622371,-2.071689320050451,-1.2756514454510692,-2.2531650700587535,2.795899775656777,4,left
5.61,0.8800384881856371,0.1773471960642743,0.023563364362663847,-11.306903360969383,11.94688832735482,-2.070762541786915,-1.2739246602779777,-2.246522619555595,2.791118103050495,4,left
5.611000000000001,0.8498137791166294,0.1603189373292645,0.03175236872980328,-11.277149712433825,11.916889637653952,-2.072072867871226,-1.2727862821105345,-2.2437031283937063,2.7869133242106585,4,left
5.614,0.8253584411696744,0.1392734067817702,0.03771422781419753,-11.315900279870942,11.948279686821838,-2.0702225116525783,-1.2783406749740593,-2.2607991187612635,2.8051774606648445,4,left
5.615,0.8066383123096478,0.1169105532141174,0.04363067786807276,-11.26839087210432,11.914539421356503,-2.072579738978531,-1.267937584038786,-2.228236872369603,2.7713337810914664,4,left
5.619,0.786058766994445,0.09015263844051613,0.04741453899050648,-11.315268097689561,11.945719213854911,-2.07021465736631,-1.2813174567562913,-2.270239568677193,2.8147813122469465,4,left
5.619,0.7613633151165782,0.06445064141058299,0.044760500851271305,-11.290709362718175,11.930912312833511,-2.0714818641749995,-1.2701400564762237,-2.2350978583075363,2.7785173999442594,4,left
5.627000000000001,0.7365604909580976,0.037497590802031217,0.03842286248927994,-11.261683033720024,11.908172264865625,-2.072882949905484,-1.2704736708701212,-2.236343204474198,2.7794766874139913,4,left
5.627999999999999,0.7091567634830589,0.00991612886909072,0.031347630689333064,-11.37422244399221,11.989291044868615,-2.067321166547159,-1.291680190310477,-2.3023815467553366,2.8486850688633005,4,left
5.629,0.6805431768513761,-0.012309480230079719,0.02605223302613794,-11.168941067818388,11.84319972087296,-2.0775002490927132,-1.2395249063548572,-2.139725271263858,2.678617589925773,4,left
5.629,0.6533236610590557,-0.040952938616857074,0.030396988153241444,-11.43129893618195,12.029227988638336,-2.064479462877138,-1.3260038260350793,-2.409499553469356,2.960572957000746,4,left
5.632999999999999,0.6373393214824932,-0.06050288597122076,0.03502814713299618,-11.212789452612999,11.874571952865107,-2.0753274057408637,-1.2119456722588322,-2.0536696980970905,2.5886974016557653,4,left
5.6339999999999995,0.6346431365689789,-0.06547402358421361,0.03627298050326596,-11.217904106921107,11.877768095429435,-2.0750700959593638,-0.7331488171704857,-0.5604145633862676,1.0274916164749899,4,left
5.6339999999999995,0.6264317153623431,-0.08258815397464087,0.04679360092326202,-11.636685397637688,12.175305610995057,-2.0542897460593474,-0.6191083653576712,-0.20463526720249667,0.655651339232828,4,left
5.638,0.6155709050132203,-0.10256180760345072,0.05991037731034965,-10.608526836621273,11.445411054985737,-2.1053104021507796,-0.7055681345696541,-0.47435484715747767,0.9375685400089651,4,left
5.638,0.6163991057013791,-0.12008327525827694,0.07498959600716587,-12.312827074053693,12.655092938317015,-2.0207393328829957,-0.6534055596476355,-0.31167776871596997,0.767486536212376,4,left
5.643,0.6190708870875251,-0.13318176445837937,0.08713216129032704,-10.065019267831996,11.059700179075254,-2.1322771047052482,-0.6746756231125622,-0.3778975579213979,0.836821543221635,4,left
5.643,0.6217759875700288,-0.1354463817850784,0.09030131528945265,-0.6293784683801467,4.36319500166197,-2.6006226065089204,-0.6748725238436843,-0.37875249580114395,0.8375083911723673,4,left
5.644,0.6360700115267561,-0.1474458022014959,0.1039551805854084,1.6183971181024512,2.7678708641902823,-2.712164513558732,-0.6638911357462557,-0.34417055355442694,0.8016350927633914,4,left
5.648,0.6564365566227547,-0.16408713019352045,0.11951182544405192,-0.0857569918341273,3.977241493398182,-2.6275746644226308,-0.6770758305668076,-0.38561583531276594,0.8446936653618156,4,left
5.649,0.6782388290892456,-0.17445991549737658,0.1265384693963475,0.9420207137452575,3.24815819515366,-2.678644290496554,-0.6667569379518816,-0.3532941072804047,0.8110177931013183,4,left
5.654,0.7067436989815734,-0.18685400922279718,0.13387994231220218,0.5239362938952953,3.544211285012558,-2.657774316993694,-0.6724789722950235,-0.370868746146898,0.829615981457426,4,left
5.654,0.7386148570098514,-0.19611967576080466,0.13437265301692167,0.5178650350212148,3.549445144995608,-2.6576400552093666,-0.6708006436322089,-0.366507379832573,0.8243352134718871,4,left
5.6579999999999995,0.7692648127920454,-0.20010309499446277,0.12575190008177142,0.7373115232894838,3.392793111082276,-2.668367445604198,-0.6700041763843871,-0.36252165333264796,0.8214074669412557,4,left
5.659,0.7975393620515486,-0.20182201414391704,0.10907032175420184,0.4745634140263395,3.5796527237555935,-2.655396913529839,-0.671729066304485,-0.36974218703916034,0.8274379355070376,4,left
5.662999999999999,0.8210584853952709,-0.20075840774797707,0.08960766287303623,0.6790051768490899,3.435349803985633,-2.6656839113110857,-0.6699920324307598,-0.3628580788149699,0.8214501754118896,4,left
5.664,0.8375455691918972,-0.19559179614558792,0.07304770728569326,0.5691235289038103,3.5108072420055825,-2.6597803476150026,-0.6716130449324924,-0.3679003300815396,0.8267325923518535,4,left
5.667000000000001,0.8474585619210971,-0.18621348920720227,0.05889476832514445,0.593584328532634,3.497792428890218,-2.6617686507278933,-0.6696591552599565,-0.3645273537587156,0.8209635447825487,4,left
5.667000000000001,0.8554998988297844,-0.1785087666866994,0.05384712630710836,0.6237411217654536,3.471060721769054,-2.6623157259525985,-0.6725125008629989,-0.367209750663001,0.8288920985892195,4,left
5.672000000000001,0.8609193412483143,-0.17418024112783537,0.05411625717742761,0.57240301991589,3.5117431343637495,-2.660524654337739,-0.6686420508509043,-0.36441153830749695,0.8183232319487885,4,left
5.672999999999999,0.864159649530462,-0.1712804672669104,0.056201770647308386,0.6198689551715326,3.4780950075875863,-2.662887096011241,-0.6726958295823675,-0.3671705510660983,0.8293548219155642,4,left
5.6770000000000005,0.8710407817805198,-0.16903176767422035,0.06378299140230027,0.5894064299417889,3.4918308260207347,-2.659971133761976,-0.6704676197662336,-0.36593028188434706,0.8233519383494003,4,left
5.6770000000000005,0.874551969995492,-0.16508443313566717,0.07340218115578576,0.600223561278457,3.502169366446638,-2.6637168447834965,-0.6679828455646458,-0.3631076805197425,0.8163407315068619,4,left
5.682,0.8735788496099264,-0.1599462728318437,0.08491438750619387,0.604793968682224,3.4720495765430246,-2.659156488788911,-0.6779333953834572,-0.37259082217689166,0.8440173476045467,4,left
5.683,0.8749013426484487,-0.1531135252374184,0.09783330469983312,0.5923444576351887,3.509536388272503,-2.6636421293499577,-0.6596476252467252,-0.35552200366249487,0.7932352443444297,4,left
5.687,0.8744564364492678,-0.1456040669606977,0.11277498250294371,0.6046184079795702,3.484269186064208,-2.6613019443794337,-0.6830886899897406,-0.37732329229368633,0.8583176666905931,4,left
5.687,0.8754236875838987,-0.13950618097616027,0.1292260230829349,0.5994032278547278,3.473703464492844,-2.6585024318753363,-0.6635361761594267,-0.3591690938647732,0.8040367934433236,4,left
5.692,0.8752125364491925,-0.13039054835754665,0.14173928872421868,0.5930863583251652,3.540636122491609,-2.669311755908401,-0.6640025032113376,-0.35948094497699723,0.8053080907390467,4,left
5.693,0.8684143164234408,-0.12164350149318175,0.15210499248228834,0.6116856714971752,3.4116183035135874,-2.6496059504403715,-0.7014871207148834,-0.39468727274811055,0.9094519482623145,4,left
5.696000000000001,0.8535232857156267,-0.11494064247095108,0.1623987978047624,0.5853226554444055,3.5790485624563075,-2.6747875430943084,-0.6094328392428922,-0.3083650126880281,0.6537199623481428,4,left
5.697,0.8225794397680369,-0.10286453685982862,0.17317906435870334,0.6083787950212036,3.4385196100498687,-2.653814481199685,-0.7620378053168329,-0.4514381174324844,1.07766399076091,4,left
5.7010000000000005,0.796855317277388,-0.09277050255954414,0.18202374492539297,0.6061424509594651,3.4434830966805063,-2.6543071231161592,-0.5607617017212508,-0.26272801829831316,0.5185024798169302,4,left
5.702000000000001,0.7871083711183242,-0.08904513060826735,0.1842615482454053,0.5664686458841186,3.7083622481127128,-2.694499607024494,0.28426338887888547,0.5296200629909842,-1.8290022493666993,4,left
5.702999999999999,0.7548847351947217,-0.07802287405987868,0.18655716382630383,0.6663115403114963,3.055635889379144,-2.5958166184943163,0.4855340728527098,0.7183557192375585,-2.388164501136589,4,left
5.706,0.6918529320574581,-0.05667183819950124,0.19364355300748815,0.4998914377261891,4.138534194994381,-2.759402485207705,0.3329349692311844,0.5752549582467241,-1.9642196688887936,4,left
5.707000000000001,0.6512579351398329,-0.04311647366863679,0.19832475013940504,0.719712300269512,2.7099441080693136,-2.543639539779827,0.4249914851770246,0.6615667198654935,-2.219951358139473,4,left
5.711,0.6400628689352514,-0.0388447408208058,0.199843546158341,1.641187793714737,-3.285521867828631,-1.6379674581093953,0.38748740838300744,0.6264520760124704,-2.1158101424820073,4,left
5.712000000000001,0.6008241332386806,-0.022400336609037005,0.20612694841199633,1.8610487644640032,-4.714220746199713,-1.4221813210025864,0.3870629444602064,0.6259429304841471,-2.114533149612998,4,left
5.712999999999999,0.5440197350017161,0.0019979219310396223,0.2139062536774277,1.6944050346751656,-3.6310381691091513,-1.5857954523290916,0.40655543985463205,0.6443800290007181,-2.168822198176162,4,left
5.716,0.5018808254943465,0.02409365843714982,0.214427706407771,1.794869814039382,-4.284309742694955,-1.4871107692005747,0.38317413495626274,0.6222970060291986,-2.1037316236548365,4,left
5.7170000000000005,0.4614683585788214,0.0486193793765667,0.21056916308611423,1.754023850896171,-4.018604726446378,-1.5272431885699673,0.40143413095441693,0.639487433919474,-2.1545172653502602,4,left
5.721,0.4274382198237182,0.0733598227279295,0.20481981386002657,1.753430318706434,-4.014605625774933,-1.5278805451568802,0.39143223901369983,0.6302461143289506,-2.1268476014083895,4,left
5.721,0.4028286380300783,0.10059441208253649,0.19580055015875586,1.774834922451298,-4.154402398026356,-1.5066875980838623,0.39408235616027076,0.6322895572533946,-2.1338363305114054,4,left
5.726,0.38635219776134494,0.12813251489920333,0.1858491825554693,1.7492372292134903,-3.9868886276177817,-1.5321036347791064,0.3960256983192597,0.6348724524943751,-2.1398779912265224,4,left
5.727,0.3815767692386113,0.1541579606054908,0.17307215880105997,1.7691390702970322,-4.117451481970007,-1.5122679107717605,0.39232149689270646,0.6304655911922721,-2.1287987620088673,4,left
5.731,0.38319242089050953,0.18497240661233394,0.1577953558805398,1.7584027744583524,-4.047113406853704,-1.522942198023687,0.3959132869730393,0.6345777116601519,-2.1394056835833193,4,left
5.731,0.3905548284283066,0.21561944574547057,0.14496076259784357,1.7609512899049575,-4.0626670246683165,-1.5206916732790061,0.39305736602544517,0.6319066471636937,-2.131477297153527,4,left
5.737,0.39993125674283614,0.24836854420696697,0.13348571621275587,1.763522679940481,-4.082735797968761,-1.517340889678536,0.3955285860248422,0.6328422210592544,-2.137176118787901,4,left
5.739,0.41106510040937616,0.28555983685162745,0.12280934237624065,1.7590779009365303,-4.048022317543774,-1.5231353758141826,0.39272546865807445,0.6333709282564799,-2.1320545030753273,4,left
5.7410000000000005,0.4260357854347647,0.3185529388557672,0.11021962883403227,1.7630978953759835,-4.081319095075481,-1.5174292537481264,0.396225877083636,0.6319435235310153,-2.1378021240116185,4,left
5.742000000000001,0.44192263467168336,0.34766630927295267,0.09147591167204458,1.7604837917312621,-4.058604452925966,-1.5213999012194417,0.3926213518881453,0.6335839323664272,-2.132027955705072,4,left
5.746,0.4604551471330094,0.3722589475570873,0.06912663009744704,1.7618488056394193,-4.067432036555397,-1.520071372806492,0.3945035788379466,0.6324487205038838,-2.134807090389346,4,left
5.746,0.48077514157182555,0.39257847989347766,0.04587617979603864,1.760920137763536,-4.07200904070772,-1.518378243250498,0.39711879683077767,0.6323990518078593,-2.1399613881502404,4,left
5.751,0.5013213435635887,0.4106959990769933,0.02399614560568568,1.762295522505389,-4.05668295049651,-1.5229826088819651,0.3872984565709172,0.634136246954419,-2.1219201367907834,4,left
5.752000000000001,0.5198203110650229,0.422985798008069,0.00688456454716592,1.7600687253242904,-4.078415180642236,-1.5162846395786576,0.4052168820431044,0.6306410468941206,-2.154561731670789,4,left
5.756,0.534257501566841,0.43186328067793844,-0.006355932122001737,1.7626737091633906,-4.056748599409019,-1.5231980652315986,0.38227482469418583,0.635189384811059,-2.112832645828157,4,left
5.756,0.5461455153325472,0.43819342679298817,-0.019726394755071187,1.7611711731253181,-4.069284220704223,-1.5192012835941056,0.4014009606878519,0.6313692368075241,-2.147593930745093,4,left
5.76,0.5508167451377459,0.4381096454297472,-0.028507322543251043,1.75936309893159,-4.076760361482323,-1.5162578571703986,0.4009863534760232,0.6315637629246771,-2.146942034016111,4,left
5.761,0.5513867516519619,0.43615287109963935,-0.03319333244709662,1.766611588704484,-4.039728861201897,-1.5297888449748258,0.36417931910327284,0.638544929775146,-2.0797157799047805,4,left
5.765,0.5500856424284988,0.4340809306370865,-0.0375481379040907,1.7532029373347682,-4.108620325956064,-1.5046637541523689,0.45452431463696563,0.6212826678964096,-2.24460490497523,4,left
5.766,0.5392014609025713,0.42506789937876543,-0.03079912296420699,1.7704618468495346,-4.020434264908652,-1.5368833051038,0.304760560489731,0.6499261733830579,-1.9713051866011102,4,left
5.771,0.5309355812429122,0.4175876278938949,-0.023956092431790994,1.7560354002809846,-4.093933870473421,-1.5100046758176873,0.5022944138094283,0.6121504995636669,-2.331771545956228,4,left
5.772,0.5289358632204413,0.4152409233824469,-0.02206814618680633,1.7563684499675678,-4.091586831876599,-1.5107830679929415,1.3316022498641438,0.4536420236527329,-3.8453213850553905,4,left
5.773,0.5205243432320308,0.405551775781217,-0.0059890797685022736,1.784115106537338,-3.952949314321748,-1.5618144462977481,1.5291468205145955,0.4158903675198024,-4.2058104524037505,4,left
5.775,0.5097298617974271,0.39441971348426186,0.017667287054690933,1.715965245495189,-4.293984016552952,-1.4363495283103038,1.3793714728102622,0.4445078921134311,-3.9324861686881643,4,left
5.776,0.4970476047723437,0.3854189720769419,0.0440708512573916,1.8289591995460777,-3.728546302975219,-1.6443692469291449,1.4697120515244937,0.4272357305623779,-4.097365938155431,4,left
5.78,0.48796052646164007,0.377669284919532,0.06276392166173617,1.6799133728690645,-4.474283737035378,-1.3700080175276728,1.4329434941581298,0.4343031280475315,-4.030221203757069,4,left
5.781000000000001,0.485590951040693,0.3749088160084185,0.06762957635530795,1.054088986550847,-7.603443555873774,-0.21848539668944286,1.4324461080888828,0.4343121409549666,-4.02939392287843,4,left
5.782,0.4759557486274496,0.36905108425500127,0.08305907177790238,0.9050333380429813,-8.349078769753493,0.0558524797038957,1.4516909247376106,0.43075796292656354,-4.064406660424387,4,left
5.785,0.463632445035432,0.36296707337607104,0.1016419704133946,1.0180479196529009,-7.783816515995179,-0.15213217564028203,1.4286306955053085,0.43504147314578673,-4.022427196047481,4,left
5.785,0.4544643744138557,0.3605436508884762,0.11102427591369465,0.949866676559329,-8.124663530635587,-0.0266923486694515,1.446600092720787,0.4316604988216092,-4.055176795271809,4,left
5.79,0.44494493541261615,0.3564430354389303,0.11804212041399159,0.9776511128624363,-7.986132808770886,-0.07773599958608668,1.4368812677615952,0.4336252025802344,-4.037350614545581,4,left
5.791,0.4386051826182239,0.3565932721070255,0.12115544001053412,0.9779516632695504,-7.98387241820105,-0.07844019299222982,1.439169545453592,0.4328428347643818,-4.041812227181897,4,left
