time,gFx,gFy,gFz,ax,ay,az,wx,wy,wz,subject_number,foot
9.491,1.1644237045938395,0.5715395027687105,0.008040744543574726,-10.485051589104069,13.043191974239171,-1.5153413773853792,-1.179437183429144,-1.3178297169502562,2.633322412733936,2,left
9.494,1.0998474667774105,0.5578305701643841,-0.014191343511586402,-10.577277192597265,13.179703234738641,-1.4891619776393161,-1.17836974970822,-1.3072309688581842,2.6344429670808616,2,left
9.495,1.0404069022437716,0.5288213876196531,-0.02637494634514192,-10.524063039631308,13.103118856230513,-1.503041078657026,-1.1786747946286844,-1.3163971327667592,2.6316036845016963,2,left
9.499,0.9780187835252984,0.49584154947693515,-0.02549352207819494,-10.542469730200356,13.125950250400376,-1.5002950569192617,-1.179599902680187,-1.3115119619628248,2.6364078491701646,2,left
9.5,0.9062618694975693,0.46842955385442014,-0.011599458804272461,-10.546630124390436,13.137762839943637,-1.495939485107657,-1.1775098444132324,-1.3117712184656969,2.62997770535351,2,left
9.504,0.8233614706213421,0.44336330201695995,0.005305063427894299,-10.53117969142515,13.110277436832222,-1.5029162736130286,-1.1800508078712366,-1.314590930112497,2.6365082542926865,2,left
9.505,0.7327125280203005,0.42323691888722326,0.022692053645409514,-10.552341613158124,13.141751428151911,-1.4968248269260047,-1.1784225385183582,-1.3113809473339049,2.6328995455870334,2,left
9.509,0.6467987455350802,0.40622183456088967,0.043581987252777364,-10.525134714949798,13.109541909411503,-1.5000233885461292,-1.1773566061843863,-1.311942948259905,2.629443268555471,2,left
9.51,0.5774264450870573,0.3850460234578153,0.0631404586979161,-10.561176502049824,13.144232139184709,-1.5002633950460047,-1.182734406553804,-1.3165107086567307,2.6438402444056504,2,left
9.513,0.5269987503420649,0.3596056010809332,0.08053040717927978,-10.516612728640816,13.10618730243997,-1.4972467148093442,-1.1725530161649316,-1.3059907689761967,2.617352609195435,2,left
9.514,0.49553582538670726,0.3255479274566926,0.09794411973059458,-10.56075036345147,13.14172738374322,-1.501435300502508,-1.1857195573673307,-1.3204085710449593,2.6512718000597806,2,left
9.519,0.4829514873358782,0.28702405558060495,0.11717991676810224,-10.537506291483231,13.12455704100324,-1.498362917746812,-1.1746862679488057,-1.3079821312781417,2.6229906135675636,2,left
9.52,0.4816656392152329,0.24143349901206054,0.13435751204225044,-10.510447494464698,13.09929512143641,-1.4977423825892888,-1.175023367094895,-1.308657553005602,2.6237311320460064,2,left
9.523,0.4848971264978499,0.18912699899706797,0.14310290035841605,-10.615914574594203,13.190552825231602,-1.5041992270895959,-1.1959880462090855,-1.331722586583348,2.6776986025514873,2,left
9.524,0.48673690623267873,0.14195450862746228,0.1435437211582254,-10.423386163195183,13.025876674284817,-1.4913412775294914,-1.1443891714976098,-1.2744229185181142,2.545094907592831,2,left
9.529,0.47771756880537564,0.0857898290216556,0.1368330213858185,-10.669498249528775,13.235681868143892,-1.5081697154752756,-1.229979156977349,-1.3697210940961075,2.7649451182503073,2,left
9.53,0.4682018599900203,0.048432665286696444,0.13081485648389418,-10.464498564833402,13.06122615260606,-1.4939864517234187,-1.1170635967910234,-1.243877485654096,2.474958783346107,2,left
9.533999999999999,0.4634280791240179,0.039685957740990804,0.129954106855321,-10.469327208839086,13.064865151373485,-1.4945765573209386,-0.6431443588319382,-0.7156433662409274,1.2578537647928894,2,left
9.535,0.44595896910338007,0.007603598689582981,0.1249609930870747,-10.86213475944858,13.400392919520907,-1.5210722152123735,-0.5301988739838548,-0.5897120291341331,0.9678235701630113,2,left
9.535,0.42107977340526104,-0.029058416037270808,0.1210101741248382,-9.897704372185292,12.577282426356614,-1.4556517997342435,-0.6158407162436097,-0.6851976378315712,1.187737065460239,2,left
9.54,0.40704012077716434,-0.054348446004364864,0.12783236148017446,-11.496378851050482,13.941428258417048,-1.5642327146531787,-0.564185155780769,-0.6276063733628712,1.0550953438828958,2,left
9.541,0.4038080924242544,-0.07381575065086024,0.13257932427933267,-9.387881098746432,12.142370217759716,-1.4209768470697601,-0.5851846881840457,-0.6510321390048632,1.1090210096186603,2,left
9.543,0.40525039278266856,-0.07774761969863324,0.13545461050158739,-0.5369151041593674,4.5899999163139205,-0.8198212605986834,-0.5855418272022866,-0.6513827214456396,1.109928708217585,2,left
9.544,0.4165014522560417,-0.09274435614947911,0.14731782120752784,1.5715505834700343,2.791081584017744,-0.676567483231047,-0.5744037214202606,-0.639060712788101,1.0813459822394256,2,left
9.544,0.4436014946524402,-0.11208834713715958,0.1568441460670848,-0.02700059615185879,4.154881061559278,-0.7851639270418103,-0.5877696734956754,-0.6538258276460711,1.1156426928589123,2,left
9.548,0.4821183123143652,-0.1239819888914759,0.15935395381952303,0.9371291359473045,3.3324044794085013,-0.7196796374396979,-0.5773257622771277,-0.6423180142271525,1.0888486983633068,2,left
9.548,0.5278200409861376,-0.13853702203189208,0.15489401643672945,0.5448535403162085,3.6670082578809344,-0.7463127065921826,-0.5829389774075663,-0.6485184410319029,1.1032521079157416,2,left
9.555,0.5762298610075538,-0.1434303442928479,0.136457764195388,0.5393125842218349,3.671683086066696,-0.7466939413215583,-0.581814296408917,-0.6471432762090037,1.1003437952109665,2,left
9.556000000000001,0.6238744397514133,-0.14248143400213492,0.11248069382157552,0.7449875101013529,3.4965045968175863,-0.7327406747745349,-0.5798900923253678,-0.6453847872276226,1.095468193936095,2,left
9.558,0.6706208024949614,-0.13884635036685977,0.08932996669783928,0.4986352993521837,3.7060771933156342,-0.7494268695000574,-0.5832160337066361,-0.6484271279786107,1.1038960392266643,2,left
9.559,0.7161424773455078,-0.12526619174417092,0.061685678973132374,0.6904645990401994,3.543269893354957,-0.7364691418122684,-0.5798699773903173,-0.6455135533809262,1.0954420376853666,2,left
9.562000000000001,0.7607629808335999,-0.10665768466467199,0.03107115612222044,0.5870533824044708,3.630652213234872,-0.7434194588326333,-0.5822347346005867,-0.6474987931877422,1.1014042657916223,2,left
9.562999999999999,0.8041505732584489,-0.08494898560711094,0.001510622152069434,0.6106717840547146,3.6108635009725676,-0.7418481602595286,-0.5815418835645343,-0.6467200682379026,1.0996241874704933,2,left
9.567,0.8458158854870224,-0.05841984460363999,-0.025336697868201245,0.6380372753198277,3.588242206332035,-0.7400512597531368,-0.5801242135787537,-0.6463494628031562,1.0961879701104724,2,left
9.568,0.8877525782764153,-0.027848051389268304,-0.04870048366392938,0.5907602202995521,3.6262461250854585,-0.7430598129096011,-0.5837488455897479,-0.6476259180814019,1.105028919751786,2,left
9.572000000000001,0.9319083207651291,0.002280268574896363,-0.07087475206169955,0.634960359163902,3.5925494854571776,-0.7404080812507147,-0.5784308730608045,-0.6458211155687882,1.0920692025021126,2,left
9.573,0.9734597930020482,0.03119329345364226,-0.09297467067139636,0.6055150240029608,3.612747529719342,-0.7419773945218329,-0.5839814592071175,-0.6476131332011114,1.1055802607423653,2,left
9.578,1.0085772117410454,0.06323942608480455,-0.11491040485342827,0.6182546729632611,3.6058032337308146,-0.7414556664363146,-0.5807728149556877,-0.6465756766488664,1.0977697349020974,2,left
9.579,1.0339291398985027,0.09533106535528793,-0.13420428852742183,0.6181887327449502,3.605894664777004,-0.7414631071406796,-0.5782707262775378,-0.6459766821534331,1.0917141844917433,2,left
9.583,1.0489181711802527,0.12368317553011507,-0.14996997579849813,0.6117479089768475,3.6041066855164097,-0.7412630891184309,-0.5895632389314966,-0.648982034941235,1.1190944378843632,2,left
9.584,1.0591116478868399,0.1497124952755391,-0.1638350675899442,0.6192111088244315,3.6143831385332317,-0.7422131856148668,-0.5686035278158544,-0.6433879776136266,1.0682723624382615,2,left
9.587,1.0596259039423463,0.17040639355461573,-0.16866097937134888,0.6140540709816105,3.5939531842697696,-0.7403898693713202,-0.5954957367066706,-0.6505484391294634,1.1334760855882062,2,left
9.588,1.055489785073782,0.184032920233148,-0.16473949735992416,0.6160576342499158,3.6187132019286476,-0.7425707010860965,-0.5730535680419053,-0.6445789345860045,1.079063587969451,2,left
9.592,1.0501776997575374,0.1940811362184227,-0.15793996224498094,0.6160170985521543,3.6034531788304394,-0.7412351728680682,-0.5736914578125812,-0.6447777799270318,1.0806139418855913,2,left
9.593,1.0372597289811958,0.19985825985080224,-0.14658475842460272,0.6164451429595673,3.5899054987856527,-0.7400510379686727,-0.6163592681701799,-0.6560130682873917,1.184048440435439,2,left
9.596,1.02654439726224,0.19983594402651117,-0.13433760526380664,0.6132248698512677,3.6503496400515787,-0.7453218615145238,-0.5114607012161719,-0.6283623662639686,0.9297527257961793,2,left
9.597000000000001,1.004993086385085,0.19864734940755982,-0.12288656789938175,0.6204824724087015,3.5371568823787856,-0.7354610301883304,-0.6853888354085647,-0.6742144973797707,1.3513897428982171,2,left
9.602,0.9788463923822512,0.20007410257014907,-0.11663808099801028,0.6102726662013278,3.683263653819222,-0.7481819815083526,-0.4559826582573744,-0.6137371158164089,0.7952639073120058,2,left
9.603,0.9729351066002629,0.19943192005544985,-0.11695794323636294,0.6191885653671723,3.5609488681359123,-0.7375373071177342,0.5067858638711552,-0.36015906906171297,-1.53867209141024,2,left
9.604,0.9487341012567684,0.19480227289256802,-0.11113096144565443,0.618990489688676,3.5642297149275475,-0.7378175814256784,0.7361778732172033,-0.2997009198043305,-2.0947622241287633,2,left
9.606,0.9054338896554857,0.19063236527876126,-0.10172209372374486,0.6011955712889101,3.798119421518864,-0.7581807722550074,0.5622823280049856,-0.34550112725531923,-1.6732058131998797,2,left
9.607000000000001,0.871555414944762,0.18498249309955986,-0.09486759761175692,0.6451688088485237,3.2230325355677105,-0.7081240288900668,0.6671255883659988,-0.3179527233885471,-1.9273675322186536,2,left
9.612,0.8235932368798159,0.1759258749299013,-0.08775862690244968,0.5720094497261329,4.176775003216003,-0.7911309783582267,0.6245329703048336,-0.3290298212808964,-1.8241114330581567,2,left
9.612,0.789480485609525,0.16986258433421736,-0.0852765398998073,0.6686976871029645,2.91862348329285,-0.6816370675340884,0.623817496674701,-0.32941724115640025,-1.8223820134570856,2,left
9.613,0.7815615614405549,0.16983193615955078,-0.08389577164982254,1.0749573340784497,-2.3625856902482756,-0.2218663556473172,0.646303491286121,-0.32329888618518055,-1.8768873016849354,2,left
9.618,0.7464097672540282,0.16802319843430102,-0.07785344628910694,1.171807631872712,-3.6208671716122387,-0.11235621035249001,0.6194518479981328,-0.33045577154886224,-1.8117959746306413,2,left
9.619,0.6995609160128311,0.16244305711979118,-0.07051097586737523,1.0983945768565166,-2.6669459451442763,-0.19540408503956785,0.640237683945613,-0.325145146912718,-1.862189248128721,2,left
9.622,0.6623017289140393,0.16176454331527837,-0.06262238668119086,1.142578669489493,-3.2421144767673358,-0.14527127832552233,0.6292706598994711,-0.32750402470044493,-1.8355888047203095,2,left
9.622,0.6206070310160057,0.1665947438878195,-0.05819837951758361,1.1247931908438082,-3.008412618378297,-0.16574678956613462,0.6313441379466893,-0.3278700542839258,-1.8406399491842136,2,left
9.627,0.5824329298210726,0.17452805457621767,-0.055784378210146174,1.1241925438886278,-3.0045414815055578,-0.16589935351632246,0.6349393973799253,-0.3258042006890972,-1.849325273934843,2,left
9.628,0.5452228221470339,0.18650419964274528,-0.04789881890116619,1.1339917128739723,-3.1278516450513774,-0.1553465498226298,0.6292880386625628,-0.32818460854813647,-1.8356494715480083,2,left
9.63,0.5094815095948348,0.20219650704633912,-0.038539982166140116,1.1225200057258975,-2.9805675038258075,-0.16808998738710695,0.6341280675860607,-0.32691724475374284,-1.847382775612446,2,left
9.631,0.48101992807073124,0.22245369591362213,-0.029732840749595712,1.1310321897882982,-3.094614081492665,-0.15800780942723747,0.631784422095596,-0.3258812132677628,-1.8416566111821377,2,left
9.636000000000001,0.4547417631995915,0.244583978418846,-0.018360609792194442,1.127259129994896,-3.0343839957341463,-0.16374701352207455,0.631140424755228,-0.32982975161626427,-1.8401977693168052,2,left
9.636000000000001,0.43201288172999036,0.2691480260533079,-0.0047710093843526275,1.1266531008192395,-3.045871462105998,-0.16189307565930042,0.6342140637633153,-0.32338235005024474,-1.8474960880780724,2,left
9.64,0.41507818588051026,0.30097058823460976,0.01508842323252611,1.1299916562273271,-3.0654589236624554,-0.16123538262711012,0.630164437399177,-0.33045949157183085,-1.8378420081317814,2,left
9.641,0.40149160946183327,0.3360712622193116,0.037754845533267675,1.1261530420682748,-3.0345632926709705,-0.16309007656507318,0.6330225978104124,-0.3262329502655328,-1.8446763388858887,2,left
9.645,0.38770316927914605,0.36849814249285817,0.0510235168935357,1.1281839676766756,-3.0611149902283623,-0.1607713061553295,0.6338749439171538,-0.32301679676263206,-1.8466619085744957,2,left
9.646,0.37608343629243,0.39575082997075006,0.053954375780637526,1.1298904378586445,-3.04806507352991,-0.16345603987566498,0.6271719156102835,-0.3378809863000377,-1.8307670396229665,2,left
9.65,0.3697134159069499,0.41765897943924607,0.05015295145713934,1.1234562476885959,-3.044973059068396,-0.1601859911140462,0.640304868633863,-0.310127904990889,-1.8619456983014722,2,left
9.652000000000001,0.36734864063958894,0.43638165402017604,0.04341688722113121,1.1339477929398591,-3.0611778026023333,-0.16405516452785518,0.6231887928726685,-0.3458331348653128,-1.8212987344514389,2,left
9.656,0.36757362393177184,0.4537353426385741,0.042056846290465466,1.1224367521110197,-3.039661377954043,-0.16029983873750733,0.6375844136301985,-0.3159931512935946,-1.8554895710063453,2,left
9.657,0.36899349620796595,0.4709638516335879,0.04831746880797563,1.1293068418585785,-3.054937779112845,-0.16222205064347167,0.6370315398002527,-0.31685194779898773,-1.8541704916313622,2,left
9.662,0.37045686208299444,0.48506180102580887,0.05627067412819811,1.1345484852071541,-3.0592638089019357,-0.16464884537841273,0.6100166405507017,-0.3736167725577464,-1.790024192379457,2,left
9.663,0.3726920274950719,0.49644840524787653,0.06436885437726647,1.1103528743061946,-3.0240174171822503,-0.15544825270169255,0.6766510637560983,-0.23401739914055716,-1.9482537216932938,2,left
9.665,0.37721214731345587,0.506614679303321,0.07455459792859753,1.1555206210055977,-3.0932365460824167,-0.1721753342905164,0.5660807055504442,-0.46551504813446815,-1.6856931240331263,2,left
9.666,0.3789092084992096,0.5102918938853096,0.08079367174348015,1.097415996377423,-3.00296662669587,-0.1508177083770455,0.7119525534619715,-0.1601503096523832,-2.032079019499618,2,left
9.669,0.3793588268570024,0.5109423170864847,0.081848665364702,1.1459700579414376,-3.0789156726127604,-0.1685975341412666,1.3241482858140756,1.1214438730378657,-3.485824677217863,2,left
9.67,0.38483289008598665,0.5086809268629967,0.08662790736612871,1.1445854292574802,-3.075954306591389,-0.16819337039233118,1.4700217156598223,1.4268304157322311,-3.8322090673555804,2,left
9.671,0.3908289845368397,0.5006840758303249,0.09259467188070605,1.0521902431143544,-2.933544457947666,-0.1340862249102812,1.359430565378571,1.195304149660666,-3.5696038465213595,2,left
9.676,0.39488644963014813,0.49063103975716355,0.09597595055695982,1.279387715715071,-3.2848793054499295,-0.21780539943544788,1.4261319213565398,1.3349123542376493,-3.7279978205124342,2,left
9.677,0.3941209499570493,0.4737045286916644,0.10392175740679732,0.9026471515502968,-2.701858912882585,-0.0790395540487673,1.398983369059469,1.2781890785646763,-3.6635083771818713,2,left
9.679,0.3900509243011115,0.4616131082860743,0.11089039077377726,1.3995752225134037,-3.471030686969274,-0.262048602838506,1.3986249855481008,1.2772163638666585,-3.6627019838893258,2,left
9.679,0.3883543113965452,0.45828556599616455,0.11402197184323701,3.485232975661775,-6.698681582736597,-1.0300648348835224,1.4128162683307566,1.3072393140469867,-3.696338375716125,2,left
9.682,0.3834698932563224,0.4438581857476536,0.12293540037212707,3.9821277780823676,-7.46782236540741,-1.2130148299957177,1.395810586177338,1.2713273666611697,-3.656017883421817,2,left
9.683,0.37392170285537063,0.4265468634426651,0.1297266382479621,3.605454127382112,-6.884797930470804,-1.0743837288641003,1.409068760290911,1.2992151771594411,-3.6874746793749478,2,left
9.687000000000001,0.36334231444707854,0.4127837009282105,0.13116879597589418,3.83255577335888,-7.236278615106849,-1.1578762434477552,1.40187263965808,1.2844235763748135,-3.670333982318355,2,left
9.687999999999999,0.3537724503895312,0.3972879156821187,0.13466684777525628,3.7402669701118483,-7.093483177266226,-1.1240745416850597,1.4036281512152322,1.2872253959843054,-3.67467170900768,2,left
9.692,0.3468806516586093,0.38631947791220705,0.13714913675481027,3.738804276685567,-7.091168158081581,-1.1233588136784332,1.405319135575657,1.2922683287995462,-3.6783961625274246,2,left
9.693,0.3409788846855025,0.3767006998992827,0.13933422077969954,3.7873495144984064,-7.166337230981919,-1.1413086463557547,1.4022887654018237,1.2840804328419264,-3.671557164021954,2,left
9.697000000000001,0.3378446211462147,0.3675889753853119,0.14017016842977853,3.7294044984875434,-7.0766606730106245,-1.120127354282495,1.4051671252655966,1.2915759995573897,-3.6781075717102842,2,left
9.698,0.3400624688875925,0.3619862101403391,0.14025137551428157,3.774223324365696,-7.145964242182352,-1.1361365669977799,1.403100063535458,1.2872623892397215,-3.6731967255723945,2,left
9.702,0.34688964715344217,0.35912000571608504,0.1404422309473619,3.750535929026663,-7.109423754904517,-1.1282633223923064,1.4043799279821276,1.2872123656717034,-3.6767635634713933,2,left
9.703,0.3592037170728899,0.360608242818288,0.13088631991620692,3.755250678734344,-7.116568825510955,-1.1289585539962377,1.4035159715245822,1.291640557804334,-3.6735058581393747,2,left
9.707,0.3769515118995472,0.3634524482240433,0.11835923606248705,3.7623982065944004,-7.127753874970736,-1.1324197192721597,1.4043112748643456,1.284001324717471,-3.677194011848554,2,left
9.708,0.39745959830521177,0.3696534087126899,0.11002800664833641,3.7512164880772287,-7.110445490905607,-1.128310385560233,1.4035554058288469,1.292337351242729,-3.67348033829521,2,left
9.712,0.4196381831095181,0.3840077388621679,0.09790595342388932,3.760444189030145,-7.1245093587729365,-1.1301679751716036,1.4038468616238373,1.2872167635510205,-3.675281714677747,2,left
9.713,0.4417830478366917,0.40296306384756486,0.08290649359149227,3.756305108349681,-7.118604897979526,-1.1321628617120185,1.404817627568084,1.284308497921492,-3.6785412005433096,2,left
9.716000000000001,0.4626562301657333,0.4246060402070479,0.06572387885797193,3.7550631991883714,-7.1159337224854635,-1.1264563606524836,1.4017470083285004,1.2995014431541636,-3.6670691712323826,2,left
9.717,0.48554998656651716,0.4497284627621484,0.047690157249764276,3.7596543885278786,-7.123837641895035,-1.1337422666794321,1.4072287220673279,1.2708808282577269,-3.687840571140715,2,left
9.721,0.5101995249686697,0.4776822281193813,0.02835056315029735,3.7553329844463645,-7.116689391422071,-1.1289186982262498,1.4002379304894852,1.3077313431917972,-3.661281400686242,2,left
9.722000000000001,0.5309013358303978,0.5044156528551385,0.004307046314673899,3.75512263786721,-7.115963809822601,-1.126052871011086,1.4060544054298445,1.276925570919879,-3.683409722135469,2,left
9.728,0.5475346393053746,0.530238127864384,-0.016388671251946537,3.7634625510472897,-7.130614472934299,-1.1413228303556906,1.4059721308622577,1.277916060034978,-3.682983801193167,2,left
9.728,0.5618941161761168,0.5583547703712954,-0.03042303957524817,3.7458323403109564,-7.100099442441505,-1.1122094832125704,1.394635723709026,1.3361439623802625,-3.640219335892523,2,left
9.731,0.5729386972137602,0.5845657678539633,-0.038676201062260926,3.76943191405292,-7.140766565054155,-1.1499449251290312,1.4224096766481296,1.192840769491169,-3.745127869472628,2,left
9.732000000000001,0.5830090206825127,0.6090906895921782,-0.040917404736381086,3.7493162758476375,-7.1061811102499295,-1.1182913833366879,1.3763835404319007,1.4304939366796834,-3.5712333344727623,2,left
9.736,0.5881372465310369,0.6247981107355747,-0.03926484927923639,3.750223620503376,-7.107666527490359,-1.1192769718463764,1.4370878989604217,1.117023577846443,-3.800600544773084,2,left
9.736,0.5883699008128289,0.6273954990883059,-0.038151125436845415,3.7879038844888817,-7.172596009794459,-1.1793960222510183,1.6920107493484156,-0.1985269598161711,-4.76358872626721,2,left
9.738,0.5925551754061098,0.6349993221545469,-0.037594612113819675,3.6946370953368826,-7.012022876651454,-1.0314004950561526,1.752718829875971,-0.5119875376301833,-4.9929918512883,2,left
9.741,0.5934790052252702,0.6457267162299735,-0.025926502639210727,3.8495964286896927,-7.278730294834414,-1.2768922276534713,1.7066914329791802,-0.2743401209787517,-4.819051998216448,2,left
9.742,0.5901042270066095,0.6477200184923277,-0.01519614352065734,3.645039238532551,-6.92671640604836,-0.9530397865660034,1.7344540561252617,-0.4176644533290606,-4.9239686370265785,2,left
9.745,0.5888804124003553,0.6487038456188459,-0.012084088639660985,2.7863945383607254,-5.449109508838508,0.4063371772137059,1.723151206665005,-0.35936616475745303,-4.881285888009537,2,left
9.746,0.5823630339711141,0.6495154615337193,0.007763495223804999,2.5816997280958853,-5.096982748470187,0.7302029641102665,1.7230102234701064,-0.358503548661106,-4.880652626560627,2,left
9.747,0.5716966520689407,0.6470916619265712,0.03441250323558523,2.736937807556078,-5.363944401096996,0.48467465487411016,1.7289000700724229,-0.38914484947360817,-4.903103466411263,2,left
9.75,0.5601396434850068,0.6447899261818062,0.05366229428522257,2.6432677152986566,-5.202949758880717,0.6327431017392112,1.7218497123200285,-0.3524345389827228,-4.87619161336274,2,left
9.751,0.546941540270598,0.6415468702676158,0.07563178574812086,2.681402274800454,-5.268438897467199,0.5725102938635428,1.7273320634962297,-0.3810384382668059,-4.897173726965109,2,left
9.755,0.5352073118223309,0.6373808636807726,0.09439191756453685,2.681965594859295,-5.269364634539253,0.5716614783135738,1.7243703511992754,-0.36562421349145136,-4.885869659191737,2,left
9.756,0.5232122848383116,0.6361384534041001,0.10831283289013682,2.6618360761301374,-5.235065681015657,0.6032053673975754,1.7250896538219882,-0.36907173539399135,-4.888356048982787,2,left
9.76,0.5100650925191849,0.6408959507108738,0.12411642183419598,2.68608292985369,-5.27609195725271,0.5654711434571771,1.725757995528293,-0.373361669375212,-4.891621214231469,2,left
9.761000000000001,0.4955144279911635,0.6532004658053706,0.13778033090021824,2.666997141040815,-5.244225319915025,0.5947844417217143,1.724599468000084,-0.36594047877481006,-4.885971267443282,2,left
9.765,0.4791921217925257,0.6705026456473652,0.14672006116106376,2.6774916413346888,-5.261324762976683,0.5790515395392384,1.7256263702881158,-0.3730065513428897,-4.891411950340968,2,left
9.766,0.46266261743064574,0.6907577061510672,0.15285972728131936,2.6750038066920454,-5.257454807511175,0.5826138613567631,1.7249702766225403,-0.3682137796230973,-4.887689222559737,2,left
9.77,0.4480925229956936,0.7122482951587702,0.15320415161691248,2.671959176633924,-5.253030697939112,0.5866887377827181,1.7253483248740098,-0.3701519389256362,-4.889106248753723,2,left
9.772,0.43694393286441685,0.7343717138198174,0.14527912544754418,2.677795443120435,-5.2604534804681755,0.5798418814916324,1.7249687720074516,-0.3708028255123309,-4.889980601921254,2,left
9.775,0.42405729691062843,0.7608555939260925,0.13316980659485167,2.67135890029981,-5.253887357746057,0.5859159364732549,1.7256291880263595,-0.3682482288556014,-4.887200852824664,2,left
9.776,0.4083599083866555,0.7900276608917887,0.11559349961456863,2.6768491718732514,-5.257803426614924,0.5822707364411255,1.7245958709642437,-0.3718105466921049,-4.891165901545969,2,left
9.781,0.39283412963109554,0.822312810361699,0.09188977821059421,2.6735148498454104,-5.256474705627767,0.5835278746544734,1.7257612945002396,-0.3683427492422162,-4.8871804459383945,2,left
9.781,0.37506282226959864,0.8601642589003453,0.06929269452346368,2.673502665453446,-5.256492065668736,0.5835116088496399,1.7250883459589896,-0.3703492194718546,-4.889485001472601,2,left
9.785,0.35792108598276773,0.9002474704086827,0.048976187154577064,2.6780192958974887,-5.2560868842096555,0.5838203604164258,1.7243676253919928,-0.3713510427966122,-4.890939837173016,2,left
9.786,0.3406391205166229,0.9417939226892704,0.026373231317617728,2.6684018990867227,-5.258226076814319,0.582000129335873,1.7273404538140653,-0.36602628632969264,-4.883886546933374,2,left
9.79,0.3204763360519588,0.9838124039678973,-0.0004040309205437702,2.682169173118923,-5.254035546957807,0.5856336602041559,1.7218356885481754,-0.3759460874385384,-4.896998994459496,2,left
9.791,0.30634049147249454,1.0260032783007007,-0.027226594431634586,2.667831976371353,-5.259087439907111,0.5812235805293673,1.7289165752909659,-0.36327115617750927,-4.880208719655132,2,left
9.794,0.2937567685297203,1.064699545154932,-0.04954385981386595,2.6760080025300903,-5.255979994035895,0.5839432479920788,1.7229985674823416,-0.37382221513487157,-4.894202195979203,2,left
9.795,0.2847019413797547,1.1050666848042539,-0.06520232632142434,2.6830094902334167,-5.253229836733128,0.5863590109060322,1.7231467118351602,-0.37346698004630297,-4.893776014697468,2,left
9.799,0.2853000947192907,1.1445102026158414,-0.07044334145485107,2.652495330254035,-5.2655031629505675,0.5755800816080057,1.7344876681928008,-0.3536584001393899,-4.867311579999461,2,left
9.8,0.287811950171784,1.1745518197150508,-0.06458821168576165,2.7089606272496094,-5.242522240995708,0.5957669606550956,1.7066187491560094,-0.40238974904842467,-4.93238345503859,2,left
9.804,0.30728155165628424,1.2188195896158749,-0.05355120772959142,2.63654152460182,-5.272184937550936,0.5697094339495536,1.7528314866645776,-0.3216059779509177,-4.824506946347446,2,left
9.805,0.323307682472146,1.2499578210278206,-0.04767141623596145,2.696964697008127,-5.247347451963719,0.5915234757055985,1.6918706660669278,-0.4281333615398294,-4.966772969632487,2,left
9.805,0.32794667135682043,1.2587492462982728,-0.04571494036628503,2.695319764628038,-5.248031768153833,0.5909404547488875,1.4360307224632285,-0.8752743879841923,-5.564032440457572,2,left
9.809,0.35737282739986675,1.298010534696203,-0.03945362119526985,2.580195030307892,-5.295477296494925,0.5492216297969155,1.375067058118662,-0.9817787526410237,-5.7062853965154074,2,left
9.81,0.39586401349580425,1.3488176517617039,-0.03500483743000997,2.863144857993932,-5.178785405440224,0.651796075184465,1.4212756611851205,-0.9010115195316551,-5.598403792125216,2,left
9.814,0.45287725427699166,1.4052716210468885,-0.03605629961883108,2.394018585360084,-5.372332590415022,0.48168562585830044,1.3934334545764018,-0.9497819767780886,-5.66354917017553,2,left
9.814,0.502830456887305,1.4495605075065,-0.03652450663884953,3.0127802250011784,-5.1169940031912455,0.7060890478663882,1.4047115471886849,-0.9298296864935489,-5.63689739031765,2,left
9.815,0.5169063331443728,1.461038311584283,-0.037875360246635056,5.609824569695024,-4.04571204690791,1.6481039920771878,1.4049597724039444,-0.9297428461802104,-5.636780478557837,2,left
9.818999999999999,0.5758114819397064,1.5008417495398705,-0.05082664011094375,6.228564422568243,-3.790367232510091,1.8725330234460202,1.3989264327842512,-0.9399417574829414,-5.650405642803974,2,left
9.82,0.665938719690581,1.5506846650576516,-0.08778157632156028,5.75949019534878,-3.9838622441189573,1.7023803686181072,1.4060869874955566,-0.9275766804176827,-5.633888304009012,2,left
9.824,0.7391946454853185,1.5772099519338194,-0.15108858950715115,6.042348134166339,-3.867381579164729,1.8049956275112466,1.4006131704674394,-0.9374385627211912,-5.647057210199263,2,left
9.824,0.8099103349296433,1.5970267882731446,-0.22938778824202666,5.927353129665175,-3.9143745778250247,1.763262845788035,1.4033670691582818,-0.9316731359667162,-5.639368100572938,2,left
9.829,0.8567738036283135,1.5982111741629619,-0.30885416028185064,5.925567971400568,-3.915745184170623,1.7626391279876923,1.4030926257651288,-0.9337940700604361,-5.642180416582253,2,left
9.83,0.8766319253068686,1.5807132220685725,-0.3719128375121272,5.986080988944073,-3.8901537770389427,1.7845681486806972,1.4017977490308446,-0.9340428712399863,-5.642538126517737,2,left
9.834,0.8669472628549695,1.5413530696497875,-0.4019168811551304,5.913711335619864,-3.920279839840758,1.7583253863973183,1.4035702614567158,-0.9325508696759089,-5.640525368606819,2,left
9.834,0.8167098028205044,1.4817405408388813,-0.39890604645810196,5.969897325556712,-3.8976326262623333,1.7787235671551298,1.4022863296335197,-0.9348090978159447,-5.643540258380727,2,left
9.839,0.7370767716359867,1.412553690423504,-0.36759335166863777,5.9399351443667525,-3.9082784454121944,1.7678009544010944,1.402407081853517,-0.9316182518521683,-5.639318323122387,2,left
9.84,0.6298418799666281,1.3377926250248735,-0.3127149215742075,5.946181176163952,-3.908655462638967,1.7701587930070937,1.4037258576687528,-0.9361231730823155,-5.645246084234687,2,left
9.844,0.5035828928121098,1.2716799398298493,-0.24041196153390193,5.955078383479819,-3.901360878318993,1.7732738172200115,1.4011967374665208,-0.9303844394171268,-5.63771261913608,2,left
9.845,0.36825109930350186,1.2178730780390046,-0.1537256252902771,5.940472522630172,-3.91027555779495,1.768064839939091,1.4040985623979743,-0.9361423076195157,-5.645265089246754,2,left
9.849,0.2285533375776978,1.1814468225542785,-0.05962853371185761,5.953533238652625,-3.9049121997160183,1.7728036047185394,1.4022836791396243,-0.9330573968421296,-5.6412207526770874,2,left
9.85,0.09287528360758282,1.1685575441799687,0.03609909531884183,5.94602900264859,-3.9026499444643723,1.7699157395642477,1.401148917755006,-0.9296456826038932,-5.636741180582436,2,left
9.853,-0.03216210008851105,1.1720657753293335,0.13561014617392225,5.946994826331469,-3.914497669786707,1.7706441747733945,1.4069082898687766,-0.9431878101815108,-5.654515241259569,2,left
9.854,-0.14402545953280113,1.1873728517642061,0.2534918023781063,5.951252857453474,-3.8944709726479556,1.7716252846023406,1.3960395710501472,-0.9184034855787662,-5.621982978257647,2,left
9.859,-0.2503153471577642,1.2022740553844882,0.3843653848224001,5.944629155153329,-3.916680949793883,1.7698226197389235,1.4100640479200077,-0.9501067304006685,-5.663605001699114,2,left
9.86,-0.3539598643931283,1.2028490792824615,0.4926642260171762,5.949853023005836,-3.903269885870702,1.7713717907578634,1.398325422901761,-0.9236941817173605,-5.62891394117187,2,left
9.863,-0.4529921139068355,1.1902717891339876,0.5770674388537573,5.950013660935479,-3.893506840496912,1.7711291315108864,1.3986914140020268,-0.9243200907289535,-5.629772815005216,2,left
9.863999999999999,-0.5398626504361159,1.169774230269639,0.6656056956810184,5.94130088902543,-3.939551830744431,1.7692795040842966,1.4209471564551213,-0.9749175651686197,-5.6961394251864785,2,left
9.867,-0.6195221226659662,1.1492938730579318,0.7557632685049867,5.959348932749707,-3.8533757969333506,1.7733978930515089,1.3661733004974312,-0.8506899144396256,-5.533123452580482,2,left
9.868,-0.7059443523681983,1.1371329892199709,0.8152100168046343,5.9354965829360165,-3.9643151754914805,1.7678611675898124,1.4570205266850236,-1.0566071056195017,-5.803384329724931,2,left
9.873,-0.7594231048905642,1.132856038670794,0.8391812903853355,5.955690302977171,-3.871573211248491,1.7725892917100805,1.337180485732047,-0.7850307598422659,-5.446910143897693,2,left
9.874,-0.7691723022505663,1.1330156488082297,0.840062568225683,5.9547180272951685,-3.8742793850052983,1.7722973672121676,0.8343192750932038,0.35533000805486553,-3.951187927957396,2,left
9.875,-0.7905793507509407,1.1321749414020732,0.8227375064293116,5.917349109906301,-4.050600932697355,1.7637173293369846,0.714482634557184,0.6269170213465968,-3.5947411863730734,2,left
9.879,-0.8001020178388233,1.1315715308890333,0.7836029198219485,6.009803662417408,-3.6169347223808876,1.7850443896721133,0.8053144423973924,0.42095148199551646,-3.864877592915307,2,left
9.879,-0.7532557477376447,1.139791927880383,0.697711825599063,5.856291881888355,-4.336089298806318,1.7495917203164515,0.7505807681672038,0.5453051131264176,-3.7021860323942,2,left
9.883,-0.7131637448912845,1.1465410296555532,0.6303452501036271,6.058842384353052,-3.3874797217709136,1.7963880936860217,0.7727629910781502,0.49447715264363157,-3.767959047704675,2,left
9.884,-0.6995648480474328,1.148231208312638,0.610693503122145,6.909255147335278,0.5937802703494081,1.992611727041487,0.7732299005043727,0.49416760868366794,-3.769632758975649,2,left
9.885,-0.6441862660432676,1.1608054657828877,0.5305217119345498,7.111840781927151,1.542382005835647,2.039410622617952,0.7613924286361741,0.5202703074767083,-3.7341435545770034,2,left
9.888,-0.5611601478864134,1.1806343422853804,0.4042550433633926,6.95816966375138,0.8232630275477325,2.0039465437093043,0.7754580660682506,0.48869604737502836,-3.776097989566369,2,left
9.888,-0.4899878461888565,1.2042184453435671,0.2872191334400548,7.051039503001578,1.2568364257722393,2.025303313406461,0.7646779357921929,0.5137581551271893,-3.7442809053068133,2,left
9.892999999999999,-0.4190115093851513,1.235043530235603,0.17021158654488872,7.012910712799944,1.080684729112956,2.0166689390145742,0.770156910728415,0.49933694798663697,-3.7597910849843172,2,left
9.892999999999999,-0.34852778256957373,1.2666370233023798,0.07394584867324235,7.012981526549686,1.0777453708693905,2.0164515791357327,0.7695038030198744,0.5042586189126812,-3.7592004358048174,2,left
9.897,-0.28093321751967903,1.299716978175908,-0.005256015771701022,7.03215352751201,1.1707157764615088,2.0211066963728386,0.767098352716511,0.505492228113068,-3.7503876600211203,2,left
9.898,-0.21519401076594574,1.3318516309791466,-0.06572344402402674,7.008726702933615,1.0596811941134794,2.0156003217785683,0.7704707534665132,0.5012093769138691,-3.7617399255734405,2,left
9.902000000000001,-0.14532687521821558,1.3508014406433129,-0.09350655375319036,7.027690262976079,1.145652675229929,2.0197842548186964,0.767946274914802,0.5069629766260044,-3.754243466335145,2,left
9.902999999999999,-0.06319567401062834,1.3496680112373451,-0.09511175896761867,7.016079450447267,1.1002554300724143,2.017727359881154,0.7683906210562996,0.4997164344685467,-3.753111489565557,2,left
9.907,0.022314584435281896,1.330303547126666,-0.07254081135398859,7.021218376172786,1.1089056324779059,2.0178406250853973,0.7705091688830188,0.5091704436531173,-3.765019685977906,2,left
9.908999999999999,0.10807171617684956,1.2968047113416228,-0.029242139684225604,7.0203380724161475,1.1236813665532583,2.0189535061486596,0.766245074502335,0.4975697570877593,-3.7439721565699173,2,left
9.912,0.1927333663136792,1.250511697749135,0.030703134563227714,7.018578558237682,1.1003837136184966,2.017498310649889,0.7711943915984966,0.5090200999465335,-3.76761039402479,2,left
9.912,0.26150947653738355,1.1942185961390455,0.09986451157292847,7.022883969948433,1.1204003239086355,2.0184832512838486,0.7680641162687376,0.5030188397195825,-3.753146788732394,2,left
9.918,0.31374085589028156,1.1332523304596827,0.15979215527955476,7.0148124732212676,1.1105722591928497,2.018565089496648,0.7662069883902185,0.4959344378816259,-3.743183101375677,2,left
9.919,0.3529336378802702,1.0757121683176982,0.2054431926569008,7.0279567455252,1.1082190642276801,2.0171537626529865,0.7758864068932326,0.5234126143651925,-3.791408915377752,2,left
9.922,0.37394707782380937,1.0225508759305133,0.24678806277093612,7.010214684137419,1.1204683410688892,2.019690525005312,0.7575695338521515,0.47328809307326114,-3.7008822138704693,2,left
9.923,0.39052926127379395,0.9725292716800801,0.2727920144487947,7.028445152444489,1.104212237998992,2.0168281254831033,0.7812208596845021,0.5373487034905653,-3.817516240903506,2,left
9.926,0.40837834480183327,0.9286113281854863,0.29057905065641426,7.018369338765213,1.1157502920104316,2.0185886489574996,0.7614206652816713,0.48399696965928,-3.719978153939315,2,left
9.927,0.4306284287506714,0.8856383049312542,0.2908320948726085,7.008260500408239,1.1190262904843693,2.019774603311695,0.7620404690005784,0.4852400237718012,-3.7228743796312678,2,left
9.931000000000001,0.45991615609217407,0.8482619397588982,0.26747299884619247,7.049876178517231,1.092382614183815,2.0139717722881976,0.7995716536810644,0.5875039456878755,-3.908178339921024,2,left
9.932,0.4949482416067657,0.8217387910823221,0.238449086723793,6.97331933215354,1.144702483300367,2.024878930585812,0.7072047156874365,0.33644605636616765,-3.4523533119004375,2,left
9.937000000000001,0.5617426160174421,0.8025754542316588,0.14640135003985089,7.071399359409207,1.07647077854205,2.0108195301592513,0.8603965401979905,0.75259530090542,-4.208271978268872,2,left
9.939,0.6172215965282632,0.7918815180475471,0.06781085886205321,6.989610195646806,1.1338812751726781,2.022582431341089,0.658324473387328,0.20374602447342127,-3.211167988674976,2,left
9.941,0.6336879299544625,0.7896105138306035,0.03951602932752996,6.99168204914719,1.1316342371860062,2.0222220543949976,-0.1898271675778625,-2.1002540107052754,0.9739665022580645,2,left
9.942,0.6878525184427067,0.8033303484196452,-0.08615878228988773,7.148015938197268,1.0240047962275178,1.9999021046842524,-0.39189168853370576,-2.649069641222181,1.9710822565581447,2,left
9.943,0.755743081152682,0.8258667149803656,-0.26407823811424913,6.763969384763675,1.2895536870433668,2.0548273643102535,-0.23870308155897618,-2.2329924381624835,1.215119686966247,2,left
9.947000000000001,0.7741809155241021,0.8445571154167341,-0.44004970026826584,7.400662438190674,0.8488720933487339,1.963727590101647,-0.3310906455926518,-2.483937939073456,1.6710502950661712,2,left
9.948,0.7768145053251324,0.855733496800434,-0.5602544032048418,6.560890436893397,1.4302813644798036,2.0839073161890997,-0.2934962584583919,-2.3818135083571077,1.4855609129187992,2,left
9.951,0.7702948907540679,0.8628889624848556,-0.5840926321137656,3.035912598757784,3.8700075349098526,2.588185815347315,-0.29298831197002523,-2.3804441797102207,1.4829115658488596,2,left
9.952,0.7067588301092663,0.903561926770647,-0.6453985004333098,2.1961346219825155,4.451470160975463,2.708388478125068,-0.31264744451677984,-2.433837771028542,1.5802174359153711,2,left
9.953,0.5613323881369902,0.9929387012689778,-0.6911429104231006,2.8328172975162387,4.010651920057013,2.617259998056184,-0.28911245739692604,-2.369909349588137,1.4636625624950725,2,left
9.957,0.33419047721957074,1.1278188089063208,-0.6586535600047454,2.448832861196264,4.276458394779987,2.672189597376422,-0.3074239372079312,-2.419653956835363,1.554437528916132,2,left
9.957,0.03227947372171189,1.3297216152005027,-0.6096485574415635,2.605022313735109,4.168444141086443,2.6499235599483013,-0.29754138163766053,-2.392806265819357,1.5054929851562888,2,left
9.961,-0.32251694980228873,1.6068224653269834,-0.5248599693615809,2.6073227750465997,4.166640075434993,2.649428207980642,-0.2998752512693445,-2.399139622730387,1.5166523492090829,2,left
9.962,-0.7006518125058515,1.9524668001248586,-0.438513230676542,2.5252716166802895,4.223723675269691,2.661399828288318,-0.3022849386366767,-2.405708374413437,1.5296913419805458,2,left
9.966000000000001,-1.0514102199550375,2.339148310007151,-0.38516977628671545,2.623530367403185,4.155432477061115,2.6471136105605964,-0.29811280680961394,-2.3943331655049116,1.507126434544738,2,left
9.966000000000001,-1.3231295369926925,2.71939117268742,-0.35329878079271826,2.5470489887033865,4.208492972643834,2.658153875118213,-0.3019174747909218,-2.4047212879873365,1.5283268148037936,2,left
9.971,-1.5103780224432923,3.0458294200235314,-0.3646996977231601,2.588159606498208,4.180252956819607,2.6524646162898,-0.29942587723153935,-2.397909987184723,1.5140979074672376,2,left
9.972000000000001,-1.6055725546128952,3.282220613003529,-0.44999545129495844,2.5790728406779353,4.185837003420483,2.653145031300907,-0.3006809373664433,-2.4013191911232,1.520273970425868,2,left
9.975,-1.5831607893841162,3.4159654236559147,-0.5947356303547398,2.5675793497859587,4.195007235297037,2.6558559262686643,-0.2999900712188629,-2.3995227274632622,1.5204532373109723,2,left
9.977,-1.4485064430070722,3.4486597635262024,-0.7020663873107246,2.5871849528544253,4.179948131777761,2.6517429543294058,-0.300880558103617,-2.4017573001871586,1.5166465464348668,2,left
9.98,-1.225368375286528,3.393519243944376,-0.6929621334417116,2.5688914963225526,4.193796455819109,2.6554025820068157,-0.29939199806333794,-2.3979896325337515,1.5215357443670192,2,left
9.981,-0.9344808536356679,3.2523786889322928,-0.5769553319107237,2.580776207689704,4.185578655084675,2.6537115073395032,-0.30119121501090684,-2.4025821497229733,1.5173712870065805,2,left
9.985,-0.6067759603804379,3.005224230599623,-0.3967530056325379,2.576606649437346,4.186271781321171,2.6523744238038276,-0.3001536658307211,-2.3999352223878336,1.519788348972725,2,left
9.986,-0.2878196527599377,2.661152074876501,-0.18922353812682755,2.57426958030498,4.192902666959361,2.657127414059684,-0.29878931965992334,-2.396373725388065,1.5195504834078442,2,left
9.99,-0.01647019642793375,2.2888135111144434,0.012760833469367839,2.5805987051801274,4.181042392909148,2.649630380173342,-0.3041525562486278,-2.4103026636059215,1.5175872199750957,2,left
9.99,0.19876738787854753,1.9506844698236243,0.18112045551981282,2.573321239697953,4.194053631897219,2.657697981213029,-0.29423604861353614,-2.384554793881859,1.5213766474822585,2,left
9.995,0.36809304781455576,1.652411920808247,0.30844247841000527,2.578364101201908,4.185953955909141,2.6529170359336343,-0.30700900825855115,-2.4177212472364342,1.5167044724602792,2,left
9.995,0.49845410009631863,1.4015146843462714,0.39120965193427015,2.5785645027390025,4.181848255883022,2.6493878590219007,-0.29632677490474046,-2.3899854990753453,1.520515841304651,2,left
10.0,0.6104244462702217,1.1838075258613014,0.44311293304688604,2.5708967177555686,4.204529667920231,2.665802263622545,-0.2965685994027186,-2.390598160631477,1.520171701728637,2,left
10.001,0.7122604887201012,0.9911563745649047,0.49115951483397846,2.5863457690878704,4.1616110905427295,2.63518682002553,-0.31714337106634793,-2.444066806176329,1.5139383238076316,2,left
10.007,0.7954838536764228,0.8339380377603904,0.5411991491642839,2.56622798769799,4.2169196170285055,2.674537613656769,-0.2666061549343053,-2.312756547073832,1.5294375803529023,2,left
10.008,0.8761171642910293,0.664795001087063,0.6035042803430437,2.58314331366792,4.170655013912723,2.6416699472967107,-0.35040610442851927,-2.53047912127892,1.5037617485929033,2,left
10.01,0.9174056396887225,0.5502106248346432,0.6440149297092577,2.582238599127568,4.1722334766135,2.642620056484377,-0.23985911120984388,-2.2432774007533793,1.5375643287092375,2,left
10.01,0.9205211761073845,0.5205666999784746,0.6512193261867595,2.5514323485217743,4.259407879345217,2.7050931455888536,0.2242525136543689,-1.037332823989641,1.6788619061205028,2,left
10.011000000000001,0.9342044949818447,0.4277329288330384,0.6791891726398456,2.6276942581768985,4.044733207141881,2.551471093934908,0.3348227582149796,-0.7500926706072372,1.7125700580143117,2,left
10.014,0.8902165538332465,0.30517110928558167,0.6923245390427449,2.5010875358467226,4.400810944926752,2.8062012106268526,0.2509884775566533,-0.9678817427294026,1.6870416628163467,2,left
10.015,0.8309997985732309,0.25902611968775446,0.6800975761954995,2.66812312281576,3.931091086882338,2.4702127786446497,0.3015486229988452,-0.8364990452493668,1.7024194237589954,2,left
10.02,0.8137135551901489,0.24262162149643968,0.6746649611314715,3.368276763102547,1.9604227181326983,1.0599845944753326,0.2809903018778712,-0.8900117019922036,1.696177735030664,2,left
10.021,0.7262869658494474,0.21770661254023038,0.6226156978321327,3.5353127219043525,1.490658509461754,0.7240045997580449,0.28066832417746973,-0.8906512179613645,1.6960723281332382,2,left
10.022,0.5953612455622401,0.20745532525025268,0.5162628230751578,3.4087055734053493,1.8467842442810782,0.9787255942812305,0.29150131573453186,-0.8627796484407335,1.6993645811469835,2,left
10.024,0.4857755183701443,0.2237371073355262,0.3790166230872426,3.4849674146021075,1.6321277775924834,0.8251000480788554,0.27853346895744013,-0.896202916907359,1.6954302159189363,2,left
10.024,0.3845519769855425,0.24552324809435452,0.21211407438470867,3.4541623241539607,1.7191431030945334,0.887603464220178,0.288617195480995,-0.8701184810939719,1.6984911053891254,2,left
10.03,0.32202387368527297,0.26622346738176206,0.04120443356785125,3.4532549969422854,1.7210639016293316,0.8884883522132395,0.2832297533729835,-0.8843471073505901,1.6968394887707834,2,left
10.031,0.3018878682024773,0.2894164286715441,-0.12928018019420706,3.4701741621826017,1.6743084094792988,0.8557141747889543,0.284342546440305,-0.8807151359448553,1.6972237212473904,2,left
10.035,0.3262997661256622,0.3140769222853448,-0.3021387446670353,3.4500524412234865,1.730105820097935,0.8949719042087874,0.28600057537753154,-0.8776816794676916,1.697645943525277,2,left
10.036,0.4059942740840953,0.3450256767165464,-0.45830940309879037,3.4655034086719594,1.686976184800459,0.864396558047204,0.28324129222502525,-0.8832878605576093,1.696909529740407,2,left
10.041,0.5281853354968558,0.3846128435094226,-0.5924024228717343,3.457838508300501,1.7092380477784397,0.8808910117414304,0.28579183385392926,-0.8779066445710628,1.6976023399958335,2,left
10.043,0.6814323413853423,0.44521334881686647,-0.7163700032781684,3.458028760420036,1.706484280130158,0.8771042048515727,0.2842282568905047,-0.8819804734383048,1.6971262210172466,2,left
10.044,0.8541618639013974,0.5369086489170589,-0.824852663496903,3.4630895964266086,1.6960549137678878,0.872767036008331,0.28451390362901663,-0.8789267443565869,1.6973679449158825,2,left
10.044,1.0427476566223972,0.652624897950275,-0.9013798898860066,3.4557895550171924,1.71192553669112,0.8802901510036647,0.28542346077715885,-0.8818456282526528,1.6972897888062475,2,left
10.051,1.2441756925663352,0.785167798983526,-0.9423200214018339,3.46213745028743,1.6977852213860625,0.873227000148566,0.28369233021442347,-0.8784638083385367,1.6972933043830127,2,left
10.052,1.4512052464235587,0.9270235097386184,-0.9399061096142509,3.4597987719833174,1.7043967136210352,0.8779843346994398,0.28560746527586933,-0.8818875125549601,1.6973101771446912,2,left
10.052999999999999,1.64787306188519,1.0637137430306147,-0.8894813270902748,3.4555984557942208,1.7093188719861423,0.8758409831726719,0.2843908590492119,-0.8801955516339448,1.697267549394439,2,left
10.054,1.8053511229557775,1.1798851886406654,-0.7982373894488943,3.4675566819762165,1.691434646045477,0.875991632255039,0.2838871568244924,-0.8773198874152384,1.6973950499368544,2,left
10.058,1.9022379636998012,1.2632349602593533,-0.6747786789247014,3.4491509698948017,1.7197050561779212,0.8769044023557064,0.2869837479075189,-0.8875849824331514,1.697104994156319,2,left
10.059,1.9119248852798083,1.30524946072242,-0.540074046731958,3.4688794048677,1.6892700053198912,0.8757187940651021,0.2810800859047961,-0.8689674886894612,1.6975954063947651,2,left
10.062999999999999,1.8112807593536004,1.3018599580832126,-0.42353365834014656,3.4573095352937617,1.7073271987335379,0.8767397356431303,0.2886967701371095,-0.8927786173527414,1.6969752434487881,2,left
10.065,1.625715234141761,1.2604227799602263,-0.3422390333951891,3.448173912872687,1.7205635223676752,0.8759587021632131,0.28232341379945647,-0.8729389670998591,1.6974905765809698,2,left
10.068,1.3952573049495258,1.1861012183012218,-0.26898097276287536,3.4895340779814594,1.658815621046133,0.8766556310044091,0.28255189562380983,-0.8733277559342902,1.6974890414403165,2,left
10.068999999999999,1.1758016677757617,1.0973492114024128,-0.18283244847698388,3.412575036257284,1.7740241977090005,0.8758567181638008,0.29452082866226215,-0.9116420547944661,1.6964615105019123,2,left
10.074,0.9996792083442518,1.0196742036894664,-0.09975872569847918,3.511461950176524,1.6259246311399018,0.8767685469736788,0.26503683214794216,-0.8176468156051833,1.69897639649512,2,left
10.075,0.8358151956422631,0.9446003843611098,-0.012072706220143527,3.4288645412200855,1.749646526415424,0.8760579869072828,0.3139394464022964,-0.9734473194882116,1.694804603041081,2,left
10.079,0.7348732750381544,0.9008175039553857,0.04309673623318532,3.4312305486943737,1.7460154575600493,0.8758922316035713,0.24943604479973586,-0.7679543436826133,1.7003139940110708,2,left
10.08,0.7115548853454166,0.89167961366019,0.05285810521797504,3.5883396823071836,1.5109902611449355,0.8778412646357417,-0.021238319516326064,0.09485049810817087,1.7233815829378267,2,left
10.08,0.6460347296428005,0.8653809798171748,0.08549674460186875,3.2019924537510898,2.089023246821541,0.8732809377549102,-0.08573441410016383,0.300355826439328,1.7289051848787826,2,left
10.085,0.5368114899747136,0.8555701883513616,0.11221186879093603,3.8426696193140364,1.1304783040560178,0.8807682392120681,-0.03683970388274207,0.14454196310325967,1.7247180063805578,2,left
10.086,0.481322567783912,0.8667325056357418,0.10658623422197568,2.9975470279227343,2.394867950179497,0.8709188901099527,-0.06632671313599398,0.23853210099078764,1.7272270790205444,2,left
10.087,0.46199058133562443,0.8695623541056756,0.10704683380966756,-0.548913180367973,7.701005350413691,0.8290761053045754,-0.05433154384581505,0.20026217158498294,1.7262504786496224,2,left
10.088,0.3917700111097325,0.9008476170014088,0.09988042292446281,-1.3941445052168908,8.965480766028122,0.8192428332432858,-0.05415950440866514,0.1997779415445605,1.7261393126816194,2,left
10.089,0.2831795472457904,0.9567674708859175,0.08368715972358294,-0.7533496965007658,8.006843029880937,0.8267127399481129,-0.060451940397991386,0.21975441488263403,1.7268118720305643,2,left
10.092,0.17843763321147968,1.0193007708415105,0.07039790701825671,-1.1396521843007845,8.584840709229223,0.8221457990486571,-0.05291582772232292,0.19580706426240263,1.7260350972960876,2,left
10.093,0.06445733749898194,1.090439622044493,0.056730138147665796,-0.9829332768018177,8.350123355203888,0.8241525273419001,-0.05878473986157168,0.21448328830595187,1.7265931724413037,2,left
10.097999999999999,-0.04602019955050756,1.1598020345205673,0.0442910323143302,-0.9797276457529567,8.345829942459737,0.8238626312868952,-0.055618925845847676,0.20433527687757677,1.7264373986685033,2,left
10.099,-0.14322474073667954,1.2209752661196926,0.026267510038193283,-1.0635289068075577,8.47050149015989,0.8233300655601263,-0.056345553588037375,0.2068339688591731,1.726131991916975,2,left
10.102,-0.22638030557250005,1.2630322264252376,0.00048573383216285633,-0.963443204609642,8.321456285845409,0.8240646470404818,-0.05717808433242848,0.20917536282055738,1.7268354788211004,2,left
10.103,-0.28027381490795567,1.2836960054293725,-0.03008915264793969,-1.0409195065256778,8.437072854471952,0.823342217065818,-0.05573426952030686,0.20495475390104934,1.7259364724913187,2,left
10.107000000000001,-0.30830283467772945,1.2830433283909117,-0.05924833116637388,-1.0005887428710891,8.376137059908189,0.8241913412207145,-0.05708969562206721,0.2089717366958858,1.7266704835481037,2,left
10.107999999999999,-0.3143745005141786,1.2573747949967014,-0.08217961249964906,-1.0064083600858407,8.38675749660013,0.8229200293348833,-0.056176664223482276,0.2060588998189523,1.7265981184524501,2,left
10.113,-0.2998786885083199,1.215570626067997,-0.10119768708621882,-1.0236918547907268,8.409321896080282,0.8247857495968425,-0.05658851490674985,0.20793304760677706,1.7254858842969578,2,left
10.113,-0.27045138977202715,1.1622399715518466,-0.11788169581684499,-0.9969513598502455,8.373355455049929,0.822563377147849,-0.05655830729402909,0.20655425229325908,1.7281053147757088,2,left
10.116,-0.22633630872631036,1.0987677544385728,-0.1316857357971652,-1.0209474375866634,8.406035633641448,0.8243027188216798,-0.05638524938937881,0.207915479675346,1.7241790202269716,2,left
10.118,-0.17045003154257365,1.0350160148810712,-0.13813258868779837,-1.0090390019031559,8.38819098917305,0.8244607039324434,-0.05661030431022884,0.20659400998559377,1.7283679694651002,2,left
10.123,-0.10988950275497103,0.9769082959042217,-0.13750555497167813,-1.0028651412307041,8.384929132151239,0.8207835227235925,-0.05641614683980064,0.20715297670487187,1.7259421456330382,2,left
10.123,-0.04595534454922172,0.9260709750019208,-0.13346009053145896,-1.0289123174634165,8.410243307668757,0.8290462230308824,-0.05656654486992242,0.2086480133538761,1.723878086911451,2,left
10.128,0.018686731555344466,0.8872117459511,-0.12712515239247943,-0.9871951482286525,8.368202037988617,0.8167535913369355,-0.05642837966103475,0.20376352740005516,1.7329556369281998,2,left
10.129,0.07682423210694278,0.8604946055552387,-0.1253683535115474,-1.032199742791827,8.413815242000606,0.8298515134304678,-0.056590829943495,0.21252250284405982,1.716113281333103,2,left
10.132,0.13116032571924863,0.8454619822993006,-0.13382826581156185,-1.0053533585765377,8.38620167474127,0.8222931624168819,-0.056403171042695696,0.20134270476451605,1.7377414368407655,2,left
10.133,0.18182543691414876,0.8450437908017439,-0.14703134767089054,-0.9863826982480672,8.368631129118793,0.8157297606347532,-0.05655150214958302,0.21064901284422816,1.7196844978015542,2,left
10.136000000000001,0.2246911581167305,0.8576911009534898,-0.16360700484874893,-1.0762381100096592,8.455730806695694,0.8443762211892397,-0.056579762692731864,0.21050128965359888,1.7201759347231236,2,left
10.137,0.26084959489265813,0.8771052896381837,-0.18336478969944087,-0.908364698796154,8.29236189282932,0.7912647415014062,-0.05619064646556226,0.1924141746548776,1.7545979361063453,2,left
10.141,0.28856869056143364,0.9023290105456538,-0.200415319765783,-1.1242034672887427,8.502549325932312,0.8594600552865996,-0.057109375163694305,0.2367474890180447,1.669989773681824,2,left
10.142000000000001,0.31607754088416384,0.9360873860457672,-0.21931506708909748,-0.9438914675784351,8.32690592395218,0.8025272690485461,-0.05559540540095312,0.16327226241032305,1.81027467051244,2,left
10.145,0.33738868603004946,0.9580139388861239,-0.23361834794433606,-0.9492171372663475,8.332304544224979,0.804066096202314,-0.057592023915432625,0.2601834509338645,1.6252396722835185,2,left
10.146,0.34205457979505194,0.9636329979347499,-0.23945350048516487,-1.2915907099734043,8.665109215806172,0.9126352358883802,-0.06600670391546395,0.6671124035224749,0.8485602158550746,2,left
10.147,0.35320560536765416,0.9846652346266597,-0.2587882976830718,-0.4495376270158832,7.846353705651806,0.6457852467705177,-0.06800705916860628,0.7640368332390488,0.6635255817268384,2,left
10.151,0.36943595901046,1.0141326819049015,-0.2887310011536619,-1.8458615972695989,9.204088395706128,1.0882387468660504,-0.06649060766778499,0.6905476200543792,0.8038100634282214,2,left
10.152000000000001,0.3742238090436147,1.0260142755238797,-0.30520255377950894,-0.004066854099257555,7.413219691524876,0.5046377453320063,-0.06740226902140198,0.7348742831365008,0.7192018262558115,2,left
10.156,0.3755127893022122,1.0284929636980742,-0.30927625004421083,7.726246213436615,-0.1030356032633104,-1.9450307825390056,-0.06703796350336172,0.716837168456298,0.7536249795726135,2,left
10.156,0.3742631234052713,1.033685728557857,-0.3186557996302275,9.568129355561252,-1.8938588372166762,-2.5286581121937015,-0.06702045658311151,0.716583519647301,0.7541138345634197,2,left
10.157,0.36986902159681806,1.035200237829789,-0.3341927014773678,8.171611211254179,-0.5361481644446813,-2.08615846241989,-0.06722831157011089,0.726040377455015,0.7360606802723894,2,left
10.161,0.3590971145825335,1.0261254894139267,-0.34701697318791214,9.013976921235487,-1.3550115680844985,-2.3530601852014357,-0.06698899548497188,0.7147123197054733,0.7576849635565825,2,left
10.162,0.3373516054308904,1.01060858735947,-0.35861680828290643,8.671201102349805,-1.0218598514348054,-2.244456545544235,-0.06715959195393761,0.7235321905067336,0.7408444707717754,2,left
10.166,0.30851591254010324,0.9898733182842996,-0.3653516241267428,8.66626023647784,-1.017085111163335,-2.2429057755394037,-0.0670983740180097,0.7187821045762464,0.7499249034579782,2,left
10.166,0.2697318075561571,0.9663318788756481,-0.3619194002761373,8.846405361292828,-1.191932340564947,-2.2999246804516638,-0.06705696860010096,0.7198563954170154,0.7478507976800572,2,left
10.171,0.22203481061042424,0.9438631978773612,-0.35101374776748917,8.63025200737577,-0.9824148778841566,-2.2315574224949275,-0.06716146707302309,0.7211334019421789,0.74544271748052,2,left
10.172,0.16835511498209896,0.9241896883332668,-0.3337247035078459,8.799153977636944,-1.1457228605202812,-2.2849031535422224,-0.06705380132852778,0.7189380699284118,0.7496094318830786,2,left
10.175,0.10686008310566464,0.9114091324259067,-0.31037765440931764,8.707511293207105,-1.057522127491748,-2.2560355008986894,-0.0670954948590939,0.7209849967565867,0.7457015497417661,2,left
10.176,0.04241368815462542,0.9031935540868429,-0.2848751301263147,8.728700109373401,-1.0777350946452586,-2.262676943407666,-0.06718349459057532,0.7196376058446257,0.748319565511547,2,left
10.18,-0.02414068687118532,0.9012179900517725,-0.2589041657271355,8.753733227973985,-1.101308959548185,-2.2704609384194017,-0.06692999626163842,0.7201812422659037,0.7471767851815683,2,left
10.181000000000001,-0.09501651450024183,0.9079336405135516,-0.22812485727593812,8.708821646073806,-1.0601085956063663,-2.2567038231442287,-0.06732666206958901,0.7202632070037617,0.7471770907625219,2,left
10.185,-0.16662182607706136,0.9178124047610321,-0.1954791278666583,8.753648547744724,-1.099445339301518,-2.2700927865872687,-0.06689700828759444,0.7198491420376227,0.7478003974927875,2,left
10.187000000000001,-0.2369476463620378,0.9312400185290444,-0.1669308046366922,8.72030258884514,-1.0722348657352143,-2.2605263993203693,-0.06714984896884268,0.7203072662850498,0.7470222056032967,2,left
10.191,-0.3063806120395135,0.9493382591417736,-0.14153351327615904,8.737507668019983,-1.0848091696060715,-2.265181266837571,-0.0673535682486559,0.7200217818014206,0.7476511133560451,2,left
10.192,-0.37518303888783183,0.9699172997095408,-0.1201032014181077,8.737505282107417,-1.0847702194270599,-2.2651731533480857,-0.06643567115068086,0.7200160879495899,0.7472963858286799,2,left
10.196,-0.4396709617491812,0.9900238005204951,-0.1051114419507203,8.720601714226394,-1.0760412091645253,-2.2612961983864173,-0.06814421516708531,0.7203229168683589,0.747387999028972,2,left
10.197000000000001,-0.496163383184756,1.0076231525621888,-0.09894945033581723,8.75289139269568,-1.0898252265966053,-2.2681476065272497,-0.06594798954351974,0.7198225708383674,0.7474740677836986,2,left
10.2,-0.5469800224726238,1.0231315028088044,-0.09839651936886964,8.709942267226232,-1.0743384607030932,-2.259580862537071,-0.06778267212227526,0.7202845421951809,0.7473167360859659,2,left
10.2,-0.5890525221968136,1.0321482611153774,-0.09958273251670946,8.75267494661209,-1.087880407584489,-2.2677461807093624,-0.06773105373722782,0.7202045630943855,0.7474521056529118,2,left
10.205,-0.6210954332428351,1.0355962578589768,-0.10224162109998573,8.72895930341959,-1.0810039928510526,-2.263337235496431,-0.06423773812986026,0.719503790408452,0.7474027932652163,2,left
10.205,-0.6443720241791593,1.0367456551252454,-0.1072574000159291,8.708922186486673,-1.075471729592309,-2.2596655563019596,-0.07282704947714014,0.7213223965570582,0.7473355909012953,2,left
10.21,-0.6535226212353105,1.0308730550571505,-0.11972718791170023,8.795441449188086,-1.0985442045629834,-2.2753633917158815,-0.058583909338572146,0.7182727418073367,0.7475164036486879,2,left
10.211,-0.6548762329433484,1.0252512887825236,-0.1298478027414437,8.636111973744864,-1.0568457691897155,-2.246606704496794,-0.07737182645401253,0.722304839665928,0.7472551800782371,2,left
10.215,-0.6525982995288486,1.0232762024867683,-0.13218529756852468,8.839922415747036,-1.1096345617870211,-2.28328600655168,-0.15622744094171875,0.7391979698814631,0.7462425921025848,2,left
10.216000000000001,-0.6426179535794763,1.015009266383885,-0.13862652167981857,8.670111627855295,-1.0658930463840495,-2.2527714181745675,-0.17501803219136192,0.7432216950073949,0.7459860613720454,2,left
10.217,-0.6203424528857926,1.004352678788864,-0.14435623807739567,8.67475045565823,-1.0671233278859664,-2.2536130175911584,-0.1607705685309261,0.7401781875622423,0.7461727859930684,2,left
10.219,-0.5894600233789625,0.9946186080225757,-0.1435797606296326,8.997841422333398,-1.1498313651970036,-2.3115689498899434,-0.16936384558324125,0.7420105514834174,0.7460647284211256,2,left
10.22,-0.5581746945715091,0.9845012580343457,-0.14144949681030933,8.203916766421521,-0.9467269395912836,-2.1691790288978705,-0.16586968290272663,0.7412584698458697,0.7461125040542407,2,left
10.225,-0.5101373160110991,0.9798308263621451,-0.13919290158776756,9.520075976937788,-1.2832827112447152,-2.405202026305804,-0.16581290964918455,0.7412746856967642,0.7460925852968948,2,left
10.226,-0.47232648194463694,0.9793714865105789,-0.13763857553937586,7.784212648377144,-0.8395229594258283,-2.093942208379188,-0.1676605696540658,0.7416101031756823,0.7461149863722718,2,left
10.226,-0.46097094972902114,0.9782998695490134,-0.13832187903136534,0.4980769686264672,1.0224656626853146,-0.7877389595778892,-0.16544444296385266,0.7412215774430433,0.7460756875457906,2,left
10.23,-0.42140059636958827,0.9807394161739678,-0.1418515840897034,-1.2377605258850615,1.4660614815452262,-0.47655349106056955,-0.16717453293068796,0.7415065258454501,0.7461218475916536,2,left
10.231,-0.36606778799207673,0.9888195552175193,-0.1490237665024836,0.07840427737554306,1.1298023872161598,-0.712434263647507,-0.16624386322659374,0.7413440580349897,0.7461041498039731,2,left
10.235,-0.317339791237512,0.9961407054578106,-0.15305006408860328,-0.7156498227922224,1.3325516626854839,-0.5702325874379157,-0.16643735633394938,0.7414590536576315,0.7460420167824222,2,left
10.236,-0.2587820426613272,1.000138565154442,-0.14637606367058167,-0.3922211879262242,1.2501265331790048,-0.6280041931743056,-0.1667369762536184,0.7412864994726216,0.7462304620186903,2,left
10.238999999999999,-0.20233035328533164,1.0026911419775812,-0.14078935313070487,-0.3881452740701989,1.2488695922920514,-0.6289409926688386,-0.16621895337438408,0.7415833450411305,0.7459054583942913,2,left
10.24,-0.14507017126354593,1.0055247468811175,-0.13847604561082616,-0.5572799192082033,1.2921833174370474,-0.5985312150461974,-0.1667323096368447,0.741192880894743,0.7463061371871758,2,left
10.244000000000002,-0.08474773532809493,1.0066469650318977,-0.1271653553180435,-0.35397926426616033,1.2404026443389702,-0.6348047252577367,-0.16637342913543834,0.7415149378832695,0.7459859419821596,2,left
10.245,-0.028408691297648076,1.0027889728016883,-0.11366018304971126,-0.5133922672857283,1.2805850361193545,-0.6067828701301075,-0.16648898658212077,0.7415432870547571,0.7459815410047319,2,left
10.249,0.024989573918833642,0.9988357465128201,-0.10342744653525847,-0.4257361981803316,1.259138020473232,-0.6215393676977434,-0.1666607949016904,0.7408397042858854,0.7465823323210969,2,left
10.25,0.07182890276798684,0.9967308562969621,-0.09448942970471774,-0.4482319150666999,1.2637195872478566,-0.6186811193623762,-0.16620417238710558,0.7424338403545688,0.745210087438392,2,left
10.253,0.11595347775631593,0.9926648568441531,-0.08884273045522453,-0.4683955056169669,1.26980169824395,-0.614130219913132,-0.16687047919756637,0.7400525146676433,0.7472575076270849,2,left
10.255,0.15761379196622077,0.9858055361329311,-0.08405899815124526,-0.4292933543452483,1.2598169434885857,-0.6211321179250833,-0.16617993268375564,0.7425952336137591,0.7450746124645147,2,left
10.259,0.19450753495791684,0.9775486507677077,-0.08009620636901278,-0.4704408854838419,1.2686112385182629,-0.6154911862528728,-0.1665791165473028,0.7411262073580986,0.7463358942850329,2,left
10.26,0.22772182919041578,0.9698605516344527,-0.0775067494452554,-0.43561113634172205,1.263643034491174,-0.6177684749741685,-0.16687953527279,0.7398501282450777,0.7474237503457486,2,left
10.263,0.25419914705550734,0.9603986776626882,-0.07212732338285963,-0.46166454973051396,1.2644348499218978,-0.619015508190782,-0.16550826828378284,0.7454219541535223,0.7426635486944251,2,left
10.264000000000001,0.2774918516048498,0.9476353754525418,-0.06539829675665948,-0.44530236451414706,1.2665066224973995,-0.6156403065423304,-0.1680540467435641,0.7350898652151076,0.7514913476688224,2,left
10.267999999999999,0.2992531798765853,0.9349675211176496,-0.05980806186217603,-0.44893095380021053,1.2638208056427218,-0.61863514926458,-0.16478883727003865,0.7483572464343158,0.7401559812753695,2,left
10.269,0.3166407230701385,0.9247731438925825,-0.0512896455783428,-0.46432644265959117,1.264641188377066,-0.6190164583408622,-0.16751305307308467,0.7372810523163423,0.7496193181370039,2,left
10.273,0.33371167915801614,0.9164533747432884,-0.04265346236640002,-0.422843899903996,1.2676694006323195,-0.6127031609037737,-0.16743491812401162,0.7375788834882979,0.7493632734428688,2,left
10.274000000000001,0.34873265514387813,0.9090543104682299,-0.038105907987385376,-0.4922242143421356,1.2601240054880154,-0.6257654878016906,-0.16225954090961942,0.7587054728005689,0.7313182489250151,2,left
10.279000000000002,0.3582862298450905,0.904687831154764,-0.03412738939985367,-0.40648657515332,1.2706690604538005,-0.6083914298573952,-0.1749830529884293,0.7067816792847752,0.7756705990045117,2,left
10.279000000000002,0.3651418631038458,0.9033430702380603,-0.03441476082312068,-0.47663237609688214,1.2614989996934185,-0.6231541048007769,-0.15388755153587066,0.7928721311842437,0.702132420074812,2,left
10.283,0.3677078920957357,0.9018357652005053,-0.04020559592924403,-0.4759738467087499,1.2620653736215464,-0.6225295359910037,-0.18171094833302653,0.6793208603508369,0.7991288820047328,2,left
10.283,0.3681214095044215,0.9007841273529479,-0.04109876848647914,-0.33992174517768653,1.2789604889019994,-0.5947983419492231,-0.29848972060447165,0.20267797317830535,1.2062710899180311,2,left
10.284,0.36940197345585873,0.9009881795735358,-0.040268952829642074,-0.6720986013799942,1.2368636786245393,-0.6633624615235308,-0.3263107085782171,0.08913090275349853,1.3032676531245424,2,left
10.288,0.3678255698059649,0.8995660713281811,-0.04836433074371213,-0.1223952695597754,1.3069356588469323,-0.5494846988982807,-0.30521897249235785,0.17521478882752017,1.2297293152020599,2,left
10.289000000000001,0.3666581325747015,0.896628000107818,-0.05577901417231189,-0.846935698911199,1.2143762344231808,-0.6997878258665498,-0.3179393699572669,0.12329642620710314,1.27408179864692,2,left
10.292,0.36669053298718596,0.894549057569995,-0.05891556227292411,-3.8881223204414876,0.8258415410097107,-1.3306958004012084,-0.31276381230737793,0.14442333065451893,1.2560367767375518,2,left
10.293,0.3623139856428132,0.8933964784628758,-0.06948233714314452,-4.612409791481874,0.7332062734935691,-1.481066960375397,-0.31269172049114813,0.14471062331607337,1.2557804853506893,2,left
10.295,0.3579025373324924,0.8922278970626479,-0.08376771878386838,-4.063277072678977,0.8034438955780259,-1.3670467563693185,-0.3154027441384735,0.13365743393899548,1.265244368937545,2,left
10.298,0.3540014220487082,0.890399691991918,-0.09395670500422754,-4.394506288176402,0.7610822348966076,-1.435826693320621,-0.31215632691476297,0.1468920455370285,1.2539082170094358,2,left
10.299000000000001,0.34635644450909603,0.8896848398543813,-0.09822395575600129,-4.259714605527122,0.7783155156794421,-1.4078370171990335,-0.3146834940063146,0.13659240992637545,1.2627368026856145,2,left
10.302999999999999,0.3410971481663807,0.8881584304908798,-0.09822904627030413,-4.257792622571028,0.7785620327075302,-1.4074328120188497,-0.3133202921289086,0.14215017404003313,1.2579762437923814,2,left
10.302999999999999,0.3374913376090211,0.8838480852230874,-0.1000109188131049,-4.3285903226162405,0.7695241438069182,-1.4221483646987982,-0.31363636470560463,0.14084679496809793,1.2590634756944676,2,left
10.308,0.33083901883327144,0.8817829925586036,-0.10166490042341242,-4.243651929181766,0.780345313760429,-1.4044854422206066,-0.3139849444190508,0.13946601465626235,1.260326840444389,2,left
10.308,0.32450587653367235,0.8805894425472522,-0.09942025614300146,-4.3099979367164245,0.7719236800054818,-1.4182959345785564,-0.31338159165450113,0.14185668466085052,1.2581403193722207,2,left
10.312000000000001,0.3151238209024505,0.8791952249755571,-0.09455142791032212,-4.274025855873379,0.7764592511376625,-1.410793976312131,-0.31394091330475293,0.1396619163506959,1.2601922277516207,2,left
10.312000000000001,0.3023080001648012,0.8832701491208799,-0.08490946933168061,-4.282332376545525,0.7754253594230835,-1.4125324939412598,-0.31356957444031275,0.14110734334523367,1.2588163463589512,2,left
10.317,0.2929403050126098,0.8908455499383767,-0.0705151229668968,-4.292121339924407,0.7742303146167839,-1.4145922508521844,-0.313742121603816,0.14040245869580886,1.2594172414126141,2,left
10.318,0.2865258798850463,0.8997079062977951,-0.05983530466581163,-4.274631372126024,0.776283103083526,-1.410873795150916,-0.31369950558069376,0.14070664600770358,1.2594192746662092,2,left
10.324000000000002,0.28257446668458186,0.9104131552304908,-0.05288681813147095,-4.291967787957059,0.77438369835046,-1.414622573944344,-0.31370211394304093,0.14039832845576306,1.2590841295431243,2,left
10.324000000000002,0.28258374525307894,0.9225705265871169,-0.044299684269688125,-4.279210377474646,0.7756248251937514,-1.411791088231537,-0.31367619198629215,0.1409482533190468,1.259507307054153,2,left
10.327,0.28557895126935545,0.9368287270949729,-0.03877302268610485,-4.285693555536156,0.7751071550674087,-1.4132826070645192,-0.3137330469746929,0.14024265548394269,1.2591580802347235,2,left
10.328,0.29175228219151295,0.9486349100446407,-0.03446272625665324,-4.2856895752343895,0.7751104181076887,-1.4132831253940814,-0.31370050947142275,0.1406492600781855,1.259360928297614,2,left
10.332,0.3015091435048871,0.9588786535366604,-0.028030882659698244,-4.279567068845663,0.7753151891678861,-1.4117422284774777,-0.3136076562699679,0.1412636647732316,1.2593099367648017,2,left
10.333,0.31445294962099657,0.9707689504635679,-0.024367376604440334,-4.291066849559889,0.775166107448289,-1.414746030817982,-0.3139301300820534,0.13891589184673758,1.259240791345373,2,left
10.337,0.3298400284601451,0.9782310937776573,-0.022569775037756618,-4.275963709608826,0.7751258749221288,-1.4106911965037812,-0.31333627482271253,0.14325335848638424,1.2593834943996989,2,left
10.338,0.3448384450126537,0.9839744828280929,-0.020796541035712122,-4.290864378335989,0.7753222605888529,-1.414764551055438,-0.3141041846941377,0.13766135691569636,1.2592190728974357,2,left
10.341,0.3598884699327205,0.9919595728147059,-0.01490666464620832,-4.2826376627030935,0.7751597975665125,-1.4124905789449445,-0.3134606546652555,0.14234066238050974,1.2593476909924612,2,left
10.342,0.37487974271663,0.9952569349346433,-0.004366275420355475,-4.275707579976538,0.7749990753721272,-1.4105636110211794,-0.3134712354261452,0.1422398538623439,1.2593207043971542,2,left
10.347999999999999,0.38319581692676985,0.9948527925466945,0.0037124084134771114,-4.305579601586214,0.7757609731344656,-1.4189013375562487,-0.3147274490155598,0.1332035112268124,1.2591762077535877,2,left
10.347999999999999,0.38781571738076254,0.9958383970027924,0.008007679142197148,-4.250620932668887,0.7742918254660149,-1.4035304336728625,-0.3116450274281357,0.15539650870411115,1.2595488388316345,2,left
10.352,0.39354775539823694,0.9957582216067528,0.003915812388650541,-4.320886989801371,0.7762171190943927,-1.423204119812679,-0.3167563053816735,0.11859486118053075,1.2589331167289703,2,left
10.353,0.3957918782210399,0.9946584548300093,-0.0034015415787093765,-4.262356439627227,0.7745930193730959,-1.4068071587073288,-0.31001289343047295,0.1671448524290765,1.2597391229934787,2,left
10.353,0.3952443976792606,0.9954034848362852,-0.0056865282046947175,-4.2639643340714155,0.774633957721123,-1.4072549470006277,-0.28168784378205014,0.37095229672475905,1.2630634223062285,2,left
10.357000000000001,0.3949892022848842,0.9960788795238462,-0.014015863330830648,-4.37527593493275,0.7777684275720957,-1.438461807966728,-0.2749416917667492,0.41951123424311443,1.263860224241208,2,left
10.357999999999999,0.39605299715726516,0.9968658833081107,-0.024705221326132114,-4.101749506524605,0.7700561007954939,-1.361774240397779,-0.28005759260114,0.38270085257835385,1.2632590442550833,2,left
10.360999999999999,0.3959791580374693,0.9984773320128957,-0.028230204281436473,-4.555194421949631,0.7828530090283328,-1.4889090577597694,-0.2769704247602207,0.40488682098739737,1.2636192275310858,2,left
10.362,0.39418904543435973,0.9984063710750491,-0.030246063938959622,-3.957160098340875,0.7659666430301038,-1.3212316906260384,-0.2782289139154586,0.3958894872296967,1.2634751682639562,2,left
10.363,0.39501938059854325,0.9986350550352988,-0.030658104170796414,-1.4473237600257063,0.695035416970539,-0.6174650258194271,-0.2782426883538217,0.3957093566307094,1.2634696012805708,2,left
10.365,0.3918680762024669,0.9991657698849613,-0.031430117483643855,-0.849354948187707,0.6781407340942849,-0.4498002827061418,-0.2775881022567837,0.40049870338708393,1.2635496052138953,2,left
10.366,0.3819614006626197,1.000128064556521,-0.039019876041499334,-1.30266806965735,0.6909542194187988,-0.5769121835065018,-0.278375112354026,0.39480173197997737,1.263455956692123,2,left
10.372,0.3699460646932413,1.0021164405833765,-0.05107096682760266,-1.0293304439826745,0.6832184708159014,-0.5002522139348526,-0.2777579909534676,0.3991759364101507,1.263526592228911,2,left
10.373,0.35271485623067983,1.0012173573970888,-0.06321922659249476,-1.1404323490246555,0.6863784340794323,-0.5314367759364107,-0.27809868501179935,0.39693800924785644,1.2634923732382934,2,left
10.376,0.3339003165208974,1.002706675197347,-0.0766770813227888,-1.1421942665616174,0.6864014922594367,-0.5318873781219025,-0.27800669855493504,0.3972324883892211,1.263493502121137,2,left
10.377,0.31738041976302195,1.008789589969389,-0.09117559772613877,-1.083680798813123,0.6847734278103057,-0.5155225437614872,-0.2779388594594247,0.3981710618123564,1.2635130986881777,2,left
10.380999999999998,0.30138886985535324,1.0128420684542112,-0.10550072168864325,-1.1536326453655885,0.6867396461885725,-0.5351190663087297,-0.27807493519123794,0.39683311732919324,1.2634879793347182,2,left
10.383,0.28831197971934996,1.0155088848732323,-0.12078924893142484,-1.0993614714490305,0.685184172099176,-0.5198653461066465,-0.27793223883569285,0.3978564529747445,1.2635045928078603,2,left
10.386,0.27682594910488667,1.0187772360648795,-0.1336872517482396,-1.1282314995517564,0.6860691623738695,-0.528076021701919,-0.2780572145085461,0.39762325180817304,1.2635068415411288,2,left
10.387,0.2637756232211328,1.0228639940405682,-0.14232271949974068,-1.1223412792195986,0.685784129103824,-0.5262257829260639,-0.2779482237071751,0.3968859456609886,1.2634811672377104,2,left
10.39,0.24800384199324113,1.0260079737483512,-0.1467218971830715,-1.1135646946995834,0.6856813518649487,-0.5240083450818709,-0.2780485695787981,0.3984332673911013,1.2635265976654506,2,left
10.390999999999998,0.23042586461741724,1.0265749731902023,-0.1457600497594989,-1.1278216986235972,0.685968528541413,-0.5278119537822913,-0.2779644415676264,0.39662004043601484,1.2634756793436899,2,left
10.395999999999999,0.2146253469272091,1.0252969129466747,-0.1426218752855355,-1.1152008556464135,0.685610925532022,-0.5242713642911052,-0.27799764735987664,0.3977775573897615,1.2635066212355042,2,left
10.398,0.1968686354512586,1.020694216524212,-0.139664036061594,-1.1221907189396467,0.6860228572940141,-0.5265912471903448,-0.2780741549727725,0.39843390861727357,1.263528534836519,2,left
10.4,0.1757765031100888,1.0143122843077514,-0.13964212152730532,-1.121856797232176,0.6855233198745599,-0.5256750684168467,-0.2778277872171181,0.3949313862175484,1.2634240845179132,2,left
10.4,0.15731235559645584,1.0088299656371986,-0.14168819836229332,-1.1168474235426518,0.6861130405797569,-0.5254975629331629,-0.27826359898584047,0.40157578835960983,1.2636194874326871,2,left
10.405999999999999,0.13593833451786141,1.005339128638722,-0.13935036697139763,-1.1242023206138188,0.6855410970448589,-0.5262516677529592,-0.27771185088204564,0.3929902467979593,1.2633684286677043,2,left
10.407,0.10868584835269432,1.0044048072288478,-0.13530016241702367,-1.118602260644887,0.68583384116895,-0.5254374456413071,-0.27816873708502327,0.4001808241071592,1.2635773405467416,2,left
10.41,0.0805678859996603,1.0058369215355711,-0.1336152525471095,-1.1179735335339007,0.6862034381999227,-0.5259123687612894,-0.2781625939699281,0.3999506223637954,1.263573552759309,2,left
10.411,0.05370611790646376,1.0096077308045708,-0.13616379469002504,-1.128470154788723,0.684801835319995,-0.5260045399861302,-0.2772752134621286,0.38633409541143815,1.26317088181482,2,left
10.415,0.0332221069511187,1.0132204640426807,-0.13955905004822716,-1.1071755577260556,0.6873506634093818,-0.5253213219088289,-0.2794464919973965,0.41985369569993236,1.2641564866758626,2,left
10.417,0.016468177915183013,1.0180965890608142,-0.13409322087242104,-1.1351759431377637,0.6840952131176385,-0.5263824262089962,-0.27585116913659985,0.3642565824492494,1.2625257433288959,2,left
10.42,0.005292359082312605,1.0230218662640105,-0.1288296804673511,-1.1115252375331335,0.6868070043267515,-0.5254201946847645,-0.28059029876901154,0.43759685404742416,1.2646730285548065,2,left
10.42,0.0034786610101159507,1.025177312106794,-0.1260343938276261,-1.1125854195637708,0.6867414988752727,-0.5255625797238661,-0.3005108177842507,0.7454024808454127,1.2737289329691208,2,left
10.421,-0.0004743603668283577,1.0289952928084856,-0.11912791722331632,-1.1565623375882215,0.681548412978809,-0.5270866593845633,-0.3052462345096046,0.8187457947885866,1.2758699310899981,2,left
10.424000000000001,-0.005789665142049335,1.0340271887508257,-0.11433445554947988,-1.0478712156747356,0.6943036696592199,-0.5231750647001394,-0.30165549094054084,0.7631413502979542,1.2742459267490325,2,left
10.425,-0.007077838813026657,1.0403538830527819,-0.1032653152770156,-1.2283041492292335,0.6731543232049441,-0.5297193893248444,-0.30382630609484473,0.7966740071279776,1.2752343426765758,2,left
10.43,-0.007809862763644919,1.0444643300399679,-0.09201221322787535,-0.9902474480597632,0.7010559118586297,-0.5210715470587879,-0.30292970551087184,0.7830389005251638,1.2748086463647632,2,left
10.431,-0.008599216813280854,1.0441574854768876,-0.08855402720759736,0.008759455584919057,0.8181382852494337,-0.4848230770906081,-0.30294614298581835,0.782828968651742,1.2748540920792406,2,left
10.431,-0.010905649361899849,1.0487618323409147,-0.07935488411191727,0.24678367716146762,0.8460604653330606,-0.476191576260814,-0.30336845758516934,0.7900062603826565,1.2749926600812045,2,left
10.435,-0.013792489223686791,1.0536714641105247,-0.07378144407987378,0.06635870509702219,0.8248801432486559,-0.482722360265877,-0.3028538781124166,0.781414241194776,1.2748113406434836,2,left
10.436,-0.016077695160876503,1.055826761465056,-0.0755120773040228,0.17515946211782432,0.8376577318030191,-0.47878937803379235,-0.30326855954113713,0.7880980339477279,1.2749772251909428,2,left
10.439,-0.019209087974263947,1.060918938978943,-0.07548453377012684,0.13086750837013017,0.8324750385433624,-0.48040233486407297,-0.30300200957273316,0.7845167490036223,1.2748115688872879,2,left
10.44,-0.021930697011827635,1.0638875083889623,-0.07245560839180323,0.13035257697771782,0.8323447444738288,-0.4803736840203771,-0.30316371815075116,0.7852817450999782,1.2750283728411715,2,left
10.444,-0.023314987673894765,1.0660983556325927,-0.06311598029850696,0.15332765248785016,0.83518339870404,-0.4796405165851693,-0.30303865768895527,0.786334422532995,1.2747247998869398,2,left
10.444,-0.023539192721917016,1.0709009811304482,-0.05277881739667105,0.12586747046908142,0.8317591858021358,-0.48049371179509653,-0.3031609348560027,0.7845623878707716,1.2750830457051263,2,left
10.45,-0.022528598621639636,1.0766495090465629,-0.04422760937799008,0.14717516942653128,0.8344596344786237,-0.47986271406910974,-0.30307853671208757,0.7862075646173659,1.274804316926852,2,left
10.450999999999999,-0.02295320828533003,1.0846857003427532,-0.03689122278577897,0.1356474131352694,0.833021359954194,-0.48021979182126334,-0.30300979315169757,0.7851702164021379,1.2747710426150793,2,left
10.454,-0.024439494395168494,1.0944891157508643,-0.03421392889658736,0.1386217506208458,0.8331967108216076,-0.47998999925942293,-0.3033778125426849,0.7854458473307749,1.275385654773515,2,left
10.455,-0.02389161187525253,1.106806649400606,-0.031138745991191187,0.14073438958340823,0.8340014523450354,-0.48030561741150674,-0.3026037573240531,0.7858519066621008,1.2740113558614499,2,left
10.458,-0.023423579415287922,1.1205551553236512,-0.022155307286866377,0.13707069855349832,0.832612929431644,-0.4797628543899439,-0.30374249196660064,0.7849981231616601,1.2760544145408335,2,left
10.459000000000001,-0.02166598597688823,1.1328070991968509,-0.012799634796537061,0.1400172567753504,0.8341347561318802,-0.48048505785177437,-0.3025315145722983,0.7859543369290745,1.2738776406490615,2,left
10.463,-0.01669156276238061,1.1451040854336223,-0.011790998710575673,0.13830602753150492,0.8329966421029241,-0.4798862088120276,-0.3032265987286592,0.7853290812986282,1.2751335774503887,2,left
10.464,-0.010927230115307218,1.1562298242878506,-0.019893500084406754,0.13979578296272052,0.83316247138126,-0.47982620747490584,-0.3038488286185723,0.7851509261416507,1.2762257591772688,2,left
10.469000000000001,-0.0036860341022713944,1.165573908754924,-0.03081947806170898,0.13670994378433352,0.8345412829910435,-0.4811647652736808,-0.30116323759542657,0.7865209008606749,1.2714609588120145,2,left
10.47,0.005966629521809587,1.1752819771563223,-0.038803393469136326,0.14295041965887334,0.8312960181582654,-0.4781352966643472,-0.30613707397451406,0.7838740939728218,1.2802951480230154,2,left
10.472999999999999,0.018831196757432063,1.1828327234908604,-0.046099279910537194,0.13345274837277843,0.8361146700820412,-0.4826614905081486,-0.29975167514956463,0.7872960475577122,1.2689513360604245,2,left
10.474,0.03195406281988922,1.1890349949138779,-0.05569833786304615,0.14382677664989932,0.8310079134488884,-0.47782751557384223,-0.3050823609320707,0.7844304896882246,1.278422942574589,2,left
10.479000000000001,0.044331507343542256,1.197257656366097,-0.06390857230847541,0.1378366617771009,0.8339577085074581,-0.48062026046482564,-0.3049393689650156,0.7845429887435597,1.2781640513214978,2,left
10.48,0.05901583697558263,1.205963855576479,-0.07004676514384814,0.13211435157894658,0.8364392638922713,-0.483048533665052,-0.2947696634086009,0.7898904928735453,1.2601088890479535,2,left
10.484000000000002,0.07285486567305043,1.213710165816413,-0.07728462105841002,0.15643124910106362,0.8255025759575554,-0.47244885349582727,-0.3197648735062723,0.7767075554838867,1.3044919751183548,2,left
10.485,0.08626192149611991,1.2218220681313627,-0.08743808252762245,0.11137471544334104,0.8457856619314976,-0.49210412656770525,-0.2783209617883933,0.798573777299995,1.230898435171157,2,left
10.488,0.09503944551081774,1.2283201589247237,-0.09454757168005234,0.16927182934779778,0.8197498389341813,-0.46686475835647767,-0.33298629922176154,0.7697337379819476,1.3279714479278102,2,left
10.489,0.09697391054838522,1.2295149648476895,-0.09682126927753906,0.12092084836539445,0.8414786254904371,-0.48793568678570504,-0.5624136907972439,0.6486649491984731,1.73532878548869,2,left
10.489,0.1037832079432096,1.2342881150540002,-0.10593556979111289,0.12215880402066172,0.8408946803377906,-0.4873695906933289,-0.6170781101241769,0.6198272710117105,1.8323979933278598,2,left
10.495999999999999,0.11148040005338758,1.244848337811547,-0.12134921157466846,0.21463292287079294,0.7994650303646085,-0.4471775042779653,-0.5756394295789276,0.64169921716867,1.7588221959822607,2,left
10.497,0.11562601143711768,1.2533626718470834,-0.13545539297202264,-0.012587823875002083,0.9012769236594799,-0.5459588707049908,-0.6006200069247509,0.6284859839984289,1.803158584348099,2,left
10.498,0.12286214384349459,1.265801127633698,-0.14658475887126265,0.36413967183501916,0.7324855616668924,-0.38217793280894324,-0.5904779520962622,0.6339024166015688,1.785189266384748,2,left
10.498,0.12725652912709032,1.275595674251443,-0.1499416210923027,-0.13275681334807032,0.9551018629486295,-0.5982014314333551,-0.5902961396806529,0.6339069947040851,1.784812142020107,2,left
10.499,0.1277776777332185,1.2778345776014532,-0.15032380151942232,-2.2188473520017036,1.88970757568889,-1.5049999683667974,-0.5956659346253526,0.6311638390458769,1.794400052849518,2,left
10.503,0.1308698072998271,1.2901244940919807,-0.1553530305274458,-2.715732879241279,2.112293268908749,-1.7210190582915317,-0.5892622655492081,0.6345042943586667,1.7830069001655247,2,left
10.504000000000001,0.1330933249838121,1.3099048280161356,-0.16183133124707738,-2.3390064325249,1.9435363028167658,-1.5572424974885752,-0.5942055938472266,0.6318176521336852,1.7917389392787477,2,left
10.507,0.13262653478976222,1.3292751912571807,-0.16778248460514472,-2.566269966237326,2.0453562574159174,-1.6560270694840147,-0.5916241544225662,0.6334304287957948,1.787300942503049,2,left
10.509,0.1317676962490123,1.3545983323827349,-0.1712674421432204,-2.473677607473382,2.0038261055425197,-1.6158162922581423,-0.5920630728618861,0.6327674551738399,1.7878297347682737,2,left
10.512,0.12854678162266336,1.384666267672069,-0.17545893003022844,-2.4726413402318768,2.0034646470309383,-1.6152884954039173,-0.5929876087717607,0.6328087702123272,1.7897786083718903,2,left
10.513,0.12329437412617976,1.4188048484732123,-0.18306060418536946,-2.5207453503333435,2.0248694336178525,-1.6363060448399502,-0.5915868009168931,0.63312620313582,1.7870464771647019,2,left
10.517000000000001,0.11684047800681553,1.4572197861017555,-0.18541904968966477,-2.463041441546923,1.999162491864299,-1.611117914323235,-0.5927397687360145,0.6325138343404532,1.789091447673829,2,left
10.517999999999999,0.10633511176916124,1.4969470693518603,-0.18449883656121568,-2.5081125271485742,2.019292074499388,-1.630754638614945,-0.5922815206512982,0.6335387497171207,1.7887321721385634,2,left
10.523,0.09127224614793905,1.5399789489391251,-0.18119845784706795,-2.4834040887937,2.008099696272609,-1.6201027580882585,-0.5918988218187387,0.6319513955329294,1.7870143791983848,2,left
10.524000000000001,0.07265822184715881,1.58613793191574,-0.17032345894609702,-2.4899995147135225,2.0114508719234605,-1.6226850735974088,-0.5929733731963409,0.6340534676608174,1.7904711632325583,2,left
10.527000000000001,0.05054261797073857,1.6331631239274405,-0.15702260190518186,-2.494705531610414,2.012876181226564,-1.6252204059172124,-0.5916435090007255,0.631910159108706,1.786458905551718,2,left
10.527999999999999,0.02286366960098145,1.6788461051885635,-0.14094791822682612,-2.485673505034586,2.0096680542425647,-1.620693837898418,-0.5925356568013298,0.6330828176014611,1.7889967486594207,2,left
10.533,-0.010714691436791036,1.723431747091234,-0.12324220684218283,-2.49445059648043,2.0129316534749817,-1.624987650633119,-0.5929199391798661,0.634298120453491,1.7905017615230248,2,left
10.534,-0.042958809604036044,1.7687618867576016,-0.10432365081283555,-2.487399722416224,2.0097677516897052,-1.6219268856124374,-0.5905281262552875,0.6293569822663021,1.7826555392942782,2,left
10.537,-0.07228343958846245,1.8096678493886216,-0.0795859350762016,-2.493666805469287,2.01381392562463,-1.6237637142957417,-0.5951317472181203,0.6384305250467506,1.7975042344878212,2,left
10.538,-0.10007365868538602,1.8473472755351503,-0.05563180790047755,-2.486365739087886,2.007711159904191,-1.622618030800707,-0.5891595960138702,0.626812947104948,1.7783301433450558,2,left
10.542,-0.1152194795191864,1.8837225308992496,-0.04237550180803139,-2.495576294392906,2.0160633612455023,-1.6235963044074384,-0.5941717116151186,0.636496346926855,1.7943836279587737,2,left
10.543,-0.1310645020022418,1.921640678320342,-0.05010107915684447,-2.4860702795827367,2.007298343808887,-1.6226894226091024,-0.5939949974779066,0.636259719501672,1.7938776706554072,2,left
10.546,-0.15544975343709933,1.9647512683174422,-0.08004408110487912,-2.491069377705603,2.0121441580838075,-1.6229987032435058,-0.5845465858458445,0.6177290751094435,1.7634564626880918,2,left
10.547,-0.1806033836500468,2.009744491823938,-0.11489281552144476,-2.4978249859691086,2.017409571646051,-1.62432938205162,-0.607830117359677,0.6632352942839004,1.8383324613273175,2,left
10.552,-0.2324957433921224,2.0641911167581606,-0.13367969670642477,-2.4722618037817163,1.9961424913617272,-1.6202470230728536,-0.5692005387248223,0.5878031972295691,1.7141437169238762,2,left
10.552999999999999,-0.27465039236783023,2.1006929782790413,-0.13725941599162728,-2.5189483702046203,2.03526653097098,-1.6275039585151385,-0.6201639129244827,0.6872846501341047,1.877965105323173,2,left
10.557,-0.28965011795572726,2.1084645615445186,-0.134502324306138,-2.459159649116574,1.9850936193437736,-1.618255488287514,-0.8340335324728759,1.1049218068796738,2.5655322886243015,2,left
10.558,-0.3476995313387701,2.138972964449019,-0.1156279496810407,-2.509013569885836,2.026963961904719,-1.62594921494406,-0.8850070893200331,1.2043794897711448,2.7293648079628112,2,left
10.558,-0.4450662110794884,2.1753418815944316,-0.08788605540175451,-2.507904261118599,2.0259127329095925,-1.6258476909070843,-0.8463576799979193,1.1289866120154795,2.6051517145797956,2,left
10.562000000000001,-0.5485160628863455,2.1889974689394585,-0.06880577206399212,-2.4120451630954998,1.9457794516105384,-1.610824739924976,-0.8696682398503426,1.174454789093343,2.680066721170445,2,left
10.562999999999999,-0.6625968476292894,2.1998143824306435,-0.054715387341595645,-2.6473814686903046,2.1426639448211438,-1.6476258120185179,-0.8601920127695621,1.1559374291432118,2.6495955994532467,2,left
10.565999999999999,-0.7894832591030345,2.194872856412507,-0.043471166279031206,-2.2572438348100903,1.816214591892873,-1.5866373915135723,-0.860032150615258,1.155738084817338,2.6491370048200116,2,left
10.567,-0.8688625152219747,2.183427450877554,-0.03834372608384554,-2.7718394520621743,2.2468273174007374,-1.6670811537832835,-0.8650545278801882,1.1653152935469078,2.6651706446340944,2,left
10.567,-0.8882018123685422,2.1812854499845873,-0.0369139004812149,-4.93185142224713,4.053570529743188,-2.0048146969503113,-0.8590291583275823,1.153869333264318,2.6459562777134646,2,left
10.573,-0.9381063019957188,2.1629380325069016,-0.035303927043660296,-5.446466229986786,4.484164325209578,-2.08526941528483,-0.8637355932884698,1.1627464959471356,2.6609338397648474,2,left
10.574000000000002,-0.9854065223828301,2.133004820902163,-0.029224071350548185,-5.056352992833791,4.157850728650684,-2.0242797257752656,-0.8612054791491364,1.1579398766123414,2.6528653025421858,2,left
10.575999999999999,-0.9831924341948596,2.1059203338378887,-0.009113431117981659,-5.291521445244089,4.35433470328141,-2.061038798087641,-0.8617187290800365,1.1592067822217322,2.654644498927385,2,left
10.577,-0.9729266630182062,2.07481300502716,0.016929528379802314,-5.196060985203712,4.274975251312405,-2.0461324592958667,-0.862568349997964,1.160015267508411,2.656960803418943,2,left
10.582,-0.9559838315707145,2.04688815932758,0.026722947652917196,-5.194314259869183,4.272821381647974,-2.0458316653035897,-0.8610998671749941,1.1586111496374465,2.6529539983061543,2,left
10.582,-0.9449224079346894,2.0283239264871815,0.01962425227857993,-5.244905729497209,4.315822463319222,-2.05376976441348,-0.8625699639885173,1.1596873955526479,2.6568044562551885,2,left
10.585999999999999,-0.945861802575143,2.0134069740175797,-0.0014935985155527243,-5.184602874828476,4.265085942186841,-2.0443295879343757,-0.8615346569880085,1.15909558905976,2.654173890890564,2,left
10.587,-0.9350485237043137,1.99994509199203,-0.0454961547377531,-5.231102171506542,4.30340886942324,-2.0515733519475297,-0.8618475826678107,1.1597196248223218,2.6551861535419015,2,left
10.59,-0.9047052980663097,1.986604285160051,-0.11787636347184721,-5.206923164982211,4.285032078921162,-2.0478765644836305,-0.8624282551177866,1.1582005736080516,2.6557584545621484,2,left
10.591,-0.8559762824065629,1.9751633567929436,-0.2039565413177422,-5.210841736081772,4.285126844655457,-2.0483453313782327,-0.8609276359458677,1.1613322189123612,2.653892184146426,2,left
10.595,-0.7927480732029324,1.9675112273983713,-0.2621685476107249,-5.219808448755144,4.296531656634295,-2.0499239190156695,-0.8631259432533605,1.1565822479499186,2.656546826023798,2,left
10.597000000000001,-0.7138383636601675,1.9534436038745349,-0.24997206967591998,-5.206411043026954,4.282213225672721,-2.047688477290558,-0.8608359942763741,1.1617495716493118,2.6538886964894717,2,left
10.600999999999999,-0.6206088053317278,1.9280958987587216,-0.1681141440681704,-5.217262932912963,4.291263321772566,-2.0493834888442937,-0.86215978957095,1.1587662063884947,2.655426938339672,2,left
10.602,-0.5097682747795509,1.8890008714517705,-0.062010228938172776,-5.213340470643636,4.293753726401789,-2.049032661693086,-0.8631819210204354,1.1559590331985246,2.6563696508671715,2,left
10.605,-0.38673109407763584,1.834633125069237,0.03652894729512526,-5.2088432734906505,4.276802665988788,-2.0477303294639126,-0.8585542875906989,1.1679367373391836,2.6517463455178456,2,left
10.606,-0.2661579488906186,1.7729972414222641,0.11044428479869209,-5.2202932799339825,4.306055807244267,-2.050414053804012,-0.8671441827994997,1.145742147444396,2.6603463596452777,2,left
10.61,-0.1388704975506257,1.6969517733075516,0.1426991062301289,-5.2063521831063575,4.27342062384432,-2.047282318207313,-0.8561239152300657,1.1742570867380908,2.649333690467691,2,left
10.610999999999999,-0.019665775142049365,1.6173041467718696,0.1502297932086975,-5.215571200995947,4.2932497893988035,-2.049272970553338,-0.8653201082023585,1.1504473311115948,2.6585153898167047,2,left
10.615,0.09560272065230543,1.528376227775367,0.14740731688004471,-5.2198998303182,4.307319099977693,-2.0504258930853316,-0.8650577469359488,1.1510565545395908,2.658221632597679,2,left
10.615,0.2115320650608734,1.4293523602124507,0.1363309218763712,-5.19427959228825,4.240166847386802,-2.044341927172286,-0.8475780424745467,1.1965869285085406,2.6408974316207385,2,left
10.62,0.30630870668561605,1.3408607045891725,0.12636200801423147,-5.243370732019198,4.366018728159547,-2.055869121820879,-0.8905524304694381,1.0847192732751973,2.6835189346099853,2,left
10.620999999999999,0.4287256968033981,1.2157312113013985,0.10677680194788233,-5.179765301865228,4.203944737942916,-2.0409808832464327,-0.8192983468651747,1.2701860414316526,2.6128455835793973,2,left
10.625,0.5123654522766798,1.128162485095135,0.09258910923468189,-5.233109230326878,4.339451303153287,-2.0534447175629964,-0.9132806277447145,1.0255672227625894,2.706061644585386,2,left
10.625,0.5328198190330722,1.1054753525084853,0.08813886959674752,-5.2312884997045135,4.335477951892029,-2.053057012864368,-1.3077197601264234,-0.0014735059223372482,3.097138081403882,2,left
10.626,0.621208231378486,1.0108454102580766,0.07119527554733787,-5.130573429429817,4.077908180042575,-2.029426509007723,-1.4017002754927006,-0.24607315118271306,3.1903533534575637,2,left
10.629000000000001,0.7316496724194804,0.8887072054254639,0.05540030002925417,-5.37866719165512,4.71142325992007,-2.0875765681020084,-1.3304504190695772,-0.06062261880165931,3.11968830077237,2,left
10.630999999999998,0.8459695930033797,0.7702480159439729,0.020176264813851336,-4.967105535599378,3.6608625669958785,-1.9911392765424536,-1.373417326661912,-0.17251413331330767,3.162283758956466,2,left
10.635,0.9399764773128807,0.6803963018738128,-0.01829610757747664,-5.510033225586817,5.046604009423256,-2.1183436558489546,-1.3559482052506344,-0.12688202569661883,3.1450110895195955,2,left
10.636,0.963912633975483,0.6585782876755963,-0.028633669756397688,-7.788466441104392,10.863095020548815,-2.652455649820027,-1.3556743764800503,-0.12646970030569316,3.1446427740365506,2,left
10.636,1.0565458019089466,0.5809359162392529,-0.07349987354343375,-8.331398659248812,12.248850090809256,-2.7796699123972646,-1.364877961705293,-0.1500147539298722,3.153902296961557,2,left
10.64,1.1942911865939183,0.481262095755575,-0.14439165625803513,-7.919816683615775,11.198227770461084,-2.6831877957414263,-1.3538616376834258,-0.12174140506439997,3.1428484546715474,2,left
10.640999999999998,1.3039443010325296,0.4271597424850584,-0.19943371297608398,-8.16796320202544,11.831903303399162,-2.741454684535389,-1.3624288377544396,-0.1438726040534603,3.151398780105187,2,left
10.645,1.4293959095519089,0.37336477105639865,-0.2545828266444386,-8.067151779364941,11.574040089654819,-2.717610410442506,-1.3578461944277849,-0.13159330874039746,3.146966268323423,2,left
10.645999999999999,1.5415771837173984,0.34075177217381636,-0.29615774944994244,-8.065463137254863,11.570469405011258,-2.7175161520793045,-1.3588066198256845,-0.1352100551397576,3.1475617734950863,2,left
10.652000000000001,1.6442050498823995,0.32377819055463763,-0.3196777133297479,-8.118677904149015,11.70558173611257,-2.7296925513683425,-1.3601895006812021,-0.1368904088366828,3.1495464929927524,2,left
10.652999999999999,1.7400722234768455,0.3100861979545543,-0.3379192195938887,-8.055125863504088,11.543671602064652,-2.7149240249040645,-1.3578771895116735,-0.13322461956977721,3.1465015617329097,2,left
10.654000000000002,1.8027579789270116,0.3067902608492912,-0.3425730623026395,-8.104333662823432,11.669877503296775,-2.7267087742111205,-1.3600184280262284,-0.13692323611557194,3.149223929924144,2,left
10.654000000000002,1.8381959950347144,0.30480379525489787,-0.3299975714572134,-8.078345685751348,11.60160588752445,-2.7198095215961837,-1.3586896750730642,-0.13344679917296523,3.147912118454931,2,left
10.659,1.843354050425798,0.30492376319790215,-0.3075163287318263,-8.083305125628216,11.61759731119515,-2.722362955885565,-1.358980885204309,-0.13768622677251774,3.1470883886270284,2,left
10.66,1.82976166312258,0.30113104709302274,-0.2827449170632761,-8.091751623356009,11.635070450734872,-2.7226363553665536,-1.359642538940201,-0.13145388075592493,3.1502860253908516,2,left
10.663,1.8098475287842049,0.2892619268760893,-0.26075439333588946,-8.078424695614016,11.604311518080005,-2.7208730393994554,-1.3583378810016233,-0.1399241607526065,3.145201383773338,2,left
10.664000000000001,1.7783430437697914,0.27129762040441063,-0.24115204680332905,-8.08988396062978,11.633585648704447,-2.723570082808971,-1.3597874453152894,-0.13104796275113073,3.15067938367831,2,left
10.669,1.7360006283779787,0.24828157078774551,-0.2228791362226018,-8.084238166094782,11.613142422494366,-2.7197253465111917,-1.3588570944305054,-0.13593477125803777,3.147423144649256,2,left
10.669,1.6833194615678524,0.2263110350409818,-0.20267986721100154,-8.082934084638662,11.623606823257262,-2.7251834336500442,-1.3585160939237608,-0.14134819675622096,3.1450703295713716,2,left
10.674000000000001,1.6247883438363948,0.20920319120200662,-0.17769594063154914,-8.08988472234847,11.620765515185719,-2.718212879775053,-1.3607619705360658,-0.11961976948919947,3.1561082612821396,2,left
10.675,1.561359104715099,0.19472118589267934,-0.15409874880953164,-8.080640285453317,11.619118704954401,-2.725215108652632,-1.356462099981551,-0.15956356509525643,3.1355071739596063,2,left
10.68,1.483216114151611,0.1851499897241228,-0.13299058899369612,-8.087217367024982,11.62321004655047,-2.721456086517994,-1.3620120823496489,-0.10834918314707398,3.161985912668527,2,left
10.68,1.3947490227891213,0.17894360562867187,-0.11635514041110954,-8.089044704673817,11.616974578458976,-2.7173238925338037,-1.3573691252188564,-0.15107986670899023,3.1398743923828807,2,left
10.685,1.2990919242100156,0.16927727838556267,-0.10062332481669743,-8.07395213380341,11.626247728818427,-2.7337636267696226,-1.3575358254381837,-0.15003178178865767,3.140504952324606,2,left
10.686,1.2063826454210913,0.16065572618617294,-0.08209837634159714,-8.103627843780199,11.613315898165368,-2.7036636477654308,-1.3662484983617234,-0.06818321153981094,3.1825484610435764,2,left
10.689,1.1282439117747578,0.15451772090957222,-0.05800464364228926,-8.06490021423732,11.628370958593077,-2.7421751460643082,-1.3447911161235875,-0.26924244168086436,3.079185749550361,2,left
10.689,1.0469374306501238,0.1462504309444458,-0.012342729759582682,-8.09751934382912,11.616478189999677,-2.7100800041302966,-1.3803726678365593,0.06410937144853596,3.2505568222954326,2,left
10.693,0.9937031924477606,0.13906611918497977,0.021174164270808107,-8.096166914109098,11.615735372758811,-2.710864653437384,-1.3334499571960552,-0.37560134783337273,3.024541634820314,2,left
10.693,0.980528435167444,0.13722493087413667,0.030317399483101106,-8.035196995238095,11.641226600493852,-2.7722891430572245,-1.1364428402082978,-2.2211809961142066,2.0756443690788906,2,left
10.695,0.9382939199357858,0.13166362321298528,0.06418407595521548,-8.185778422012046,11.580151658954621,-2.621432544356176,-1.0895432669700669,-2.660948434275573,1.8496741425018484,2,left
10.698,0.8768997256700924,0.11313577014319984,0.1017168617849485,-7.935772845652154,11.680767807703432,-2.871521141531719,-1.1250997878417617,-2.327535255769029,2.020996573907381,2,left
10.699000000000002,0.8509790015676193,0.10053818834705297,0.111463284979812,-8.265728759636108,11.548358827110988,-2.541662176491366,-1.1036328765151948,-2.528571143838284,1.9176153492148662,2,left
10.702,0.8433718244159487,0.09625486772404815,0.11512705811793714,-9.649006252787824,10.990583425709731,-1.1571436942929214,-1.1124286036222748,-2.446926136056834,1.959820241959808,2,left
10.703,0.8202088429078553,0.07585293411141131,0.11895592704619086,-9.979181058814422,10.858385803069801,-0.8272682437812631,-1.1124166136601232,-2.4454400646178147,1.9601035806087752,2,left
10.704,0.7881041870455239,0.04793494137246137,0.11269758997413726,-9.72889350512534,10.95865798980644,-1.0773640885375073,-1.1080298528797194,-2.488798728907764,1.9384898917393893,2,left
10.707,0.7604214569578591,0.0247429002062974,0.09853514688134246,-9.87954478336186,10.897904423792124,-0.9265517786755418,-1.1133247285317789,-2.4369590130436793,1.964472911069711,2,left
10.708,0.7277854889944273,0.0012819046516332191,0.08586409136746201,-9.819030741950918,10.92331234022743,-0.9878397834148781,-1.1091349106625428,-2.4771726215320693,1.944085686246305,2,left
10.712,0.6912125605752784,-0.021343140400725893,0.07205541993798925,-9.81647717635757,10.922186372889318,-0.9888664423286676,-1.111599899115772,-2.4559811922506842,1.9555493699751396,2,left
10.713,0.6566801017912358,-0.04476217971780175,0.05421317257379017,-9.850994831860007,10.911293230931769,-0.9564656631279478,-1.1105531630694332,-2.4596648281892355,1.9518252146880086,2,left
10.718,0.619753681837788,-0.06860803064316737,0.035232461558608236,-9.810156400996426,10.924790447123959,-0.9952298556876106,-1.1108387759858789,-2.467532119245087,1.950931780970828,2,left
10.719000000000001,0.5847505451570856,-0.09158404903450713,0.018015467292864802,-9.841151907127568,10.913575197225839,-0.9651167681320245,-1.1107960989828805,-2.4549981404338403,1.9535101022068753,2,left
10.724,0.561440234582163,-0.1148215682114456,0.004611621396071445,-9.82692941746948,10.921779543700994,-0.9811184785695246,-1.1106810512919307,-2.466384551717708,1.950737110729881,2,left
10.725,0.5469469863871359,-0.13662948018652765,-0.004945525447051748,-9.824332547149474,10.914846819904492,-0.9780170201060202,-1.1113534827623726,-2.4601782582682437,1.9539556099831539,2,left
10.728,0.5373401940980854,-0.15629258411489086,-0.00782486039401209,-9.839453248371228,10.922490028744576,-0.9726978801238867,-1.1094366859262847,-2.4590059672195252,1.948841467244097,2,left
10.729000000000001,0.5389886998889577,-0.17489633022569634,-0.0044531242758743955,-9.818745989249477,10.913987831430005,-0.9813854826423007,-1.1131536432209894,-2.467896988893023,1.9573342009805876,2,left
10.732999999999999,0.5499294065641664,-0.19200292357214416,0.006715854408581872,-9.836296099688818,10.920341871531953,-0.9734138471444157,-1.1077677581666854,-2.4531454611480976,1.94543016112143,2,left
10.734000000000002,0.5682241882966832,-0.2066352306632886,0.02528586967542735,-9.831723220433165,10.922300467463895,-0.9780742556480452,-1.1134792261551105,-2.469147849250798,1.9579768637490513,2,left
10.739,0.5954089346418383,-0.22093409259866403,0.04284134491208366,-9.814124347913168,10.904497062289991,-0.977897007536529,-1.1102265601183876,-2.4594642673690568,1.9509536417349551,2,left
10.74,0.625760098928685,-0.2308633341124288,0.05746257953098678,-9.858998142521859,10.94330839696925,-0.9736426828365202,-1.1071891029122156,-2.4532838007673115,1.943781112421724,2,left
10.743,0.6562324522466372,-0.23441016039989304,0.06866971652562656,-9.790941094159079,10.885858155678234,-0.9811049582414694,-1.1200990617392508,-2.4838792541755432,1.9733390098636645,2,left
10.744000000000002,0.6837823028315194,-0.23505928104966153,0.07619056176042002,-9.863697004991367,10.947017976828121,-0.9729427744993029,-1.0962277285303608,-2.426499826198384,1.9188563546592057,2,left
10.748,0.7093166613453739,-0.22948095385001618,0.08020978789802906,-9.821333179806317,10.91181026608824,-0.977986123716904,-1.1268624105131162,-2.500321026666869,1.9887373887521516,2,left
10.748,0.7357302077128605,-0.22016140426536193,0.08101517408779998,-9.7864323196115,10.880812451729753,-0.9807107959345769,-1.10129608606485,-2.4386338500289213,1.9304321894601444,2,left
10.752,0.7603598963774899,-0.2064397338653809,0.08279321426695581,-9.941819053313393,11.015415136339795,-0.9661315105369251,-1.1019577327342556,-2.440525326191616,1.9318839091257,2,left
10.753,0.7824826250380718,-0.18722168342388393,0.08135913606508222,-9.653179620870038,10.765981644202942,-0.9936465401210759,-1.1508013438924978,-2.5574213831450927,2.0434645338200896,2,left
10.755999999999998,0.8004132234005228,-0.1670696244415207,0.0755113805841965,-10.023907873804117,11.086227855487785,-0.9582108090202363,-1.030790997302868,-2.269845017753515,1.769371802465315,2,left
10.757,0.8147552096823969,-0.1418722284885404,0.06929278987142376,-9.714370916221894,10.818880621815305,-0.9878341248716279,-1.2297563848933135,-2.7467253742809508,2.2237773429057017,2,left
10.761,0.8233117235962879,-0.12388953856504915,0.06427904960620455,-9.722896107346465,10.826066555588145,-0.9868736337680541,-0.9673326759216984,-2.117719397553689,1.624439433301647,2,left
10.762,0.8243178752223784,-0.11840485061731928,0.06275755642341814,-10.312619421661825,11.336024119317036,-0.9309165598371618,0.13433689425378606,0.5222289102624799,-0.8916441143116277,2,left
10.763,0.8239637521666204,-0.10147033399243588,0.05948093660458629,-8.862996676739233,10.082654593148327,-1.068631282499867,0.39674705213389955,1.1512043287335094,-1.4909669861582455,2,left
10.765999999999998,0.8220991030030711,-0.07338071534199997,0.05707861206938975,-11.266554194463213,12.16080703716187,-0.8402578675209419,0.1977963256886046,0.6743570308079052,-1.0365777168547852,2,left
10.767999999999999,0.819997216081544,-0.05745325519223717,0.05868247456968782,-8.096307821927589,9.419702888075456,-1.1414687065594809,0.3178122493476874,0.9619459828810311,-1.3106766316609506,2,left
10.772,0.8188505298040029,-0.05152520360675791,0.05937542047981165,5.210739684717528,-2.0859750220972684,-2.405649415796543,0.2689200031722605,0.8449402310506132,-1.1990420475624375,2,left
10.774000000000001,0.8144768035259957,-0.03672938918212816,0.06433108682037758,8.380873908997756,-4.827178472920071,-2.706797586615243,0.2683629996134519,0.8432847604020529,-1.197706434490315,2,left
10.774000000000001,0.8061666166209478,-0.015777643367718516,0.07397151424060089,5.977481396516967,-2.7488749539451742,-2.478511827272699,0.29377928809081655,0.9046335665220929,-1.255845155585007,2,left
10.776,0.7961099545508539,0.004730087530567819,0.08522542026095933,7.426995616206176,-4.002358181135417,-2.6161820187666303,0.2632940093531595,0.8311492956079903,-1.1861299051552843,2,left
10.776,0.7859612391895506,0.027544971419517464,0.09805446043846439,6.837188688941054,-3.4924383535304173,-2.560145004696193,0.2871008801887387,0.8883833760430124,-1.2405410164131276,2,left
10.780999999999999,0.7705951608743098,0.04824201496555015,0.10974595400294918,6.829056431295127,-3.4849583481608346,-2.5594533638580166,0.27406262160189676,0.8574985250987956,-1.2108407847818357,2,left
10.782,0.7507229482101253,0.06807234768761984,0.11897580551265013,7.137859442391846,-3.7528976586678087,-2.588613662036415,0.27751335816743844,0.864611096375387,-1.218471856614801,2,left
10.786,0.7306668283447431,0.08865883294179122,0.12531981616974408,6.768075103493268,-3.4318489580186187,-2.55373586107891,0.28005393217303565,0.8726886940391232,-1.2247049654158548,2,left
10.787,0.7079970824498591,0.10544256481517814,0.13328932150759326,7.055911594200541,-3.6820240873080006,-2.580830276405493,0.2752163736480241,0.8586571755525836,-1.2131279565805344,2,left
10.790999999999999,0.6825741465405957,0.1222098275351141,0.14139160425860509,6.900626049155943,-3.547199421868164,-2.5661863905991855,0.27990554494072745,0.8718375441848729,-1.2242588698151926,2,left
10.792,0.652870922477881,0.13841161290367526,0.14556387429922446,6.936769367320423,-3.577345002672142,-2.5698322014675012,0.27618235791432993,0.862932259973404,-1.2157593381495708,2,left
10.796,0.6210956981701853,0.14948832089303304,0.1455617069836635,6.976102132319018,-3.6149107652201096,-2.572883657714733,0.2793921192931954,0.867020805954202,-1.2223079887485242,2,left
10.796,0.5894885019800449,0.1613521718323176,0.13568660554387266,6.9080112653849906,-3.5499125249137817,-2.5675957265498175,0.27576487185040316,0.8665629604007586,-1.2158109956013234,2,left
10.8,0.5545511134431963,0.17463268365628443,0.1218784898315636,6.970937555187268,-3.6118334916669945,-2.57212477687791,0.2802879943047968,0.8651179826657637,-1.223475100159105,2,left
10.800999999999998,0.520869080783728,0.18619950895941043,0.11036530863279334,6.929266729967609,-3.5698156261123604,-2.56932125257985,0.27563159643685964,0.8670546204721326,-1.2156825742242745,2,left
10.805,0.49168626538638005,0.19817374789658654,0.09970222346474215,6.948935580996395,-3.586768575988663,-2.571199716550467,0.27806101041407233,0.8653096062766998,-1.2195890125309554,2,left
10.806,0.4647574964783201,0.20916617622658737,0.0941291184533737,6.942882824534115,-3.59264439192085,-2.5684820970403335,0.28144851595063936,0.8669063316598329,-1.2259097540025194,2,left
10.811,0.44280319472151214,0.21923107706929706,0.09019562150263238,6.945912969784905,-3.5698775180353515,-2.573666997427623,0.26873992677530734,0.8649942704474329,-1.2030806834552772,2,left
10.812000000000001,0.4277425950696439,0.23080029812750985,0.08343143766530839,6.938882679312461,-3.6016705733612495,-2.5656932608033847,0.291926315804345,0.8676238725712506,-1.2445457754942897,2,left
10.815,0.41869142979494633,0.24586816327925742,0.07719355026585527,6.949706963487431,-3.570658672161014,-2.574510116810477,0.2622391827954036,0.8644532409457111,-1.1914970600833896,2,left
10.815,0.41320329723991617,0.2635307843016176,0.07722246134601617,6.943487915667026,-3.5886062321191208,-2.5694185336860853,0.2869894541694485,0.8670163817840995,-1.2357076287267845,2,left
10.82,0.40677566120008285,0.28475843211019125,0.07891339579115064,6.930744025786261,-3.5976985965913464,-2.564329810371845,0.28645105624198675,0.8672678286549631,-1.2348099957953278,2,left
10.821,0.3968576846421006,0.3073557209270477,0.07426043592668358,6.976960895036553,-3.549653300360087,-2.5856962123481635,0.2388244258887391,0.8613291608681919,-1.149524074675772,2,left
10.825999999999999,0.387223246986342,0.32252007238404196,0.06090219199305334,6.891725405793583,-3.639159492509639,-2.5461155912168376,0.35573121196079116,0.8755465685728562,-1.358798146175701,2,left
10.825999999999999,0.38553337817316213,0.3378351726331482,0.03406260701367134,7.001785856440525,-3.5247640742728397,-2.596998793907,0.16193261817554322,0.8520722627662658,-1.0118976471524455,2,left
10.83,0.3877357135502043,0.3506857712296744,0.015296811832264294,6.909620629302726,-3.620018167689906,-2.554490167665104,0.4175505420226045,0.8830258810587286,-1.4694557115608473,2,left
10.831,0.3884281236773426,0.3545778634911978,0.010543625901024747,6.911343939103876,-3.616785869276769,-2.555572205868185,1.4906442810387621,1.0134612583573506,-3.39033256341103,2,left
10.832,0.3924589724804984,0.36557262184112715,-0.006044632916120011,7.090384456021946,-3.4379786396049115,-2.6369298580502947,1.7462774325163797,1.0444578028124991,-3.8479240185933565,2,left
10.835,0.3987795496445148,0.38229899099064774,-0.019731336841641463,6.650902509052063,-3.8779378635713915,-2.437007699979289,1.5524686208677636,1.0209298627853955,-3.5010064607059337,2,left
10.835,0.4063423628947596,0.39660136097694976,-0.02008298954881404,7.37964716799609,-3.148541756936599,-2.768501834662033,1.6693469768624147,1.035155077083596,-3.7101992535779686,2,left
10.841,0.4115937229402647,0.4043369562438873,-0.021608686308813626,6.418243375816372,-4.110420484307536,-2.3312352580116174,1.6218206898471996,1.0293179562363837,-3.6251724050850123,2,left
10.843,0.41423190912055086,0.4071251015826478,-0.021591470904044795,2.380834074779323,-8.146362702531254,-0.4956788308496607,1.6210969164563906,1.029315832532418,-3.623810363677258,2,left
10.843,0.42448202469905477,0.4159715742746905,-0.018137721748290567,1.4191513842616155,-9.107941876807859,-0.058361520456564675,1.6460885392822362,1.0322706271437827,-3.668612327880195,2,left
10.844000000000001,0.43704382737289693,0.4236311383205411,-0.01363321098372782,2.148332009259681,-8.37901401774356,-0.38993496062988203,1.6161915975703072,1.0286749093425311,-3.615067728186232,2,left
10.845,0.44647767090500423,0.4270349338161815,-0.00853454892292797,1.7084894303660525,-8.818585921167763,-0.18994720110638771,1.6394118278201972,1.031553071813108,-3.6565740465314733,2,left
10.85,0.45654561985895925,0.42996897661198097,-0.001540442741166948,1.8875090886105474,-8.639756248493047,-0.271301058410152,1.627014024834343,1.0298559310456104,-3.6345688279839434,2,left
10.850999999999999,0.46303792256895565,0.4290585432803863,0.006143631308835505,1.8899320360600953,-8.637275460455893,-0.27251036683754404,1.62962512044207,1.0305020994607035,-3.638920479274314,2,left
10.854000000000001,0.46438597634198603,0.42552411750686187,0.013660175109917991,1.7962394467994376,-8.730889014798006,-0.2297239008959683,1.6332647433247918,1.0305415423340625,-3.6458309853193684,2,left
10.855,0.46378286089771137,0.41839338187980646,0.02465008060110921,1.90847567147588,-8.618830541164648,-0.2810028940203161,1.6272586122418828,1.030132496807472,-3.6347646018278557,2,left
10.859000000000002,0.46014745995552253,0.4087446705485592,0.03645381884181466,1.8210852937424757,-8.706022290741167,-0.24103028262122683,1.632655356230316,1.0307902588117803,-3.6444218728282705,2,left
10.859000000000002,0.4506461708840712,0.3970137935288309,0.04976918216976411,1.8682360761209407,-8.658979927387662,-0.2625665686263363,1.6295020186594282,1.0298155028936027,-3.6393630216782764,2,left
10.864,0.43849727297413615,0.381498953870233,0.06563712987773676,1.8573043980776744,-8.670018983434806,-0.25780750411050635,1.6300210809463658,1.0312309264108466,-3.6389539257451626,2,left
10.865,0.42696165153841237,0.365612278270685,0.07830236626986466,1.8452265934739254,-8.681673541391394,-0.2516501635560719,1.631601926557632,1.0294057788571904,-3.643779930813356,2,left
10.869000000000002,0.4154550337430889,0.34849210576500356,0.08900189488530647,1.8661460805960401,-8.661504796145598,-0.2623034184956272,1.6290548257184907,1.0312463470317597,-3.637092696097607,2,left
10.87,0.4062518439760937,0.33203512665557416,0.1004771307951082,1.8467289015921216,-8.67999353105469,-0.25207641097294914,1.6311044874715803,1.030253476836275,-3.641990762773685,2,left
10.874,0.3988322794529222,0.32024130305121123,0.11103507592010081,1.85963368798382,-8.6678321948525,-0.2590575788150165,1.6310745735447694,1.0291783683604119,-3.6429979169344855,2,left
10.875,0.3911815874505039,0.30958091171149116,0.11978037384819018,1.8536655971285976,-8.673800016431114,-0.2563553748467498,1.627890537861353,1.0334785938172482,-3.632658700939181,2,left
10.879000000000001,0.38600249681220106,0.30206495534993305,0.1280648005851132,1.855022219534945,-8.671082850129313,-0.25490268147039485,1.6345786812782748,1.0256000082571712,-3.653234067248585,2,left
10.879000000000001,0.3834302225984906,0.29975688097429165,0.13632794979358598,1.8552036710833273,-8.674018741558637,-0.259712432868905,1.6257083365289524,1.0356811202190825,-3.6263096369605012,2,left
10.884,0.381508305796866,0.2997442794568621,0.1425639103036704,1.8556923948705495,-8.668876742547173,-0.2528835936914039,1.6332332682333082,1.0272808878644886,-3.6490001556749383,2,left
10.885,0.38018169619552655,0.30690632079364566,0.14991882961132652,1.8541623865850836,-8.675368301763786,-0.25970358629296236,1.6328452214898332,1.0274826612322514,-3.6480588513668626,2,left
10.889000000000001,0.37811308286569734,0.3181255596574596,0.15906212766645622,1.8550344192945312,-8.671628523174089,-0.25575878783938183,1.6189868877643043,1.0435671163752445,-3.6056633632383717,2,left
10.89,0.3777897919311618,0.3301702350475635,0.16458289582683464,1.8580299190374399,-8.666164174952337,-0.25337466059121794,1.653316073650601,1.004072875689629,-3.710338187801133,2,left
10.892999999999999,0.38271334603318474,0.35160308382620586,0.16702136129210451,1.8478275931432697,-8.687177407839249,-0.2651226565929158,1.5962952296699835,1.0695377216661774,-3.5366063038279503,2,left
10.894,0.38709707162009765,0.36664287256321026,0.16747147762394746,1.8666009544171567,-8.648353380165418,-0.2432723006867779,1.6715433836952265,0.9832021897640042,-3.765818892437748,2,left
10.898,0.38785304248983365,0.3720120881257287,0.16739012184921848,1.8423115958933272,-8.69838990839188,-0.2712427273771717,1.9872546733043177,0.6207908455192854,-4.7276836175007855,2,left
10.899000000000001,0.38934316348910825,0.3917836137953927,0.16722345387621307,1.8626709642276762,-8.656534153348804,-0.2479330549908731,2.062514721677503,0.5344823143277178,-4.956894754010836,2,left
10.9,0.3907314516433562,0.4178788326942653,0.16339604803265767,1.8623629563711246,-8.657427121550104,-0.24866429672029017,2.0054557978286542,0.5998973106801313,-4.783134955752381,2,left
10.902999999999999,0.38989653155171083,0.43850268107615376,0.16050412901521366,1.8225188404310853,-8.738252915446996,-0.2926704385368454,2.039869387124244,0.5604650546675256,-4.887914815857268,2,left
10.904000000000002,0.38829547257529784,0.45917879885518065,0.16083669543078738,1.920257312180405,-8.539780316550242,-0.18444134632804846,2.0258696446959448,0.5764957196645136,-4.845298806906266,2,left
10.909,0.38737743638957334,0.48299272975724133,0.16104132163007961,1.7581968269494082,-8.868867142463774,-0.36387195608670786,2.0256628689944103,0.5767125557985815,-4.844688142334011,2,left
10.91,0.387491799107924,0.5003229198412626,0.16236346445011146,1.9719989879411752,-8.434753558264873,-0.1272401115966445,2.033026360720152,0.5683713301671045,-4.8670197478427735,2,left
10.91,0.3878996597041855,0.504629392782868,0.16248214786471804,2.870184066767445,-6.611865807423598,0.8658558467442972,2.024193782067699,0.5782929954251331,-4.840308881828779,2,left
10.913,0.3892364819670634,0.5151564841549703,0.1612738488276788,3.084050448653315,-6.177680223800319,1.1024326923383505,2.0310940286917463,0.5706701956916145,-4.861059194731551,2,left
10.913,0.3917143044888868,0.5320158195135022,0.16220613164764552,2.9218768381455944,-6.506888604877755,0.92308143803291,2.0273512731160706,0.5746764508967752,-4.8499211496614425,2,left
10.918,0.39493857182850345,0.5457551019658082,0.16266290456705673,3.0197434659076388,-6.30829100110199,1.031262851967713,2.0282157468896562,0.5738070796638776,-4.852442729380748,2,left
10.918,0.39970356392002115,0.5630502437783322,0.16242065281360912,2.979811145171102,-6.38917718602989,0.9872042761854248,2.0292383377627683,0.5728804248491721,-4.855332543281225,2,left
10.923,0.4026685854094798,0.5820498359148131,0.16583840071315403,2.9794800165829542,-6.390153188189155,0.9866826896639576,2.0274058535936836,0.5741931038038697,-4.850471365771295,2,left
