time,gFx,gFy,gFz,ax,ay,az,wx,wy,wz,subject_number,foot
0.722,0.10870247301030461,0.9808002138200037,0.09980111743973463,-0.030400090801439985,0.004000124684949263,0.10699989437596087,0.01579992910590465,0.028500299131460613,0.02639985723292789,1,left
0.723,0.10556151409658643,0.9824494294083014,0.10091651285742434,-0.029205395825680373,0.0038538363452447935,0.10832297777614354,0.01580009878047925,0.028499583193054585,0.026400198930136908,1,left
0.725,0.10301787194524503,0.9823813257535914,0.10062013188604381,-0.03271804147534414,0.0042833970868231645,0.10443286890187925,0.0157999035551562,0.02850040696655074,0.026399805766601503,1,left
0.726,0.09943387744535176,0.9832136870947499,0.10011456662588794,-0.027178499216729806,0.0036063459724850534,0.1105676645872033,0.015800039992354548,0.0284998312170564,0.026400080554861788,1,left
0.73,0.09728330840665926,0.9843727903313623,0.09928161594695123,-0.034085186141134594,0.004450160054783676,0.10291883202256298,0.015800085088848698,0.02849964101614538,0.026400171333488785,1,left
0.731,0.09694859678210066,0.9842501512494215,0.09945943320019554,-0.06035271297877755,0.007666696698028248,0.07382845062705277,0.01579973173263689,0.028501131907411104,0.026399459771970613,1,left
0.731,0.09524717218464096,0.9845193607865748,0.09871682779638881,-0.06675437238383486,0.008448991937137326,0.06673890482552187,0.015800458819687252,0.028498064028457247,0.026400923984731647,1,left
0.7340000000000001,0.09245493793575321,0.9855225614368359,0.09843271519416719,-0.06203608963148025,0.007871136294954159,0.07196424364044618,0.015799440186229103,0.02850236217828671,0.026398872599660957,1,left
0.735,0.09171112662243469,0.9866217332627829,0.10041973060101259,-0.0647911855447826,0.008211413653183442,0.06891294205596143,0.015800442082543442,0.028498134498491572,0.026400890349359486,1,left
0.74,0.09119454219649767,0.9878427865272218,0.09825175213290963,-0.06374190912421707,0.008076644224224078,0.07007525677142087,0.01580001272938889,0.02849994651510309,0.02640002552983131,1,left
0.741,0.08980050282681405,0.9881980350680184,0.09538011377019748,-0.0636426685254653,0.008073394884526219,0.0701847684671668,0.015799160873201514,0.02850354042189368,0.026398310253087774,1,left
0.7440000000000001,0.09129883140467404,0.9891366228366909,0.09626554377421934,-0.06429264086613491,0.008144193946411058,0.06946533671325789,0.01580189926919139,0.02849198624506979,0.0264038247414956,1,left
0.745,0.09274639884261063,0.9910651239177375,0.09676002757242316,-0.06355549964833737,0.008057725270663528,0.07028152432559377,0.015797185988485566,0.02851187373868421,0.026394333000397206,1,left
0.7490000000000001,0.09331326887834537,0.9910057923041055,0.09515133497836754,-0.06411657658785619,0.008133836211290803,0.06965982774067961,0.01580296701785119,0.028487480241265756,0.026405975321285954,1,left
0.7490000000000001,0.09585331640284292,0.9916203257362718,0.09263631220789843,-0.06381323127049607,0.00807279179311195,0.06999682479135887,0.015798359502863218,0.028506923025206923,0.026396695848311155,1,left
0.754,0.09625868688905376,0.9939892288131079,0.09429655039471418,-0.06389553546205756,0.008124030762644383,0.06990385752974877,0.01579831859565425,0.02850709329545396,0.02639661455218896,1,left
0.755,0.09642105867798348,0.9947543982318563,0.09595891602521321,-0.06395008481184568,0.008080217760746074,0.06984568218636131,0.01580686631752513,0.02847102902484019,0.026413827046712805,1,left
0.759,0.09892926855379475,0.9951283759841466,0.09490433150642266,-0.06383579703772516,0.00810646679258328,0.06997046108494895,0.015787332652752138,0.02855344908810343,0.026374490250767532,1,left
0.76,0.09780434989669169,0.9953072554235949,0.09654179452846293,-0.06396786443771033,0.008122996005274715,0.06982420484389099,0.015816473131705377,0.028430490765435266,0.026433174781453152,1,left
0.7659999999999999,0.0958315240707288,0.9958849224311377,0.09485761756026966,-0.063823072556694,0.008030610188689963,0.06998783379656157,0.015785408855798037,0.028561570711065864,0.026370614084810867,1,left
0.767,0.09680940387300016,0.9959385254044035,0.09178719075771441,-0.0639941171338653,0.008222156654400632,0.06979088358643772,0.015803357951465508,0.028485824985164696,0.02640676525259642,1,left
0.769,0.09735913269105914,0.993811819186838,0.09253337936345289,-0.06379368371372386,0.007943117055635827,0.0700241098085177,0.015818829736604804,0.028420555734304916,0.0264379166057062,1,left
0.77,0.09943610608756176,0.9931254200709164,0.09241772512642174,-0.06398789156258833,0.008238181688278338,0.06979700053083918,0.015751116436770587,0.028706257686418504,0.02630155895048187,1,left
0.7759999999999999,0.10275643284597939,0.9914335192264254,0.0928640609131393,-0.06388934332049839,0.008069390451859077,0.06991315026113071,0.015876691963602998,0.028176398602640592,0.026554445804157906,1,left
0.777,0.10571259439415998,0.9893105681855011,0.09365889458643231,-0.06376008361073031,0.00791839026527438,0.07006215694262821,0.015715446191385395,0.028856786453877584,0.026229716065154007,1,left
0.779,0.1092844060138307,0.9891198974090155,0.0933593507186318,-0.06424499199934561,0.008569190932136924,0.06949911513198173,0.015850063403638568,0.02828872910807757,0.026500833249747283,1,left
0.779,0.1110585607767367,0.9870530484680298,0.09343030283646755,-0.06336446265359885,0.007364634462291815,0.0705226924666948,0.015846416678722663,0.028304190443025103,0.026493454969081107,1,left
0.782,0.11282437010310316,0.9856288307678639,0.09353898188439971,-0.06448841042037098,0.008910460088626938,0.06921562447331453,0.015589736487493854,0.029387150408768322,0.02597658744247682,1,left
0.7829999999999999,0.11520837735417101,0.9845227839274766,0.09334668734528483,-0.06355312763833249,0.007620391569990857,0.07030368687323181,0.016220630887954036,0.026725201487597872,0.027247061863873996,1,left
0.7879999999999999,0.11581900954659322,0.9843897647564177,0.09221895242032993,-0.06357321722945297,0.0076544636390235045,0.07027950147881201,0.015174575323732332,0.03113894520079214,0.025140505609502723,1,left
0.789,0.11698672899482265,0.9871131528263215,0.0919403316271994,-0.0653706134907772,0.010116564815583401,0.06819051554659974,0.01655432004294123,0.02531715652438237,0.027919081331643933,1,left
0.789,0.11760690761184464,0.9877384987093522,0.09240581680257012,-0.06096071016997745,0.00406641443236432,0.07331735102019347,0.022345680241591226,0.0008828368132100788,0.03958092179341594,1,left
0.7929999999999999,0.11766190606003529,0.9874333692168991,0.0922223496317563,-0.06826898480724887,0.014097059034952238,0.06481987034985717,0.023725420874110073,-0.004938856431688796,0.042359452929315256,1,left
0.7929999999999999,0.11862574729368665,0.9875249765694537,0.09287281724778212,-0.05863157574238148,0.000867344813239781,0.0760265983924154,0.022679383881702063,-0.0005255461446571101,0.04025309899777245,1,left
0.797,0.11764808379977468,0.9874255378739002,0.09253396574243798,-0.018167459919534865,-0.05466773614010571,0.12307375525160455,0.023310229843134626,-0.003186364844893072,0.04152304599853317,1,left
0.7979999999999999,0.11796326055367287,0.9882652935772472,0.09232338493892372,-0.008533631471248491,-0.06789602799131958,0.13427909016712258,0.023053638313912023,-0.002105473405129708,0.04100714361024413,1,left
0.7979999999999999,0.12050535379782021,0.9900733636100966,0.09457400132982703,-0.01583587907107043,-0.05786765935425632,0.12578426330593773,0.02304986985122086,-0.00208717207995104,0.04099844038221546,1,left
0.802,0.12200036103185807,0.9924604151415409,0.09498652612630949,-0.011432128479662717,-0.0639157843745123,0.13090761098225112,0.02318460634482958,-0.0026580118487463337,0.04127085547806246,1,left
0.8029999999999999,0.12322663365811107,0.992661780822433,0.09435741926583155,-0.013226653168239098,-0.06145396059523851,0.12882199754345114,0.023023310825445432,-0.001976464046444871,0.0409455849864413,1,left
0.81,0.12314792489049381,0.993509891837359,0.09403102878462505,-0.01324241797501936,-0.06142288729294004,0.12879614901338707,0.023148779627317276,-0.00250383250878116,0.0411973092957182,1,left
0.8109999999999999,0.12290937652479307,0.9966705406482903,0.09043664369653284,-0.012321745353277791,-0.06270577740617908,0.12988211795553975,0.023081404425778357,-0.002226018862455339,0.04106463240221732,1,left
0.812,0.12078074336125218,0.9969823578638782,0.08902386141852484,-0.013420640023763867,-0.06117069602010126,0.12858272826493217,0.02309629526877501,-0.0022777349850289143,0.04108946045844292,1,left
0.813,0.11611998332167037,0.9966106546020413,0.09390356669303618,-0.01257042777396869,-0.06236393848213579,0.12959260506665632,0.023114956854729814,-0.002370101667484525,0.041133365463157254,1,left
0.818,0.1151044627245549,0.998686274367236,0.09799192302442712,-0.013031898841571377,-0.06171930012977989,0.12904690559255488,0.0230833245783589,-0.002225773112077534,0.041064625318401396,1,left
0.8190000000000001,0.11377708278267204,1.0001952543642587,0.09995602248575375,-0.01290080944632171,-0.061876922022361946,0.12918122490836176,0.023112460084941645,-0.002348611561034086,0.041123251275432406,1,left
0.8220000000000001,0.1093888572482283,0.9988692369012279,0.10118136581979026,-0.012849308191274538,-0.062019277536483744,0.12929930661313463,0.023093980439353876,-0.002290785426795023,0.0410953917464609,1,left
0.823,0.10892445903436297,0.9970021521446607,0.09889517136614359,-0.012939171300109511,-0.06177260988156072,0.12909464780835228,0.02310011891898684,-0.0022706407658156912,0.041086378002149454,1,left
0.828,0.11148038030221806,0.9967930744108072,0.09358074376940091,-0.012891538287527007,-0.061989238155009355,0.12927289714529316,0.023103672853034496,-0.0023543344526466207,0.04112542250393272,1,left
0.828,0.11259651832732369,0.9962680983891735,0.08615316077688145,-0.012903718153252836,-0.061851974844041376,0.12916080965196153,0.023095232180877334,-0.002245474932354478,0.041074431353127314,1,left
0.8320000000000001,0.11423282907705057,0.997270096502823,0.082326368183453,-0.012842902525050182,-0.06193439376373857,0.12923065839328232,0.023103229713970448,-0.002321561495306879,0.041110179772834904,1,left
0.833,0.1160485319903819,1.0002379545076554,0.08374213898855097,-0.013073741228519172,-0.0618411386657759,0.12914390787346047,0.02310042180204663,-0.0023461474651638096,0.04112145246815262,1,left
0.8370000000000001,0.11415348167383044,1.0012832950918114,0.08322973771579864,-0.01257905628906818,-0.06200915156433092,0.12930396221588442,0.023094810138954903,-0.002162879343242024,0.04103605837687075,1,left
0.838,0.1109530862929381,1.0016614913718889,0.08411337598765747,-0.013324667297481123,-0.061748048582283124,0.12905632036794873,0.023109448359408487,-0.0025206648859730446,0.04120294877582943,1,left
0.843,0.1102393303770674,1.0026522547728018,0.08849916635949281,-0.012519699152315907,-0.06204026875251911,0.12933208450761102,0.023089124026596648,-0.002054741502962305,0.040985570319984316,1,left
0.8440000000000001,0.10977366596774887,1.003143384668392,0.09097251933524861,-0.012984725133840901,-0.06187159740960367,0.12917286540150377,0.023106742826649755,-0.0024465587456667585,0.041168368728800114,1,left
0.847,0.10839717041179746,1.0024849946678152,0.09220803150579651,-0.01340795651364614,-0.061695307329530234,0.12900954083018384,0.02310525632850435,-0.002431468330032084,0.04116136610348342,1,left
0.847,0.10775332485396776,1.000530760915721,0.09403767110537259,-0.01158458938518699,-0.062426783878218164,0.12969059579866926,0.023074342632899265,-0.0016962190395974298,0.04081826029296012,1,left
0.853,0.1070790638702713,0.9961349391483771,0.09490608055227706,-0.014964665688769727,-0.06107230374520908,0.12842922707689192,0.023151793451687427,-0.0035100044994211465,0.041664572100888655,1,left
0.8540000000000001,0.10689875350749384,0.9915101642145614,0.09555369061854493,-0.01062254805755657,-0.06281401410989954,0.13005107937725774,0.02302281217754059,-0.0004999922661534427,0.04026018404432982,1,left
0.857,0.10851119121849367,0.9914061322383966,0.09726972812459624,-0.01424852426047252,-0.06135887546982907,0.1286960463005876,0.023193151486032383,-0.004471305162993198,0.04211301610914388,1,left
0.857,0.10790715799761905,0.9905834211638734,0.09816655773297489,-0.014152478212283963,-0.061394807527779975,0.12873008004282846,0.023906847553389676,-0.021128707979717012,0.0498869836633285,1,left
0.858,0.10482885305986472,0.9880420393600325,0.10126955597205924,-0.007229036207081796,-0.06418379802627244,0.13132531870855824,0.024077200523673008,-0.02509983410906077,0.05173981892879928,1,left
0.862,0.10367708408294621,0.9884658998989354,0.1047892563219385,-0.024244755505370884,-0.05733168611628609,0.12494841085043218,0.023948157298506273,-0.022090668639778592,0.05033541639409149,1,left
0.8640000000000001,0.10280842523395928,0.9876988893059366,0.10342880666284224,0.003968660098807379,-0.06869270762021962,0.13552197139737074,0.02402576957242946,-0.023902247430834776,0.0511817659012692,1,left
0.867,0.10246477964161665,0.9864122753980383,0.10244177339591357,-0.03324567046752264,-0.053707127174072444,0.12157467899851612,0.023994560462120798,-0.023171035557875773,0.05083859114162241,1,left
0.868,0.10234413794248255,0.9867677518263078,0.10138405898492603,-0.18945387265280317,0.009206978752438904,0.06302567534119698,0.023993479475965862,-0.023150403156709645,0.05083168313305424,1,left
0.868,0.09915842024205684,0.9873053273653593,0.10069703840673994,-0.2266697690234186,0.024193170687045677,0.049077130579072564,0.02401070108257808,-0.02354764854037942,0.05101438890224437,1,left
0.871,0.09768996401957804,0.9891988481101258,0.10307808948193743,-0.19845422176596272,0.01283088685273175,0.05965255485142301,0.02399054215338187,-0.02307946500066254,0.05079704895823843,1,left
0.871,0.09807384884662118,0.9910150700519046,0.10239134897618304,-0.2154708465760901,0.0196848749716861,0.0532743603290959,0.02400553632529231,-0.023432385364292898,0.05096402252913805,1,left
0.877,0.09589494832346958,0.9921416921829158,0.10013188536134163,-0.2085498289356414,0.016893692312457763,0.05586881940932818,0.023998797982195272,-0.023264515709869163,0.050878365429739066,1,left
0.877,0.09272967604293217,0.9948465263791146,0.09854749377014799,-0.208446432002989,0.016859546327605522,0.055907012402651,0.023997925451247785,-0.023262651242275445,0.05089008976661065,1,left
0.8809999999999999,0.08965658215534653,0.9983021662830974,0.09777687175256719,-0.21208465689025197,0.01831447048054361,0.05454402872126593,0.02400354994561959,-0.023371168935216534,0.05092528456897657,1,left
0.882,0.08881993863975039,0.9998393019126255,0.09825904831217169,-0.20772820729904284,0.016570042693459873,0.05617628035194587,0.02399700019175926,-0.023236468200841243,0.05087473432621453,1,left
0.888,0.09077587045185016,1.0002913296519238,0.09633027854287499,-0.2111184320950536,0.01793113842137515,0.054905814922414836,0.02400057270183576,-0.023319905686530876,0.05091378369584164,1,left
0.888,0.09222583093228953,0.9996446418443036,0.09441727644693537,-0.20929823636500716,0.01718945261504492,0.055588561958105465,0.024003197627477536,-0.023347782484503324,0.050903949461148186,1,left
0.89,0.0925968577005957,0.9971280446063969,0.093970963871698,-0.2096955362854812,0.01737705292212352,0.05543805938326411,0.023992745479993832,-0.02318024485955191,0.05087796355252479,1,left
0.8909999999999999,0.09423822077724232,0.9951910348117627,0.0948226072982451,-0.21021416358470776,0.017538483454879742,0.05524637566109676,0.024009906053258957,-0.0234667408241003,0.05093379533826229,1,left
0.897,0.09898264269587245,0.9931201700210006,0.096671537606324,-0.20933394256020105,0.017242146852942113,0.0555729936415483,0.023991038995660532,-0.02314795837015149,0.05086803280603357,1,left
0.898,0.1050314339618536,0.9900066614237626,0.09680809126314718,-0.2101536926108044,0.017525950459873887,0.05526836345579348,0.02400232524597026,-0.023341111759944525,0.05091021908662834,1,left
0.9,0.10802854768454168,0.9878571035187764,0.0969385571566111,-0.20962711652137148,0.017313447654040547,0.055465758411130425,0.024010856984981323,-0.02347975001532736,0.050933560059038804,1,left
0.9009999999999999,0.10973300255699753,0.9865660494955698,0.09711919841696698,-0.2097950351905335,0.01746708453265826,0.05539795216932918,0.023971309518138986,-0.022821608540380216,0.050807379840719535,1,left
0.905,0.11446488083181712,0.9852445969310586,0.09647293611329755,-0.20993708104270065,0.017327771202445896,0.05535582745470147,0.02404517244167454,-0.024054266406291977,0.0510470607071853,1,left
0.9059999999999999,0.11762981554569132,0.9843886172975801,0.09553197525445276,-0.20959924468630553,0.017484861404743687,0.0554658753583923,0.023950140642984265,-0.022467121964982538,0.05073725001506248,1,left
0.91,0.12041918164898614,0.9833561413968246,0.09512763308212606,-0.20998283830673425,0.01732686708435425,0.05533976824578478,0.024029557849451877,-0.023793958091516063,0.05099676504904266,1,left
0.9109999999999999,0.12742219474285404,0.9825074150079595,0.0966700754361531,-0.2097241590954131,0.017403209021822928,0.05542651798108058,0.024027284529125364,-0.02375528701148534,0.05098839605848618,1,left
0.915,0.13126775863053208,0.9830159481084251,0.09727168934403754,-0.20968463619880462,0.01754299602717207,0.05543252787746604,0.023876180873768048,-0.02123264375296112,0.05049712678846116,1,left
0.9159999999999999,0.1328492428767168,0.981901745812437,0.09394029908823529,-0.21015791570660172,0.017052359786860913,0.05529365371310423,0.02424775498778331,-0.02743692031782887,0.05170655964940343,1,left
0.92,0.13668351069777346,0.9796984476649149,0.08940399258882181,-0.20922600918193518,0.017940338153390124,0.055571519180992415,0.02363159903393308,-0.01714854943991167,0.049700515777919986,1,left
0.9209999999999999,0.13781734751398111,0.9793171151806471,0.08797714771016829,-0.21043479021174166,0.01680511142501382,0.05521016108696951,0.024444332615922205,-0.030719245081730007,0.05234676683195683,1,left
0.925,0.1383244858423705,0.9790389162471085,0.08794371923282843,-0.20942070344198782,0.01775074784659414,0.05551369732395422,0.027855664633481013,-0.08768086806414253,0.06345320975571551,1,left
0.9259999999999999,0.1417292954803261,0.9798283813116344,0.08691118158615685,-0.2094670713572687,0.017733054529322882,0.055498375645869014,0.028668411181821413,-0.10125122769572664,0.0660995784473952,1,left
0.927,0.14469088924709794,0.9824885740967573,0.08696055513827403,-0.21133868174078274,0.015904238356233398,0.05494288500204712,0.028052222778093244,-0.09096309786526816,0.06409321807201045,1,left
0.9329999999999999,0.14563493762385388,0.9830132297091901,0.08575657010390375,-0.20671618218225787,0.020389713381493674,0.05631660341387452,0.02842385680465421,-0.09716794657323327,0.0653032727749904,1,left
0.934,0.14627787919217905,0.9819559951681694,0.08172250277412992,-0.21438626119815618,0.012955280065648533,0.054036736238772545,0.0282726651687248,-0.0946432029302825,0.06481104390918913,1,left
0.934,0.14718015488042754,0.9829049495437717,0.07969871128846474,-0.20426900493711697,0.022760794573073458,0.05704405673929788,0.028270491285160022,-0.09460845353827345,0.06480381649372126,1,left
0.935,0.14829441037704894,0.9837194490772917,0.07929929408264372,-0.16183023845190808,0.06393888002106025,0.06965622778139913,0.028349837866550154,-0.09593014514014778,0.06506243380187984,1,left
0.935,0.15067630337409935,0.9838498117485028,0.07816797825966666,-0.15171546080238318,0.07374568769187041,0.07266260472510588,0.028254786526070788,-0.09434752608831634,0.0647525938927847,1,left
0.9420000000000001,0.1523473424647352,0.9847944476092166,0.07909551980076088,-0.15938264384853013,0.06630874997698655,0.07038389021489622,0.028328824768042948,-0.09557934072534174,0.06499400166340183,1,left
0.9420000000000001,0.15459092755482717,0.9837657215872493,0.08143058812015708,-0.15475988332246754,0.07079760780789472,0.07175753006173136,0.028288909531780745,-0.09491475715334446,0.064863896353264,1,left
0.9440000000000001,0.16043407117987252,0.9826332693628991,0.08313244925964196,-0.15663882445703864,0.06896536162238658,0.07119961552935616,0.02829796439690884,-0.09506974914399219,0.06489308541291425,1,left
0.945,0.16478382285380647,0.9830405179611847,0.08452393763091523,-0.15666837404515035,0.06894965649076407,0.07119015210457959,0.02830872484531085,-0.09523722204689586,0.06492905314095496,1,left
0.95,0.1650291576736453,0.9824094314894735,0.08450904557487673,-0.15567923821452856,0.06989675908354134,0.07148477404184497,0.02829010423462066,-0.09494730167836304,0.06486682520001653,1,left
0.95,0.16395296756483796,0.9841846883465027,0.08474712036228245,-0.15686212798826904,0.06875468024536663,0.07113293570350226,0.028307664191831873,-0.09521475644567651,0.06492596019455932,1,left
0.9540000000000001,0.1628528759134669,0.9871275691140599,0.08532705242749869,-0.15594333419251358,0.06965562809767531,0.07140549959772542,0.028295843811659782,-0.09503790461979225,0.06488591137760207,1,left
0.955,0.1615604973550027,0.9866166512460055,0.08356930080684094,-0.15643437400155036,0.0691478037034193,0.07126120190729013,0.028300874811274704,-0.09512211029521978,0.06490227906390153,1,left
0.96,0.15941127097904528,0.9868878114119928,0.08283601910622823,-0.1563299453522391,0.06930326563801953,0.07128941557647536,0.028301436269797253,-0.09509337337905302,0.06490700256064622,1,left
0.96,0.15891729371367808,0.9880748970587995,0.08339719396848841,-0.15618747002042194,0.06937513355519137,0.07133522020251565,0.028297386287582556,-0.09511281251649628,0.06488719774577985,1,left
0.966,0.1598658583411765,0.9867852493782698,0.08220345955365117,-0.15642381266017719,0.06919869675933463,0.07126221686675124,0.028302782821085323,-0.09507306336370161,0.0649146434010167,1,left
0.9670000000000001,0.15774743564139238,0.9864204147995045,0.0809617737595126,-0.15621030420472637,0.06940624976777726,0.07132566380763247,0.02829788586730573,-0.09512969678005606,0.06488816995525648,1,left
0.9690000000000001,0.1561131024509091,0.986531512203239,0.08003375880134325,-0.1563374970561207,0.06918505306981151,0.07129294142877443,0.028300720686356605,-0.09509711531821764,0.06490348845964199,1,left
0.9690000000000001,0.15657885257944598,0.9849477714838283,0.08026766003859796,-0.15631131720111296,0.0694339514794797,0.07128908842063794,0.028301283081223764,-0.09503745457688273,0.0649105529373937,1,left
0.976,0.15368443875449456,0.9854229503645021,0.08017562929951072,-0.15625725897929799,0.0691530188379087,0.07132252911414222,0.028296395993427845,-0.09525771190715847,0.06487170558356187,1,left
0.977,0.15124984709109862,0.9855997068159508,0.07781712748315409,-0.15634892489340435,0.06941941926155251,0.07127674017137617,0.028305570518654788,-0.09485124633907926,0.06494412436015795,1,left
0.9790000000000001,0.1503769111612161,0.9823420893525356,0.07773505612138853,-0.1562731712706586,0.06928767852103852,0.07131001289827846,0.02829395771804557,-0.09537582204144607,0.06485166749481475,1,left
0.98,0.14620351147924138,0.9799702090014232,0.07821778788046996,-0.1562787380758257,0.06910514807935844,0.07131749567620319,0.028303564898973912,-0.0949366369729867,0.06492859043267322,1,left
0.9840000000000001,0.14309721985838225,0.9794684849056442,0.07777332912781319,-0.15638505479145637,0.06977673757058295,0.07124562335809533,0.028303144356402795,-0.09494531485091356,0.06492593533565735,1,left
0.9840000000000001,0.1420598953074976,0.9792266629003907,0.08031221711666633,-0.15615709627914687,0.06856134847741767,0.07138817945445503,0.028285580419320697,-0.09579665417542178,0.06478184065260739,1,left
0.988,0.13948827428069954,0.9789597780175978,0.08194513326490423,-0.15646079200320023,0.07011110757600655,0.07120175357179312,0.028328826392617815,-0.09370645837490757,0.06513635259127981,1,left
0.9890000000000001,0.13757724092986007,0.978560349211564,0.08081217944944252,-0.15620278252055747,0.0688219071477088,0.07135887657826562,0.028257187652519576,-0.09717249695037812,0.06454870200704951,1,left
0.993,0.1375380349284055,0.9782188518628436,0.08045626519690047,-0.15621648652751574,0.06884966364850809,0.07135227565503105,0.028351591667121565,-0.0925998755941957,0.06532357589248099,1,left
0.9940000000000001,0.1373677860544512,0.9776039219669104,0.08102170662230009,-0.1566903932539467,0.07132686413389144,0.071058857628475,0.028748426902761998,-0.07340047426936738,0.06857648840410005,1,left
0.995,0.1360047491250025,0.9779650122264086,0.08087082110927499,-0.1555162620691759,0.06524859322274587,0.07178357216470249,0.028842792955193257,-0.06882665325621412,0.06935118415171661,1,left
0.998,0.13484275358152364,0.979878364304113,0.07996053258316642,-0.15746595389038587,0.07532263269051051,0.07058042932582592,0.02877109853713409,-0.07229432759068119,0.06876359958418349,1,left
0.998,0.13468891496468235,0.9807712793406379,0.07957387840759099,-0.15489419079617187,0.062036625280257135,0.07216824439979933,0.028814702824854956,-0.07020342891821402,0.06911863366034009,1,left
1.004,0.13410961621322615,0.9804737705874548,0.07965412771083233,-0.14410466913676634,0.006263183497595639,0.07883135096429078,0.028796296149889683,-0.0710529295539021,0.06897297434271846,1,left
1.005,0.13414501216673397,0.9808964216807285,0.08211461585900476,-0.1415370575801969,-0.00702192441188287,0.08042075599188747,0.02879721688510367,-0.07106721157382778,0.06897306759427702,1,left
1.006,0.13395913413469349,0.9820155192689998,0.08645915105482482,-0.14348007611556657,0.0030498697908120974,0.07921459912810926,0.028805278812276965,-0.07061867183764592,0.06904654484727024,1,left
1.008,0.13068763259441563,0.982886676160388,0.08720322781018244,-0.14231196383423655,-0.0030242655787606765,0.07994324206954878,0.028794732782440845,-0.07115421113860093,0.0689569010361039,1,left
1.0090000000000001,0.12847727821529284,0.982706177382664,0.08470110578114523,-0.14278483958584454,-0.000553125776354422,0.07964608262911582,0.028804323443032347,-0.07073995382609971,0.06902925380859153,1,left
1.013,0.128194618246937,0.9825930278729194,0.08372963818934961,-0.1427901191158683,-0.0005185345302183338,0.0796412201777417,0.028796500849504615,-0.07095785083075117,0.06898534622627694,1,left
1.014,0.12716556730835676,0.983926506060594,0.08390232609337746,-0.1425527098901952,-0.0018125662595580038,0.07980090393977085,0.028803044978676258,-0.0709179276022027,0.06900416099362011,1,left
1.0170000000000001,0.1293397187485615,0.9852306083528348,0.0836173407069251,-0.14282524704896077,-0.00026420227568629124,0.0796056155532108,0.02879754562712689,-0.0708444511083607,0.06900181692819335,1,left
1.018,0.13321554182206044,0.9845364102675994,0.08457386466394003,-0.14263050247424713,-0.001467464621737628,0.07976371853518502,0.02880078146101811,-0.07095858213662952,0.06899427492222564,1,left
1.023,0.13434620272577386,0.9833750520536053,0.08378102706542631,-0.1427180173081818,-0.0008212335870656565,0.07967244279117994,0.02880282541688435,-0.07086208153153253,0.06901073069427506,1,left
1.024,0.13647694054892842,0.9849225496823886,0.08156405069877568,-0.14270578478563292,-0.0009677628694290465,0.07969595951478343,0.028791535001046163,-0.07090611957014897,0.0689813772079925,1,left
1.0270000000000001,0.13992389665853344,0.9868933472000369,0.08281133798063792,-0.14270517330019802,-0.0011356009594867252,0.07972798132207295,0.02881486418863391,-0.0709251333240973,0.06902818600446725,1,left
1.028,0.14215580896503827,0.9870591761733857,0.08351902994783911,-0.14265742021735422,-0.0008524389422660003,0.07965572552034683,0.028780932283489748,-0.07085462635706297,0.0689654957722072,1,left
1.032,0.14745255527981566,0.9875174191224633,0.08348957670644094,-0.14278497377605825,-0.0011055974562721766,0.07975208364129946,0.028816785201089185,-0.07094520859829002,0.06902971052579175,1,left
1.033,0.1536958262310688,0.9868016250126446,0.08551363867695012,-0.1425983102365353,-0.000951147277685607,0.07965255563060877,0.028796284124039666,-0.07088253429280508,0.06899436306601758,1,left
1.035,0.15457237379833144,0.9857510713861866,0.08554792256594886,-0.14276016431237137,-0.0010066502269810834,0.0797237956265974,0.028777944031499705,-0.07086063782655684,0.06895843313927127,1,left
1.041,0.15383399001529202,0.986041903627695,0.08432403985232625,-0.14276182937999704,-0.0010060006139459045,0.07972430243940157,0.028856976252415522,-0.07101574262306777,0.06910560397010349,1,left
1.041,0.15451738462502657,0.9850359832540506,0.08507864986716857,-0.14244057279959613,-0.001011404160047428,0.07960506732134212,0.028710702824822975,-0.07071409880572833,0.06883505975383399,1,left
1.044,0.1556386270708805,0.9864646848142002,0.08584157786195264,-0.1431835509456031,-0.0009533610513193796,0.07987206955933629,0.028898417696549557,-0.07110646272279897,0.06918158465902126,1,left
1.045,0.15692400449565888,0.9898157702196797,0.08441467338355861,-0.14206790303549388,-0.0010775916613932827,0.07947826523024856,0.028741752350002647,-0.07077678149166643,0.06889266668658928,1,left
1.0490000000000002,0.15608017639472754,0.9902912722765179,0.08255258348222505,-0.1432614348912042,-0.0009231649161833215,0.07989542448873493,0.028745914984773007,-0.0707889519669953,0.06889989080889469,1,left
1.0490000000000002,0.15355806720175003,0.9920955600796628,0.08255199867253034,-0.1425704966178849,-0.0010193973515763618,0.079655248791588,0.02904484843975614,-0.07140894032777781,0.06945237401399335,1,left
1.054,0.15324636760235624,0.9935809611287212,0.08208411391207836,-0.14197418999366207,-0.0011053758368878988,0.0794485089076424,0.028310224724790074,-0.06988041203412526,0.06809532210537453,1,left
1.055,0.15342658499600076,0.9927186572932788,0.08022862956591537,-0.14458525752134316,-0.0007208313000414417,0.08035217566088301,0.029528212236228264,-0.07241651380046298,0.07034501253010278,1,left
1.06,0.15201514319013515,0.9939356548603347,0.08010416516278966,-0.13974156700906826,-0.0014419784415161288,0.0786773320771143,0.02792172139259399,-0.06907081982234375,0.06737785236018082,1,left
1.06,0.15160670909071394,0.9941657254064014,0.08114094525691354,-0.14596206122437588,-0.0005104741852575673,0.08082719581526004,0.021178271198896884,-0.05502915741734582,0.05492211616043218,1,left
1.061,0.15005979200829517,0.9937478665412627,0.08240598068596655,-0.14076859059081284,-0.0012904668661341974,0.0790327455671008,0.019571805911802458,-0.05168345121281677,0.051955071563903166,1,left
1.064,0.1476221620092672,0.9968402994011358,0.08507950945006709,-0.14090867139686883,-0.001269972309286237,0.0790811893111317,0.020789757935765048,-0.05421994684283716,0.05420457250782003,1,left
1.065,0.14689451352326643,0.9989828473845909,0.08838825993407656,-0.1508136039588747,0.00022316316695728108,0.08250263243058548,0.02005515146320848,-0.052690075359249036,0.05284770128246043,1,left
1.07,0.14527772369782876,0.9993516811692138,0.08859398058205653,-0.12646905098034794,-0.003447598204760181,0.07409362882755718,0.020354119410083926,-0.05331279932942854,0.0534001287253244,1,left
1.071,0.14383975749453884,1.0001781050340304,0.08428990388496543,-0.16683316290779587,0.0026398169327641317,0.08803574460161201,0.020358169599965354,-0.053320940661128205,0.053407158477965185,1,left
1.075,0.14369274135810645,0.9992336301735742,0.0823169273591036,-0.11359331025171697,-0.005390319086140296,0.06964646833529226,0.020201696084884972,-0.05299554977883657,0.05311877086335967,1,left
1.075,0.14368379442841453,0.9986799024488926,0.08213798183703125,0.10989322439467901,-0.03910937173188715,-0.00754649103684335,0.020389181699938065,-0.053385498334760986,0.05346445328260526,1,left
1.0759999999999998,0.14366242635288726,0.9997247291784754,0.07962418445280767,0.16313371455030007,-0.04714089535017889,-0.025935804921619416,0.02024307818866313,-0.053081448455828496,0.05319485633754849,1,left
1.079,0.14225001090044898,0.99911813993449,0.08145841008709231,0.12276729972633267,-0.04105021999635911,-0.011993155402272878,0.02032214368279088,-0.05324657291993633,0.05334140551405957,1,left
1.08,0.1400867068699636,0.9966103083000531,0.08269647017340737,0.14711730424509178,-0.04472664053005321,-0.02040388990333598,0.02030341496748477,-0.05320606974595514,0.053305164012587294,1,left
1.084,0.14012447035825598,0.9949843078029065,0.07793969267055104,0.13720287990408797,-0.043225640945724224,-0.01697898146126932,0.020283743283810093,-0.0531676951384115,0.05327166717297791,1,left
1.084,0.14181326785709758,0.9946863904921855,0.07644363600762549,0.13707535230604798,-0.043213486344225296,-0.01693558856951887,0.02031840863034276,-0.05323669767419183,0.05333221544465599,1,left
1.089,0.14171825117869805,0.9932160982375005,0.076506235726605,0.14225712465922913,-0.04398839113371819,-0.0187247225527234,0.020285677066037004,-0.05317108021533175,0.0532745330922514,1,left
1.09,0.1421483999884341,0.9928430015756896,0.07603506556905171,0.13604040956836042,-0.04305337191664266,-0.016577747449486088,0.0203084331707205,-0.053218491387732894,0.05331658649794256,1,left
1.092,0.14431496436772456,0.9930100815291075,0.07848528215111611,0.14089708369065235,-0.043791971641687334,-0.018255811035365447,0.02029625468041546,-0.05318839999090403,0.05328895300064547,1,left
1.093,0.14338887798694122,0.9917711400481357,0.07902517705009449,0.13824909614561698,-0.04337372420374547,-0.01733937228164023,0.02030138660499564,-0.053209902683832896,0.053310180725645945,1,left
1.0979999999999999,0.14091684711850355,0.9907218918670405,0.07830583047043013,0.13890639935696575,-0.04350509748759352,-0.017569548654207463,0.020299168461793173,-0.05318914172995158,0.05328855351406575,1,left
1.099,0.13979716385199453,0.9885585321852566,0.079655180438046,0.1395251270395335,-0.04355897256645715,-0.017779394703609938,0.020300518681732993,-0.053209168714401345,0.05330973894648586,1,left
1.104,0.1379521000466665,0.9893896571815425,0.07977441225361248,0.1383852868092302,-0.04341845155345972,-0.017388780209363644,0.020301340696148952,-0.05320092202073631,0.05330045011164363,1,left
1.104,0.13553757252893006,0.9907517630432022,0.07820688543240197,0.13951031468543879,-0.04358847270685025,-0.017777377096173143,0.020294119210688896,-0.053177333589577186,0.05327781865638447,1,left
1.109,0.1345398900951783,0.9879278038777664,0.07670320438536249,0.13864727392758347,-0.043399915431871106,-0.017473589051312334,0.020312738513195976,-0.053253600205607377,0.053352928118561835,1,left
1.109,0.13460321686494475,0.9875940898425603,0.07549774647776009,0.13922677845635326,-0.0436206736766722,-0.01768679100708627,0.020280557733293104,-0.05311702304958728,0.05321795557789154,1,left
1.113,0.13475650763008074,0.9877254962374199,0.07688323722584935,0.13885278616495483,-0.04336535747950204,-0.017538134816626354,0.020321345328608718,-0.053291314002147476,0.05339030015999897,1,left
1.114,0.13654319786104824,0.9856397870291835,0.07965461245103483,0.1390719518940592,-0.043610441304330796,-0.01763462988169462,0.020287519770469588,-0.0531462317622436,0.05324680652586569,1,left
1.117,0.13754166750712132,0.9852788458939165,0.07750970261296077,0.13906572550759203,-0.04348699874763153,-0.017620412876420116,0.02028758885521148,-0.05314850237020555,0.053249194743030394,1,left
1.117,0.1366605635382564,0.9861687024130908,0.07338429369853935,0.1386860044677452,-0.04332411125498996,-0.017479015375651857,0.020354836978885835,-0.053430616075224396,0.053527724245733335,1,left
1.123,0.13763873061532478,0.9862508920752264,0.07249315181085758,0.13965715797516903,-0.043932781783699776,-0.017859611164741898,0.020190572780297636,-0.05273913077094243,0.05284488604637355,1,left
1.124,0.13651672230297957,0.9857445335875861,0.07216249938307731,0.13801939503937266,-0.042828625339401044,-0.017210039331552095,0.02046263530128005,-0.0538851943389759,0.05397662208789693,1,left
1.128,0.13339530666362515,0.9861427369555544,0.07230969647494562,0.14006343224441964,-0.04423752765135069,-0.018023906074711313,0.02010385337870783,-0.05237351728527784,0.05248388724642007,1,left
1.129,0.13268751784186816,0.9866112776728696,0.07134690936202985,0.1383820200200998,-0.043065079558520535,-0.017352897788681695,0.018596153501494246,-0.046026583227711845,0.04621618037860351,1,left
1.129,0.1313106482074924,0.9882554246303813,0.06861805461173949,0.1383887570399555,-0.043090979694731836,-0.017358142345750945,0.018237349473953432,-0.044514583257069,0.04472322828701407,1,left
1.1320000000000001,0.12839875070876444,0.9911930246431089,0.06841526567375081,0.14169787407676354,-0.04534210338449381,-0.01867205880887859,0.018509435923188655,-0.045660996310674884,0.045855199417494226,1,left
1.1320000000000001,0.12591804709412302,0.9917258969730192,0.06946871117503461,0.13362083180915643,-0.039817588743446056,-0.01546111933159388,0.018345180777712154,-0.04496964349300352,0.045172450478611216,1,left
1.137,0.12539158459423883,0.9906837819498323,0.0705923472162639,0.1469912820030484,-0.04897424328570721,-0.020778253392866264,0.018412349657903643,-0.04525059909628338,0.045450200578929054,1,left
1.138,0.12552569614917886,0.990293085818831,0.07184268405846067,0.12936407665987215,-0.03689789713937165,-0.0137671306199881,0.018412589304057654,-0.04525536204445982,0.045454265965930836,1,left
1.143,0.12618591583070968,0.9905270110369973,0.07169555625324335,0.05533542813492704,0.013797955111861989,0.015666918763280576,0.018378519148181956,-0.04510670586359565,0.045308367460687574,1,left
1.1440000000000001,0.12959023774121947,0.990269644875125,0.07130747724635872,0.03771080675595009,0.025873965158822423,0.022678379139652847,0.01841955037085697,-0.045284556253621086,0.045483106979757354,1,left
1.145,0.13206400503504861,0.9890107375376255,0.07084603843529286,0.05107403174961474,0.016718342670225768,0.017362409507490663,0.018387264360583806,-0.04514644226696675,0.045347100720470414,1,left
1.147,0.13411264429602054,0.9881253164403676,0.06984216269085258,0.04301161567441069,0.022240628066398815,0.02056779184653678,0.01840567471014895,-0.04521965465488449,0.04542015442331837,1,left
1.148,0.13821035059989692,0.9874411336880378,0.0710292099214784,0.046297660860891765,0.019993179086525092,0.01926625718002935,0.018399126754186222,-0.04520590869142785,0.04540414651085098,1,left
1.151,0.13986546286252788,0.9871651812227322,0.07503258515154479,0.04633243123170497,0.019962633100842696,0.01924183397693309,0.01839878800278831,-0.04518070077222325,0.045383444257037844,1,left
1.1520000000000001,0.1397364297890745,0.9869763006002252,0.07699436707939092,0.04462812497662212,0.02113913180679633,0.019934366113385914,0.018401563034826006,-0.04522154581230031,0.04541863764072395,1,left
1.157,0.139108955467241,0.9860290598549954,0.07615992563805438,0.0466733504481434,0.019729456797447656,0.01910652872298175,0.018398208572388712,-0.04518418414750092,0.045385841384462236,1,left
1.158,0.13699734445389378,0.9858012118806154,0.07672579088722808,0.045075202592639585,0.020827891347252013,0.019748270857910886,0.01840333126858092,-0.045205547076475706,0.045406972403984225,1,left
1.161,0.13830933277164864,0.9855723112515453,0.07854088974481932,0.045952871836597506,0.020233837177445486,0.01941160339992795,0.018393259426704674,-0.045206243458063296,0.04540005921499743,1,left
1.161,0.14223187911987814,0.9856992015301217,0.0785416887502607,0.04571521631724506,0.020373645533170517,0.019466430107218997,0.01841119950967452,-0.04518327949219336,0.045394754692112474,1,left
1.167,0.14562112604222205,0.9852303404413446,0.0778296705714244,0.04555451453762669,0.020523226679916694,0.019598624629150123,0.018385653974187927,-0.04522266218219196,0.0454077267941221,1,left
1.168,0.1486607412590127,0.9836196952883104,0.07882639074968018,0.04586734549731169,0.020260537830392455,0.019390464925551087,0.01841265724062301,-0.04517971752673554,0.04539295068090611,1,left
1.171,0.14973537535535947,0.9856254386079465,0.0787304533550175,0.0455619888959837,0.020508264055098778,0.01957865462055945,0.018397415392403922,-0.04520605000650388,0.04540298438606028,1,left
1.172,0.15223662092285983,0.987500013896901,0.07854987374231245,0.04581214691287252,0.02033722896579966,0.019479753233516226,0.018382496925453816,-0.04522125152225309,0.04540424238019376,1,left
1.177,0.15579900004399788,0.9859285721017234,0.08116715648841637,0.04557880110928607,0.02042562993266304,0.019448731647609636,0.018444869323193884,-0.04514242879554299,0.045386623389365346,1,left
1.178,0.15839219879330174,0.9856413529394639,0.08381774076404983,0.04586299918874949,0.02039422573772425,0.019618691576645156,0.018329730660304737,-0.04529084718480614,0.04542149980767958,1,left
1.181,0.1618171894632009,0.9874699203966973,0.08556155985904548,0.04549867438416601,0.02040021386919033,0.0193414022984083,0.01847744861074309,-0.045099738095824016,0.04537620184532189,1,left
1.181,0.1615932063273129,0.9889309469472605,0.08445205986817719,0.04587596940605137,0.020401434150856997,0.019641434477974812,0.018354185807533126,-0.04525954208444312,0.04541425590211901,1,left
1.186,0.1599260018167611,0.9884886786704079,0.08178071003761253,0.045675443077074926,0.02038872466249872,0.019461072156185102,0.018357312354338177,-0.04525431819090213,0.04541237661816246,1,left
1.187,0.16136813600148026,0.9893129816990676,0.08087831556708208,0.04541591882281173,0.020437254745711515,0.019340235741877154,0.018593013369515153,-0.044952436173945995,0.04534252058438007,1,left
1.19,0.1618191586650672,0.9905327812663869,0.0805749746758889,0.04640996038093446,0.02032221356266557,0.0199258139617794,0.018013959547868698,-0.04569559475534922,0.04551529612489816,1,left
1.1909999999999998,0.16358019871889246,0.9902237413571324,0.08441175438622982,0.04459197399807523,0.020518010915821887,0.018829571252075624,0.018973959668436326,-0.04446296969821005,0.04522845601250049,1,left
1.195,0.1667744433547464,0.9917243331729172,0.08922970641851763,0.0469207996835576,0.020270503343398995,0.02023956343844513,0.0177077711065841,-0.04608901680553292,0.04560695594073532,1,left
1.196,0.16730361928173443,0.991763108536167,0.08935324806452546,0.044978608095319006,0.020475597177213152,0.01906139773429521,0.012392214367136575,-0.05291090677773802,0.04719299973817124,1,left
1.197,0.1699532870263959,0.9900484905763359,0.08953491331038069,0.04502294144334773,0.020476035576540735,0.019097092106917346,0.011126072476471849,-0.05453719938072932,0.04757164205157448,1,left
1.2,0.17361824720045554,0.9896991977963728,0.0883584304585763,0.04875395300516869,0.020065189102272167,0.02133135044887449,0.012086022073515675,-0.05330430866269657,0.04728464785998065,1,left
1.2009999999999998,0.17482335219857661,0.9887645725708749,0.08579808310669268,0.03959268348451234,0.021068061505461744,0.015835124333977983,0.011506949147402117,-0.05404736640359445,0.04745736490824734,1,left
1.206,0.17604493896736284,0.9873567877595024,0.08544178533855719,0.05478086559733211,0.019406897744856384,0.02494957755442799,0.01174281745268314,-0.053746365070532945,0.04738801967457745,1,left
1.206,0.17629880826975072,0.9862663645495056,0.08412172054035894,0.03474683891766666,0.021598036463740408,0.012927192802820878,0.011745583915577788,-0.05373924602831537,0.04738504120482548,1,left
1.21,0.1766865735802018,0.9867178675703473,0.08426878825883762,-0.04934590866945862,0.03080161138778917,-0.037527127004093046,0.011622837510221645,-0.05390176747261327,0.04742467137899052,1,left
1.2109999999999999,0.17567452042743542,0.9867453277484407,0.08574486498132577,-0.0693829236190047,0.03299388134186365,-0.04954972316348416,0.011770041098023078,-0.053707952118787254,0.04737780379778865,1,left
1.2109999999999999,0.17215482073132826,0.9850030283499203,0.08339759980437575,-0.05419150883336897,0.03133149375408219,-0.04043504106564087,0.011655124629623249,-0.05385753866822922,0.047413357728023166,1,left
1.215,0.1706492085264884,0.9847439922261368,0.08111046757758497,-0.06335154714290611,0.032333900323790216,-0.045931180711830555,0.011717938125452784,-0.05378103878979407,0.047397086010187134,1,left
1.215,0.170436720895831,0.9841450121433236,0.08184371448161765,-0.059631263324040826,0.03192711440899529,-0.04369768000559665,0.011701597743650417,-0.053788755962537585,0.04739400307567822,1,left
1.22,0.17012725062678866,0.9835759284100427,0.08242686959083835,-0.059563850039259986,0.031918816471241424,-0.04366035476289497,0.011688806490461293,-0.053827985301546,0.047411516943023535,1,left
1.2209999999999999,0.16774021614476545,0.9839436414282122,0.08138707738076306,-0.06153913184702193,0.03213643606400027,-0.04484085938116733,0.01171280165074724,-0.05376921188108807,0.04738756020085971,1,left
1.224,0.16557959685966522,0.9826728203348607,0.07980451990545208,-0.05917735736528862,0.0318764559190776,-0.043428537403335674,0.011689655235839258,-0.05382121564551251,0.047407852430242786,1,left
1.225,0.16616275202490005,0.9824627578718476,0.07820854674790914,-0.06100955653877185,0.03207763408464384,-0.044525786713894955,0.011707614597385651,-0.05379836042928109,0.047402611101307314,1,left
1.2329999999999999,0.1644425571994636,0.9832856085130869,0.07706780395151339,-0.060043817726329995,0.03197330525450694,-0.04394220602809315,0.011693095441839794,-0.053775643974216567,0.04738211836954515,1,left
1.234,0.162734688970542,0.9837443835042702,0.077764053371185,-0.06021218695033648,0.031987331366311864,-0.04405660252909996,0.011708385541443194,-0.053850519778559064,0.047434286861900016,1,left
1.234,0.16040626963985283,0.9852676697386523,0.08060707139924783,-0.060569768131752966,0.03203407167853679,-0.044248064100589485,0.011689859907769912,-0.05373332017850567,0.04735518477013898,1,left
1.235,0.15634686660421337,0.9861822167758008,0.08520106093932815,-0.059999737087181516,0.03196233426345753,-0.043934407162100744,0.011708811516605092,-0.05385928100218272,0.047439744916384155,1,left
1.239,0.15514086467511254,0.9865831932567628,0.08873118895142547,-0.060517705892730284,0.032026484625510096,-0.04422256353291802,0.011699119648784902,-0.05378488242863212,0.047390512675222374,1,left
1.239,0.15206307215477183,0.9864641013484488,0.08818398206109575,-0.060234910352984075,0.03199560604858479,-0.04405268944515127,0.011684528711506215,-0.0537287660140338,0.04734992926232434,1,left
1.244,0.14856240377336552,0.9851577446060947,0.08575260697992837,-0.060183057000010136,0.03197605653582485,-0.044063569830714217,0.01173818030934645,-0.05398748148652273,0.04753057513283844,1,left
1.245,0.14746302972876482,0.9850495205625358,0.0842667144801873,-0.0605846135275899,0.03205171095736942,-0.0442085204880277,0.01164052184593645,-0.05350532105197904,0.04719502223668219,1,left
1.25,0.1447198280773213,0.9846332709820571,0.08204902134880712,-0.059917766141289484,0.03193142710496662,-0.043951616844865184,0.011765511619681184,-0.054124972961987726,0.04762600524945347,1,left
1.25,0.1429750260573765,0.9830733160343823,0.0789182051201388,-0.060641269023116076,0.032061032812025714,-0.0442330466417058,0.011661323501168372,-0.053607436012537917,0.04726615852369982,1,left
1.254,0.14100810794507335,0.9837354441700321,0.07949379875933868,-0.0602032842305893,0.031983971018353874,-0.04405848427668247,0.011663519447691303,-0.05362228286793255,0.047276069104333615,1,left
1.255,0.13926537971335978,0.9847535425726197,0.0817660241559261,-0.059924513395049374,0.031928326386015324,-0.0439672361395153,0.011864249051295288,-0.05460638110471454,0.0479616450787667,1,left
1.2590000000000001,0.1417432876467891,0.9834431218972526,0.08286479499730476,-0.061306248650542725,0.0321894975065843,-0.04446351398941624,0.011371599686032702,-0.05218658816149848,0.04627640001969907,1,left
1.26,0.14257202769089683,0.9818817327072943,0.08571201246326843,-0.0587146127925089,0.03170197888202349,-0.0435256823301084,0.012188268515855666,-0.05619898685596783,0.049070638997544366,1,left
1.266,0.14075244854230579,0.9814741327467181,0.08704836754505328,-0.06204896343919306,0.032328674808638935,-0.04473380682334631,0.011111072675745756,-0.050906612072842715,0.045385079830842126,1,left
1.266,0.14111856304739007,0.9817826740955493,0.08668732529682227,-0.05926260489622704,0.031805213705469654,-0.04372364721186643,0.006588967821163225,-0.028693369241822506,0.029914897243051627,1,left
1.2670000000000001,0.1418958664678327,0.9820569581743458,0.08853873265182195,-0.059348249620426244,0.03182043640931628,-0.04375701729934412,0.00551164188340339,-0.02340105446528979,0.02622941172918542,1,left
1.2690000000000001,0.14111404915795794,0.9827972597558939,0.09094281445649205,-0.06462777705487999,0.032815056749393993,-0.04566333977756577,0.0063284514867694465,-0.027413388321127823,0.02902357100142555,1,left
1.2690000000000001,0.14134229138588972,0.9846599499954947,0.09116990304774683,-0.05163923459930838,0.030369215936548403,-0.040970800406121194,0.005835855597768222,-0.024993570386018033,0.027338295698644408,1,left
1.276,0.14303962394469955,0.9853732583980273,0.08844988459943195,-0.07317803632009334,0.03442476066783963,-0.048752962318807255,0.006036118416681417,-0.025977884596651988,0.028024135872183636,1,left
1.276,0.14305113352292984,0.9848010421764245,0.08684236102815718,-0.04476806167422,0.029075626798800765,-0.03848834926068598,0.006039318788883019,-0.025992267169863754,0.028033477907292693,1,left
1.2790000000000001,0.14275987437086346,0.9856073751790089,0.08562287630457431,0.07446828619451018,0.00662421393182808,0.0045887203614629266,0.005933690464120657,-0.02547539557633277,0.027674446430745476,1,left
1.2790000000000001,0.1433515757922891,0.9856254203213362,0.08240045025564219,0.10287764523852479,0.0012756590414601916,0.014852066221858579,0.0060601144622141,-0.026094385343576307,0.028104617537646447,1,left
1.28,0.1437106988216259,0.9849775285467697,0.08080180510946759,0.08133903832202477,0.005330277036067472,0.007071610098765469,0.005961837009953874,-0.025612509844644242,0.027769415126879686,1,left
1.284,0.14732824877123646,0.985882282205308,0.08009901664396439,0.09432950322204035,0.0028852617145385933,0.011763485172093451,0.006014257362638456,-0.02587179567369178,0.027950757814792976,1,left
1.284,0.1512728628757491,0.9844353888350196,0.0803408658487696,0.08904432541594076,0.003879766951142562,0.009855059386821177,0.0060036331888033805,-0.02581384502355576,0.027907929115631353,1,left
1.288,0.1506593335446451,0.9830005160903683,0.0813398504818488,0.0889685392933805,0.003893772235623614,0.009827847942642447,0.0059871060922552285,-0.02574260518804192,0.027862565961936283,1,left
1.288,0.15016456125080846,0.9830746263653075,0.08161486985947156,0.0917426032032293,0.0033732296789683014,0.010827869759191856,0.00601444658958602,-0.025864691281630412,0.027942377380270444,1,left
1.2930000000000001,0.15089687045806305,0.9807149132414422,0.08360655693036041,0.08841819618418195,0.003995554024426961,0.009631473772829255,0.005989232408665155,-0.02575057806457321,0.027867061781848706,1,left
1.294,0.15120695777025775,0.9796996159571946,0.08471502578601137,0.09100981153559412,0.00351264291513618,0.010561211431905497,0.006004464099423966,-0.025825487677946603,0.02791926268759007,1,left
1.2990000000000002,0.15096261803408534,0.9787532039715212,0.08328971892480158,0.08960969784892817,0.0037712971142157144,0.010061852243723125,0.006002354375136136,-0.02579702925041722,0.027891746276126957,1,left
1.2990000000000002,0.15017859099059996,0.9764511942950214,0.08199906130812884,0.0899307444513916,0.0037129731176701072,0.010175050469169621,0.005991951887782217,-0.025787284912884383,0.027902558804830925,1,left
1.304,0.1509541623688364,0.9774320205834105,0.08021898775646087,0.09030549315619746,0.003646650385310512,0.010304967328229223,0.006011118485374507,-0.02581973854697032,0.02789889935116754,1,left
1.305,0.15058326259891797,0.9787942220489609,0.0797418508595561,0.08964939880382981,0.003756577416873724,0.010085573304420697,0.005990004831024129,-0.025781794793087634,0.027900478046278473,1,left
1.3090000000000002,0.14955580360671866,0.9789462238823857,0.08203040812759886,0.09027773208820933,0.003661686608739523,0.010282201800817087,0.006003280783039857,-0.02580900810605366,0.027903233662518775,1,left
1.3090000000000002,0.15186240476200782,0.9794739443482077,0.08366865252722701,0.08984079268578844,0.003715236703676129,0.010161605710905446,0.006009400869364596,-0.02580630617777857,0.02788744072300136,1,left
1.314,0.15376309169307983,0.978627995194612,0.08394031292733883,0.09004447547722119,0.003699775850443419,0.010205495188184414,0.00597389530823748,-0.025775277022808664,0.02792681927324204,1,left
1.314,0.15424231982844855,0.9772563817299724,0.08296831456052428,0.09004389482247838,0.0037000882618771457,0.010205018060495036,0.006041321441369877,-0.025840590964174927,0.027859158704035686,1,left
1.317,0.15494844494992727,0.9778640962165649,0.08118772242942966,0.08989761594555296,0.0036851655235306605,0.010207271340554467,0.005954379281245559,-0.025754932797328944,0.02794483407813022,1,left
1.317,0.15475221167999534,0.9792238274055406,0.08049056819738906,0.09013411618635911,0.003737680196582014,0.010166803708942681,0.006027122621650824,-0.025827236965073386,0.027873795330070058,1,left
1.3230000000000002,0.15424875179866163,0.979568237537059,0.07851938422314951,0.08986183316401997,0.003644173911792524,0.010256258132301813,0.006024567112546773,-0.02582237951680593,0.027873848203530165,1,left
1.3230000000000002,0.15287096867099972,0.9800639293551492,0.07555028841218907,0.09010502049607064,0.0037527187785571002,0.010143905380697127,0.005887749530518004,-0.02569383650354538,0.02801544021617045,1,left
1.327,0.1529631824407614,0.982181401446436,0.07372109809306165,0.08997954718715213,0.0036871643449803817,0.010214234237644925,0.006224755141225615,-0.026013377666625093,0.027669626622165572,1,left
1.327,0.15595588016323225,0.9836879097497221,0.07197318516780685,0.08987766013051166,0.0036294914892891906,0.010277194442137032,0.005665757454625298,-0.025482419951108712,0.02824243508380973,1,left
1.3319999999999999,0.156301983014263,0.9814503221396111,0.07192962284459817,0.09030549566620102,0.0038853347871458345,0.009995267914045366,0.006403147027260893,-0.026183145063873432,0.02748694644557621,1,left
1.3330000000000002,0.15640169483590916,0.9810672348488675,0.07082608914788827,0.0895293559948769,0.003407600710731897,0.010524286101310705,0.009496841891116437,-0.02911678656151092,0.024313127265932426,1,left
1.3330000000000002,0.1586933138478422,0.9850855293172592,0.06851439188595262,0.09051399614885602,0.004023303213553056,0.009840742919806604,0.01023426706554268,-0.029817731322033685,0.02355740183802662,1,left
1.338,0.16048999941947348,0.9866072169042756,0.07055059293536818,0.08969719150296109,0.003508274709707211,0.010413190205389123,0.009675230848002873,-0.029286535969741123,0.02413046647152477,1,left
1.338,0.16411619312170883,0.9871939602484116,0.07133075192036828,0.08972003397651902,0.0035221399238498496,0.010398187110892843,0.010012221851773001,-0.029605986721817634,0.023784750382518902,1,left
1.3430000000000002,0.16616880888773922,0.9879875171468635,0.06976478403393292,0.09126644492273005,0.004506124170716946,0.009302093997606817,0.009875531951597549,-0.02947823205371268,0.023925492446890823,1,left
1.344,0.16765696895727644,0.9868916166463322,0.07152031952975332,0.0874684359376919,0.002086946840578623,0.01199675999332192,0.009872701659824328,-0.029471678419871174,0.02392737399735623,1,left
1.347,0.1711753640912203,0.9864822975391926,0.07409974966438823,0.09376254004764353,0.006098731317517618,0.007528030518716199,0.009945839030091408,-0.029546414542677896,0.023853713372789256,1,left
1.348,0.17083237085800335,0.9859245683145978,0.07615031448015563,0.08546308016303975,0.00080668938734938,0.013422916805925385,0.009858504439408142,-0.02945833469470232,0.023941999494706667,1,left
1.348,0.17044990950007105,0.985416799559748,0.07637637775350234,0.05063630190262393,-0.021406578146813956,0.03817684329097994,0.009926100008715206,-0.029524693474971178,0.023873212610733878,1,left
1.3519999999999999,0.17008684462791565,0.9835831164077118,0.07577168045167747,0.04233919505302065,-0.026698990859579115,0.044072817359022236,0.00989093117962839,-0.02949574401114853,0.023910348878939225,1,left
1.3519999999999999,0.16745931740662406,0.9821948857094795,0.0770316971058653,0.04862911221669494,-0.022686745327023666,0.03960149665688448,0.009895966125019492,-0.02948634311134966,0.0239017782527877,1,left
1.3559999999999999,0.16655698700623187,0.984086013163804,0.07692523612517664,0.04483594783537107,-0.02510598222263974,0.04230072459061067,0.009911112066226802,-0.02952509886664587,0.023892089918947,1,left
1.357,0.16438745656363113,0.981605471802019,0.07841545340464867,0.04637881981385783,-0.024122891332598675,0.04119820773097871,0.009887703205330526,-0.02947298981910878,0.023908940036848084,1,left
1.361,0.16342986142305632,0.9784464191232334,0.08228689307169237,0.046401270802022596,-0.024106811748220686,0.041190126579003686,0.009908700041796456,-0.029516736443127373,0.023893106103295352,1,left
1.3619999999999999,0.16418508473054128,0.9794426693191923,0.0817637206039277,0.045591437474904684,-0.024625249205620182,0.041758173171614045,0.009898312968866167,-0.029507093357604097,0.02390380867237721,1,left
1.3659999999999999,0.16320132754554542,0.9778927238159797,0.08099288849397604,0.04656112834135477,-0.024005859696668914,0.04107211199653693,0.009892808859643939,-0.02945767671815951,0.023898888242518256,1,left
1.367,0.1634199443474308,0.9774228343174328,0.08219721831566114,0.04580630945613985,-0.02448572784823,0.04161503041071905,0.009915799474840361,-0.02958048170176235,0.023899452470448942,1,left
1.3719999999999999,0.16020046070866933,0.9788624506232805,0.08113737484830255,0.04621271481404489,-0.024231798531366318,0.041305739364746866,0.009879008934375755,-0.029394917268424962,0.023901168286114133,1,left
1.3719999999999999,0.15526147146188152,0.9774163947421116,0.08138922497986739,0.0461209138148681,-0.024281153044931735,0.04140605327503194,0.009918691707885544,-0.029593170960332912,0.023898864964016837,1,left
1.376,0.15524699983715207,0.9769350123201757,0.08326728368291768,0.04601151816903492,-0.024362260894189306,0.0414408543860582,0.009895030590734514,-0.029477923913964123,0.02390094274432928,1,left
1.376,0.1534747101812157,0.9763206790729091,0.08504556998079801,0.04619945872127615,-0.02423333505781343,0.041341485455691385,0.009878264960523204,-0.029382029698026713,0.02389902550409686,1,left
1.381,0.14883312012684524,0.9745782947470147,0.08830085487388087,0.046024251842919875,-0.024345015539626216,0.041466323175624986,0.009957580604823197,-0.029807357465904932,0.0239013541753116,1,left
1.382,0.14667466423290906,0.975876352275531,0.08978996024811137,0.04613958606938115,-0.024288242190206442,0.04132089545184773,0.009809418363470487,-0.029017562513847878,0.023898120768972842,1,left
1.386,0.1462709100697886,0.9761461562214095,0.0888723275337384,0.046093019270192714,-0.024279556458560475,0.041498985787322695,0.009999903989356388,-0.03003192922725456,0.023902041971861673,1,left
1.3869999999999998,0.14464732374093328,0.9748047913100324,0.08931644844434297,0.04608607179560248,-0.024341260924369536,0.04128762636880487,0.009840783453975092,-0.029184986616340516,0.023898843130436876,1,left
1.391,0.14156841264148148,0.9754053263086991,0.0893498311611921,0.046121436132790475,-0.024257652621791796,0.041493074582295314,0.009845455555987696,-0.02920828211644863,0.0238986065458451,1,left
1.392,0.1409638844410292,0.975224299165437,0.08792671575429545,0.04608225678884228,-0.0243179057138248,0.04138766712889606,0.010147660387109594,-0.030822024427271368,0.023905816573211027,1,left
1.395,0.14248766192787005,0.9752737655116631,0.08913555090597976,0.0461067715951069,-0.024332711117852422,0.0412554563621384,0.009404454479677216,-0.026855193587183378,0.02388843025061213,1,left
1.396,0.1424485556099686,0.9753436195277155,0.09180126200313479,0.04610701015045912,-0.024199422429975942,0.041757815679595904,0.010636825427683357,-0.03343250823090827,0.023917219779058016,1,left
1.401,0.14174324590097415,0.9729956680640329,0.09232193628501387,0.04608117125972889,-0.024462767826807476,0.04084416658585204,0.00901133491757295,-0.024757041075817394,0.023879195992179275,1,left
1.402,0.14212916554340083,0.9726069765418612,0.09052581631625584,0.04612349190371261,-0.024118828092347562,0.0420109103917796,0.0021886507652977,0.011657056850917719,0.023720814727010306,1,left
1.403,0.14363990219390171,0.9743695403831323,0.08813873338320598,0.0460843142772529,-0.024408359279064616,0.04103947941702779,0.0005631999019782656,0.020332455342271967,0.023682806573241247,1,left
1.405,0.14654534318918716,0.9738559959275462,0.08848412837334421,0.04609128524214143,-0.024396893247098525,0.04106182757551692,0.001795556259175126,0.013755295212460618,0.023711355880480324,1,left
1.406,0.14981429754123204,0.9729242263973281,0.0906191886079203,0.04615025202262375,-0.023854515726880545,0.0429247209636418,0.0010522337823243807,0.017721870150844515,0.02369475408497866,1,left
1.412,0.15159288076606126,0.974883099479997,0.09043634659280508,0.04599680234941307,-0.025192761108490697,0.038351492877657906,0.0013547875863457641,0.016108467230302285,0.023700389576808444,1,left
1.413,0.15340900083856746,0.9758329544734924,0.08956286473340824,0.04625440131918438,-0.022972081552494313,0.045932251712686306,0.0013588469075693278,0.016084832849178547,0.023702451438154703,1,left
1.416,0.1550070809497999,0.9733274768884178,0.09115828138487803,0.045913531210967806,-0.02590162991422261,0.03593365360973638,0.0012004944284608804,0.016931948019831597,0.02369682924933267,1,left
1.4169999999999998,0.15524559591035716,0.9737083583595527,0.09164428989027021,0.04448644155866771,-0.038198499714191064,-0.006033423716797254,0.0013903533139159032,0.015917800846791737,0.02370207419598417,1,left
1.4169999999999998,0.15812188672795657,0.9760031830884217,0.0909801083045241,0.04414550418909521,-0.041127730417761785,-0.016032650341215315,0.0012422050843415495,0.016706774305901017,0.02370029259856293,1,left
1.42,0.16191666463888066,0.975311779502354,0.09239673149421687,0.044403866073432705,-0.03890695404373641,-0.008451702080224669,0.001322649758753184,0.016282932654603444,0.023696823133762257,1,left
1.42,0.16342444421929603,0.9762332444215747,0.09333408157244183,0.044247999575995955,-0.04024689041420862,-0.013022933839804036,0.0013032636830048372,0.016376920694239565,0.023705563867623944,1,left
1.426,0.16793697475378258,0.9794053500040268,0.09388607177493227,0.04431176454153203,-0.039700156200560076,-0.011165878562325642,0.0012835406278976333,0.01649381654413342,0.023693830323863803,1,left
1.426,0.1745401901331171,0.9819246032388211,0.09339812988990037,0.04431177834614955,-0.039695915222707504,-0.011133362249162435,0.001319003305735833,0.016295276494591466,0.023703641561818367,1,left
1.43,0.1791092925848072,0.9834097331255495,0.0908670745876671,0.04427988042858451,-0.03997680759690555,-0.012117456211868443,0.0012846614794444252,0.016478473700503687,0.023702923825832584,1,left
1.43,0.18281985011909527,0.9838833988694445,0.08913691433456536,0.0443183188611154,-0.03963932131899214,-0.010940496074581203,0.0013097823458233758,0.01636162357386011,0.023686832032163697,1,left
1.435,0.1842003902929235,0.9865758405541948,0.08780421466712166,0.044287902952018704,-0.03990387277058799,-0.011854108950336575,0.0012948964336383358,0.016401721782737282,0.023724593883580246,1,left
1.435,0.18418020114614436,0.9903527091336238,0.08827133874398191,0.04430588156539618,-0.03975584713775333,-0.011370763404415646,0.001302127202970507,0.01642182583832144,0.023667912225643795,1,left
1.439,0.18409014000895457,0.9930920767943163,0.08987899415846384,0.044298035175539846,-0.03980230490674053,-0.011459343807222903,0.0012999010232037148,0.016371146023979627,0.02372846330962776,1,left
1.439,0.18285368664865356,0.9962074545892624,0.08882064145757071,0.04430054483420594,-0.03981700069243588,-0.011629925912338758,0.0012975085017267137,0.01642004572609201,0.023693391452201597,1,left
1.446,0.18149612040533475,0.9979590105868805,0.08772523654934254,0.0442996903537477,-0.03977976414523661,-0.011355115181611126,0.0013068842155665786,0.01640120728243448,0.023663424485580686,1,left
1.4469999999999998,0.18018117586708188,0.9976763418984247,0.08940816329192594,0.044299289776753514,-0.039818750633582464,-0.011605901312018302,0.0012869572158926402,0.016371126350981043,0.02379506451374181,1,left
1.45,0.18097044224517553,0.9949285053198886,0.09374615927110831,0.04430419059190656,-0.03977704896363987,-0.011464707133397173,0.0013189201530772925,0.016453505993317102,0.023550820833855596,1,left
1.45,0.1826015682206596,0.9927914604477763,0.09694375247846101,0.044289420716797104,-0.03983772227596932,-0.011453119947878008,0.0012796851930655243,0.016338129864265694,0.02386448376612097,1,left
1.454,0.18146366576001696,0.9944670333191479,0.09570621244904215,0.04431833712023588,-0.039740490799340625,-0.011620855743868005,0.001311663974485822,0.01643852613423856,0.02360260380601534,1,left
1.455,0.1784444993179798,0.9936417742788245,0.09389165973580405,0.04427636876025086,-0.03987560556620039,-0.011336789745943075,0.001312009388064441,0.016429507646791075,0.023609721527018332,1,left
1.459,0.173091916989007,0.9931032536065326,0.09249558759226453,0.04432087103609038,-0.039733445239579154,-0.011645915616126757,0.0012478222775472356,0.016254816039890336,0.024108995818023952,1,left
1.459,0.166590713338917,0.9966625072966632,0.08969776347574705,0.04429553751608831,-0.03981262006384955,-0.011457343048196095,0.0014038105121425449,0.016693336680816857,0.022881796645043133,1,left
1.464,0.16094767907368993,0.9967528111989187,0.08705177756222243,0.04427188866329491,-0.039895470696919726,-0.011344106192797628,0.0011458778067123209,0.01596274653800267,0.024916567391813686,1,left
1.465,0.1576632290134466,0.9955996790739182,0.08614399302633784,0.04437236439689102,-0.0395568473474537,-0.011920423624635117,0.001485792698649837,0.016927726507761108,0.022232705819387716,1,left
1.47,0.15758314514359673,0.9956569647670068,0.08611513919547507,0.044186639480162146,-0.040180425273403264,-0.010837049878877507,0.0029142444314314495,0.020972204562848075,0.010967297304027224,1,left
1.4709999999999999,0.15603686492655966,0.995113862738114,0.08448596856874244,0.04442489835411291,-0.03938081033704975,-0.01223144860287494,0.0032540097258940315,0.021937567771924134,0.008283424992099497,1,left
1.4709999999999999,0.15253279877054393,0.9951120842791737,0.08192304449867568,0.04422619109908702,-0.040047791353992127,-0.011065972274826419,0.0029963741016435746,0.021205841312808685,0.010318210505847528,1,left
1.474,0.14964939453793935,0.9927890191168549,0.07989272805061295,0.0442310356812058,-0.040031657736048054,-0.011102684525394913,0.003151944918798682,0.021646760450231096,0.009091004603435072,1,left
1.475,0.14619337670701094,0.9909215427530038,0.07863614688022216,0.04461135151899209,-0.03875395838018718,-0.013308146245248897,0.0030882083765465473,0.021468174393827602,0.0095902633357524,1,left
1.479,0.1405397531277855,0.9906244231822826,0.07801032379178457,0.04367753620612412,-0.041891735662554073,-0.00788122032257946,0.003088244014449102,0.02146401473226655,0.00959742988792801,1,left
1.48,0.13337592242883245,0.9873323956983788,0.07866507003133687,0.04522518397406816,-0.03669033740079185,-0.01688100812892914,0.0031201388056568014,0.02156026303957568,0.009335467620707829,1,left
1.483,0.13060624756746175,0.9843073892431153,0.08101403344972151,0.04318453522639944,-0.0435500980455515,-0.005010033030725858,0.003081647184486093,0.02144549671758257,0.009649227868907831,1,left
1.484,0.12967929287951904,0.9840859679649875,0.08080765854762176,0.03461497983035787,-0.07235043096001531,0.0448100926120849,0.00311206434473711,0.021534151032490827,0.009404913684977173,1,left
1.485,0.1241275591140263,0.9834449559820585,0.08219826265475907,0.03257607995721641,-0.07920826366547877,0.05668093164107476,0.0030943218117769782,0.02148848183869136,0.009536535849803952,1,left
1.489,0.1204641089017823,0.9792517501797344,0.08871474359500056,0.03412098358150163,-0.07400997061310953,0.04768104426544765,0.003101517011584575,0.021493940617009107,0.009506739459988407,1,left
1.49,0.12068663223780733,0.9754675204445796,0.09016839416891587,0.033189466333349196,-0.07714493083081783,0.05310890030508852,0.0031001246000189973,0.02151568879297592,0.009471309519605953,1,left
1.493,0.11888118045565549,0.9749353511964208,0.08778405779506329,0.03356983737574096,-0.07586775550003069,0.05090114816180726,0.003099599164158572,0.02148270385408542,0.009532368216262514,1,left
1.494,0.11575696312747003,0.9731448714772671,0.08670255085036911,0.03357040691955463,-0.07585546693084387,0.05086816012279773,0.003101098984443537,0.02151204940764128,0.009475180031599214,1,left
1.4980000000000002,0.11427934729613418,0.9723420774080986,0.08323137664259037,0.03338115686000638,-0.07651295371243444,0.052029260593975654,0.0030962351049020308,0.021498471759668736,0.009513171831275688,1,left
1.499,0.11263102022514898,0.9737734469206752,0.07871100257569141,0.033605841558311186,-0.07572776623474953,0.050638015234821754,0.003108879105257538,0.02148781611059598,0.009497482060296625,1,left
1.504,0.10969753461195461,0.9755502000959394,0.0739034234417727,0.03343369307308772,-0.07633588344534205,0.05172226441135208,0.003084787962271604,0.021525790257368303,0.009495420477252534,1,left
1.505,0.10773106081355666,0.9790128497423711,0.07048424269369212,0.03352803687243196,-0.07600615294506691,0.0511380865141534,0.0031195773236910285,0.021465880506828995,0.009507576785732334,1,left
1.5090000000000001,0.1062066792631457,0.9823502231767718,0.0715519717471056,0.033493540527002916,-0.07609696732377283,0.051267780289302387,0.0030827041741129805,0.021530350324643337,0.009492927459420649,1,left
1.5090000000000001,0.10585694620879618,0.9871180517375789,0.07359015369424804,0.03350426674661197,-0.07614163990919953,0.05143302812163197,0.003103674219386997,0.021492140928643898,0.009504061562918963,1,left
1.5130000000000001,0.10760242391562418,0.9927314358739533,0.07506547917352287,0.03348607412450097,-0.07606388480008697,0.05114718594347175,0.003123416433960448,0.02146395827289861,0.009500432806462646,1,left
1.5130000000000001,0.10811157186722135,0.9940724169910395,0.075408884875105,0.03352162904545315,-0.07611470384155933,0.051420666438516824,0.0030397369267271797,0.02159507942443228,0.009494665715414078,1,left
1.518,0.10858676028280476,0.9942701321779761,0.0736725921381238,0.03348785354198708,-0.07609255244572148,0.05123447644007564,0.003194435051526271,0.02135051118371732,0.009509266176962527,1,left
1.518,0.11081706961356871,0.9968549996749165,0.07227920367760712,0.03347459859045171,-0.07613572616644373,0.05130781857512497,0.0029958975166173123,0.02166486229020096,0.009489644686000356,1,left
1.5230000000000001,0.11217878726427843,0.9998418775215059,0.07067123294460909,0.03359105110627149,-0.0759964141206049,0.05134119780154639,0.003161614061332062,0.02140230014095066,0.009506376324806769,1,left
1.524,0.11400669190463762,1.0022427999042092,0.06862777762289893,0.03333197856272674,-0.07629139339462412,0.05122453091882276,0.0031572730677013284,0.021409894136552792,0.009504571185539996,1,left
1.528,0.11714830650557428,1.0037891334636626,0.06646943451924822,0.033720005178233245,-0.07584591291587961,0.05138913741291476,0.002840784403634848,0.021908945667910223,0.009477113296398994,1,left
1.5290000000000001,0.12115013300291796,1.0039666365527604,0.06380786430792167,0.03330431022052597,-0.07632800662078104,0.0512261768409258,0.0036185324046736148,0.020681766228770188,0.00954618495698338,1,left
1.5319999999999998,0.12867593579460943,1.0025806881053603,0.06094255041791662,0.03354432115134013,-0.0760495301542545,0.05132039384430028,0.002328989565176501,0.02271663037721417,0.009431266017143464,1,left
1.5330000000000001,0.13431772359910976,1.0011864081317587,0.0578118990562777,0.03375645165460766,-0.07579350067632185,0.051374195820899166,0.004029953972360962,0.020032647242261434,0.009582853206276068,1,left
1.537,0.13533422667018574,1.0025004447512256,0.05795954803122973,0.03283523949710779,-0.07689332598414328,0.051103432808703775,0.011169977959739848,0.008767332392043949,0.010217218688502025,1,left
1.538,0.1418609223027057,1.002401577883243,0.05863455234344572,0.03454290109529449,-0.07485471585276936,0.05160713863608011,0.012871196874641996,0.006083415193030324,0.010368564582675948,1,left
1.538,0.15153658254628533,0.9992768344522532,0.057526181227924855,0.03235022269333171,-0.07747372060132825,0.05096285890901468,0.011581218809433212,0.008118205718090377,0.010253952812704054,1,left
1.5419999999999998,0.15654868145638823,0.9985538786661058,0.05728941456953596,0.034180298170903775,-0.07528663135797248,0.051499374099962796,0.012359428326793839,0.006891007240289143,0.010322960461644186,1,left
1.5419999999999998,0.16255902872710004,0.9972633471417458,0.05465444246519885,0.03413283853969963,-0.07534417386498178,0.05148269764598487,0.012042685697269821,0.007390278722043087,0.010294973257833802,1,left
1.5519999999999998,0.16810052409270182,0.995393829439737,0.054750699003815885,0.03063726882120374,-0.07952161688290002,0.05047023520262954,0.012038111256868855,0.007397388319648681,0.0102945319214977,1,left
1.5519999999999998,0.17082088687183217,0.9970347978221197,0.05890007896965872,0.039225528234051954,-0.0692551951262534,0.052959487067737315,0.01220478693150294,0.007135529623608782,0.010309128065174764,1,left
1.5530000000000002,0.17587813531872287,0.9983305449012242,0.05932547064083448,0.02498781065277044,-0.08627754843467828,0.048833390249333725,0.012004514290682923,0.007449169088805375,0.010291858033947474,1,left
1.554,0.17846285662711137,0.9987953494455043,0.058281442829483984,0.043765862432665364,-0.06382471443098144,0.05427423204480987,0.01216140965216777,0.00720492861241598,0.010305026122739017,1,left
1.554,0.1794613738487055,0.9995169420543119,0.05751623921417094,0.12263396575009516,0.030424536017312438,0.07712602507487265,0.01207588202506682,0.007336613148017307,0.010298202492020554,1,left
1.557,0.18383038179744096,0.9990061471715425,0.057022618368131134,0.14141389762885226,0.05287799921654574,0.08256651334896596,0.0120958354129868,0.007306533605802472,0.010299633144105806,1,left
1.558,0.1875286292095616,0.9987526282763599,0.056561875686276894,0.12716822225515154,0.03585471516345417,0.07843869180018018,0.01211970065504615,0.007271639205324595,0.010301109780669001,1,left
1.564,0.18944188156460215,1.0001947700068827,0.05468719834972905,0.13577668973822704,0.04612176350149937,0.08093555296031316,0.01207581476515985,0.007331991244407642,0.010299310319030237,1,left
1.564,0.1869164663500256,1.0023630324508561,0.05464668654033041,0.13224461161587975,0.041944753070754764,0.07990643436215475,0.01212136075798081,0.007275438221405661,0.010299732327029921,1,left
1.568,0.18162572602452698,1.004163940835864,0.05694053444420975,0.13224680691834648,0.041885060219119544,0.07991531605555818,0.012085478511983326,0.007313272373668128,0.010300994301885955,1,left
1.568,0.17908043555072878,1.0055308854602036,0.05793957576933595,0.13402882295057827,0.04407620906947278,0.08042341598856698,0.012105421753100929,0.00729677718965371,0.01029921846534241,1,left
1.571,0.17565710141655133,1.006749310601366,0.0569288637031645,0.13185510315932,0.04145194203991187,0.07979715213174611,0.012105454102280425,0.007296853224150272,0.010299189498557886,1,left
1.5719999999999998,0.1709392089949079,1.0070944938338449,0.05672957224360897,0.1336082479797781,0.043495087956567424,0.08031217332384111,0.012082327318879966,0.007305582151453164,0.010303717744257127,1,left
1.577,0.1688597665096886,1.0059465063573763,0.05741463492827786,0.13254710238533213,0.0423945615420832,0.079981955148402,0.012129324874269706,0.007294878934462502,0.010292850994834625,1,left
1.577,0.16802114713504251,1.0063102128996744,0.059018385977878396,0.13299726631085895,0.04264387015800378,0.08015160660985117,0.012064034517307538,0.0073032323810827415,0.010309487977627712,1,left
1.5819999999999999,0.16524314436636448,1.0072492933622375,0.06446803175069342,0.13294790750555818,0.04293902349285342,0.08008917296407468,0.012130817407438939,0.007298781613897961,0.01029150648458495,1,left
1.5830000000000002,0.16342249079650553,1.0041860180371573,0.06875078347739338,0.1327590745458492,0.0424310526142014,0.08007282835743032,0.012093129541111101,0.007299920130840524,0.010301968317554096,1,left
1.587,0.16338726118660019,1.0017411199937403,0.06760425475062756,0.13315788360046926,0.04290524292068633,0.08018873675048549,0.012061021906034804,0.007300347133170506,0.010311044908009933,1,left
1.588,0.1602664814531616,1.0013207022495818,0.0682613302833508,0.13245765881319604,0.04259192689899527,0.07991461600876347,0.012200467248458741,0.00730026638700478,0.01027127787890785,1,left
1.5919999999999999,0.1592313568209983,0.9993039153172767,0.073175307020243,0.13356650833931089,0.04272060237112915,0.08039866784035346,0.011942895915717847,0.007298748936681349,0.010345095781860193,1,left
1.5919999999999999,0.1590141230241387,0.9988633721377109,0.07697034184985797,0.1320853146264905,0.042735481744817116,0.07972669744469883,0.012272917601443514,0.007301862436524869,0.010250269417661516,1,left
1.5959999999999999,0.15374983365880612,0.9984373176537299,0.07950414291707841,0.13360105549229806,0.04264394610099323,0.08042468032029802,0.011997705819572973,0.007298716441572966,0.010329427835633051,1,left
1.597,0.15113793962989858,0.9967233744353914,0.0807962698432429,0.13276755877498844,0.042747556298323997,0.08003369229539709,0.012005213293580189,0.007298859525238873,0.010327372960626897,1,left
1.6019999999999999,0.14803580589405912,0.9961066403195153,0.07715296636165306,0.13191757635008167,0.04267917944107048,0.07965839113523068,0.012529288184135406,0.007305592583285298,0.010176169937038843,1,left
1.6019999999999999,0.14339687174839327,0.9952556663827884,0.0740066634086839,0.13539505276171715,0.04268753404041997,0.08123029862720953,0.01124132089281143,0.007288525344781116,0.010547661754863762,1,left
1.6059999999999999,0.1435502770534124,0.9952709421388238,0.07565344180775403,0.12900312025524358,0.04274072748453213,0.07833186112146243,0.01337665819174244,0.007317288125046848,0.00993180340184085,1,left
1.607,0.14231731529032815,0.9953563223596835,0.07578175484428357,0.13719040349942987,0.042647730619798326,0.08204758281383459,0.0105602910950424,0.007278995659563213,0.010744047936807338,1,left
1.607,0.14173774220924873,0.9947147610265866,0.07573094717890995,0.13036331366534698,0.04273570175150567,0.07894805515955168,-0.0012603292971707153,0.007121053085561558,0.014155942491351124,1,left
1.611,0.14567050713415763,0.9942493144396922,0.07977810879828723,0.13053623118691954,0.04271750740352103,0.07902803249638798,-0.004076538616551896,0.00708267561527029,0.014968289142135001,1,left
1.611,0.14988920148834517,0.992044161177081,0.08623253562981342,0.14358611105819108,0.04259191274870963,0.08494862221319555,-0.0019415283714335249,0.0071112110845912985,0.014352002004104514,1,left
1.615,0.15401977768481612,0.9893863441952174,0.09197639555213233,0.11152732304940659,0.04292328907392891,0.07040220299924017,-0.0032290067954478634,0.0070953097267115175,0.01472457923727075,1,left
1.6159999999999999,0.15659299848764174,0.9868912920551326,0.09528120891256961,0.16467739975443063,0.04236554612997497,0.09451868982399592,-0.002705507353214024,0.007099406243753383,0.014571418377718706,1,left
1.621,0.15736849479083975,0.9845939222829264,0.09777603258572021,0.09457285798890115,0.043103896664228356,0.062709943473029,-0.002697524458614091,0.007103664633777176,0.014572023249858254,1,left
1.6219999999999999,0.15879868079703496,0.9840695246398051,0.09860092996622963,-0.19967154612383795,0.046196324424810545,-0.0708099429093513,-0.00297280723008975,0.007095865081899912,0.014648611306708975,1,left
1.6219999999999999,0.1592083943734369,0.9826294069617723,0.09972363274604085,-0.26977995171073266,0.04693438363033667,-0.10261858964609087,-0.0026434776697389136,0.007102055048795292,0.014554791641501252,1,left
1.626,0.15921225755896456,0.97938460063798,0.101903554665118,-0.21662725772717245,0.04637508752266231,-0.07850266296194255,-0.002899333772796451,0.007102102269071728,0.014631058747470387,1,left
1.6269999999999998,0.1620145343230431,0.9771129301062422,0.10070149744554735,-0.24867891917409235,0.046713201516563024,-0.09304752087938667,-0.0027625583895936473,0.007092715841651784,0.014583782806381184,1,left
1.631,0.16316445654182768,0.9763584352176609,0.09973397780951748,-0.23565432036982661,0.046572918105042674,-0.08712987692978906,-0.002791680800046906,0.007111653992551235,0.014605616726810908,1,left
1.632,0.16188898916549907,0.9745171170706423,0.1005389538206166,-0.23543463288680072,0.04657721398341701,-0.08704576818571796,-0.002831324845307154,0.007087406822292409,0.014600586711385359,1,left
1.636,0.16266413393676088,0.9704536994095682,0.10194179329308503,-0.24232267634476284,0.046640235847216285,-0.09014945266658728,-0.002765525516623045,0.007107195155959377,0.014594725331410218,1,left
1.6369999999999998,0.1626746687738464,0.9680200884032779,0.10572537222909167,-0.23408232172700072,0.04656296843683442,-0.08643179850313731,-0.0028249771921725563,0.00710655999141018,0.014611997406337654,1,left
1.641,0.16046882290496647,0.9692808159567038,0.10650099384888359,-0.2404829929056538,0.04662630074321214,-0.08932697178388174,-0.0027895611840797144,0.007071972717353328,0.01457742688190597,1,left
1.641,0.1586412143812032,0.9707230043566607,0.10481525713903977,-0.23708371895892993,0.04658214717841826,-0.08776616660037082,-0.002796838508835061,0.0071520109857589635,0.014635175410230131,1,left
1.645,0.15765616919072684,0.9688924291054322,0.10517375674576696,-0.23773792482539782,0.04661581684761475,-0.08812194950072222,-0.0028119195978888283,0.0070322548699023,0.0145565083109622,1,left
1.645,0.15508085223054305,0.9671447134529026,0.10302543873519915,-0.23887688346526054,0.04658168899849143,-0.0885373454499517,-0.002786356025344024,0.007160050709515281,0.014637634644172955,1,left
1.65,0.15131121090254146,0.9683822361383972,0.09865860546381314,-0.23702011161259032,0.046618735740743565,-0.08781920323427761,-0.0028074820345728923,0.007086114574037417,0.014592587082960703,1,left
1.65,0.14838260832305644,0.9682377754371096,0.09631406426032144,-0.23872261893325233,0.046591551057046265,-0.08849261007587411,-0.0028059336444057224,0.00702267825569477,0.014548075106948596,1,left
1.655,0.1441550522657235,0.9670623840184343,0.09491901024130243,-0.23773218074692173,0.04658067572822862,-0.08804226803732859,-0.0027762646505481757,0.007300864061249527,0.014732409570197946,1,left
1.656,0.14123266792984418,0.9680497479405696,0.09288002973397005,-0.23775454505728721,0.04666474842871045,-0.08823640785365289,-0.0028398847273223577,0.006784821917560848,0.014393021683721398,1,left
1.66,0.1400980218844774,0.969008517171046,0.09184670038373303,-0.23869376210058876,0.04648310707514358,-0.08824218794486208,-0.0027551121552268657,0.0074475149772629205,0.014827942576594016,1,left
1.661,0.13623825900272307,0.9689676893276008,0.08933800660124874,-0.23705546463788055,0.04675154548272274,-0.0881258973165445,-0.002827157511619224,0.006894206529929519,0.014465187108584222,1,left
1.665,0.1342340740227543,0.9709219566140218,0.0831565857481407,-0.2388460467035369,0.04646590037708283,-0.0882699510004209,-0.002823277130938437,0.006909307057797725,0.014474516926459048,1,left
1.666,0.13502673156964187,0.9754134958036271,0.07913172395388757,-0.23774176293628108,0.04663011932508366,-0.08815499218484929,-0.002691060679405789,0.007964049240862007,0.015167543373808372,1,left
1.67,0.13545637137912536,0.9779517762851856,0.07597411162661225,-0.23713517581543295,0.046775614002594626,-0.08821291469427014,-0.003018769862441808,0.0053713861086922355,0.013464820867296888,1,left
1.67,0.13829698461003842,0.9788461879180081,0.07354497600748375,-0.2403550302565106,0.04614543442057881,-0.08821653855126521,-0.002474452685662206,0.009670303976145914,0.016287840306875957,1,left
1.6769999999999998,0.13987282467030532,0.9800169875181342,0.07565402645992678,-0.23428190099912816,0.04731277572454668,-0.08816330237619684,-0.003192659910722193,0.00399989715001485,0.012564259812265551,1,left
1.6780000000000002,0.1401636405784812,0.9796653452092656,0.07644627765355233,-0.24210278896308537,0.04581435572987795,-0.0882422488312053,-0.0062074101911862994,-0.019799816480895648,-0.003064182885543624,1,left
1.679,0.14283420432297633,0.9809662822733021,0.07638864244479718,-0.23556456046491772,0.04706481585083794,-0.08817183548745121,-0.006925444742460167,-0.02547048316189917,-0.006787995341461526,1,left
1.679,0.1427492173523446,0.9828443227652023,0.07711754381007715,-0.2357763718317289,0.04703229351196994,-0.08819059332699752,-0.006381080123348681,-0.02117128098180468,-0.003964792555794966,1,left
1.679,0.14142103820770868,0.9820625207158682,0.07598482782474075,-0.248128519510361,0.04464436648379487,-0.08827015776893882,-0.006709690130062416,-0.02376384840180268,-0.005667180096815865,1,left
1.685,0.14153826768472677,0.9824144554742729,0.07550926645710157,-0.21772796691017735,0.05051132337759835,-0.0880542126188634,-0.006575143323183328,-0.022710015682090065,-0.004975479913240913,1,left
1.686,0.14180310406505442,0.9820599905694527,0.07493872871652965,-0.2681432903817439,0.040784986791995645,-0.0884180704987253,-0.006575134178248154,-0.0226929428819557,-0.004963626349208193,1,left
1.689,0.14329302976654668,0.9801676474203046,0.07410524961169174,-0.20164565605381063,0.05361303383654474,-0.08793708003284077,-0.006642543919963986,-0.023249091534586,-0.0053297362535435575,1,left
1.69,0.144771822132513,0.9803313223013225,0.07303091986391269,0.07744702266635373,0.10748688012046842,-0.08596222247063678,-0.006561244594345213,-0.022583554775549547,-0.004891804931592024,1,left
1.69,0.1463719279038031,0.9791437987080378,0.0726970234592307,0.14394081754499272,0.12031598757457475,-0.08548407646374794,-0.006625488270950955,-0.02310085260839565,-0.005231879171169615,1,left
1.694,0.14742641592631694,0.9765909886112637,0.07452619738320243,0.09352719187173565,0.1105850069792631,-0.08584216385997501,-0.006587946615995399,-0.0228250426225284,-0.00505154135324522,1,left
1.695,0.14677671785740326,0.9765699103455472,0.07404183211183922,0.12393802442844976,0.11646391298167386,-0.08563458678696477,-0.006603345325713395,-0.022880712060007448,-0.005085607447380239,1,left
1.7,0.14566932759366893,0.9764911810157413,0.07450506016340037,0.11155416144639468,0.11405425780437833,-0.08570469498781592,-0.006600046981025105,-0.022968095408655992,-0.005147275029545519,1,left
1.7009999999999998,0.1449954103797009,0.9770957101773854,0.07594313267551676,0.11139860722225117,0.11405142819332052,-0.08573066196408866,-0.006599385552856562,-0.022823727909251537,-0.005047216007269607,1,left
1.705,0.1439553148651475,0.9806872422982508,0.07413435351615022,0.11786576757538463,0.11527297188087013,-0.0856604299266513,-0.006602192719005237,-0.02295679818449589,-0.00513878937339047,1,left
1.706,0.14197303605083295,0.9832717179869105,0.07197856983102152,0.11010366589276646,0.11378628788912898,-0.0857260582150867,-0.006591910103641111,-0.02287664272880948,-0.005086193036617503,1,left
1.709,0.14079743590092897,0.98569103836053,0.06716964741298043,0.11617368145526853,0.11498024269238889,-0.08570296461388768,-0.006619310277214126,-0.022887063551042378,-0.005085255511381496,1,left
1.71,0.1389807379490246,0.990463686594981,0.06402574036207634,0.11285207385870087,0.11426699315722386,-0.08566181073792331,-0.00656684492283373,-0.02294335468627687,-0.005139998456660158,1,left
1.715,0.13683412806668815,0.9939383536630961,0.0668285331385286,0.11369822734486304,0.11455450483944515,-0.08576726487558778,-0.006642681754649266,-0.02284019440423934,-0.0050457355460189375,1,left
1.716,0.1361063947495874,0.9940171985027105,0.06951765746861872,0.11443980636951244,0.11454531393529942,-0.08562531143600911,-0.006562292338819175,-0.022953736422865537,-0.0051485654123561535,1,left
1.7180000000000002,0.13487424754278565,0.9932592103954827,0.07303330008468614,0.11304116753591206,0.11439676985690223,-0.08574418211031547,-0.006608023466401783,-0.022882491411435148,-0.0050854487440291744,1,left
1.719,0.133620475917153,0.9939369715233138,0.07785292650831319,0.11444645693739865,0.11466903551604213,-0.08573509513525793,-0.0066509957398882,-0.022849021351664424,-0.005049383693332496,1,left
1.724,0.13243130195262542,0.995400296439365,0.08038223882178311,0.11332219573166763,0.11422695515975476,-0.08554122988467636,-0.006468745321854239,-0.02304124011667604,-0.0052372405728887735,1,left
1.724,0.1303411979448467,0.9960130356144218,0.07929657495616663,0.11415203869848303,0.11490156183296191,-0.08599669154179082,-0.006805676155416912,-0.022676517171162938,-0.004883446043762273,1,left
1.7280000000000002,0.1268901583303973,0.9949480417489063,0.07648811133743699,0.11352663043223687,0.1140133722587065,-0.08531284246503729,-0.0063732830915085754,-0.023146685971908526,-0.005338942067299128,1,left
1.7280000000000002,0.12385622924995186,0.9939832540931525,0.07596416470704292,0.11396916389737524,0.11491697513190952,-0.08604347344316245,-0.006734160093558697,-0.022753423708062576,-0.004958192947014402,1,left
1.732,0.12431651479975413,0.9945280383580271,0.07586931008339966,0.11386382190608914,0.11442381148437733,-0.08562015779567891,-0.006724782769784008,-0.022766927308756183,-0.004970355717447993,1,left
1.733,0.12481994382498962,0.9957891801014401,0.07287901560844465,0.11330552384256878,0.1139087330625187,-0.08525887170256455,-0.006035405085481734,-0.02350740156961785,-0.005690245442914963,1,left
1.739,0.12549827293681173,0.9956833575098631,0.06772092921594691,0.11488640818727369,0.11599704961623572,-0.08684677443946814,-0.007729329430181756,-0.021684053742829737,-0.003918684312780679,1,left
1.74,0.13024363389172539,0.9942542358772676,0.06450799386154515,0.11215847421796579,0.11216336044442413,-0.08390029779416518,-0.004920875582848371,-0.02470809207259636,-0.006856536706090932,1,left
1.743,0.134175013486091,0.9955706911651971,0.06483887842729937,0.11558772790962152,0.11707203621768439,-0.08768448586867973,-0.008625163952566224,-0.020719361557491073,-0.0029815299225795593,1,left
1.744,0.13520383333710528,0.9966907594629939,0.06516682371969454,0.11275603352654476,0.11297971602054406,-0.08452466912529713,-0.024174840991563883,-0.003980513152780226,0.01328162809315972,1,left
1.745,0.1375593874216848,0.9941174588190487,0.06791483704188431,0.11278440926681549,0.11308195613459485,-0.08461139448552968,-0.02787911348836298,7.814877689756895e-06,0.01715631950864565,1,left
1.749,0.14180592093260055,0.9931205407827743,0.07238277621766644,0.11831215388815952,0.12090804366177911,-0.09063355749569751,-0.025070676770723707,-0.003015787996090724,0.014218808326141186,1,left
1.749,0.14532403085588314,0.9942036510989125,0.07380183070909796,0.1047957079413899,0.10168440318611782,-0.07582958798283115,-0.026764607802045676,-0.0011922745280248358,0.015990499216719543,1,left
1.755,0.14863491270347357,0.9942983591971458,0.0740206981378579,0.12717978978866698,0.13355411725491945,-0.10037674896003779,-0.026075172832208914,-0.0019341933008561849,0.01526947769790789,1,left
1.756,0.1523117415787243,0.9948752716032596,0.07250728759755144,0.0976654845829798,0.0915188676113727,-0.0679977717016968,-0.026065918551929468,-0.0019445888827968423,0.015259750138295234,1,left
1.757,0.1527749577208613,0.9955793029758602,0.0728299132457132,-0.026265973315510446,-0.08491831028147855,0.06789706598316797,-0.026426619305556648,-0.0015557828622674336,0.015637007648749292,1,left
1.758,0.15343856320774124,0.995541486939977,0.07634323297458678,-0.055777468562523275,-0.12695511092486844,0.10027831901774073,-0.02599440153472246,-0.0020215142058053973,0.015184988554465987,1,left
1.7590000000000001,0.15711357252265684,0.995739500317608,0.07844494391887538,-0.03340195712107058,-0.09508478647697996,0.07572865701304206,-0.026331257129167417,-0.0016587058830444962,0.01553728282601636,1,left
1.7619999999999998,0.1599331220699527,0.9929218272995889,0.0822687602777137,-0.04689997118218482,-0.11430400690012539,0.09053182744152102,-0.026148855271058664,-0.0018547352779672839,0.015346440328706327,1,left
1.7630000000000001,0.16301756177610177,0.9894259612882667,0.0841022269938301,-0.041402524869594615,-0.10649128232171265,0.08451754868370541,-0.02619231380238533,-0.0018089903634817017,0.015392122980021055,1,left
1.767,0.1657647907196635,0.9890369969536482,0.08355021140401214,-0.041335936689507996,-0.1063654987409128,0.0844136701547184,-0.026237207980264014,-0.0017588953015046024,0.015438668066144256,1,left
1.768,0.16798587084479402,0.9861234130262782,0.08781973396919984,-0.044200820935294496,-0.11048740542953847,0.08759823254047198,-0.026157844763173097,-0.0018464811785674354,0.015356175741810512,1,left
1.7719999999999998,0.1727456788214744,0.9841139683638163,0.0899088781977257,-0.04076549621517893,-0.10555447647383515,0.08378921375952128,-0.02623286487696299,-0.001764014159575199,0.0154342245015569,1,left
1.7730000000000001,0.17595072415451865,0.9854315860850862,0.08720312908142924,-0.043445950541145376,-0.10938895793627318,0.08674675575154553,-0.026180388981366532,-0.0018204902279257812,0.015379337245328924,1,left
1.777,0.17570596400177027,0.9831021189623304,0.0858012882217297,-0.04198571976085115,-0.1073437556111845,0.08517936582531455,-0.026209312254390618,-0.001792508621615998,0.015410363531318224,1,left
1.778,0.17598872155850104,0.9805681774385825,0.08644662088876362,-0.042353960680764385,-0.10775829463225323,0.08547318169544585,-0.026195554766185743,-0.0018001145379873313,0.015394196709587542,1,left
1.7830000000000001,0.17698283285646063,0.9804038351281479,0.08865799699107205,-0.042674028569877814,-0.10840292340415253,0.08601354205715024,-0.02620354114254692,-0.0018022598629260152,0.015405207075671454,1,left
1.7830000000000001,0.1774462528179413,0.979438475391248,0.08980104695661933,-0.042087721357965624,-0.10733655446099422,0.08513842810318405,-0.026197364340872175,-0.0017974605521152583,0.015395909056723937,1,left
1.7890000000000001,0.1755642933826123,0.9792308648653855,0.08925036010503669,-0.04264883158019979,-0.10831996505270475,0.08593872069554517,-0.026197242877142472,-0.001804203969759081,0.01539742779080724,1,left
1.79,0.17285004430457052,0.9798744021620766,0.09091009183779591,-0.04223036544799466,-0.1077257411763515,0.08548140788840462,-0.02621541123734667,-0.0017903505967550549,0.015417831300056408,1,left
1.791,0.17302358254496725,0.9787582271390416,0.09539997939778852,-0.04252875830226372,-0.10780863107817776,0.0854658129997855,-0.026165813786882628,-0.0018187864940324768,0.015359787017627524,1,left
1.7919999999999998,0.17183180160422123,0.9772583193643982,0.09873888223067616,-0.04226396476068065,-0.1082130350592479,0.08595882367523004,-0.026252387584321323,-0.0017718650642598948,0.01546179364034629,1,left
1.796,0.1677543918004237,0.9770787946851703,0.09995600355901152,-0.04255902880121312,-0.10746752546488265,0.08511382494442357,-0.02614244305497806,-0.0018308058853573495,0.015332072633178845,1,left
1.7990000000000002,0.16603444180668023,0.9759474417783147,0.10001635176631529,-0.04226316396596577,-0.10828871970336533,0.086034972344082,-0.026233725584054034,-0.0017821353316458464,0.015439865506741585,1,left
1.8019999999999998,0.1644016007929845,0.9750301461536501,0.09706926274547367,-0.042404632969685774,-0.1077724375955062,0.08547057402314084,-0.02623316861687046,-0.0017814082287853068,0.01543889628989779,1,left
1.8019999999999998,0.1599422516380639,0.9760208987644526,0.0938401628054024,-0.0426724004593719,-0.10753449026142961,0.08514346716306867,-0.026052862322713574,-0.0018809030201251142,0.015226948500235569,1,left
1.807,0.1578055331627752,0.9770821631858435,0.09230475604914162,-0.04173936478152919,-0.10891480143324514,0.08683589491520305,-0.026493750237088394,-0.0016387825130468963,0.01574561042064957,1,left
1.807,0.1569992733750954,0.9782590497792664,0.0903659431975887,-0.04342642072420169,-0.10629388102353801,0.0836502843783479,-0.025763359739451656,-0.00203958437512914,0.014886213718034525,1,left
1.811,0.15451283982178082,0.9793707888196572,0.0900502433321725,-0.04127007562054188,-0.1096729132540969,0.087751183823349,-0.026726645117002876,-0.0015110076077977925,0.01601973564749966,1,left
1.8119999999999998,0.15435115489292822,0.9799068152840085,0.09126290802602337,-0.04306600977079364,-0.10684649749253144,0.08432348976352734,-0.030773308293018258,0.0007109449199054755,0.020780172647872543,1,left
1.8119999999999998,0.15435075445441465,0.980430067387277,0.0895731997848522,-0.04303325166302617,-0.10694403949148107,0.08443219063501199,-0.031736743332703654,0.001239723090198399,0.021913989187567137,1,left
1.8159999999999998,0.1533307297353193,0.9821998704865964,0.08536784382927956,-0.039557562917681394,-0.11226414559384185,0.0909153994553869,-0.031006190934840357,0.0008387032263258614,0.02105427367161454,1,left
1.817,0.15573448367935677,0.9846125986701002,0.08427243974747459,-0.04808091723181768,-0.09916345194825318,0.0749621624366284,-0.03144701717775039,0.0010807412008317476,0.021572814589732647,1,left
1.8230000000000002,0.15845245991628137,0.9848415787693973,0.08415689856677966,-0.03395482209268639,-0.12089098179386504,0.10141749056398382,-0.031267248180799165,0.0009819685118523753,0.021361923650013197,1,left
1.824,0.1581964871656596,0.9847099571079686,0.08181259473993265,-0.05258505588273146,-0.09223252161307599,0.06652361273016602,-0.031265535270513234,0.0009811414480877926,0.0213586801743477,1,left
1.8259999999999998,0.15832723351397932,0.9852648539251231,0.08210530713192993,-0.13081554793825143,0.028033719627133708,-0.07992491168703983,-0.031358475091632976,0.0010320407394567945,0.021469734123971178,1,left
1.827,0.16006933442739946,0.9854164571927402,0.083246304638121,-0.1494433755855773,0.05668819587361221,-0.11481436626122268,-0.03124688036496146,0.0009708800885205539,0.021336765452863116,1,left
1.827,0.16012875019523753,0.9867374104181863,0.08265894378544358,-0.13532196393018728,0.03496558020610588,-0.0883649407762672,-0.0313341659697399,0.0010187602107330348,0.021440173963196873,1,left
1.8319999999999999,0.15855832026494004,0.9875075184344528,0.08054016047118578,-0.14383894026557453,0.04806577446603781,-0.10431604162611519,-0.03128598607520005,0.0009922284865986988,0.021384917149659413,1,left
1.8330000000000002,0.1591834970690324,0.9876032197286297,0.0776298982718826,-0.14036980615042494,0.04273577973699135,-0.09782511456320153,-0.031299588980016085,0.0009999445192480113,0.021396339154884834,1,left
1.835,0.16254049459803624,0.9868660851364626,0.07990847241187084,-0.14033309290789475,0.042662460026093516,-0.09773846943139913,-0.031307333483544524,0.0010037779649867851,0.02141333469679034,1,left
1.8359999999999999,0.165771864696259,0.9839806705520976,0.08390737862528361,-0.1421265730623671,0.045451787535271425,-0.10113017738715235,-0.031291503703201135,0.0009955947224164767,0.021385041374486706,1,left
1.841,0.16758076432948338,0.9835162150354921,0.08315316894864536,-0.1399828208847613,0.0421126334945121,-0.09707056224484592,-0.03130718509905679,0.0010038028364886054,0.021411197772170355,1,left
1.841,0.16859101791570652,0.9831167729965283,0.0800588880045442,-0.14164559535538557,0.04471087622627727,-0.10022823899593335,-0.031293498031339906,0.000996282003296381,0.02139516118859936,1,left
1.845,0.16723314751045643,0.9813489188258652,0.0775310607696019,-0.14074517799132172,0.043308928216796924,-0.09852368078333015,-0.03130813714666955,0.0010050668396083587,0.02139809130916578,1,left
1.8459999999999999,0.16332517875498012,0.9826173524328168,0.07628223780121643,-0.14098258666048163,0.04363826092774942,-0.0989299807772942,-0.031288301956182936,0.00099247480230635,0.02140742172730393,1,left
1.85,0.15984608210186324,0.9835114593864849,0.07471564969911304,-0.14113395660764158,0.04398477232091042,-0.09933515476315873,-0.03131463011776276,0.001009463538125394,0.02138966126397448,1,left
1.85,0.1575527356026909,0.9856942566989644,0.07344706348557843,-0.14087096562086543,0.04338499858842178,-0.0986335915517476,-0.031287170411924914,0.0009916918488828738,0.02140931228494496,1,left
1.8559999999999999,0.1554716079074424,0.9897424706384842,0.07415904013822511,-0.14107257914195057,0.04393446290022841,-0.09926742173956415,-0.03130208067619135,0.0010014269541380781,0.021396825273397736,1,left
1.8559999999999999,0.15259150543579503,0.9910339745867082,0.07504397937828199,-0.14096170943022612,0.04357323268776428,-0.0988556254919417,-0.0313196733015814,0.0010124469581262153,0.021391662901886904,1,left
1.861,0.1486456135472352,0.9938704916687585,0.0759614494302671,-0.14107856468573154,0.04375111849494549,-0.09907249990184525,-0.03125043297609438,0.0009685301587653095,0.021423431279189317,1,left
1.8619999999999999,0.1444283262219357,0.9973848588023224,0.07880308256639657,-0.14079415251437127,0.043667870175494665,-0.09891903632588869,-0.03137744610118921,0.0010491856839746202,0.021362854258388894,1,left
1.865,0.1406774283016835,0.9978592315936873,0.08058798908460553,-0.14138052703806864,0.04376052129341427,-0.09915087116318375,-0.031214659468284205,0.0009458110034895926,0.021441019487596996,1,left
1.8659999999999999,0.13814469971737978,0.9982116304996028,0.07995160310759522,-0.1404910668203063,0.04359960446461402,-0.09877739606526931,-0.031350450897340884,0.0010320164159432757,0.021375597021715733,1,left
1.869,0.13809951849951174,0.9971169102117444,0.08126144354779163,-0.14145877319273237,0.04380123922380433,-0.09921215950109863,-0.03134722466693761,0.0010300153734006724,0.021377981749940777,1,left
1.87,0.1404909920108904,0.9947291772234133,0.08211904688838609,-0.14089990496649296,0.04368506978114211,-0.09896137539405653,-0.031086791061862323,0.0008646023581512864,0.02150074705687139,1,left
1.876,0.1422904929679453,0.9933646251568967,0.08125621967301014,-0.14037455774699492,0.043518140869710266,-0.09866382873061656,-0.03172640594414619,0.0012707276801133711,0.021198252644870096,1,left
1.8769999999999998,0.14144500233769874,0.9911133603393057,0.08223810998444495,-0.14261714191646502,0.04416220336613447,-0.09986062446782827,-0.030665991809191526,0.0005975175903096408,0.021700026487938187,1,left
1.88,0.14011350352313118,0.9900013691514226,0.08371201499816043,-0.13846120739347012,0.04297212346680811,-0.09764647484546843,-0.032064700398059275,0.001485409432999309,0.021038138536506712,1,left
1.881,0.1410192932357936,0.9897311575382807,0.08524424112333732,-0.1438010684899519,0.04450573302904597,-0.10049620168909396,-0.037935283171543814,0.005214575039426248,0.01826183560325724,1,left
1.881,0.14277757013604953,0.987070605916528,0.08486334974331836,-0.13934168408038,0.04322295204378758,-0.0981141749321999,-0.03933401104606445,0.006102569660672988,0.0176000634901329,1,left
1.885,0.14237454030548252,0.9862772702686142,0.08449725852989559,-0.1394572590049132,0.043250471562709454,-0.0981697697667267,-0.038273725440625045,0.005429012445333692,0.018101565874291133,1,left
1.8869999999999998,0.1398428659498005,0.9869622681523419,0.08780732938233538,-0.14798124991869055,0.04572686904861861,-0.10274909110219399,-0.03891280322478115,0.005835931130218351,0.01779954138991509,1,left
1.889,0.13955389403681584,0.9851818450743494,0.08914588924019465,-0.12703486223607596,0.039645847941736694,-0.09150078612565347,-0.0386535297527764,0.005669164189357483,0.01792165535528835,1,left
1.889,0.1423392345761359,0.9851946488308665,0.08907309703530919,-0.16176453922271067,0.049728747939725884,-0.11015119780059311,-0.038648536149317805,0.005668925365024939,0.01792472866001198,1,left
1.8940000000000001,0.143002386690785,0.987917802864031,0.09052050146723742,-0.11595570192244282,0.03642789971042974,-0.08554961650648446,-0.038786278148149,0.005753525555506671,0.017858889643883928,1,left
1.8940000000000001,0.14306941065320755,0.9878782952712432,0.09180219985884425,0.07635516864625946,-0.019427128815729836,0.017748669910517833,-0.038622277980260585,0.005650598376794618,0.01793675677799797,1,left
1.895,0.14640273313071284,0.9864107702194009,0.09290338786863109,0.12216640341934899,-0.03273096631301038,0.042354004092793676,-0.038748461324044095,0.0057331981071747605,0.017877632191473432,1,left
1.899,0.15153610064887812,0.9879118843700789,0.09344773389536004,0.08743108024580763,-0.02264254493121129,0.023696356442132114,-0.0386833816255686,0.005683972204546175,0.01790660617273398,1,left
1.9,0.1555426549534697,0.9878747819212876,0.09363027741638119,0.10838729262816547,-0.028730437257457678,0.034954365164787504,-0.03869293681879881,0.0057036217150219105,0.017905197517837076,1,left
1.9040000000000001,0.15895442058241643,0.9845094964008784,0.09320317481316742,0.09984961754174476,-0.026248066337311825,0.030365323607600293,-0.03871865002583503,0.00570329789795619,0.017889221994295504,1,left
1.905,0.16484492356215452,0.9840270217945221,0.09379151172167273,0.09974859578690057,-0.02622224168349823,0.030315151380522876,-0.03868116734372741,0.005692762396228356,0.017909990074447345,1,left
1.909,0.169123390544219,0.9837525147656698,0.09284938696704864,0.10419903514964039,-0.027511525746854445,0.03270180622763323,-0.03871065284792058,0.0057116151043618,0.017896066825316522,1,left
1.91,0.17166274491941147,0.9808159475377014,0.088936874607956,0.09885319049768015,-0.025960281773256925,0.029831977847097048,-0.03870197437916202,0.005681465387580319,0.01789454614827515,1,left
1.913,0.17585224154210707,0.9806729356584934,0.08983403109971788,0.10303935915863305,-0.027178692538425864,0.03208357147786334,-0.03868522058503614,0.005727114093402767,0.017915330914745516,1,left
1.9140000000000001,0.17712155718801503,0.9819078824396827,0.09239970565980674,0.10073819477092708,-0.02650202336321012,0.03083774140167856,-0.03872310000853219,0.0056672102347315075,0.017878226158219726,1,left
1.92,0.17678711124846117,0.9806033942034817,0.09309684220678707,0.10134262755488463,-0.02669184362692948,0.0311791916948752,-0.03867800341911633,0.005728059849819412,0.01792001512581183,1,left
1.92,0.17976371798013782,0.9785258519327273,0.09659953006778091,0.10182745708941723,-0.026815200097778404,0.03141907031306043,-0.03870722434288187,0.0056949331204642194,0.01789436555059458,1,left
1.923,0.18288534641893256,0.9780785213923892,0.09804395964776882,0.10088452976926779,-0.026555231060661474,0.030928942102929284,-0.0387225760188782,0.005660058785154162,0.01787693199699579,1,left
1.923,0.18191236272460626,0.9783026436326941,0.09660666286531899,0.10185296235187669,-0.026836615940805792,0.03144925265128244,-0.03863723865740047,0.005801009102329967,0.01796186444883298,1,left
1.929,0.1829882499537981,0.9782267818182725,0.09610986371074923,0.10104000599749988,-0.02657478830041317,0.03098232538769094,-0.03879978924468564,0.005542402315955626,0.017802306347923784,1,left
1.929,0.18844795687222826,0.97851119390159,0.09447484963693237,0.10169930730709703,-0.02682503053061805,0.031405613849467086,-0.03858951505683572,0.005873421092857224,0.01800794020800792,1,left
1.932,0.1900003164317849,0.9765341933333318,0.0933399991114468,0.10113788377850849,-0.026574329623033036,0.03100088891484858,-0.03876572531387047,0.005597576536922241,0.017835924701495198,1,left
1.933,0.19118696078523023,0.9747703004403973,0.09386049597554481,0.10158185310199691,-0.02679669612436667,0.03134934231826363,-0.03875992645146169,0.005604194654006911,0.017841132929123753,1,left
1.9369999999999998,0.19408901057211939,0.9752289066282773,0.09270838797527972,0.10142900643074348,-0.026698327075165645,0.031203672703701914,-0.0384266602063935,0.006132368441604955,0.018167685057356373,1,left
1.9380000000000002,0.19440382946215695,0.9739570192936812,0.09046824618618309,0.1009749120018358,-0.026519915145047233,0.03090504586883379,-0.03924729203502468,0.00483554149334723,0.017364212293760322,1,left
1.942,0.19604488361058264,0.974633895711209,0.0901842469717502,0.10236747173971437,-0.027127986418136567,0.03189267126713333,-0.03788605747018413,0.006985037993808079,0.018696795997111527,1,left
1.943,0.19740543528510618,0.9766623341289603,0.09077474263873969,0.099925616141324,-0.02604116775144938,0.03013659778704405,-0.039681764585879645,0.004150388138815486,0.016938883872586845,1,left
1.9469999999999998,0.19658261535115962,0.9758023365698087,0.09140701784153729,0.10301019149286292,-0.0274219146186419,0.03236421427840659,-0.04721819836441351,-0.007750674414644397,0.009561223667095945,1,left
1.9480000000000002,0.19604598660120542,0.9758870650560464,0.09191263838193052,0.1004568399193288,-0.026275532290120418,0.030516105168053746,-0.049014064064907645,-0.01058427740238833,0.007802912398440056,1,left
1.949,0.19487627705914473,0.9772890631158871,0.09214123052050349,0.10049202980272753,-0.026296709893475448,0.0305481299505116,-0.04765248145943315,-0.008436480967749183,0.00913616736303879,1,left
1.953,0.19265928554210754,0.9788333311384702,0.09433136687097146,0.10545069070658308,-0.028508746503146068,0.034119879545873796,-0.04847367306502402,-0.009731728867765944,0.008332010837267364,1,left
1.954,0.18935894202265088,0.9801803692765304,0.09809391017053995,0.09331259279313403,-0.023086260492744787,0.025367180208097515,-0.048139687395450305,-0.009203941443800972,0.008658878731126404,1,left
1.9580000000000002,0.18654218779092363,0.9809503909770685,0.10054105489509438,0.11341847506410582,-0.03207128674818717,0.039869382057254044,-0.04813457562199924,-0.00919926012045477,0.008664575495170058,1,left
1.9580000000000002,0.1854706544700273,0.982768255310295,0.10082155936190106,0.08690731852627809,-0.02022252097159228,0.020745138660568097,-0.048310489941294575,-0.00947011146837047,0.008490924432163652,1,left
1.962,0.18527157700785335,0.9830961439742095,0.10244348904337944,-0.024408741251677583,0.029522930817505236,-0.05954559539182093,-0.048099649545001226,-0.00914683330463599,0.008699355034069031,1,left
1.963,0.18245242555178692,0.9823124843802997,0.10264124845350564,-0.05091395025320283,0.04136998130540955,-0.07866775128973366,-0.04826404312997093,-0.00939695905590851,0.00853642103711642,1,left
1.963,0.17615970664490876,0.9827369395901331,0.09927896964802242,-0.030820644871744924,0.032388589038148674,-0.06417057446294253,-0.048175508161189734,-0.009261208596754484,0.008623950321553844,1,left
1.9669999999999999,0.17265102514226321,0.982355436148484,0.09947607090529087,-0.0429394348900156,0.03780548260044592,-0.07291433383382331,-0.04819482281307437,-0.009299712396071046,0.008606750333624933,1,left
1.9669999999999999,0.16898551549956536,0.9834790915335191,0.10017830303970865,-0.038004279546264876,0.035600274525408634,-0.0693552939489841,-0.04822081301508979,-0.009315017355703115,0.008575817371416737,1,left
1.972,0.16157014443911083,0.9855040238272221,0.09974500076544934,-0.03794847750282106,0.035573078938435934,-0.06930941847746606,-0.04817586084218911,-0.009288321778628306,0.008629272854112007,1,left
1.972,0.15679662800640148,0.9851644340968784,0.10034769518680914,-0.040507393715507226,0.03672114487347153,-0.07116658164601453,-0.04821933256644306,-0.009302652440768094,0.008575126435491603,1,left
1.9769999999999999,0.153348377682529,0.9846147554524358,0.09900325322329868,-0.037447242253958346,0.03534739655953434,-0.06894344585458514,-0.048189489549147355,-0.009298818216888948,0.008613575771731464,1,left
1.9769999999999999,0.14953828818024145,0.9844908750666427,0.09917930375270942,-0.039822914177378405,0.03641508586647825,-0.07067252288186529,-0.04820057636595173,-0.009316696284174008,0.008602812108284967,1,left
1.982,0.14759216684154358,0.9866658003204049,0.0989730092328227,-0.03853760340117801,0.0358381258750777,-0.06973880189581949,-0.04820872032874327,-0.009249283700131988,0.008577688902291169,1,left
1.982,0.14543461482373632,0.9886674060651592,0.09696438559686332,-0.03886680352434172,0.0359801801896836,-0.0699631412316789,-0.04818398824002379,-0.009393692302470672,0.008641080359292948,1,left
1.9869999999999999,0.14398671946215608,0.9864889728556978,0.09925389614116001,-0.03910962674487006,0.03610494254575938,-0.07018040887882704,-0.04821946472653285,-0.009176006554786956,0.008547912476809614,1,left
1.9869999999999999,0.1445442352017689,0.9865337204057227,0.10176477837583386,-0.03868820954611231,0.03588868218190751,-0.06980398444406818,-0.04818352860789055,-0.009411055569178832,0.008645374796620758,1,left
1.993,0.14347773983262024,0.9880332101321737,0.09907217486430572,-0.039033004065346016,0.036077004715985225,-0.070141524557848,-0.04820431919460093,-0.009275249789383697,0.008589057915684139,1,left
1.994,0.14124196939043948,0.986743745311531,0.09603751011151365,-0.03882907480974213,0.035958598727291485,-0.06992364617317254,-0.04821803768352287,-0.009151663328209558,0.008544554689968696,1,left
1.9980000000000002,0.14148508526202308,0.9860688765935128,0.0966021077856374,-0.0389949255359786,0.036032459088854885,-0.07004262042539494,-0.04815254068702245,-0.009684165255355447,0.008744513885641198,1,left
1.9980000000000002,0.1419770650696729,0.9856327758558345,0.09812829382954841,-0.038675963301208025,0.03594053098761604,-0.06994391064448727,-0.04827429323630317,-0.008696985900628805,0.00837346986488076,1,left
2.001,0.1434247614614078,0.9851238105099464,0.09763722721961751,-0.03931439929128199,0.036110212113062166,-0.07010428429225182,-0.048118284922780405,-0.009965197055723508,0.00884952239503015,1,left
2.001,0.14653971220745277,0.984294283420067,0.09444535664798658,-0.038341076319158715,0.035847713159642594,-0.06984991837308456,-0.0482483996717462,-0.008906063204867356,0.00845231471595091,1,left
2.006,0.14413732187823444,0.9818915363727232,0.09337539893379762,-0.03940641187874951,0.03613997662039607,-0.07014114863176946,-0.048244367717307654,-0.008934319785210774,0.008463330389609726,1,left
2.0069999999999997,0.14020843710262199,0.9814197150167275,0.09573375309696822,-0.038791292133562784,0.03597125140991437,-0.06997310635487895,-0.047998314131026024,-0.010956141721339303,0.009219294055051858,1,left
2.011,0.14284564298544764,0.9818826341780247,0.09523490639211395,-0.038198889674128884,0.03579817556300288,-0.06978366157305382,-0.04860355227788336,-0.00598672777962147,0.007361223398083662,1,left
2.011,0.1442165896078663,0.9797010005880321,0.09306680232592456,-0.040710728344397,0.0365198410664221,-0.07055500342278642,-0.04759998173404571,-0.014226662334745267,0.010441741035804582,1,left
2.016,0.14127214425749862,0.9786070136205834,0.09223579593378656,-0.03605683292229317,0.035183310271377694,-0.06912744778815855,-0.04892364609966825,-0.0033577825154087965,0.006378824146241063,1,left
2.016,0.1408969243626288,0.9785262738954953,0.09338274600973676,-0.04203742629986154,0.03690174404656536,-0.07096415902165995,-0.05447640675728345,0.04225772951051616,-0.010678858195722427,1,left
2.016,0.1421048980520469,0.9759813586622211,0.09463377250538596,-0.03704272963383313,0.03546610433326995,-0.06942914727043561,-0.055799819221147615,0.0531265746998751,-0.014741779680856068,1,left
2.021,0.14367265381395822,0.973958072763441,0.09339731997549322,-0.03717015793356817,0.03550197215558868,-0.06946589322708689,-0.05479688740000059,0.044887591507325034,-0.011660748720909025,1,left
2.021,0.14591788541369435,0.9724891743111431,0.09408888794979725,-0.04672484174544221,0.03825204437853953,-0.07241312330314648,-0.05540093217890622,0.04985378265723833,-0.013520618076917729,1,left
2.025,0.14769597193113226,0.9706429184483464,0.09438338849930435,-0.02324796197398755,0.03149506857637084,-0.06517296221968535,-0.055156648486750906,0.04783850991760448,-0.012760958811115275,1,left
2.026,0.14988328247622507,0.970260440260998,0.09210537472461808,-0.0621725380321329,0.04269854574530135,-0.07717767847335522,-0.05515059473897254,0.047800620188880844,-0.012755414793219854,1,left
2.033,0.15037691562510372,0.9693123633762105,0.09189371909328695,-0.010830866992439871,0.02792058719917039,-0.06134247767471764,-0.055282178142290105,0.04886999669640443,-0.013146762646982914,1,left
2.033,0.15017376509949226,0.9693099745960824,0.09191480658172857,0.20473007259144965,-0.03412026800096134,0.005141963972065004,-0.05512649381202203,0.04759604436798946,-0.012674065332714143,1,left
2.0340000000000003,0.1516092547239986,0.972296740662307,0.09124072041776383,0.25607566563498896,-0.04889946948234711,0.020979149272734185,-0.05524478914845776,0.048577421979394325,-0.013048266758939414,1,left
2.035,0.15235173431340562,0.9739648210273006,0.09008094800843386,0.2171407357419643,-0.03769367733871779,0.008970795080723602,-0.055186658143081886,0.04806892659190876,-0.012834815202700552,1,left
2.036,0.15304212611899387,0.9742900748826754,0.08798356153527895,0.24063764511957236,-0.044453578151784495,0.01621542013263278,-0.05518979944714707,0.04814800062040827,-0.01290452551837017,1,left
2.04,0.15422227768292787,0.9757535759527511,0.08708615621583735,0.23105241678220417,-0.04170088206650936,0.013264425788148437,-0.05522134932844777,0.04834187043051201,-0.01292777392517756,1,left
2.041,0.153641874208592,0.9771024308235897,0.08680724286040184,0.23096089988413215,-0.041665926835094486,0.013228506296566217,-0.055180137246874865,0.04805535254429387,-0.012859886600992777,1,left
2.045,0.15267748098843326,0.9781305109824002,0.08662914073928794,0.2359279724423222,-0.04310404742316454,0.014768155886862687,-0.05520797509719913,0.04828450041242413,-0.012945925034482345,1,left
2.046,0.15379936104067582,0.9772636958842528,0.08811265290217785,0.22994507632540076,-0.04137840982917244,0.012919552858780426,-0.05521044426704548,0.04820828302604713,-0.012844595019483944,1,left
2.05,0.1547616229134649,0.9750095343818537,0.08945868401145202,0.23465532301647385,-0.04272683892636333,0.014365746587557033,-0.055170200785151974,0.04809819214303945,-0.012969854664635995,1,left
2.05,0.1560018650687928,0.9761276375617057,0.088275801598446,0.23201790339318532,-0.04199110468111342,0.013573492162906011,-0.055242418866338745,0.04836253391754667,-0.012820433698883596,1,left
2.055,0.15833008093433792,0.9778750303498605,0.08784926781641644,0.2327953912007602,-0.04217465546441075,0.01377675908744979,-0.05516097938743729,0.048044118773364154,-0.012966011094611993,1,left
2.056,0.15855948265228345,0.9776264298327989,0.08830403318177715,0.23321618071455238,-0.042345111754146694,0.013951379432338698,-0.05521101623439938,0.048252641849363176,-0.01289109842541606,1,left
2.061,0.1589728776990239,0.9773037580139515,0.08784729373225934,0.2322570343150971,-0.04202972043426268,0.013619802209173647,-0.05524487971786158,0.048356087969099175,-0.012797912370113677,1,left
2.061,0.15835010415492198,0.9770322550448746,0.08987550315674296,0.23334335879732448,-0.04234203190416929,0.013954543453905802,-0.05507958401166349,0.047762602487155414,-0.013152944081596115,1,left
2.065,0.1556073692994104,0.9777312009888629,0.09208322261849594,0.23225087034160033,-0.04210057521218499,0.013683915591575902,-0.05539015419162963,0.048896456364406635,-0.012507026643022093,1,left
2.066,0.15617530001168223,0.977472207422048,0.09251026692540078,0.23340416227544136,-0.04226573551338722,0.013888033244724384,-0.05498993023655799,0.04742859362197911,-0.013331887659091459,1,left
2.07,0.1567299635055936,0.9771746469506474,0.09419548360521593,0.2321567763752101,-0.04215551457406834,0.01372946178881616,-0.05532464116839038,0.04865902585661473,-0.012645206595372844,1,left
2.0709999999999997,0.15442385010598447,0.9776019475505917,0.09677293465340368,0.23331337736791297,-0.04222318389857404,0.013845089032345333,-0.05531470389719691,0.04861809187002464,-0.012660741793756902,1,left
2.076,0.15211269283130985,0.9769598672143411,0.09808793765318223,0.23276119405830278,-0.04221749446121907,0.013814106784289874,-0.054678837442504256,0.04629226358352849,-0.013978175556736335,1,left
2.077,0.14882563741506238,0.9786279956401897,0.09874328729448112,0.2319242543835373,-0.04210872188182997,0.013676017919044138,-0.05624293679059589,0.052019771438289134,-0.010744588985535024,1,left
2.079,0.14528787080642414,0.9801889105838065,0.10208006811944965,0.23492117356074307,-0.042393135523185826,0.014074851676990071,-0.05364920740146459,0.042519378874711945,-0.016104184732336733,1,left
2.08,0.14471596219710342,0.9802208571017802,0.10402241361185914,0.22952071592935008,-0.0419109621658669,0.013383792934821236,-0.057070338726220984,0.05505147009825937,-0.009035790580415823,1,left
2.085,0.14349805757673692,0.9811923586028445,0.10457206908968364,0.23639842999546956,-0.04251378118594963,0.014253599836735978,-0.0714298098106043,0.10764887744422329,0.02063606657976749,1,left
