time,gFx,gFy,gFz,ax,ay,az,wx,wy,wz,subject_number,foot
17.127,0.2799928749063782,0.9835205643416873,-0.043524421490742274,-1.490132524889916,0.6269937552742607,-0.8451624177157786,-0.27297018747193214,0.4750450896290508,1.0172024059342246,3,left
17.128,0.2808784072331031,0.9834456671459793,-0.04583884763725257,-1.4042923035732988,0.5986567978700095,-0.9193601706067719,-0.2746649409118393,0.45877935172018663,1.018549504329194,3,left
17.131,0.28220454796487615,0.9853753487395728,-0.04455550265438066,-1.5174920471546915,0.6360337754410266,-0.8214941625991221,-0.2739755704662783,0.4653953254643245,1.0179989853544529,3,left
17.132,0.2827258801456882,0.9858256081870955,-0.04407066273759756,-1.993783674933226,0.7928679985004785,-0.4106098964026523,-0.2739643579074429,0.4654934812778391,1.0179967314351681,3,left
17.132,0.28183320608380164,0.9851175362238714,-0.0471371967111532,-2.107069991869942,0.8302395070671158,-0.3127324605696274,-0.27432937149177894,0.46201589727895975,1.0182751807710995,3,left
17.136,0.28033408189576287,0.9851437044720972,-0.04670623715363082,-2.021097827501909,0.8019074423750328,-0.3869353902646972,-0.273891095240788,0.46618208385024695,1.0179424208609182,3,left
17.136,0.27924593813782034,0.9874381249596255,-0.0468355265355742,-2.0730851951819855,0.8189959503302637,-0.3421977184451313,-0.27423366669058624,0.4629359883185594,1.018199661736655,3,left
17.142,0.2784549659026071,0.9901818238582252,-0.046373744088423006,-2.0517152400263834,0.8120399864915019,-0.3603672167207774,-0.27404946996599455,0.46468523427661934,1.0180594774454566,3,left
17.143,0.2760423597673569,0.990977840528018,-0.04619016980671128,-2.0517853166846205,0.8119482024875746,-0.36068422754009155,-0.27408646070288045,0.46429387444981673,1.018102164772299,3,left
17.146,0.27207149408057496,0.9933611018856655,-0.050748233408280476,-2.062494462146465,0.8155865384695281,-0.3510752752147355,-0.27414948715345266,0.46380746234095754,1.0181102825888084,3,left
17.147000000000002,0.26660275926483784,0.9952564249785972,-0.05716092324220147,-2.049394673175591,0.811222689934421,-0.3625394583918874,-0.2740404586609665,0.4646488621275304,1.0180956437985524,3,left
17.151,0.2619346114696351,0.9951090940423017,-0.06180266383863735,-2.059998932353245,0.8146313361130073,-0.3536844947445594,-0.2741501719152788,0.4638479751672281,1.018094600650472,3,left
17.151,0.2618063554842219,0.9961781854775599,-0.06236960626754471,-2.053516066869297,0.8127732028377872,-0.35831721538871997,-0.2740726216034255,0.4643910737165268,1.0181032539937307,3,left
17.156,0.2621960842756582,0.9957828761805784,-0.06268891058631215,-2.0563654143365477,0.8132341091742008,-0.357514211382462,-0.2740953611197735,0.46417109185035654,1.018122014069249,3,left
17.156,0.26004431216787927,0.9941803533851384,-0.06516119507321042,-2.0559076423811735,0.8136686693485274,-0.35587911241857817,-0.27414180915676484,0.4640988055207865,1.0180283732471054,3,left
17.160999999999998,0.2603566240893167,0.9934632212368211,-0.06705785089481339,-2.054894220271483,0.8128685483072746,-0.3583714053388811,-0.27402301915703164,0.46438513343789023,1.0182322352808848,3,left
17.160999999999998,0.2608416935347185,0.99327032722799,-0.0702515630267502,-2.05730174791995,0.8136581207817082,-0.35630678825808537,-0.27419730869252035,0.46398618219448495,1.0179258202150208,3,left
17.165,0.2569242002032983,0.9946108474229406,-0.0754267346172968,-2.0528452577487917,0.8130524849185865,-0.35715652133224896,-0.27401540028786253,0.46437408968251737,1.0182555404593994,3,left
17.167,0.25175525074971883,0.9946241733596666,-0.08009260764975132,-2.0600635608855766,0.813459176085537,-0.3577752050856749,-0.27412054813555065,0.464149576273162,1.0180650699994236,3,left
17.17,0.24443466560008562,0.9936869174301293,-0.08389682009452926,-2.0503401372861996,0.8131965666773731,-0.35595031058006465,-0.27420256265397536,0.4640388456865091,1.0178940001826418,3,left
17.171,0.23338761309270262,0.9953759512177913,-0.08720560352682927,-2.0603231095551506,0.8133507143939696,-0.35822588118020615,-0.27383246669866634,0.46463060655509275,1.018633764913844,3,left
17.175,0.222883231196744,0.9961971256409339,-0.09069486559341419,-2.0548108710147654,0.8133458646365106,-0.35668947748213414,-0.2745193597979181,0.46352788947095336,1.017262306956872,3,left
17.176,0.21445968822316705,0.9956655642954305,-0.09450875724016697,-2.0492641729199947,0.8130798158525078,-0.35605389382624164,-0.2736380897888334,0.4649369210948625,1.0190239185478402,3,left
17.180999999999997,0.20587430670057366,0.9970600827092709,-0.0982787327070957,-2.0720724667665475,0.8137612785349149,-0.3601066297446773,-0.2743734476437225,0.4637637716001196,1.0175529032088835,3,left
17.182000000000002,0.1953229720048259,0.996514857029233,-0.10134158629810933,-2.0301203731291686,0.8126112862016299,-0.3522900719850357,-0.27435277000659075,0.4638041323454212,1.0175922390280134,3,left
17.186,0.1856449737507458,0.9918220152600786,-0.10294090212732969,-2.083864969724063,0.8140473599583833,-0.3624358609074836,-0.27295408474284755,0.46600416635058967,1.020399547838586,3,left
17.186,0.17750414848914634,0.9887983631007903,-0.10795648756845319,-2.039047218705638,0.8128648863696677,-0.3539186986095858,-0.2763924018519004,0.4605903774835022,1.013499793181551,3,left
17.19,0.1643872399360537,0.986265534825859,-0.1192716942232803,-2.0401835404017064,0.8128723382205993,-0.35422258554442104,-0.27069151613754355,0.46956586771920567,1.0249397739933808,3,left
17.191,0.15459651297454177,0.9811658164679756,-0.1271960657115884,-2.1258472095166763,0.8151930032397917,-0.37026877203317066,-0.27821117222842967,0.4577295629126591,1.0098512602287428,3,left
17.191,0.15379619304233225,0.9801830173251451,-0.1276104555960822,-1.9154046909950824,0.8095232636355301,-0.33072138110563665,-0.30978802014274676,0.4080694107466892,0.9465469620194074,3,left
17.195,0.1470747368515306,0.9815464726705101,-0.12921526161328326,-2.2642907599866944,0.8189128415975183,-0.39633577180379403,-0.31731117811517573,0.3962368637161796,0.9314660671186936,3,left
17.195999999999998,0.13956886815662553,0.9801918418260558,-0.1327420513060446,-1.804120616497801,0.8065297806000938,-0.30977213972410816,-0.31160245641152645,0.4052062334509686,0.9428892952294299,3,left
17.2,0.13859777122863964,0.980321400201182,-0.13250830803418256,0.12741683190875874,0.7545720158860822,0.05346950134738083,-0.3150536677717166,0.39979817654822614,0.9360165466976367,3,left
17.2,0.13157142737302416,0.9825288952595866,-0.13012352568303842,0.5875970142706463,0.7421838806729686,0.14004343479668158,-0.3136379967151822,0.4019966919315674,0.9387890593854851,3,left
17.201,0.12180091194131613,0.9854248407187061,-0.12507827456942777,0.23870953435704573,0.7515758404040417,0.07440975574054515,-0.31363412288620873,0.4020302959775559,0.938861751320222,3,left
17.204,0.11793549053407093,0.9878507350032643,-0.11599105252860958,0.44911444809103473,0.7459191981343556,0.11398175026528005,-0.3143611936471895,0.40087485986764093,0.9373761441106396,3,left
17.204,0.11658229411095795,0.9893244660461289,-0.10942577083455628,0.36355581685698335,0.7481989556216531,0.09791307241834785,-0.3134684335613333,0.4022562275488172,0.9391107758966888,3,left
17.21,0.11676619791940636,0.9912425829589142,-0.10434063701167087,0.36223959550177587,0.748279262347076,0.09761785452773006,-0.31419694305454926,0.40118406381550453,0.9378280381141437,3,left
17.21,0.12070247014050049,0.9897856662000657,-0.10055324341532673,0.4072783759088324,0.7470044691816293,0.1061543905805852,-0.31375224746028696,0.4017566811264228,0.9384133704568013,3,left
17.214000000000002,0.1286300824488658,0.9859391121390817,-0.10589506447408722,0.35335978439937643,0.7485173105896026,0.09594958408892587,-0.3139292432747904,0.4016338182599208,0.9384342089172637,3,left
17.215,0.13831572389715957,0.9839187898683451,-0.11737648829903888,0.3953013399445445,0.7473623522177757,0.103865375197182,-0.3139532533207966,0.4014721017631997,0.938086575933218,3,left
17.218,0.14698564985400175,0.9803400870233064,-0.13323133717479999,0.3728397316299882,0.7479130114606956,0.09969333869618711,-0.3137832514792107,0.401738458561198,0.9384248434146132,3,left
17.22,0.15453356117823458,0.9755565166032176,-0.1507784301287194,0.3776090467063465,0.7479566945289935,0.10042079278899843,-0.3140790966497771,0.4015028586748889,0.9383871436050943,3,left
17.224,0.15955871520072476,0.9720252703613954,-0.1624413638329965,0.384268070865722,0.7474815343527124,0.10196491885223849,-0.31365955203094364,0.4016376949719555,0.9379587963174862,3,left
17.224,0.1620202558854215,0.9696931952662049,-0.16849735148071082,0.3730823422668093,0.7481455670148414,0.0995035474674141,-0.31417318877744854,0.40161312622227296,0.9388229800724862,3,left
17.230999999999998,0.1643154849620626,0.9710897061200825,-0.1642727111878448,0.3834589045922686,0.7475770141294282,0.1017400233042289,-0.31367506419901237,0.4015615373664463,0.9378025044399111,3,left
17.232,0.163185113581761,0.9750379734202007,-0.15306549318416945,0.37695039829601745,0.7477494455783036,0.10051843383443002,-0.31393769136897054,0.40163105988135483,0.9384429018487896,3,left
17.234,0.1608067597495405,0.9791147145457438,-0.14973598715637107,0.3785796136566125,0.7482427959405669,0.10029665301451082,-0.31421706342230293,0.40160733621573014,0.9388878748777503,3,left
17.235,0.16116602437778277,0.9831431369395128,-0.1510214154129365,0.38135700113427873,0.7469406022353604,0.10202594176995056,-0.3131062408809703,0.4015345911743593,0.9367144676759627,3,left
17.24,0.1584783072214916,0.9849218222449245,-0.14845582840089966,0.3756570472799611,0.7489250336604223,0.09915358912303218,-0.3151337113706657,0.40172097477663904,0.9408110775794687,3,left
17.242,0.14994335833139427,0.9882411466600295,-0.14631395045543516,0.38202271562874535,0.7468018926140678,0.10226978854567162,-0.3125447040323759,0.40145879861724265,0.9355213198458413,3,left
17.244,0.13730401761486388,0.9937045496569613,-0.1433024278603417,0.377887650893942,0.7480407895363572,0.10038360804254673,-0.3147001543396876,0.40168746253120907,0.9399505004004531,3,left
17.244,0.1261406728426384,0.9944515101846844,-0.13418041100524697,0.37658851322308295,0.7490482676467023,0.0991828475823313,-0.3146466716855073,0.4016727644626928,0.9398185107287627,3,left
17.249000000000002,0.11944428549310063,0.995226361426117,-0.12401506850566794,0.38598084760176604,0.7445403204187333,0.10513315292501321,-0.310527925358142,0.40125254776502955,0.9313960736655367,3,left
17.25,0.11255921122889956,0.997246672457046,-0.11745983392445006,0.367895167577609,0.7529179089681397,0.093973542832995,-0.3206427404316521,0.40230065695614414,0.9521194831534364,3,left
17.253,0.10779141170312656,0.9961728089321227,-0.11684116447349642,0.39126580132738775,0.7421570926980445,0.10832998632322197,-0.3038756468746389,0.4005555103789088,0.9177476421731827,3,left
17.254,0.10647356894445142,0.9966141919632965,-0.12072001006214003,0.3716977793108777,0.7511417286104243,0.09633497897060375,-0.3259901000236515,0.40286098935609765,0.9630909832108258,3,left
17.258,0.10729822456429461,0.9966449437597892,-0.12195428540204062,0.37245211495146713,0.7508938010587252,0.09669914842083455,-0.4188094522207978,0.41253850405192993,1.1534066144969866,3,left
17.259,0.1114923803212669,0.995679000234402,-0.1243043353414521,0.40901936672045447,0.733778838252097,0.11943767569791568,-0.44092531576046956,0.414846124821464,1.198759010848347,3,left
17.259,0.11591603271028039,0.9986651425241245,-0.12983360199048555,0.3188843249240034,0.7758496102086238,0.06350636594883538,-0.4241568211308242,0.41309636671498096,1.1643714046152898,3,left
17.262999999999998,0.12366298649907592,1.0025079463402902,-0.12884366032296496,0.46838957806943626,0.70609480470887,0.1562495576178798,-0.4342706135004102,0.4141517208793085,1.185112226694817,3,left
17.264,0.1315005369861207,1.0041885959704981,-0.12501321909667856,0.27120109039608764,0.7980988181150005,0.033927557980895785,-0.43015784087918374,0.4137224375903098,1.176678708376239,3,left
17.268,0.1344028189188547,1.004272091840436,-0.1237396895804786,-0.5563172315285781,1.184302625406641,-0.47953278073871736,-0.4300921141037347,0.41371605544203593,1.1765414475757288,3,left
17.269000000000002,0.1437383711308029,1.0054776905991172,-0.11650135984885295,-0.7534538670224402,1.2763020019531104,-0.6018380023153136,-0.4322646327163326,0.41394175618651863,1.1810014947913756,3,left
17.27,0.16133145342357008,1.009789791486091,-0.10471773961552547,-0.6040047133238082,1.2065522115820735,-0.5091129645406687,-0.42965923686775515,0.41367133917316007,1.1756518851506375,3,left
17.273,0.1797081385722255,1.0149115217355553,-0.0975548642917587,-0.6941610962744593,1.248624897420938,-0.5650511743479059,-0.43169265107946775,0.413882059808864,1.179828386032241,3,left
17.274,0.1968204883863966,1.0194195240230992,-0.094341095998101,-0.6574077445238202,1.231493281447494,-0.5422524409374136,-0.4305984972675666,0.41376850829488754,1.177581792964863,3,left
17.277,0.21261153771275065,1.0231220499603704,-0.09113232899329084,-0.6570538203396913,1.2312811772188004,-0.5420178180349116,-0.4308286474787141,0.4137938512938558,1.1780481922622383,3,left
17.278,0.22675721429587464,1.0271589938013916,-0.09008165726535998,-0.6760477384998309,1.240214456214641,-0.5538270775610472,-0.43117353672699216,0.4138256075756744,1.17877334634517,3,left
17.283,0.23922802850040203,1.0324335786736896,-0.09135189825727363,-0.6532487862265336,1.2295047726458543,-0.539655605591376,-0.430577182941667,0.41377067168259196,1.177519630686985,3,left
17.284000000000002,0.24835230978610726,1.0355178669977687,-0.09226231857137741,-0.6710878077081204,1.2378603133684063,-0.5507353937785793,-0.4311650199017242,0.41382305223386884,1.1787628313346823,3,left
17.287,0.25132016521261075,1.0368643067954495,-0.09423727453763746,-0.6612045374025766,1.2333084233534595,-0.5446262745366144,-0.43075568109559326,0.41378749347404964,1.1778933623949268,3,left
17.288,0.25279540325726685,1.0393264470300119,-0.09282375773707335,-0.6640850690392821,1.2344573938254078,-0.5463386582375147,-0.4308917838297134,0.41380173804773923,1.1781721417158981,3,left
17.292,0.25307959507874467,1.0408328032215275,-0.08607282595109288,-0.6654953526312599,1.2354525273033268,-0.547343268074864,-0.43106983144600464,0.4138070800841623,1.1785931230623214,3,left
17.293,0.24879277232972244,1.042009458292679,-0.079629489028753,-0.6624736451891142,1.2336285092082728,-0.5453090006225814,-0.43058766243445246,0.41378706197354986,1.177476797727628,3,left
17.297,0.24501048969775852,1.0429040546169364,-0.0748506235889233,-0.6655076752960838,1.235374519026859,-0.5473187495406822,-0.4312894144056184,0.4138150538621578,1.1791060586319078,3,left
17.298,0.2416188883587865,1.0422803449673403,-0.0727737234294353,-0.6627064301014991,1.234070077133151,-0.5455818548478026,-0.43056461649279076,0.4137876921046447,1.177417090846558,3,left
17.303,0.23450482288550065,1.0423593166320275,-0.07283013075417737,-0.666024694416759,1.235006158127852,-0.5474042138573103,-0.4309835559806614,0.4138034360399373,1.1783931028985632,3,left
17.304000000000002,0.22642477345140558,1.043781185759944,-0.07279930367538155,-0.6612267457400083,1.2341670270319494,-0.544967802586237,-0.43129348737345996,0.4138119187536889,1.1791300182812696,3,left
17.307000000000002,0.2185849776996946,1.0451712816600038,-0.07207252822685739,-0.6677174321863016,1.2351073810348634,-0.5481885874607458,-0.429871040945076,0.41376843931502805,1.175770709865695,3,left
17.308,0.2070887655347728,1.0456326743191058,-0.07002782589065301,-0.6609224491471126,1.2341631043674002,-0.5448322448512481,-0.4325120315613912,0.41384916672749594,1.182006330427444,3,left
17.312,0.19391821129112485,1.0489371384738468,-0.06601601807421095,-0.664652250723685,1.2346168342693058,-0.546649798187159,-0.4291254062163191,0.4137462050431132,1.174009290652438,3,left
17.313,0.18222180108786434,1.054491829332674,-0.06039310674579798,-0.6688398539879788,1.2354624880492446,-0.5488196019231942,-0.43195040017332764,0.4138315920045854,1.1806801069844184,3,left
17.317,0.16928986357196887,1.057733898035841,-0.05583102193677119,-0.6521048268890817,1.23250595011561,-0.5403105950867291,-0.4318694054276565,0.4138295675337941,1.1804919576994233,3,left
17.317999999999998,0.15682380292751288,1.0613901964816943,-0.052938349011857205,-0.6828525487366782,1.2378540514587373,-0.5559124651474807,-0.426503699082267,0.41366712143484763,1.167811019880293,3,left
17.323,0.14556406214433576,1.0668659775379337,-0.05016773129768914,-0.6434358037320449,1.2310176893728335,-0.5359188853086594,-0.4396942601225686,0.41406509768522526,1.1989805117958374,3,left
17.323,0.13193863971551856,1.0727486537836775,-0.04668088292132394,-0.6763162040390727,1.2367117396948513,-0.552594331154066,-0.4178254572019655,0.4134065842129746,1.1473062698697651,3,left
17.327,0.12255519568498016,1.0767219124657128,-0.04469115041412021,-0.6755275985410021,1.236606793160152,-0.552205071330719,-0.44666763094710127,0.41427370723148776,1.2154562375968396,3,left
17.328,0.12165814944153713,1.077771345937503,-0.04532312587918697,-0.6124999976473591,1.225590438190678,-0.5202046638652618,-0.5677335932217638,0.41792703335954456,1.5015476377819041,3,left
17.329,0.11555319209860399,1.0811086205547977,-0.04730257497176425,-0.7672934782936218,1.252606933885716,-0.5987846074716646,-0.5965716092732483,0.4187917536697874,1.5696846948894283,3,left
17.332,0.10257050477976598,1.0896080993823347,-0.0543669343504633,-0.5106715732018114,1.2078311956341388,-0.46851429913923937,-0.574708308768228,0.4181359450397488,1.518026478353815,3,left
17.333,0.09766241830106748,1.0959093729651208,-0.06205270001916193,-0.8491492224400263,1.2668831516046246,-0.6403387422689699,-0.5878970242613332,0.4185345371239452,1.5491939971667188,3,left
17.337,0.09621402801319916,1.097726849886321,-0.06437702059661869,-2.2700493829108233,1.5148202727681765,-1.3616587451693083,-0.5825237283264699,0.4183642366960192,1.536481744929627,3,left
17.337,0.09002888105782045,1.104346652475209,-0.06794890108888452,-2.608529995021425,1.5738581327253303,-1.533491283310389,-0.5824639617298693,0.418379625339154,1.536371007084731,3,left
17.338,0.08543554929554126,1.1139509909967806,-0.072515197852218,-2.351911651828941,1.5291114512304778,-1.4032121116596628,-0.5852545971529668,0.4184396342742801,1.542922797105792,3,left
17.340999999999998,0.08151350621615563,1.122496586674328,-0.07336592454635715,-2.5066799425535833,1.556084846991077,-1.481789096294685,-0.5819070845436709,0.4183624574059088,1.5350543184771381,3,left
17.342,0.075784985841778,1.1336567315843413,-0.0717694683344001,-2.4437123927562787,1.5451187154793895,-1.4498169737654494,-0.5845221013246349,0.41843110536183237,1.5412158301630026,3,left
17.345,0.07229951895027632,1.1444921717647056,-0.07092498325777474,-2.442827594533421,1.544973057046937,-1.4493663429072088,-0.5830870319319361,0.4183676820527002,1.5377890711821574,3,left
17.346,0.06991411728525115,1.1555213425590845,-0.07199127960787721,-2.4758194824269935,1.5506715560839512,-1.4661301926350303,-0.583473687893362,0.4184441902916173,1.5388171416829342,3,left
17.351,0.06549558360587615,1.1693398641271333,-0.07536542760394732,-2.4363247392284393,1.5438981251999142,-1.446048068472274,-0.5837399581918665,0.41834057738507524,1.539249547105094,3,left
17.352,0.06063712104663487,1.1830084241709677,-0.08338748303722521,-2.467044793698002,1.5490939756388749,-1.46168909554987,-0.583224255962542,0.4184619747942855,1.5382722420215762,3,left
17.357,0.05512938269759569,1.1997277838948597,-0.09580208934388008,-2.4505180548965146,1.546371671156055,-1.4532539294876983,-0.5837268508515097,0.41836796605657256,1.5392676415336997,3,left
17.358,0.04987246609147482,1.2220580345606549,-0.112887125915689,-2.4542777851785598,1.5469586797288728,-1.4551820989820907,-0.5833176039769852,0.41835469185461804,1.5382986924295192,3,left
17.361,0.046860620841680606,1.2462496700127845,-0.1284302228853153,-2.4586068642694214,1.5475766167106264,-1.4574181394181722,-0.5836939061190516,0.4185684729602335,1.539544967880432,3,left
17.362000000000002,0.04270959679754363,1.2742096443619424,-0.13709082338780504,-2.4512228729475205,1.5467295856534884,-1.4535459352890845,-0.5832413869375654,0.4180921546736162,1.5376599980351775,3,left
17.366,0.03724245331310091,1.306506914498622,-0.14514150838523482,-2.457964464204313,1.5471463019817426,-1.4571813836494234,-0.5838188993098213,0.4187998342963577,1.5402412222389876,3,left
17.367,0.030374734886577662,1.3399802167036166,-0.15164244274596553,-2.4536719620560246,1.547329052881612,-1.4547408582424781,-0.5832214045256272,0.41804592761473475,1.5375327709953366,3,left
17.371,0.022052955911551417,1.376213841702942,-0.1562594126984146,-2.4553705864363033,1.5468826542928018,-1.455811621062725,-0.5835379813305568,0.418480767154197,1.5390294863835785,3,left
17.373,0.010730310655960307,1.4141560302198135,-0.15973725866390778,-2.455357320193745,1.546874229485159,-1.4558065493876793,-0.5839529077461483,0.41885958260955486,1.5406569122837435,3,left
17.375,-0.0061235081809579385,1.4523519185939042,-0.15753056194751158,-2.4549654409640462,1.5481827252832367,-1.4552213196400965,-0.582369407061759,0.4172080689656679,1.53408710108899,3,left
17.375999999999998,-0.02635199673914549,1.4914171023014986,-0.1514141358713395,-2.4546953909652753,1.544988210506161,-1.4559673348859254,-0.5852641490625219,0.4202698210160694,1.5461705219789053,3,left
17.38,-0.05364587851785064,1.5296941411651024,-0.1399994060478592,-2.456058384864443,1.54992208892914,-1.4553415787165056,-0.5815564553843416,0.41633839556580954,1.5306781793868405,3,left
17.381,-0.08349281663940777,1.5653440983285685,-0.1273437773481019,-2.4540436905911314,1.5445635390833672,-1.4557237921113435,-0.5846481965138306,0.4196208315885921,1.5436013536008741,3,left
17.385,-0.1190323734788579,1.5993535217693122,-0.11950795253784323,-2.455388503367339,1.5476928725150252,-1.4555941772215637,-0.5845787098318901,0.4195314933271496,1.5432898287202619,3,left
17.386,-0.16227626263682177,1.6313019763744614,-0.11006183125476986,-2.4566177555043334,1.5503974901869346,-1.4555196032034043,-0.578636417534427,0.4132733454199077,1.5185256607166504,3,left
17.391,-0.20167252080932396,1.6604429508738618,-0.10177028147078312,-2.4510125845248503,1.5385106294698951,-1.4557349807779048,-0.5932254948798017,0.42865647967813725,1.5793447754462557,3,left
17.391,-0.25011330428888084,1.6923052853872034,-0.09548597261236692,-2.4616176731889805,1.560596182631858,-1.455440853422961,-0.5690398992891007,0.40314923845532674,1.478520033891653,3,left
17.395,-0.28430266168215035,1.7134855104696523,-0.0897245285747545,-2.4478532778831195,1.5322069269945868,-1.4557454023051868,-0.60094091891428,0.43679459829939404,1.611500880544897,3,left
17.396,-0.29373202489676875,1.717113390187269,-0.08864854304493044,-2.4594134763237507,1.5559268920660874,-1.4555239319569107,-0.7348581419480448,0.5780046166292454,2.1698006722846017,3,left
17.397000000000002,-0.3295239231112533,1.7347291954811435,-0.07775019050445428,-2.459093142740146,1.5552664625791803,-1.455531508382502,-0.7667621783576677,0.6116524991594887,2.302776530837855,3,left
17.4,-0.37390083664189633,1.763651829266924,-0.06268133457018703,-2.4369578963123963,1.5100630732688471,-1.4558938433855246,-0.742573319432076,0.5861425254781742,2.2019571848555066,3,left
17.4,-0.40303090532523156,1.7842317332977684,-0.05036631386288751,-2.491429232592279,1.6212119947390664,-1.455026219255894,-0.757161153163989,0.6015246325665238,2.2627783564970576,3,left
17.405,-0.4374993478551194,1.8112692521844929,-0.020505691741023194,-2.4010545216363264,1.4368895703188418,-1.4564419027825353,-0.7512296923234606,0.5952755157994264,2.2379962778679996,3,left
17.406,-0.45670983230544726,1.830933389543091,0.0013046260225294517,-2.520303125497313,1.6800344741672093,-1.4545921339666412,-0.7511369034723419,0.5951667308982365,2.237723283960836,3,left
17.406,-0.46091828392322953,1.8363763447193882,0.0071144063148033485,-3.0204907482614756,2.7000657653903954,-1.4468043454241826,-0.7542620527197825,0.5984770614674378,2.2505912173800597,3,left
17.409000000000002,-0.47899947710264557,1.85823385655933,0.025438289457513395,-3.1397498299926987,2.9431939433992618,-1.4449657050990372,-0.750521094606781,0.5945178438663832,2.2351538770914705,3,left
17.41,-0.5021686191558472,1.8912806956127794,0.03980826067161063,-3.0494048258904742,2.7589607816489754,-1.4463701567927556,-0.753430183877684,0.5975916155792829,2.2472135766485133,3,left
17.415,-0.5252825591923305,1.927358041379878,0.050988085108749664,-3.1037264742313226,2.869864512372284,-1.4454950896619798,-0.7518752609293073,0.5959639031713599,2.2405965086532977,3,left
17.416,-0.5548139999014934,1.9686262755331652,0.07226488460612507,-3.081928539779673,2.825120769824763,-1.4459032676010093,-0.7521981532832982,0.5962659378649682,2.242376117499913,3,left
17.42,-0.5814519137720247,2.0019127290338687,0.09612512530027226,-3.081082657821849,2.823818525146495,-1.445816150417847,-0.7526732956994289,0.5968331365040958,2.2436106404791016,3,left
17.421,-0.6045439021987223,2.031747804031155,0.12051633679047574,-3.0932360906868652,2.848180773443709,-1.4457272963235086,-0.7518812148904626,0.5959167255464157,2.241223938313391,3,left
17.424,-0.6271937730273667,2.0594445894786726,0.12906409786223938,-3.0790811737143526,2.8194991207610567,-1.4459037244092023,-0.7526138401021061,0.5967540606563912,2.2435486885927878,3,left
17.424,-0.6466610524896492,2.0806594912266645,0.11601043708308054,-3.0894829865394526,2.8410661356190783,-1.4456575746188385,-0.7521627504918934,0.5962786694859059,2.2416613411422155,3,left
17.43,-0.6579192640770651,2.1000315958552944,0.09597704525645624,-3.0850697993307916,2.8309159005289013,-1.4459997876786561,-0.7522510957908177,0.5962523678630786,2.243383775439302,3,left
17.430999999999997,-0.6528039627099009,2.11667225689987,0.07609424346092108,-3.0839331627753594,2.830582077327405,-1.4455456110985643,-0.7524998402607913,0.5967881770292482,2.2413268120511542,3,left
17.434,-0.6342620597160622,2.131059487320478,0.06322680230864444,-3.0885176731260917,2.837495817791776,-1.4460535668008319,-0.752020887852761,0.5958746922847996,2.243945218007231,3,left
17.435,-0.6031282651739456,2.136801792431007,0.06682199769369529,-3.0834160343662624,2.829033900340557,-1.4456709516765938,-0.7525514538186503,0.5968700794730257,2.2412379140951666,3,left
17.441,-0.5632928504881671,2.133501149763177,0.0856797923624334,-3.085911424883295,2.834139319400588,-1.445628403823214,-0.7522133427343736,0.5962607807795028,2.242669618362547,3,left
17.442,-0.5196331327981941,2.12502638147512,0.10788436032400925,-3.088711393083414,2.8362480262497423,-1.4464411515102351,-0.7520785189440073,0.5959035543357338,2.244560050005282,3,left
17.442999999999998,-0.4729657007152032,2.108219912231303,0.11922244433140511,-3.079195740085095,2.825073570562904,-1.4446316572882083,-0.7529246706189473,0.5977429378055119,2.237361159984033,3,left
17.444000000000003,-0.4318713490384187,2.088036844159553,0.1120195508431292,-3.094488601957849,2.84398111580829,-1.4473144380621124,-0.7513095612163323,0.5942809214419145,2.250517314134175,3,left
17.448,-0.3856535978868395,2.0592257642363188,0.08599375691254471,-3.0777853143651583,2.823007986672434,-1.4444603504095161,-0.7533933263068104,0.5987391419007877,2.2336681659776785,3,left
17.449,-0.333878380323949,2.0239323638721816,0.01969454067742478,-3.0877041981387343,2.8356723816931786,-1.4461059527740554,-0.7516502501584756,0.5950101094953417,2.2477163280049353,3,left
17.453,-0.2561512900587543,1.98019009147043,-0.08430044482388774,-3.09542212768537,2.844891406364259,-1.4475353408304068,-0.7517118526572186,0.5951341345172292,2.2474052821043085,3,left
17.455,-0.15653485137422213,1.930283574887719,-0.1877423502631219,-3.060110580538005,2.8014147122353834,-1.4412991010738763,-0.7549866081443946,0.602174394085887,2.2203928249229463,3,left
17.459,-0.06981127571459056,1.8912750055413707,-0.25713741129487055,-3.1259566372814462,2.882778278187039,-1.4528604853572304,-0.7469222650895677,0.5848376536594051,2.2867031028533793,3,left
17.46,0.0594345164072535,1.8374375030680024,-0.2498676843516657,-3.041280114893917,2.778043959552732,-1.4380152756778153,-0.7602952451466093,0.6135980976757069,2.176780954241872,3,left
17.463,0.15324694894850638,1.8007931188406903,-0.21367343755817275,-3.112021176329736,2.8655819476277333,-1.450410683152238,-0.7426593320619902,0.5756513310337472,2.321762921478019,3,left
17.464000000000002,0.17990937438007104,1.7900383954204804,-0.19552821854635588,-3.110036276397505,2.863067473509751,-1.4500701257896127,-0.6686376411412138,0.41645626997044627,2.930436694180913,3,left
17.465,0.292930925649068,1.7336345935302548,-0.12623114957814371,-2.9753381162873125,2.696544019196618,-1.4264463541825965,-0.6510123768118472,0.3784818682351595,3.0754190005742865,3,left
17.468,0.43809369129349013,1.6577343024551672,-0.021611539409627383,-3.3065022432399847,3.1060310537104563,-1.484521695128028,-0.6643697084936313,0.4072865610710785,2.9655004790924657,3,left
17.469,0.5696031390228952,1.5718666944820114,0.05012110250618816,-2.7573940437323348,2.427032951255005,-1.38822104791016,-0.6563156018811791,0.38991036624750997,3.0317964703670635,3,left
17.475,0.6657645651263173,1.5049982211587354,0.0771906753369958,-3.4816580386962057,3.322616932763733,-1.5152507289126567,-0.6595984374278625,0.3969562293492262,3.004814395883116,3,left
17.476,0.6849543645197365,1.4869174767548472,0.06800950438370221,-6.521953910915716,7.082206058122834,-2.0483440800213417,-0.6596225210292246,0.39713819971642006,3.0044574624096736,3,left
17.477,0.7487095019798476,1.4277075211629822,0.059701678405630426,-7.246181747692122,7.97772072086392,-2.1753904029537297,-0.6579493591123254,0.39327003914951214,3.0185558177677967,3,left
17.477999999999998,0.8237064151679662,1.35000258531445,0.051829694175201266,-6.697102726332269,7.2987773763481885,-2.0790719022065343,-0.6599433680520321,0.3979368130994403,3.0016761746210965,3,left
17.479,0.8535800017954193,1.2951306187274434,0.03964847680314758,-7.028316949258038,7.708364627230653,-2.1371398568944375,-0.6584043809878343,0.3942547948403464,3.0148092979489665,3,left
17.484,0.8943319480194183,1.2311110949359034,0.051827695885203216,-6.893416418374434,7.541444596092901,-2.113576920696629,-0.659241438052823,0.39621469051135505,3.007719985998217,3,left
17.485,0.9234627787718538,1.1725558849244742,0.06779826829996613,-6.891818441069897,7.539684667316843,-2.11310620959775,-0.6589876782035542,0.39598464593906285,3.0094008907551704,3,left
17.488,0.9471872141867396,1.1131639924485524,0.07122059935131239,-6.962043566483016,7.626219842550288,-2.1256876376061653,-0.6589386375635614,0.39486366806798845,3.0111121918884525,3,left
17.489,0.9739907801965939,1.0521841282939226,0.06950151655708754,-6.877832303350531,7.5223853729779195,-2.1106579316493446,-0.6590251124519371,0.3967976002506776,3.008148202534107,3,left
17.493,0.9994391251193389,0.9955351038108031,0.04780346985630465,-6.943567681801202,7.60354403291158,-2.122297545997743,-0.6590336187195014,0.39467201967363735,3.010842142422163,3,left
17.494,1.0371001508698088,0.9324833802812118,0.010358498131840862,-6.907649062930993,7.558872118203938,-2.116222907510995,-0.6589796704189905,0.3962645560616418,3.0090829932871324,3,left
17.497,1.0747919133667412,0.8679497614387366,-0.032223210500244015,-6.916965475500218,7.571214399418098,-2.11713719086468,-0.6588676551513617,0.39603904983622756,3.009983719731033,3,left
17.498,1.1113106864565006,0.8032862530837956,-0.0741504605646833,-6.924332819278758,7.578909959537761,-2.1196672415736275,-0.6594316022442569,0.39408177933451727,3.009435058620291,3,left
17.502,1.143877402792941,0.7404006075361989,-0.10337457949934503,-6.910545615520942,7.563596555791119,-2.1157310050817983,-0.658203059345551,0.39868364716207616,3.010195200728373,3,left
17.502,1.1659213887274338,0.6785532521576134,-0.1274747041462695,-6.923835316574992,7.578646748410237,-2.1192716097200175,-0.6600496534628528,0.3918487474970578,3.0089460491021507,3,left
17.508,1.1800960888612217,0.6178724103801017,-0.1489706652415483,-6.913561169024819,7.565930177349333,-2.1174810821936045,-0.6580627862418527,0.39909483489906716,3.010430489473414,3,left
17.509,1.1862131392124942,0.5649813447401225,-0.15934820134517463,-6.921777826031387,7.578656510798887,-2.116675957540899,-0.6592103325284999,0.39490790824878785,3.009573448431161,3,left
17.512999999999998,1.1900595558814024,0.5177597874577984,-0.16064449352019738,-6.913237107742991,7.562230737778931,-2.1203102587104423,-0.6602414460819506,0.3913861980503478,3.008499965306135,3,left
17.514,1.1938062041086606,0.4753138780840485,-0.14352702092861624,-6.923524662675797,7.583701692000095,-2.114458813039805,-0.6557837304088764,0.4069114464324905,3.0127672343197744,3,left
17.518,1.1927670576123144,0.44027772546305605,-0.10146613226588433,-6.913017684054554,7.561380721951693,-2.120776591275464,-0.6640472194759646,0.378114806284972,3.0048725695882994,3,left
17.519000000000002,1.1919417434676745,0.4100087728896654,-0.0481901687920997,-6.918362163044358,7.573381259505561,-2.1169997562933607,-0.6534338445727528,0.4150830061377872,3.0150405150008313,3,left
17.522000000000002,1.1981225778456275,0.3860681438122474,0.006649865176066683,-6.926557365117727,7.588157345948174,-2.1143702721209734,-0.6622948317911822,0.3842245600229621,3.006534776266079,3,left
17.523,1.2041244236617885,0.3667368324892018,0.05396368987692543,-6.89657286766946,7.530751295500691,-2.1269032260747904,-0.6620620207029215,0.38506649403362214,3.0067396612000667,3,left
17.527,1.20881940692677,0.34618027515766353,0.08587677067247446,-6.951108914965985,7.635892659131539,-2.1034756828440497,-0.6451408580492146,0.4438739975193573,3.0230850046218327,3,left
17.528,1.2137033302558673,0.3288090421471393,0.10687541409653181,-6.8813345788481595,7.501193213973726,-2.1335994010413906,-0.6867225007701312,0.2993303526655999,2.982917329002187,3,left
17.531,1.209933042644796,0.31341688778005894,0.12285532474512267,-6.939465677763238,7.613506559949544,-2.108433613782852,-0.6177814388347932,0.538986212530385,3.0495330492460475,3,left
17.532,1.2026639764339575,0.30151588694572173,0.13233960894566937,-6.93831744345093,7.6109734459773675,-2.109179756230753,-0.7087127421628068,0.22288625992038974,2.961648489747975,3,left
17.533,1.1974490314551058,0.29836865942115376,0.1349609429908047,-6.826126211257032,7.395195311831657,-2.1569530300821667,-1.0904865915114041,-1.103987080008124,2.59295457213795,3,left
17.535999999999998,1.1827899655571894,0.29223223023806905,0.14258129114469825,-7.101334173907024,7.924915018188197,-2.0394552316942063,-1.1814224737575427,-1.4200859321546129,2.5050668405319163,3,left
17.537,1.1527573256350685,0.28012588718558623,0.15690737934797755,-6.645213001793439,7.046821263114053,-2.234292131502472,-1.112465582319719,-1.1804244210479689,2.5716562706453985,3,left
17.541,1.1302654719269793,0.27381608378685496,0.16503709903611208,-7.24676949390857,8.204960573797962,-1.9773013141959432,-1.1540838618391263,-1.3249927528360192,2.5315951769897334,3,left
17.543,1.1222154303241954,0.2723891687193991,0.16697138233396025,-9.77401151184857,13.068417374397633,-0.8986960630939733,-1.1370997176124167,-1.2661313389267947,2.547712097878649,3,left
17.544,1.0955958387749445,0.263928937018272,0.16740096261333892,-10.375677009952096,14.226670928205447,-0.6417142804378596,-1.1369493654583378,-1.265372023185929,2.5482634686699646,3,left
17.546,1.0513504039538302,0.25124512285136036,0.1640180394543327,-9.919223869383462,13.348259988407477,-0.836538687607187,-1.1457345988808307,-1.296138733054622,2.5393770223762377,3,left
17.547,1.0013213419076052,0.24284212215062562,0.1553906435447765,-10.195145080612251,13.87861835396414,-0.7190467978198158,-1.1351436028517368,-1.2592285061312336,2.5497790768060797,3,left
17.555,0.9395108158219575,0.23281873868355524,0.14395984725385247,-10.081782152842038,13.6618366500789,-0.7668326503645722,-1.1434959592836096,-1.2880621112745319,2.5420526470428184,3,left
17.555999999999997,0.8781875635430569,0.22071513207665922,0.1350359340567333,-10.082110855662433,13.660518490983495,-0.7675384701783319,-1.1387920046171391,-1.2723442678450558,2.545498478255125,3,left
17.557000000000002,0.8206645033528581,0.20972058841297458,0.1327224512468255,-10.138960254708012,13.77184589623257,-0.7424411118763796,-1.1402257598508037,-1.2762406821859185,2.546003720324638,3,left
17.558,0.7688056843095867,0.1951317362660222,0.13636109693228282,-10.069418073513866,13.637183856847708,-0.7724834306591071,-1.1409012656221482,-1.279921472922509,2.5430324563240956,3,left
17.562,0.7308067020393865,0.17694757983758513,0.14162382730267217,-10.125792895529118,13.744062765869323,-0.7491156301781298,-1.1392582263562074,-1.2731483746464618,2.546467928272384,3,left
17.563,0.7022533232351162,0.15822842205942667,0.14390552635681864,-10.091141257671767,13.682583691000366,-0.7616617515462378,-1.1411825383632568,-1.2798275921730573,2.544625123028231,3,left
17.566,0.6865083729858212,0.1370551571409252,0.14087428215404482,-10.10668431309243,13.703528220123369,-0.7588922523195514,-1.139144646524467,-1.2747145155579078,2.543165318327071,3,left
17.566,0.6874234598171409,0.11369431518265953,0.13500775378138502,-10.10373181894067,13.708847022051344,-0.7554120783376972,-1.1414229039568473,-1.2781305385787438,2.5488000692610333,3,left
17.57,0.6959608760667686,0.09230718718891384,0.12717173506806165,-10.098772773733387,13.690534499021688,-0.7613069308110234,-1.138861861163082,-1.2759464479617302,2.5395841862203983,3,left
17.570999999999998,0.7065045759249216,0.07048113079942354,0.11268360759448687,-10.111561888800514,13.715072738682093,-0.7558805895641694,-1.141285605271584,-1.2772092805106854,2.549705331055515,3,left
17.575,0.7152168444965642,0.045593440853300735,0.09141255172121557,-10.087100126484426,13.684254298574789,-0.7593162340886781,-1.1400903544186485,-1.2771938805665233,2.543657567325041,3,left
17.576,0.7197589193319466,0.017900703426579824,0.06675525848118177,-10.127255359623689,13.724374191202031,-0.7581867230960395,-1.1384221198955098,-1.274959920676649,2.539065414535855,3,left
17.581,0.7213427681826242,-0.013165299094177765,0.03850400384203446,-10.072897102908861,13.67519849314641,-0.7575045702949854,-1.1445465604058453,-1.2806401077230891,2.560309763514972,3,left
17.582,0.717454379311697,-0.046935188922406404,0.008018264458541171,-10.1288146815215,13.723712137312301,-0.7590978529754577,-1.13346623828732,-1.2710737174524662,2.5206395529956587,3,left
17.585,0.713835476578338,-0.0848253706741754,-0.018738983030398202,-10.097865688123203,13.698304316651102,-0.7575966080817553,-1.147594581644129,-1.2830092003592193,2.571678227535842,3,left
17.586,0.712198099807194,-0.12165215657552769,-0.04202424854000147,-10.066958884332617,13.668246683676104,-0.7581078308601543,-1.1358403919301647,-1.27319120644635,2.5290229787216596,3,left
17.59,0.7087925538992019,-0.15724478216693108,-0.06522284085217162,-10.194421536114136,13.784743135799989,-0.7592008886744033,-1.136096753231056,-1.2732322518943149,2.5302512893321745,3,left
17.590999999999998,0.7103528775059054,-0.19390596707882102,-0.08196128683914938,-9.95988311283454,13.572260547043662,-0.7563872190138075,-1.1586750219298496,-1.2925516131585981,2.611393128339232,3,left
17.595,0.7151902280571288,-0.22398070137553744,-0.09236783832251788,-10.260379154582889,13.843807472311699,-0.7602832065419158,-1.1032674688604298,-1.2453903256115755,2.411842952829347,3,left
17.597,0.7236101598634106,-0.25510521792822816,-0.10151652444801701,-10.009787795800804,13.617664288981878,-0.7569116536608181,-1.1951061109250483,-1.3234661678359938,2.7427586893076166,3,left
17.601,0.7334982338935044,-0.2787620773551843,-0.10541579868399972,-10.016145306403033,13.622912655019267,-0.7571856148580585,-1.0739774815944956,-1.2205246838749766,2.3062496234977576,3,left
17.602,0.7368081136864052,-0.28367764856528105,-0.1073557005661786,-10.495105153642786,14.056432434870896,-0.7631279520584726,-0.5655273362482617,-0.7882782291456009,0.4741653992984487,3,left
17.602999999999998,0.7435437239734781,-0.2966397490375982,-0.11186384354111195,-9.31849100028671,12.992178804368617,-0.748259362351845,-0.4443829943998696,-0.685331943160041,0.037600655629478646,3,left
17.605999999999998,0.7549448582019855,-0.3155599930639537,-0.11844902318451829,-11.269146413614084,14.756244316747173,-0.7730098632920641,-0.5362396866170027,-0.7633926611998929,0.3686097167935809,3,left
17.607,0.7611167844399012,-0.3213403924047034,-0.1254421123991062,-8.696315658509768,12.429677103217,-0.740330625454124,-0.4808348792399716,-0.7163053224707061,0.16896526499709605,3,left
17.61,0.7625587936095879,-0.32325980025678547,-0.12808150968474466,2.10330963053588,2.662589661971639,-0.6032682397075836,-0.503364426372147,-0.7354590707595199,0.25014887548021175,3,left
17.611,0.7655647879940233,-0.3252181221750382,-0.1305075032792824,4.6761485221490915,0.3361508232556789,-0.5705878557719669,-0.5037307420829629,-0.7357573277408489,0.25144870964776145,3,left
17.612000000000002,0.7731450784588154,-0.3240080622281568,-0.13488906981605892,2.7255343835619117,2.09998106037659,-0.5953609681212826,-0.49181479672492046,-0.7256499049281919,0.20856168846977013,3,left
17.614,0.7812234045797927,-0.32129432458706564,-0.13984410492630492,3.9019678115148144,1.0360159924405292,-0.5804171519402075,-0.5061093427495054,-0.7377744720736035,0.25999257718309154,3,left
17.615,0.7913796356491591,-0.3194323085594085,-0.14903689005659887,3.423402845683738,1.4692926892413893,-0.5865114348882119,-0.49494778058555133,-0.7283105662554332,0.21985337460560447,3,left
17.622,0.805206547982007,-0.3160575622868729,-0.1604692525147638,3.416439994453368,1.4745938959807134,-0.586562722382736,-0.5009514613400772,-0.7334042480570464,0.24145166586104805,3,left
17.623,0.8184741608779964,-0.30970702023232644,-0.17110450061589316,3.6677037025091463,1.2487513832967416,-0.5834269693747518,-0.49970998332694505,-0.7323298903767204,0.2369076326899255,3,left
17.625,0.8314968399532698,-0.3036648196727372,-0.17999114611940759,3.3667824463926106,1.51952870359837,-0.5871924098730785,-0.49775801208049913,-0.7307307343685882,0.23010245258546053,3,left
17.625,0.8448783413956689,-0.2939772668463749,-0.19039234357975415,3.601050677003917,1.3082513269183782,-0.5842414614587079,-0.5011331048129647,-0.7334971853713804,0.24186930821251826,3,left
17.629,0.8571969794551186,-0.28019883595746653,-0.2037749228183886,3.4749985122419034,1.4233967236924006,-0.5858927385067989,-0.4977798696367427,-0.7307719202268821,0.23027171523837314,3,left
17.63,0.8675806202902329,-0.2648553261101233,-0.2132217941191859,3.50316014955368,1.39422993829944,-0.5853732743330082,-0.5001284754508496,-0.732668920867958,0.2383472927857921,3,left
17.634,0.8753872401616593,-0.24485871805068501,-0.2213639249599658,3.5378181853843262,1.3692521941166675,-0.5852122236374016,-0.499383575897314,-0.7320346872040902,0.23565981177701817,3,left
17.635,0.8811988894923319,-0.22401095472290078,-0.2304217329255832,3.4784330478002814,1.4151510154989442,-0.585623519259661,-0.49821164149836145,-0.7312229050405055,0.23215587522812808,3,left
17.64,0.8831585948175684,-0.20270919214519323,-0.23350727934121424,3.5339356149619525,1.3711782664726089,-0.5851922644817247,-0.5013027499854823,-0.7334294934491874,0.2416507483240182,3,left
17.641,0.879458000413246,-0.17761771855001263,-0.23281467725990057,3.4975209272911325,1.4041649639988822,-0.5856569634391133,-0.49678714431031556,-0.7302187179889029,0.22783158333352355,3,left
17.645,0.8749107894202779,-0.1522379721970708,-0.23007088538953696,3.5113001432468245,1.3801642005264547,-0.5849743403048723,-0.5014737912886518,-0.7335337797577074,0.24210486010658333,3,left
17.645,0.8713869667755811,-0.12822793869730692,-0.22348525108761946,3.5161608716670942,1.4021387265901546,-0.58607327287338,-0.4987642483976033,-0.7316165287660903,0.2338523625835419,3,left
17.649,0.8674076293071569,-0.10745871944608552,-0.214439616270618,3.5002030420896872,1.3772312033493228,-0.5845438965416065,-0.4967114508365519,-0.7302055969911341,0.22775688970966151,3,left
17.651,0.8654225096430846,-0.08963204976226302,-0.20336753951182102,3.5188364808001937,1.4023156465714046,-0.5861542611273931,-0.5060622841624964,-0.7366951390571073,0.2557531795010523,3,left
17.654,0.8625232376574825,-0.06888185393010489,-0.1928453593612463,3.5055083626770833,1.3901389020484392,-0.5852553563068812,-0.488702252256721,-0.7246430154162883,0.2037669090814517,3,left
17.655,0.8548592282239216,-0.04570714887406631,-0.1833950940373245,3.5067061423727455,1.3681683121614268,-0.5843223199317378,-0.5109706551282487,-0.7401004314447024,0.27043698102014,3,left
17.658,0.8486065539798224,-0.025486116894409036,-0.17823214426550527,3.5222326189119766,1.4455385153821965,-0.5881482619760138,-0.49238949167557244,-0.7272021528872323,0.21481352535226322,3,left
17.659000000000002,0.8375978832833497,-0.0058648942778873284,-0.17582315175817037,3.489688246132874,1.3054471470248443,-0.5810980010324608,-0.49292463906999723,-0.7275829778222506,0.21643179871734708,3,left
17.663,0.8152789652585819,0.013576710848119282,-0.17016088138435034,3.53232092273958,1.4845672668631615,-0.5901427939025443,-0.5282223289289331,-0.7520539047258602,0.3220240374160832,3,left
17.665,0.7947860763809418,0.031177092526458505,-0.16449427612675158,3.496383583035551,1.335341977575525,-0.5825922761056503,-0.44143757252481924,-0.6918757366225061,0.06239917053683593,3,left
17.669,0.7673919602663071,0.05341336878821144,-0.14991865157584688,3.498673892662908,1.3381881111265697,-0.5827888561113397,-0.5853317141357445,-0.7916604083910855,0.4928684897050025,3,left
17.67,0.7452101308056029,0.06738203929580042,-0.13688335156499823,3.562886725367755,1.6266335792648674,-0.597219506114872,-0.3955409527885649,-0.6600448243346658,-0.07489748865485475,3,left
17.671,0.7425878074896053,0.06905583211554037,-0.13569029775842706,3.403497255805573,0.9190853773218605,-0.5617524566222202,0.40094435475479767,-0.1078519620846686,-2.457614512656489,3,left
17.674,0.7163707727549513,0.08390630037266482,-0.11660834093173873,3.6681864324772517,2.0918560101707526,-0.6205669349314998,0.5907204375529931,0.02374652584447056,-3.025331273306626,3,left
17.675,0.688194993672687,0.09823907016517675,-0.09737203491430332,3.319013813442181,0.5450236660458677,-0.5429777096339969,0.44685890218191143,-0.07598944226175534,-2.5949627676944607,3,left
17.678,0.6834067282534493,0.09949475350218165,-0.09391933908837641,1.8554449819132286,-5.949686688793374,-0.2174300599305787,0.5335904583225103,-0.015911232363163122,-2.8544394173133036,3,left
17.679000000000002,0.6578351191813291,0.11157047364292183,-0.07446732351975213,1.5064047288089724,-7.496637816297233,-0.13981587296055198,0.4983622186321922,-0.04022293852002575,-2.749017859115824,3,left
17.679000000000002,0.6229233239612566,0.12694148205753059,-0.04867397450731782,1.7709507013497041,-6.323738685006674,-0.19865736885519555,0.49775923078498807,-0.0407989882233327,-2.74726437502376,3,left
17.682000000000002,0.5936528396578803,0.13523273631882526,-0.027686727071543762,1.611506738751046,-7.031237946715511,-0.16320055306936265,0.516372340864975,-0.027738774539583476,-2.8028959272304634,3,left
17.683,0.5609178301015796,0.14760492944220832,-0.005718243377617652,1.676194668647971,-6.74321890456272,-0.17754169675914147,0.494153721485733,-0.043210078120490776,-2.7364498397085963,3,left
17.688,0.5334536369975911,0.16061382138788954,0.01143253943872952,1.677462782063918,-6.7394553470291285,-0.1779309129453498,0.5113407500036742,-0.031425617459287986,-2.787908552928717,3,left
17.689,0.5057995970490584,0.17140898720738607,0.025401795234679697,1.6429910359852675,-6.889995967808455,-0.1701041522845964,0.502296316618835,-0.03727266339348771,-2.760712868002106,3,left
17.692999999999998,0.48013699637721485,0.18632197781507703,0.03554426602075436,1.6841643225876284,-6.7095661376769575,-0.17942407744606145,0.5039627702752162,-0.036846580233386036,-2.7659375559407327,3,left
17.695,0.4577677896879175,0.20321417935167416,0.045944357161647575,1.6522495838533964,-6.850222463235883,-0.17225500535901056,0.5069970158933399,-0.03384824641124223,-2.7747207546929555,3,left
17.698,0.43168328253333504,0.21986652149744826,0.059526878267420924,1.6690294071426495,-6.773977288920306,-0.17584491079628323,0.5022739832229821,-0.037836026308640185,-2.7608259070119487,3,left
17.699,0.40804394309413927,0.23832119539246266,0.06787908437842138,1.6661900737187163,-6.792324480609883,-0.17567259621819245,0.5062776434895706,-0.035066086429280094,-2.7728051051985894,3,left
17.702,0.38837892462358137,0.25217394467090914,0.06986175064004296,1.6598179196757417,-6.810744132493735,-0.17346271894507415,0.5044273055667863,-0.03502692467654141,-2.7668349592506702,3,left
17.703,0.37198700503497645,0.2608862203423645,0.06984894596675746,1.669914807145308,-6.777998458879052,-0.17668220570115756,0.5036922699168349,-0.03855851901102551,-2.7656296888940046,3,left
17.707,0.3583222480711718,0.2718302893291298,0.07047833470835646,1.660762487122839,-6.809013312853688,-0.17386961570477916,0.5065367445748021,-0.03207755221590959,-2.772656755438182,3,left
17.708,0.3447508656885707,0.2820910064364007,0.07147604479079517,1.6656844198093461,-6.7870945306338335,-0.17495790400013672,0.502864985287514,-0.03943051654552476,-2.7632526606464953,3,left
17.713,0.3320993414253668,0.29010746249393,0.07396860364724367,1.6668331316734373,-6.799758678385421,-0.17665477131835017,0.5054152187160593,-0.03488342526321338,-2.7699688778702223,3,left
17.714000000000002,0.31865985634126104,0.29851582001879207,0.0813932317425822,1.6592823380722586,-6.792677528946512,-0.17168010809746193,0.506280683566648,-0.031892072702110294,-2.7717707190150653,3,left
17.717,0.3062128912007469,0.3068154324085278,0.09074884611670031,1.6717254707639766,-6.798005320690411,-0.17936464809775265,0.5000341890596227,-0.046697241692346465,-2.756528789656546,3,left
17.718,0.29594260747229667,0.31460023440732565,0.09879433620702521,1.658241732326315,-6.7933006086299725,-0.17112290493358562,0.5121990120417521,-0.01883467627654497,-2.7865323440013845,3,left
17.721,0.28513722042665046,0.3194561653541931,0.1087736178401995,1.666379938068457,-6.794480666560589,-0.17596392335380173,0.4963699274821517,-0.05476003353572481,-2.747381263266642,3,left
17.722,0.27654987927301816,0.3222865021422576,0.11915902614976434,1.6716741894232214,-6.803119532157164,-0.17974907801823392,0.5096724355796847,-0.0247016219570282,-2.7803289532184374,3,left
17.727,0.2709186047294385,0.3250910706259025,0.125009008425961,1.64568670972795,-6.7777852599437765,-0.16254593561734745,0.5091780662397452,-0.025620879461942973,-2.779034529400043,3,left
17.729,0.26572680148836925,0.3252166541957663,0.1281972876763208,1.6943897575418188,-6.822519049471912,-0.19456711371277574,0.48417070790807826,-0.08265800127671855,-2.7172824209380115,3,left
17.732,0.25884143165137974,0.3235610723498201,0.13096186648194813,1.631737487199529,-6.765579730966614,-0.1534202015888836,0.5458287661247447,0.057691503700574666,-2.869640690087047,3,left
17.733,0.25086165669152627,0.32071338653238757,0.13577532004749923,1.684090962761129,-6.812917689297533,-0.18778906364835599,0.44352566580365327,-0.1750830421808397,-2.6168093767959033,3,left
17.737000000000002,0.24635568008083034,0.31773473455469753,0.14140694688829708,1.682491734493449,-6.8124054648408485,-0.18680291274950553,0.578486721195451,0.13198131425902587,-2.950365029630004,3,left
17.737000000000002,0.24453647915277685,0.31768748938941915,0.14222260617077837,1.5832575991570028,-6.71960423453209,-0.12143723696978309,1.1449145521874653,1.420609369559036,-4.350238139039847,3,left
17.738,0.240424241044145,0.3169672348852255,0.14435287550526066,1.8273818937385171,-6.946805966466107,-0.282177907806316,1.279875055630077,1.727706107270972,-4.683794199491723,3,left
17.741,0.2321006912301752,0.31712978846593254,0.14846713541579865,1.422551101913281,-6.570308449551423,-0.015625206982923676,1.1775567694786337,1.4948855837988746,-4.430915227180676,3,left
17.742,0.22555324489495682,0.3203813250657446,0.14775183178328988,1.9565330088312338,-7.066913369800322,-0.36723337578276066,1.2392709586334676,1.6352605250995196,-4.583440576016114,3,left
17.747,0.2241243020964559,0.3215822880732928,0.14669285368495863,4.19756950609098,-9.152242799978527,-1.8427546952985185,1.2141463682851348,1.5782597061002728,-4.521345133660368,3,left
17.748,0.2198056898705424,0.32465114275096296,0.14724860580466176,4.731543328143141,-9.648988514253514,-2.1944011847295126,1.2138272437380884,1.577208954228821,-4.520559091082322,3,left
17.749000000000002,0.21297760747348177,0.33446576408877216,0.1484478303489201,4.32672130958887,-9.272338703181811,-1.927807024957651,1.2269401291052546,1.6074986420481263,-4.552962282055123,3,left
17.752,0.20790738051481825,0.3487266261228475,0.14789593808142087,4.570848839035917,-9.499482372594368,-2.0885319219049947,1.211222871804632,1.5712895957621495,-4.514123055566137,3,left
17.753,0.20218598207807964,0.3657976674716693,0.14476561530373355,4.471585877788326,-9.407186695873058,-2.0233037848614037,1.223482424445079,1.5993737036575653,-4.544419806912288,3,left
17.756,0.19565978434254488,0.38404712501369387,0.14317304275451254,4.470048798792552,-9.405586884085416,-2.0220217093153394,1.2168104405700242,1.5845837092778383,-4.527924433388797,3,left
17.757,0.18946975874515687,0.40244558881500503,0.13903737371901387,4.5223130634812145,-9.45448408182089,-2.0568148614208335,1.2184797238573595,1.587133189784812,-4.532068268149216,3,left
17.762,0.18488275373865903,0.42232248643883663,0.1338247855579923,4.45974975524869,-9.395992261337568,-2.015245452268549,1.2199667301181834,1.5926647544850294,-4.535711818237209,3,left
17.762999999999998,0.18014746351102706,0.4458443585835667,0.1300006137557655,4.508414182275837,-9.441395601608052,-2.047448916429488,1.2172580587138535,1.5838666371153594,-4.529056217979374,3,left
17.766,0.17807131485714006,0.47216252709181333,0.12168614594084347,4.482350851943151,-9.41739523022705,-2.030608608474467,1.2198453482245712,1.591853796880574,-4.5354197183131255,3,left
17.766,0.18200036823386007,0.4978505277955896,0.11574954029156778,4.487890371684598,-9.421738524162011,-2.0332250277009396,1.2179323311811587,1.587520464717091,-4.530691225426983,3,left
17.771,0.18515133222919405,0.5229203651473197,0.11448402633037455,4.4956054404841925,-9.430319297230977,-2.04007979480751,1.2192567938431944,1.5866348558120613,-4.534022689648715,3,left
17.772000000000002,0.1896168679262746,0.5502156709183359,0.11285166434096208,4.482641559067937,-9.416532832736161,-2.0293667105967197,1.2181365692262829,1.5929961353657451,-4.531121692149032,3,left
17.775,0.1999542795917465,0.578055455197053,0.11494076417931914,4.494669397464498,-9.429099868974859,-2.039021472665312,1.2193512714033514,1.582467623913497,-4.5343210349961485,3,left
17.776,0.21190805693844522,0.6027590910206444,0.11679976547741727,4.487116834390722,-9.422085919732346,-2.0340644833550527,1.2181412047550237,1.593884477073186,-4.531120473597809,3,left
17.78,0.22548525362353117,0.6271360550530267,0.11664508522176978,4.489031792349353,-9.421309779070501,-2.032104872804203,1.218706375010974,1.5869825089700427,-4.532637935799868,3,left
17.781,0.24019967033646206,0.6541629882781945,0.120784017545984,4.492199093639022,-9.430101650932562,-2.0415492184944943,1.2198579670623095,1.582545761253176,-4.535590087969475,3,left
17.785,0.2542999890088182,0.6789511939109978,0.1259911252144354,4.48566720832015,-9.415305106270942,-2.026270917068288,1.2159051240959,1.604439112996526,-4.525360942982705,3,left
17.785999999999998,0.26984341713704374,0.7014165038331747,0.12953108037368022,4.492967206638461,-9.43139068681675,-2.042778942752217,1.2230399834395609,1.5633911479084501,-4.54384551960306,3,left
17.79,0.2873525726086891,0.7262074828706463,0.13604696491853763,4.488216960935205,-9.42160416797345,-2.0328913940860933,1.213921751757885,1.6161984878082838,-4.520219105344632,3,left
17.791,0.3046237782459925,0.749147552824136,0.14357439849699716,4.486757342632411,-9.415609751700064,-2.0260992271092757,1.2215174551483572,1.5720724418483174,-4.539899917159055,3,left
17.796,0.32032292128239614,0.772324178203259,0.14533002032730108,4.497460151118239,-9.445837962213957,-2.05865761191588,1.2213775751736256,1.573420897248527,-4.539535533437839,3,left
17.797,0.3348002125479646,0.7967478787575644,0.14438278664946824,4.476831404519456,-9.38906201921539,-1.9977675000559987,1.2066760441923936,1.6570531973732616,-4.501455103677472,3,left
17.801,0.3501293469680381,0.8180401019346024,0.14475518971592582,4.5034969094243,-9.462121388831081,-2.076066596618053,1.2427355640818774,1.4513151479695545,-4.594854714695587,3,left
17.801,0.3669430081860982,0.8440087041292184,0.1458016642584904,4.4811605075258925,-9.401070985275565,-2.0106544250116487,1.1829637187546442,1.7924828464711382,-4.440043707296137,3,left
17.805,0.376552885490247,0.8644770162144828,0.14727535162548394,4.482045579712521,-9.402954794872127,-2.0125980438689473,1.261805194370881,1.3424833467900195,-4.644236221038191,3,left
17.805999999999997,0.3789165440719199,0.8705526731705053,0.1484157764103847,4.523724685654226,-9.518588203702604,-2.136753121706805,1.5927898562842824,-0.5461906110561978,-5.501556300729382,3,left
17.807000000000002,0.38656637033794516,0.8879582015152953,0.14999067209355504,4.420944064788051,-9.234120371829068,-1.8313956620066252,1.6716472315908195,-0.9961667732591009,-5.705772837059062,3,left
17.81,0.39673706999844277,0.9201952202968842,0.1484641352047506,4.591455814474855,-9.705825670895129,-2.3377382556374116,1.6118581829165133,-0.6550243308227248,-5.550935842362694,3,left
17.811,0.4007142621668216,0.9382093383215679,0.14386024461182523,4.366530599938287,-9.08367484498244,-1.6698788836223741,1.647911163453445,-0.8607719606349409,-5.644325555592068,3,left
17.815,0.4018326658093092,0.9453793685183638,0.14336763070514907,3.4229666009601885,-6.472198899563478,1.1332898135879907,1.6332666877650959,-0.7770559522085143,-5.606331366014895,3,left
17.816,0.406068720259642,0.9664237054504602,0.14245128435494497,3.1980503801747817,-5.850132412265319,1.8011140728053086,1.6330040416869092,-0.7758876371161065,-5.605781443167693,3,left
17.817,0.40983834324726565,0.99339979892805,0.133183131633056,3.3685523911843775,-6.321746487044608,1.2948094730122186,1.6407757703113628,-0.8197553733452125,-5.625728266415516,3,left
17.82,0.41171123959279826,1.0155873600111311,0.1200089284008032,3.2657680978790538,-6.037243863326878,1.6001813669224965,1.6314822497958619,-0.7672052873595964,-5.601836977806692,3,left
17.820999999999998,0.4151598290700531,1.0379495289840484,0.10379638188563542,3.3074794226714745,-6.153180132509171,1.4759003034318166,1.6386927512613747,-0.8081421939685101,-5.620435810259519,3,left
17.824,0.41254242465166574,1.0601088549766609,0.07920553180522469,3.3082951328099193,-6.154412420045141,1.474227778417204,1.634890411897595,-0.7860280693315853,-5.610434190986879,3,left
17.825,0.407648463079182,1.0817692683321831,0.04853959367205463,3.286058213338208,-6.094296070666246,1.5392512406048136,1.6355571579159096,-0.7911762177165493,-5.61265354943068,3,left
17.829,0.4064715111570607,1.1043235981196844,0.011539516600764056,3.3126246153778767,-6.166425437498263,1.4613392373096903,1.6369577563755506,-0.7968522822840447,-5.615433572169636,3,left
17.83,0.4003833355091684,1.1283705798129855,-0.03220923062870722,3.292038702498205,-6.110050550168436,1.5220622888100663,1.6347223905871027,-0.7869400585063928,-5.610683610760023,3,left
17.835,0.39410418476477604,1.1536226372802751,-0.07729522928165991,3.3028264443208917,-6.141077879578493,1.4891715872366138,1.6367545394294103,-0.7962688002572846,-5.6151180930298565,3,left
17.836,0.39180404626275084,1.184298286516019,-0.12132141504530211,3.3010929443911214,-6.1325101673749005,1.4970343834688764,1.6356415335651162,-0.7898973040689812,-5.612228371997945,3,left
17.84,0.3949541965533771,1.2189623888607573,-0.16147986826411412,3.29681477148543,-6.127157040849006,1.5050771111359709,1.6354491827331201,-0.7930082783641046,-5.613267126247344,3,left
17.840999999999998,0.40761161484194086,1.2518425729562712,-0.1954382863938429,3.303535244826233,-6.13780227314818,1.4908332302258045,1.6370027084672023,-0.7922550484782408,-5.613777748583418,3,left
17.843,0.4250825844282977,1.2866711011963003,-0.21999702706076057,3.2974656434665506,-6.127342236150755,1.5043063167368325,1.6344183839751802,-0.7918569038424633,-5.612325734140784,3,left
17.844,0.4503098232559175,1.321171778807079,-0.23404940797863455,3.300636469305881,-6.136174596191502,1.4948461811597453,1.6372228922460477,-0.7925641041223377,-5.614001173100536,3,left
17.848,0.48569968752688975,1.3544300868991204,-0.2390577516657418,3.301694915170898,-6.127346816309139,1.500155111558293,1.6355242259535283,-0.7917088592529464,-5.612831943654097,3,left
17.849,0.5283033357405182,1.3900045473658487,-0.23789498536416484,3.2961008475098925,-6.138730195594281,1.4974572509218254,1.6344478267327784,-0.7931861886033593,-5.612824152203713,3,left
17.854,0.5782411384913215,1.4283889610809903,-0.2347118675459574,3.305206061309704,-6.123854090436321,1.499222715610872,1.6397932146246816,-0.7903438931205811,-5.614492232668201,3,left
17.855,0.6349405725974341,1.4706635885435724,-0.2228733737966735,3.2953588332093884,-6.139319375209272,1.4977610317240728,1.6297660114559558,-0.7949628270655331,-5.6111071329394715,3,left
17.859,0.7013453148730262,1.5136300067426898,-0.20806366879652813,3.3012712948255865,-6.13100433177911,1.49794167687757,1.6426664935404864,-0.7891757752054229,-5.615514711888544,3,left
17.86,0.7753237052770696,1.554277379113985,-0.20192465854011277,3.3052625790523082,-6.12076439528736,1.5013874356309753,1.6318871239448227,-0.7939521516774461,-5.611816550673303,3,left
17.863,0.8576493139207424,1.5827084868942118,-0.2180266079189857,3.2859869478438344,-6.160548125657524,1.4916914518746278,1.6322165246404365,-0.7940406306131462,-5.612000503594087,3,left
17.864,0.9457667580794354,1.5985237174385405,-0.26863123334876027,3.3220586126536524,-6.08767935217672,1.5087019999748073,1.6526450173071123,-0.784209211302923,-5.618759552457146,3,left
17.869,1.017909987998473,1.602533185443624,-0.33558272504879166,3.2756698313490715,-6.181038843179332,1.487076071490458,1.6023919524077606,-0.8081260964758854,-5.6020645931437905,3,left
17.869,1.0675435952134231,1.5836654200894653,-0.41336263978316595,3.3144238830978217,-6.103185959729799,1.5050445919302158,1.6857223135123796,-0.7685237607088065,-5.629746636933032,3,left
17.874000000000002,1.081560010813853,1.5613790731711015,-0.45813726353667095,3.3132682340946302,-6.104964168416377,1.5048916873349003,1.5758127187768602,-0.8207700981416373,-5.59326232491105,3,left
17.875,1.0753321873337467,1.5508055681933208,-0.46237727245486304,3.2397292916735623,-6.254480630030457,1.4695300972957321,1.1144838527655179,-1.0402124333647302,-5.439917710945596,3,left
17.875,1.057452390606485,1.5149082409449255,-0.4801116454115264,3.4205974882425783,-5.887388013186408,1.5560571236236362,1.004585271143596,-1.0925148901489152,-5.4034975302823245,3,left
17.879,0.9598813150261724,1.4297144866559361,-0.4415106985986028,3.120689030493015,-6.495923591874671,1.4126838406390645,1.0879037194908707,-1.0528518243030227,-5.431110198372913,3,left
17.88,0.8699659837951357,1.3679879964544739,-0.38178567694355925,3.516252083302435,-5.6933071274775315,1.6017974553410792,1.0376461131639432,-1.0767456613986708,-5.414388813165168,3,left
17.883,0.8425560021694698,1.349591991836376,-0.3624852947291235,5.17646743163124,-2.323877575920725,2.396077951269225,1.0581141503342737,-1.0671155554255023,-5.421378096312193,3,left
17.884,0.7227214102477628,1.2818081210475527,-0.252348269221452,5.571959024872907,-1.5213265752446408,2.585277070121096,1.0583584793062553,-1.0667708219926904,-5.421066721287962,3,left
17.884,0.542020455096102,1.1905814786409983,-0.07377535082895291,5.272166992020546,-2.1297185189116075,2.4417822897999266,1.0477010746768838,-1.0721683861815905,-5.4180787196580535,3,left
17.887999999999998,0.3829802945035818,1.1307566450307176,0.09746873186714416,5.452926064318045,-1.7628568497830277,2.5283768057323552,1.0604801183788362,-1.0657626996819392,-5.421779178059025,3,left
17.889,0.21282977094699163,1.076630025018084,0.28304685128449164,5.379416252716798,-1.9120765990972983,2.493110408185,1.050505288978846,-1.070648676873367,-5.4186990945382,3,left
17.893,0.057685306717977884,1.0409476443013355,0.4420507155249608,5.37838872083513,-1.9141380371511352,2.4926112727428613,1.0559550142241325,-1.0683373478560325,-5.420974602511846,3,left
17.893,-0.0777550386615799,1.026571065463009,0.5607173061690334,5.416806318183289,-1.8361634384864634,2.5111894394940366,1.0545426134644131,-1.0681038372642502,-5.419010489963876,3,left
17.898,-0.20289023736596376,1.025066987874181,0.6397473115194443,5.370943402102196,-1.929288889925503,2.4888149952812713,1.0534228361924032,-1.0701966961879004,-5.421211872503754,3,left
17.899,-0.3068561006317397,1.0451425994126642,0.6616789498993734,5.406433779043699,-1.8571808251902715,2.5064111750621523,1.0555169616733435,-1.0672855634701106,-5.418750949914058,3,left
17.903,-0.39643261878491126,1.0759902259418737,0.6404566485489036,5.387523227470718,-1.895645262542802,2.496752676435581,1.053498900158655,-1.069772532119336,-5.420596306838848,3,left
17.904,-0.4698986927744464,1.111569726777483,0.5811131256178053,5.391743277672896,-1.88703998362428,2.499036498208551,1.055057675921594,-1.06904408476972,-5.4211370872405205,3,left
17.908,-0.5229357743278261,1.1534722039461498,0.487685049947898,5.3964642512502,-1.877392636001558,2.501810154790168,1.0538140233240034,-1.0668031807389307,-5.4160550178406925,3,left
17.909000000000002,-0.5575181286663773,1.2005888458674283,0.3702734148982433,5.388925656418081,-1.892917375341682,2.4965388857763786,1.0551032220280674,-1.0726641909024228,-5.427152011673866,3,left
17.912,-0.576447743090506,1.2526296533744796,0.23743324729386528,5.394926540125162,-1.8803465131224133,2.5022782075316847,1.0535519682132497,-1.0637426696137773,-5.410721712124458,3,left
17.913,-0.5804969884223886,1.3076083562646192,0.11261086447475616,5.392212905023342,-1.886336729170231,2.4974603688843438,1.0551362319991187,-1.0732873168864931,-5.42821272764181,3,left
17.918,-0.5733871797320751,1.3669454627078945,0.00820679351433309,5.39236294439498,-1.8856464350717506,2.500337891608039,1.0543304958836002,-1.0677185080713303,-5.418144425085885,3,left
17.919,-0.5542672564375,1.4247545626710094,-0.06975731192904676,5.392330955060562,-1.8857089876747914,2.500346833941989,1.0530932618179476,-1.0631816041223483,-5.409280139192977,3,left
17.923,-0.5196994909376209,1.4732924978999833,-0.1085897064411723,5.395277238643907,-1.880442980742031,2.4965526634606148,1.0576193108761793,-1.0834713916069134,-5.44776890010165,3,left
17.924,-0.47279961804740833,1.5139317060933808,-0.11251692870065017,5.387182854985606,-1.8952384917554306,2.5045729211675694,1.0493865315895108,-1.0457625163895476,-5.376448853207561,3,left
17.927,-0.41350522340449125,1.5414378990143374,-0.08105372206529274,5.400379323603593,-1.8708916652837897,2.4931442616396886,1.0599211552729475,-1.0942047440962646,-5.468010856348128,3,left
17.929000000000002,-0.3494799383532571,1.5590837678942395,-0.0219622552371082,5.385656322082159,-1.898175446914653,2.505014005671957,1.0511419722289406,-1.0537483277561313,-5.391581673549577,3,left
17.932000000000002,-0.2871431896967023,1.5620972183760644,0.050918413887075936,5.394372632147622,-1.8819862285873759,2.4982558011134177,1.0513212533904213,-1.0548873262625929,-5.393616808585598,3,left
17.933,-0.2292865959938125,1.5463467454631892,0.13626659299183652,5.401973744568931,-1.867852755205846,2.4924719955549968,1.0682505325542384,-1.1319006858513116,-5.539448603448604,3,left
17.936,-0.18126835473256414,1.521339748945565,0.22532108599632134,5.368456195222839,-1.930216538969062,2.517664586674664,1.026711328727967,-0.942544693137952,-5.181064113705727,3,left
17.937,-0.1353714098739005,1.4654323400170948,0.31992411442539104,5.430855738380075,-1.8140744668282884,2.471059639492936,1.0955643788980851,-1.2565404262816027,-5.7752532940902075,3,left
17.942,-0.10734300140326268,1.4154341735888216,0.3796747950684161,5.350564187806073,-1.9635441910517937,2.5308234195643005,1.0047528128998864,-0.8423540135119327,-4.9915443517521165,3,left
17.942999999999998,-0.1022825984457041,1.403767239877828,0.3916649097398495,5.417671052989479,-1.8386119996451487,2.4809632301817555,0.6234473369495623,0.895840820010213,-1.7016446140269983,3,left
17.944000000000003,-0.08384700738503141,1.351411206394687,0.4331637686242587,5.415855969623524,-1.841972857746418,2.48232154169096,0.5326352894551355,1.3100696165808985,-0.9179711180781698,3,left
17.947,-0.05878678581335179,1.272136636708499,0.4871021404774283,5.287768559374124,-2.080505443026697,2.577309822020413,0.6014888610791482,0.9960280249694328,-1.5121219495990281,3,left
17.948,-0.04814701127573979,1.2142119855573958,0.5164493673304934,5.602641890398726,-1.4941405793579863,2.3438551966680103,0.5599498535915095,1.1853665839936791,-1.1537228674834266,3,left
17.951,-0.042588917900535914,1.1391343258670559,0.5572717672264653,5.08053082090461,-2.4664483126065844,2.7309090338952684,0.5768774084230981,1.1085053202711315,-1.2996818882885401,3,left
17.952,-0.04027905941878026,1.0902168855204766,0.5833965483616197,5.769190144832667,-1.183914368813314,2.220419576800115,0.5770604021720029,1.1070390588708212,-1.3014432896185437,3,left
17.953,-0.041534335248068016,1.0790280619632702,0.5895342807250532,8.658772176953395,4.199702501348998,0.07824465968115735,0.5682758940541788,1.147964711349743,-1.2254065782277925,3,left
17.956,-0.039852594821102816,1.029949405156108,0.6150237561462124,9.34716225017311,5.482278959210182,-0.43209443569963446,0.5788158228692524,1.0990552129389535,-1.3165777707263295,3,left
17.957,-0.028203548409871337,0.9643033867326681,0.6326787009875025,8.825650442212709,4.509905646512776,-0.04536149505281396,0.5705807499304181,1.1369657243365512,-1.245426334720437,3,left
17.961,-0.002333158141403391,0.9080809063719122,0.6183703084431609,9.139543799447534,5.09632237533569,-0.27831759067591305,0.5751022539782923,1.117077147302751,-1.2842507277200572,3,left
17.962,0.04188938448755149,0.8453728680172209,0.5769058180185366,9.012738815421944,4.85779937890341,-0.1839450079598171,0.5738796788165881,1.1203215728883358,-1.2743053448772506,3,left
17.965999999999998,0.10589987872674965,0.7851885463336465,0.5015998485600044,9.009666692844654,4.854322357133624,-0.18203376373258717,0.5730486744896284,1.1281174145047688,-1.2660997793396094,3,left
17.967,0.1854257338567469,0.7400785031009494,0.39682424227289825,9.077373212451572,4.979497599224728,-0.23206883559355684,0.5746639596429859,1.1158395989642511,-1.2813047902853225,3,left
17.971,0.27403870979418055,0.7276870855618995,0.2730575098633178,8.997986707616484,4.829690273562436,-0.1729027054751795,0.5730879577738357,1.1269401942448405,-1.2666969427496744,3,left
17.971,0.35713462445250205,0.7298972682236222,0.13660023717652647,9.057206426023605,4.946155536530867,-0.21781664200824907,0.5743769734826278,1.1210984647510367,-1.2778103186146663,3,left
17.976,0.4197118362148616,0.726481404913218,-0.014644725147627765,9.029338621076821,4.883672514929813,-0.19541301125629404,0.5731791606364571,1.1192959002878604,-1.2693459362240072,3,left
17.977,0.4503562917036898,0.7377397190346886,-0.18233858780241854,9.029797969861654,4.897486450997099,-0.1978941039800961,0.5746331091328827,1.1292652695106462,-1.277616170718709,3,left
17.982,0.43424436624495855,0.7680127602069826,-0.34158995319356034,9.04454094236613,4.914625377105703,-0.20711718334004722,0.5727714876697678,1.1129921436914865,-1.2679306430082065,3,left
17.982,0.3519822109350482,0.8187213263215136,-0.4651189841157011,9.029092753911495,4.885752826386797,-0.19564933657852546,0.5746987769248202,1.130599899624611,-1.2777616668616476,3,left
17.985,0.18770229961772056,0.9085028398851798,-0.5369407645658664,9.032895158275537,4.911997369493724,-0.20163561122463985,0.5736755121382595,1.1200150016493469,-1.2728612790686218,3,left
17.986,-0.04996915911342548,1.0553817048676781,-0.5622201513445446,9.047686469786093,4.895768340885639,-0.2053630085573005,0.5723459480796111,1.1129290919651387,-1.2647735428341944,3,left
17.992,-0.33631339565474117,1.2752487142991242,-0.5690528911100302,9.015345790597896,4.900835579713637,-0.19218494903783825,0.5774323860291126,1.1472756547815757,-1.2938453496264342,3,left
17.993,-0.6282713546396277,1.5725800369000629,-0.5389180925788822,9.054347344251637,4.903866853080918,-0.20958880852490192,0.5681315867652563,1.0829792161060299,-1.2410727418367231,3,left
17.996,-0.8943977722233247,1.9391810930256543,-0.4556191469096114,9.029502102933222,4.8978094962774845,-0.1978189195140992,0.5800448415616163,1.1656715896839618,-1.308579379885729,3,left
17.997,-1.1187030303316448,2.341461168129627,-0.3588955621234643,9.012949367137132,4.9016563199971,-0.19128353392068032,0.5701106690605929,1.0965850926569236,-1.2523248979217927,3,left
18.0,-1.2384968937019716,2.6994823953704365,-0.2833876303901045,9.095660296354978,4.90396351140504,-0.2275068109065915,0.5703344557671466,1.098655790354326,-1.2534504390714218,3,left
18.000999999999998,-1.2912438242413176,2.9486889888743377,-0.2321896603993863,8.93927874060181,4.894102825358088,-0.1581076222943367,0.5894257019059062,1.2297232157419997,-1.3620197055204013,3,left
18.007,-1.3216327861248973,3.0866438010255606,-0.2797398761738933,9.141408203492425,4.909243343048674,-0.2482075556184038,0.5425541275380237,0.9073462036400859,-1.0956369631543625,3,left
18.008,-1.235341879817633,3.1423792786842073,-0.5103033698635112,8.97209335225613,4.895540084531925,-0.1725622450269032,0.6202566563042378,1.4419133735793341,-1.5371920251007851,3,left
18.011,-1.1168571251964343,3.1473053346466546,-0.6768524535539235,8.97716598480297,4.896838131632206,-0.1749839520402214,0.5177675078264006,0.7368265849958939,-0.9547916620779684,3,left
18.011,-1.0693692143729097,3.1375494033186855,-0.6996590242526466,9.299108396408396,4.921244267473506,-0.3185262151959558,0.08753425166871681,-2.222734286281461,1.4903758649842815,3,left
18.012,-0.90976810580832,3.1163176005687925,-0.7821175236263955,8.506935961808544,4.859591181396597,0.03495745274179533,-0.014959709918561666,-2.9278036861343475,2.0728264881522023,3,left
18.016,-0.5768811626495909,3.0361290628403728,-0.7236361689281356,9.82081153170941,4.9626195441479215,-0.5514649814907758,0.06274428355946662,-2.3932225426466784,1.631219220539462,3,left
18.016,-0.36496058189128366,2.9645900216929597,-0.5823810854019056,8.087615511544195,4.826318428384063,0.22219831672088486,0.015887946701680325,-2.715722842580223,1.8975735860489893,3,left
18.019000000000002,-0.30052611442409827,2.940455148537727,-0.5425810531590007,0.8125055740882288,4.254148232335615,3.4696631168011316,0.03493458870189655,-2.58435359280157,1.7892005613262567,3,left
18.02,-0.07997717641075051,2.8124514806552736,-0.3337773533469738,-0.920783458834569,4.117569846845029,4.243482479285616,0.035236088419829045,-2.5827723624474506,1.7876633798035653,3,left
18.021,0.19812663581010165,2.560940648177926,-0.0347209533623762,0.39330547990907905,4.221179745212044,3.656747705072553,0.025205109112061586,-2.6512851169906533,1.8444995852853805,3,left
18.024,0.37945317082878877,2.2607163604617115,0.18791127274262728,-0.3992279922528297,4.158643502645455,4.010675394275281,0.03719650421589597,-2.5690041196068893,1.7764242708682625,3,left
18.025,0.5537065283550224,1.930733035184118,0.39709845420143897,-0.07679616848914378,4.1841104858530445,3.866645438542772,0.027895895205205003,-2.6334200806508203,1.8294225703372686,3,left
18.03,0.6883216664407412,1.6255346981353984,0.5521210151351534,-0.07222661685077728,4.184499459690902,3.864573080395867,0.03283710494642708,-2.598035852038617,1.8008844437544587,3,left
18.031,0.7819098726236895,1.3621016593969864,0.6797247692506148,-0.24126043009107243,4.171000031644496,3.940277906970329,0.03184095064561561,-2.60728691936767,1.8073310708097328,3,left
18.035,0.8622220477862232,1.1305667784377127,0.7897003159011702,-0.0388609131593608,4.187311029306578,3.8494187082788796,0.030319514833909315,-2.6148096261090843,1.8150148628441267,3,left
18.035999999999998,0.918465464431336,0.9300757232901233,0.8551588936681349,-0.19638007817724143,4.174394940367273,3.920445367421568,0.032777140564926074,-2.600249989776298,1.8018149492435647,3,left
18.039,0.9665180837034711,0.7497111102419858,0.8960507723140598,-0.11154836547323183,4.181573502876577,3.8818789120399657,0.030613800780646874,-2.6151537825950735,1.81411602610509,3,left
18.04,0.987835336410947,0.5901437280002334,0.910330289035651,-0.13088483529984477,4.179838509338829,3.8908094416700423,0.0317862585786759,-2.602729874707867,1.8060309423147283,3,left
18.044,0.9663110785292333,0.45897922961890836,0.8933082063022106,-0.15323221029567557,4.177658443358233,3.901377876338205,0.03178804555814861,-2.6126773187317855,1.8092702221088208,3,left
18.045,0.8894757192509315,0.37101409467987123,0.8254337627254104,-0.11485380288408967,4.182029231987187,3.8823413029170952,0.03084106025618546,-2.604333380301507,1.809804514798445,3,left
18.049,0.7528904491792482,0.33304648196235664,0.7052063886926798,-0.15034900200469142,4.176915018656526,3.9014639077189313,0.03219618505338526,-2.6108509533264193,1.8072708132785982,3,left
18.05,0.5717043611504616,0.3417421524685559,0.5463311643654374,-0.1271748767612293,4.181582952607222,3.8870991777481,0.031181363520402326,-2.608679633335976,1.8100520240726592,3,left
18.054000000000002,0.37368463010880026,0.38671217219564447,0.34675323854661755,-0.1368247935994013,4.178557740419858,3.8946105826678474,0.03102731087819714,-2.601850235910632,1.8083544595130325,3,left
18.055,0.18206824543836794,0.4461257309024941,0.12277594396150121,-0.13676362374605017,4.178542410555164,3.894611777303845,0.03303134942043878,-2.622592077266815,1.8082283293707726,3,left
18.059,0.01332927172249651,0.5009809094725117,-0.0944283938690797,-0.13299490831396227,4.183040891460758,3.8869860676268324,0.029000468905541872,-2.5862880336053102,1.8102480221504922,3,left
18.06,-0.09443972276851745,0.5407497125527745,-0.2746876947853786,-0.13564226732374793,4.173230939585653,3.9017497179395497,0.0342898719735705,-2.6321238247165466,1.8070101230601456,3,left
18.064,-0.15086670085569182,0.5602811984660387,-0.40105446671170447,-0.13660610529592748,4.1874782406553805,3.881918574004231,0.029825620757973948,-2.59418953586586,1.8099870335352404,3,left
18.065,-0.14246026624233854,0.5560470085003975,-0.4883871357381786,-0.1327067202178983,4.172516758526812,3.9017767599988837,0.03002148409941271,-2.5947029058803652,1.8094830715792,3,left
18.069000000000003,-0.06720067073361854,0.5252288653250088,-0.5589386950885503,-0.13587735399385403,4.181089142245089,3.890712423760776,0.03833469117861012,-2.668399828262963,1.804931606778959,3,left
18.069000000000003,0.034398153358658666,0.48035913608397096,-0.6228674097842248,-0.13899368190616,4.188448626567805,3.881345546154678,0.017792549650437337,-2.488008017204906,1.816733586989335,3,left
18.075,0.21282972772287817,0.44795603874300194,-0.6790246965748983,-0.1242531699336359,4.15632698449409,3.921847043913817,0.051894650354491326,-2.7868192674571324,1.7969296413349527,3,left
18.076,0.34904295017744313,0.43491945366321627,-0.7072352300099471,-0.15264438601763214,4.215814008324266,3.8472075367422054,0.006897461053028343,-2.3927991531325086,1.8231411288716055,3,left
18.078,0.38855373326599574,0.43881538849875207,-0.7111718017040739,-0.11545809353968328,4.139486403916052,3.9427225554039818,-0.18189615718453794,-0.7383944423883836,1.9327539852465803,3,left
18.079,0.5279747952164678,0.4678993069590419,-0.7113576714018262,-0.14682398887240844,4.203185915640773,3.8631237068844397,-0.22689944693100672,-0.34440805195087365,1.9589920349398044,3,left
18.079,0.715244508288061,0.5403355150638687,-0.6984119624276628,-0.1460124323178026,4.201450062528785,3.865299674862765,-0.1927822189551864,-0.6431241655819389,1.9391108850188383,3,left
18.084,0.8554458339983602,0.6446567541171314,-0.6746870895664084,-0.08554985712218653,4.080064979358005,4.016772502171703,-0.21335205301145513,-0.4629262157306289,1.9510736020443855,3,left
18.084,0.9982464136697269,0.7564031267265523,-0.6580869950870665,-0.23434369981346342,4.378409966735589,3.6445479729142343,-0.20499847362928858,-0.536315896181174,1.9462635574300975,3,left
18.088,1.1443082155322437,0.8898595370811826,-0.6521616443111113,0.012551011224039565,3.883762477985085,4.261624731564398,-0.20484787895519335,-0.537204224152454,1.9460795307936538,3,left
18.089000000000002,1.2353838322502106,0.9759122368986703,-0.6537303091257431,-0.313221401487644,4.536154745255099,3.447778182324714,-0.20928052742598427,-0.49896138577059745,1.9487870086713148,3,left
18.09,1.2608531575903226,0.9964091000798219,-0.6553116787011682,-1.68029755287531,7.273413590091372,0.0321897755474696,-0.20398099518999763,-0.5448183058789984,1.9455809680833476,3,left
18.093,1.323896047440074,1.0654857598510752,-0.6509069238865958,-2.005971989613258,7.925516310167455,-0.7815280826339628,-0.20809349372823374,-0.5090364622459741,1.9480259742124952,3,left
18.093,1.3868246329403529,1.1400993291581727,-0.6379388458560704,-1.7593486903658055,7.431494405500515,-0.1647054403746465,-0.20592015685929027,-0.5285358809270033,1.9468607899105903,3,left
18.098,1.378921699869595,1.157393965013357,-0.6135113115293802,-1.9075969669103574,7.728852317244954,-0.5365760133370852,-0.206313344625787,-0.5236024438015774,1.9467698016132946,3,left
18.099,1.343216601778706,1.1525386380028606,-0.5735957298411103,-1.8479906314903087,7.6087086763489555,-0.38548021788817316,-0.2070899753010768,-0.5193600577261909,1.9477709383444284,3,left
18.102,1.2724730467134209,1.1166129997788792,-0.5200840475901836,-1.8461436623092438,7.60582525416824,-0.3830534455998792,-0.20584253090014648,-0.5271493767401788,1.9463723785860452,3,left
18.102999999999998,1.1810573137270346,1.060291692174541,-0.46098956360744514,-1.8783481694907962,7.669950410261999,-0.46256321256348726,-0.20697954544811492,-0.5196890558599878,1.9475697147209945,3,left
18.109,1.0921594362562317,1.0001998894469661,-0.4007660081342695,-1.8411335570544336,7.594722446678301,-0.3676973481208628,-0.20634427033625255,-0.5252755239361477,1.947204653303211,3,left
18.11,1.0064970946317502,0.939916297642167,-0.3433518560844332,-1.868039060156617,7.650906061917554,-0.44101602836806886,-0.2062765458629606,-0.5212358603568943,1.9461725886356696,3,left
18.112000000000002,0.9400438217106395,0.8969032805028777,-0.2949607661745214,-1.8567740866380873,7.624358421715536,-0.4023551796803039,-0.2070668221329301,-0.5248998360599687,1.948900755343518,3,left
18.113,0.8836854721726102,0.8774849134539771,-0.2585841774164892,-1.8546331750904075,7.624977120789478,-0.4099184347672593,-0.20573574991845703,-0.5207676992556369,1.944742539548614,3,left
18.118,0.8269548748954746,0.8862944235962362,-0.23354070838830882,-1.8634894446693107,7.638796390231358,-0.421748286087972,-0.20718294709324475,-0.5249239793351355,1.9491915817876098,3,left
18.119,0.7695274817648013,0.9224430284790581,-0.21671630070790626,-1.8561973185376148,7.624160595074225,-0.40343819144318616,-0.2063021074391636,-0.5229149170385884,1.9465949415866273,3,left
18.122,0.7013663232686784,0.9770819625874719,-0.19791245147976055,-1.8545040752119504,7.628036713398087,-0.41831836095531416,-0.20576424286159453,-0.5192399290063079,1.9444856570862343,3,left
18.123,0.6199939148467696,1.0434793688142308,-0.1732086952604136,-1.8694839047148983,7.641422585541954,-0.41206805245824674,-0.2084804680114975,-0.5321423532044234,1.953928025081976,3,left
18.129,0.526887683599778,1.1150905356307432,-0.1461442527125999,-1.8422746216875074,7.611719580349604,-0.40924705713743087,-0.20337800401892722,-0.5087892070914828,1.9363790424637388,3,left
18.129,0.41510143822016893,1.180826823805643,-0.11366415961515566,-1.8734221710855294,7.647671666440987,-0.41760477768490706,-0.2099442052331802,-0.5386464273431217,1.9589212584527407,3,left
18.133,0.29893267948829205,1.2376319782913265,-0.0805856205922556,-1.8543315438400714,7.624708394374291,-0.4100429516281981,-0.20445689676929815,-0.5137730526088581,1.9400984960455867,3,left
18.134,0.17411278174850892,1.2794419354034026,-0.054394244153281215,-1.8401778534356223,7.6095273495043925,-0.40928118590811485,-0.20462727570342315,-0.5142445840229485,1.9406211713252757,3,left
18.137,0.045538760877495386,1.3007331931487092,-0.03393143204100599,-1.906982501629437,7.68570593330975,-0.42476666319287754,-0.21501785594775435,-0.5623332377826828,1.9764689350266615,3,left
18.137999999999998,-0.06294058716556278,1.3065148866884364,-0.02307814043214637,-1.78167498882971,7.541591484891456,-0.3925045758454903,-0.18945421892625064,-0.4443764018458236,1.888344048849406,3,left
18.143,-0.18438080341705904,1.2897045429529497,-0.023837033058327482,-1.943205615697054,7.7279043144127115,-0.4355061436407232,-0.23184517522657236,-0.6398906487220379,2.0344630220231377,3,left
18.145,-0.2613080916049526,1.2748158820515698,-0.02478005549046595,-1.8080815212840484,7.57181666018548,-0.3989275080070899,-0.1759330274649059,-0.38201633169454213,1.8417326461559282,3,left
18.147000000000002,-0.2785482166836947,1.2695489727613658,-0.02632212875684984,-1.8119750791765776,7.576522094707481,-0.40051595140163676,0.05873520273696671,0.7007108263259453,1.032766859199876,3,left
18.148,-0.34795319638646677,1.243244289036321,-0.03703671677387517,-2.069189949474639,7.873251033158351,-0.46914597478464853,0.11463987063883394,0.958601873251743,0.840038059211743,3,left
18.148,-0.4291506431982094,1.211015725461139,-0.051569234339646164,-1.4365629089048446,7.143062391353961,-0.2993849762872889,0.07225920108040738,0.7630737885741683,0.9861553859783421,3,left
18.153,-0.4907053012649299,1.1718095997589923,-0.0736431554950434,-2.4856923942576685,8.35417065087648,-0.5813810756036923,0.09781814474311673,0.8810086411526445,0.8980296438068749,3,left
18.154,-0.5400375831535016,1.1398962518455136,-0.09206361246348674,-1.1017926272883898,6.7565064095268195,-0.20915917297312175,0.0874167413792737,0.833011157111455,0.9338834909858095,3,left
18.157,-0.5510664354932082,1.1326384812384127,-0.09697008642876509,4.707076740903135,0.05053109959766977,1.3530141693196007,0.08728035301075354,0.832364258442235,0.934393362731195,3,left
18.158,-0.5852321166173052,1.1000142145158198,-0.1190082084049871,6.091041465836029,-1.5472815115161693,1.7254154213322277,0.09271035646779358,0.8574724242489549,0.9155887291421846,3,left
18.158,-0.6281879653158347,1.0524631819755106,-0.16070090237873785,5.041779598436143,-0.3358884055032321,1.4430701656602487,0.08621192368690693,0.8274021996112788,0.9381131784873383,3,left
18.160999999999998,-0.6430703928986617,1.0160177336463816,-0.2066801700977037,5.6745998757245015,-1.0664563399413747,1.6133067749389198,0.09126526768083151,0.8508086289154346,0.9205713309518485,3,left
18.162,-0.6503197396574816,0.975883658180775,-0.2578933590814023,5.4171646478657145,-0.7693520638205859,1.544187744955317,0.08853665750065731,0.8381781177719683,0.9300301787485639,3,left
18.167,-0.6329430188587657,0.9432730772334973,-0.3047401306907185,5.413442267305762,-0.7648477476217175,1.542894781250013,0.08919321955692809,0.8411303074941029,0.9278699127710046,3,left
18.168,-0.5940384816337339,0.9201603816706525,-0.34287275597792477,5.548563465726483,-0.9211325692530039,1.5796555467152775,0.08982480950525631,0.8442978746097287,0.9253599212532957,3,left
18.171,-0.5388243982334089,0.9070596991195155,-0.36665185573833287,5.386732785747986,-0.7340169598436731,1.5357159680154873,0.08873099253955061,0.8388120870711477,0.9297038919999429,3,left
18.171,-0.46772259919898396,0.9074461297964769,-0.36771862333404165,5.512732279338431,-0.8796038753451514,1.569787783313962,0.08970941196958938,0.8438663735993492,0.9256275504565366,3,left
18.176,-0.39332278478914556,0.9139828512171828,-0.355038284065463,5.444889180828816,-0.8015199969986447,1.5518704856701844,0.08907921707215954,0.8405277565082689,0.928360805144619,3,left
18.177,-0.31613276576484883,0.9237232108386484,-0.3406880403555941,5.4601580565667565,-0.8183744376972051,1.5548960555596336,0.08942699349043648,0.8421287443580321,0.9271668074893785,3,left
18.182000000000002,-0.24532271071841624,0.9311384246933496,-0.3322783328220665,5.478593374087589,-0.8409891569755761,1.5617198516043933,0.08912607206091104,0.8415399817845111,0.9271639071880551,3,left
18.182000000000002,-0.18545266781153286,0.9375730717450184,-0.32988578478738606,5.44690485213831,-0.8027719048384093,1.550907959076854,0.08962328604654121,0.8420061394389611,0.927827304170243,3,left
18.186,-0.13329813390492784,0.9438218754546892,-0.3261153171222777,5.47655614778781,-0.8383060287763824,1.5607077360598303,0.08883727036866607,0.8411067164405734,0.9269901500059967,3,left
18.187,-0.0941390727608999,0.9460166725621978,-0.31940131400313077,5.456967004418604,-0.8157012796991292,1.555453164803168,0.0897338876461205,0.8423363952772753,0.9276802365466981,3,left
18.192,-0.06734402880666765,0.947831111908741,-0.31218735186474456,5.46475726428624,-0.8222815825863774,1.5541697190583696,0.08921647569229932,0.8416286599086698,0.927279188669953,3,left
18.192,-0.04824718188290483,0.9499491427344444,-0.30520043172310996,5.466506006555598,-0.8298173725980076,1.562363352900408,0.0886401516966619,0.8404182835311123,0.9273828650659574,3,left
18.195999999999998,-0.03807376552475095,0.9500123569315642,-0.29954725724643533,5.459215239922896,-0.8131689310075707,1.5488801872228315,0.09099366969691008,0.8449387325919864,0.9275112624489109,3,left
18.197,-0.0360205421358102,0.9492198942121561,-0.29796455038966196,5.467858206408792,-0.8319233558379748,1.5634879381492874,0.08663750397857459,0.8365937497991776,0.9272438374830865,3,left
18.201,-0.038041513963410406,0.9498131109422977,-0.30245747537134204,5.461489066277109,-0.8194967840404106,1.5546772504957678,0.09224176398098005,0.8473594416535473,0.9275503911522809,3,left
18.202,-0.04246453759082086,0.9497319695378319,-0.30700404022317185,5.462814661113661,-0.8166619176381344,1.548917221490221,0.08755822929241106,0.8383482291981654,0.9273108361888502,3,left
18.205,-0.04993894875846633,0.948115071542309,-0.3056419194957799,5.468166911841022,-0.8419625678397957,1.5771290639394997,0.08767106790470455,0.8385307752280287,0.9273659115927466,3,left
18.206,-0.059565565152765426,0.9492442811162073,-0.30519159664200124,5.456231181335581,-0.7927148418813124,1.5242682593615484,0.09666060580628075,0.8559784823423251,0.9276179847768542,3,left
18.211,-0.07432283663608338,0.9531247372792653,-0.3058062756827942,5.472004060086864,-0.8564739033814222,1.5922652044934331,0.07457626801913447,0.8131383155883791,0.9269598666889451,3,left
18.212,-0.09685149303693305,0.9592233090019189,-0.29579679742188925,5.458660533321313,-0.803032520680248,1.5354494534655347,0.11119373709999454,0.8841766333100418,0.9280497714623046,3,left
18.215,-0.11230900367757839,0.9646659430935557,-0.2841269640373091,5.4597072676066585,-0.8052916644006848,1.5371746445478336,0.06289255035293961,0.7904594402123666,0.9266213960530152,3,left
18.215999999999998,-0.11718922828057524,0.9654769246297905,-0.28147070801337765,5.482885329893472,-0.9045290809395048,1.6448945118940985,-0.13989139462107264,0.3969481853649084,0.9207751518763534,3,left
18.215999999999998,-0.13190572030661168,0.968744164725506,-0.2703368444400147,5.425125277705567,-0.6596564595299403,1.3799130381519498,-0.18819686323839507,0.3032038710550351,0.9193598278466182,3,left
18.22,-0.15800704980270697,0.9767869965822265,-0.24848405907551951,5.521075566769495,-1.065916059202169,1.8193188688542654,-0.1515722230045483,0.3742832375814928,0.9204268620803298,3,left
18.221,-0.17426622309854312,0.9807343923334961,-0.23739618524865497,5.394540641683976,-0.5300375296261681,1.2397437476372444,-0.17366379006809377,0.3314127701749099,0.9197943654018095,3,left
18.226,-0.17849236913639954,0.9817651148305727,-0.23554093984945446,4.864397456382379,1.7181637086401467,-1.192753612627472,-0.16467108302745084,0.3488486178725837,0.9200293856593129,3,left
18.227,-0.1909360729245544,0.9849312722121033,-0.22709178397311205,4.738081261582348,2.2539617201935243,-1.7722956733055124,-0.16455267970285775,0.34911378440107343,0.920078467748809,3,left
18.227,-0.20878671750319705,0.9876947146204088,-0.21318534967939123,4.833706259570123,1.8477732662491548,-1.3329317214917158,-0.16925410777065344,0.3399383917190889,0.9198816810798305,3,left
18.230999999999998,-0.21901851017490873,0.9897032956641034,-0.19885621439340684,4.776170162906132,2.092735584562554,-1.5979051593072626,-0.1636196446207085,0.3509246834784862,0.9201029562339171,3,left
18.232,-0.22449239032541546,0.9888478462936365,-0.18367587931847779,4.799485962151571,1.9930925866496014,-1.4901112547534825,-0.1680118423604431,0.3423784575567585,0.9199516059878758,3,left
18.236,-0.22441842073308485,0.9851842850730518,-0.17219923762033185,4.799803920704548,1.991628196409656,-1.4885751687998765,-0.1656312603500779,0.34695387016168255,0.9199705475667594,3,left
18.237000000000002,-0.22255648694186064,0.9818336584739743,-0.1633454203795181,4.7878515249517,2.043992439296178,-1.5450959183193436,-0.16620359226922699,0.3459868609887867,0.920112547290864,3,left
18.24,-0.2213864208603572,0.97621647890906,-0.15038671133866374,4.8018066397685155,1.981228065492815,-1.4774225427017287,-0.16677963362100073,0.3446211577132894,0.9198238472940599,3,left
18.241,-0.21648236293663164,0.9710015625086352,-0.13827324662253093,4.791458418783799,2.03019130599138,-1.5300883733285344,-0.16575611995797918,0.3469116857067078,0.920186669864206,3,left
18.245,-0.21115445555972942,0.9676951956338095,-0.12941427162988078,4.796520767071117,2.003703051239693,-1.5017262484024259,-0.16672535832142643,0.3447881279215192,0.919893261656137,3,left
18.245,-0.20502852003082894,0.9652232516205809,-0.11693763282230407,4.79559642287218,2.0097899121571747,-1.508189824110248,-0.16604092890237365,0.34611420216782474,0.9199105615000721,3,left
18.25,-0.19432489850242868,0.9644749008969907,-0.1014504193866829,4.794911045261715,2.01693872458838,-1.515663721085969,-0.16643498857212363,0.34579974394788365,0.9203916451329945,3,left
18.250999999999998,-0.17813029297995314,0.9624296810837334,-0.08475605624908236,4.794660389082242,2.0043158361620197,-1.5028287622207919,-0.1662170425817905,0.3451936633546827,0.9192727779713996,3,left
18.254,-0.15836951894325813,0.9626988934774816,-0.06922109759394354,4.797324251816997,2.01659195284544,-1.514701154996732,-0.1663786791742482,0.34641513698856063,0.9209464900492215,3,left
18.255,-0.1369903455460172,0.965617832311603,-0.05910312180751858,4.792570837885055,2.007829748537695,-1.5069474478404916,-0.16623682493609565,0.34505394405155837,0.9191614985682088,3,left
18.26,-0.11050712184649554,0.9664673290365849,-0.046028670666126155,4.7970029615365535,2.0120865370281455,-1.510178244986578,-0.16627071547559952,0.3459336510808455,0.9201941772630962,3,left
18.261,-0.08079852692914008,0.9684501599653383,-0.02891873767530688,4.797052132100758,2.0120804098092924,-1.5101578542080665,-0.166538048696248,0.3462301646987401,0.9210776725372865,3,left
18.265,-0.0521294495650051,0.9705665332597786,-0.017872981661429095,4.787801746942055,2.0085476289481203,-1.5088894553401875,-0.16575782976893855,0.3441766925256847,0.9172002287566543,3,left
18.267,-0.01908968396503766,0.9713299325458574,-0.008943909631644554,4.809376974632355,2.014775513242291,-1.5097938281474008,-0.1671344219649595,0.34812112136877305,0.9243928465733564,3,left
18.269000000000002,0.019438177880820643,0.9726035254912206,-0.00104675533765867,4.776832618285207,2.0070038622919473,-1.5100870708797127,-0.1653825664916242,0.343025946164136,0.9151568687272319,3,left
18.269000000000002,0.056828539942689694,0.9718113085099876,7.024636150650652e-05,4.811734473137746,2.014400664264238,-1.5088147373297245,-0.1668387598269303,0.34729161218223364,0.9228675166647011,3,left
18.274,0.09811669015180755,0.9700330179475459,-0.002583116556822151,4.791501995893462,2.0104106656550695,-1.5098558307004417,-0.1668237486707067,0.3471295958471473,0.9226585202033084,3,left
18.275,0.13958182995035776,0.9713531160240412,-0.003530365614016911,4.774031248347292,2.007088761135539,-1.510884006006603,-0.1639669160587766,0.33914951116850034,0.9079572274598506,3,left
18.279,0.1742132102934541,0.9713480728528067,0.0005637651703472534,4.850567475841391,2.0212847310818995,-1.5060213811783785,-0.17096001662233629,0.3588175135569008,0.9440911803771019,3,left
18.28,0.21731570103920356,0.9664583248885736,0.007807761852605854,4.7085554587912934,1.9952846427476933,-1.5153893444519049,-0.15937237948169794,0.3261943507759629,0.884179912600275,3,left
18.284000000000002,0.2486130154868871,0.963700391887052,0.013082271940774421,4.89095693620723,2.0284440579063316,-1.5031188933246473,-0.1746560552017602,0.369223332324337,0.9632018237354922,3,left
18.284000000000002,0.2563861176797252,0.963423443836803,0.014704063555072023,4.738658888941343,2.0008599421062705,-1.513465676251229,-0.23884283388667565,0.5497798634255301,1.2948987086336843,3,left
18.284000000000002,0.2835705215560061,0.9584334132864297,0.017390782435814496,4.742770826436242,2.0016191496155367,-1.5132094616324387,-0.2541301305683861,0.5927980735886385,1.373918713462729,3,left
18.289,0.32084815087836915,0.9502437509981945,0.022465245137836355,5.033238701310536,2.054010779268762,-1.493232729475445,-0.242538342866967,0.56018881808232,1.3140103828111895,3,left
18.29,0.3455998994861207,0.9409348167986291,0.0247289536374976,4.3193050208310915,1.9252952776089491,-1.5423747031022401,-0.24953077842547858,0.5798532714495537,1.3501420222159397,3,left
18.294,0.37309675042769785,0.9284582884075637,0.02719061509175537,5.503044452246183,2.1386501013660117,-1.4608419665515635,-0.24668524019276505,0.5718509839200794,1.3354402746661953,3,left
18.294,0.3888305828063817,0.9203323834023202,0.030518971068912742,3.9416945663415976,1.85728324814505,-1.5684240855516274,-0.2466447915084254,0.5717477324400043,1.3352365235357402,3,left
18.295,0.39306779652704205,0.9184208239579015,0.030529892936442298,-2.6122913492998627,0.6764051857858477,-2.0204626501451872,-0.2481383668184017,0.5759203404740636,1.3429362346050544,3,left
18.298,0.4083980083251291,0.9091117197558767,0.032326812236880866,-4.173658361153202,0.3950814725545633,-2.1281021381125536,-0.24634815031142845,0.5709288256038445,1.3337154148932278,3,left
18.299,0.4257120932046478,0.8944909132726291,0.03147432660286345,-2.9898701104019243,0.608362929601893,-2.0464415094511432,-0.2477434049325076,0.5748081103275607,1.3408935675981877,3,left
18.303,0.4406687166788567,0.8856473883650963,0.020927093461703263,-3.703904032215549,0.47972421982430696,-2.0957930213464975,-0.24699126409745664,0.5727126707532829,1.3370213685132208,3,left
18.303,0.453605926928052,0.8793330409197377,0.01104886272616888,-3.4132764347648274,0.5320757636768778,-2.0755415290463386,-0.24715978456651372,0.5732253051757156,1.3379193828640537,3,left
18.308,0.46027353637003354,0.8716831484329475,0.006162228237638897,-3.4093603945961104,0.532791005994371,-2.075555388724312,-0.24736868192661904,0.5736866888595621,1.3389092137527867,3,left
18.309,0.4668869181157622,0.8673975454514256,0.003172128658370121,-3.561495869152755,0.5053741844648152,-2.085772027579101,-0.24700700921343177,0.5728876556293875,1.3371957380828001,3,left
18.313,0.46781161810293914,0.8684145271566754,-0.0002113285419666727,-3.3791085045885563,0.538236771037117,-2.073310034111335,-0.24735142446158187,0.5735881102063508,1.3387841622711147,3,left
18.314,0.4618879617313242,0.8688231699546869,-0.008341402558667702,-3.5213888508718645,0.5126066287693585,-2.0833570102596113,-0.24711777997788842,0.5731450229108512,1.3377296028331016,3,left
18.317999999999998,0.4551362463417903,0.87062383503453,-0.01796316747205656,-3.444208169095344,0.5265001200463255,-2.077284650758817,-0.24721239357289368,0.5734129396223523,1.3382197158328548,3,left
18.319000000000003,0.4452583974044179,0.877197554667631,-0.02800044427173551,-3.462667052155642,0.5231938160284219,-2.079845672886651,-0.24724374003404706,0.5731039021429674,1.3380983090604688,3,left
18.322,0.4340101637557092,0.8834034511839416,-0.039234949605942135,-3.4818144769646624,0.5197210831998322,-2.0795875468128724,-0.24711993683647399,0.5736636631338494,1.3381065363814684,3,left
18.323,0.41873755996756656,0.8916375625969093,-0.04849694970347598,-3.447588454581582,0.5259054798685976,-2.0784848061589267,-0.24729255853120635,0.5727945001469603,1.3380316694250922,3,left
18.329,0.3999900692622246,0.902630967288972,-0.0572949062698154,-3.480573707657107,0.5199627707077417,-2.080771103978144,-0.24712458037366725,0.5737662448298737,1.3381945216099767,3,left
18.33,0.3813022937646693,0.9119589534964356,-0.06683423766619567,-3.4567470329383996,0.5242227326297063,-2.0767944833225167,-0.24722182488611094,0.5732052488933428,1.3381012309712919,3,left
18.332,0.35993427332191585,0.9222881053495597,-0.07714674560853736,-3.470353439907842,0.5218460850845307,-2.0830646466176646,-0.24726999967509752,0.5726214637907057,1.3378370120072662,3,left
18.333,0.3376994254873744,0.9330594685688232,-0.08364041311740969,-3.4644395844807736,0.5228002015930615,-2.074703138029291,-0.24701297838317277,0.5750466847989634,1.3387556337610627,3,left
18.338,0.3155377829700471,0.9411621344566385,-0.08424380836896546,-3.465480237107187,0.5227313126165958,-2.083253437412095,-0.24749195018084222,0.5705555386261941,1.3370636602673134,3,left
18.339000000000002,0.29529254737627125,0.9472720550907507,-0.08661616581976526,-3.4684084564480724,0.5221352568995538,-2.0785566083778164,-0.24687985601389606,0.5763306987034227,1.3392517350335997,3,left
18.343,0.2799697448703653,0.9517277009909624,-0.09160815560129498,-3.4599592611079055,0.5235984905766651,-2.073750868950839,-0.24738954888911663,0.5715055246665266,1.3374177288110403,3,left
18.345,0.2676308528072273,0.9539348170329154,-0.0955336380387556,-3.476692210668583,0.5208420384154684,-2.093386410161794,-0.24737193759132406,0.5716255812368605,1.337448784553247,3,left
18.345,0.2571341338472636,0.9547610656342008,-0.09941437640531486,-3.45044406146139,0.5250922104160798,-2.057302180514054,-0.24641619734734385,0.5808711810857385,1.3410266062620049,3,left
18.349,0.24871710314335962,0.9567416534526811,-0.10778802771172427,-3.482423767588675,0.5199452796412647,-2.1035170742253766,-0.24876827576851746,0.5581546304994872,1.332245825128557,3,left
18.35,0.2428270154934823,0.9564185180099356,-0.1157063933512971,-3.4564547584112786,0.524111123330808,-2.064984895094301,-0.24486856714120192,0.5958204395584189,1.3468074255416584,3,left
18.354,0.2401262567160544,0.9532017021680835,-0.11370517270506103,-3.456032351882363,0.5242001637866998,-2.0659503368935157,-0.25001151435822105,0.5461369485932612,1.3275947102281047,3,left
18.355,0.23882515025001116,0.9523194043846814,-0.11230986703615917,-3.508544003590675,0.5157200247621749,-2.1396294478544053,-0.2715887227760829,0.3375640183988632,1.2469080934380052,3,left
18.355999999999998,0.23923122627353227,0.9516426940780794,-0.11273171122872346,-3.3811031711374504,0.5362712533209774,-1.958647429604401,-0.2767308161324945,0.2878770452143885,1.227685282195913,3,left
18.36,0.2439631679152803,0.9497549680389926,-0.10194852314236966,-3.5917959833955613,0.5023069534046234,-2.258681264844208,-0.2728324420126156,0.32554829796427287,1.242262664171259,3,left
18.36,0.24696336617189818,0.9483567333925719,-0.09248446965837813,-3.314103143912719,0.5470642240199164,-1.8629541473991853,-0.27518341713353445,0.3028272433058228,1.2334688287987319,3,left
18.361,0.24761548965202945,0.9494552642047956,-0.0904612740712716,-2.147217939483772,0.7350392058569903,-0.20184487658857936,-0.2742276113977094,0.3120725855212318,1.2370458946354446,3,left
18.365,0.2548358613220102,0.9514582237801393,-0.08417896107366811,-1.8694617072227055,0.7797771249639462,0.19387626853008155,-0.27421214449520637,0.3122013733489708,1.2371022779709708,3,left
18.366,0.2678977594613251,0.9502928504086,-0.08164734685617356,-2.080203765681511,0.7458709290644445,-0.10613845201869969,-0.27471715867979396,0.30735713370382395,1.2352129810097434,3,left
18.369,0.2836360450671509,0.9512533771860346,-0.08424096446815846,-1.9528575233674712,0.7662984742430349,0.07480120643638134,-0.2741117272459401,0.31315945710505005,1.2374798180392776,3,left
18.37,0.301321659706578,0.955568427333035,-0.08081441196499217,-2.005000440185913,0.7580202871813464,0.001193056969807732,-0.2745841031292656,0.30864140344268315,1.2357098397389528,3,left
18.374000000000002,0.3207719934353607,0.9590843512318713,-0.07675670569910763,-2.0052770578933847,0.7578561144021307,0.00013665798356697623,-0.27432993510333,0.31107829514890056,1.2366622655796116,3,left
18.375,0.33932385459515724,0.964618661129166,-0.07111795164777057,-1.9783813444581415,0.7622398558936616,0.03874983367502626,-0.2743836692146562,0.3105171175170457,1.2364636529238362,3,left
18.379,0.35358630701652016,0.9734136417802167,-0.059706514908996526,-2.0111894539321686,0.7570572574611212,-0.007483989497710786,-0.27446296220839816,0.3098829964860901,1.2361582721007531,3,left
18.379,0.36865432375373264,0.98171771792262,-0.051363714361187404,-1.9847592122812028,0.7609861346233917,0.028493786468776483,-0.2743259041491003,0.31098076352026827,1.236686570178724,3,left
18.384,0.3812257481846911,0.9886999689373026,-0.044736454439536714,-2.0003766625522506,0.7590360996947401,0.00913861168297729,-0.2744605995182626,0.3099569480925567,1.2361633047348208,3,left
18.384,0.386120611958892,0.9969984626758588,-0.038210357994935454,-1.9948257872371487,0.7592363263777626,0.013495594603877769,-0.27436701139495584,0.3106400287126416,1.2365289791430585,3,left
18.387999999999998,0.3919046167822269,1.0029422359692637,-0.03675097080058837,-1.9931542842035848,0.760058706802857,0.018707674944022975,-0.2743986611472151,0.31033197252992556,1.23641065884533,3,left
18.389,0.3968449272830331,1.0065272286181448,-0.037171575109599835,-1.9994220064475157,0.7590539438079644,0.00979904433241579,-0.27443714037746014,0.31037137114023455,1.2362378470888096,3,left
18.396,0.3954865034802255,1.0124037753917423,-0.037491556498217386,-1.9899639137964007,0.7595513685671027,0.01803677302571447,-0.27433170968307163,0.3104506958523362,1.2366983510691498,3,left
18.396,0.3931060113262351,1.0141100132084353,-0.03740935218976069,-2.0021070585843352,0.7599403711958828,0.012708340630282559,-0.2744849129250318,0.31037167666699406,1.236026550731162,3,left
18.399,0.38891238750148244,1.0117537909690635,-0.03697375282718862,-1.9881369385556726,0.75869222947507,0.014751218302946293,-0.27432700037418084,0.31040372733137156,1.2367225225702325,3,left
18.4,0.3820099977518727,1.0098679109313793,-0.03489583792657114,-2.0012032092819507,0.7603170598892128,0.015175115524231267,-0.2744182951851696,0.31038465804675486,1.2363201745639203,3,left
18.404,0.3732574122364435,1.004009923158793,-0.027478594117481287,-1.9945855152786847,0.7592278803321181,0.013602022892108656,-0.27448503113813705,0.3104839275197955,1.236018110637299,3,left
18.405,0.359594830269736,0.9965802790895165,-0.019869112568466702,-1.9869192455957232,0.7586056918149198,0.01504282983920774,-0.27417748881698306,0.310199242518902,1.2373980347568236,3,left
18.408,0.3451812754607454,0.9904143873993793,-0.0166113357413813,-2.016328880978005,0.7619973238224742,0.014641117031785339,-0.2747485865520503,0.31071976673199564,1.2348360785858297,3,left
18.409000000000002,0.33128634688160585,0.983360763402445,-0.019042028869605963,-1.962996086033598,0.7555123650007483,0.013664777581549607,-0.2740162799533924,0.3100417720580396,1.2381220346383723,3,left
18.413,0.3152432860616473,0.9763197615859784,-0.02847465762336008,-2.030942114260656,0.763926286077524,0.01568241135353243,-0.27462715827712014,0.3106121691172187,1.2353804434644449,3,left
18.414,0.29985494563424064,0.9713388950753647,-0.03757692301073383,-1.9744462651125154,0.7568642067300304,0.01367115631078253,-0.2746094661503939,0.3106089548195914,1.2354593957910351,3,left
18.418,0.28632919138090396,0.970148046631672,-0.04494200598389546,-1.9757778291981427,0.7570890909500236,0.014008983794296341,-0.27344973378179593,0.3094691742327349,1.2406668242419872,3,left
18.419,0.27596755943924656,0.9709529583990026,-0.05231299485532932,-2.0838696380559214,0.770491723123335,0.017318558097592973,-0.27630103361377917,0.3122614666359007,1.2278640563199823,3,left
18.423,0.269806803509537,0.9730174217823818,-0.05295969682414542,-1.8185471252514909,0.7374885474997361,0.008675834706657346,-0.27157350775805866,0.3076304571357439,1.24909109414586,3,left
18.424,0.26789127758458803,0.9759711955389051,-0.04999818962629539,-2.2582956608158704,0.7922400712502333,0.02324911111321388,-0.2778090766455433,0.31374267958457425,1.2210944128146721,3,left
18.424,0.26798760623799567,0.9763752733314146,-0.049960104324446294,-1.6783500828351254,0.7200054743902411,0.003907760729545673,-0.3039904299271452,0.3394544650867476,1.1036042341620687,3,left
18.43,0.2680300328966387,0.976124368978532,-0.05004127410498792,0.7559573106116021,0.4167999193577268,-0.07729285946337326,-0.3102281875280112,0.3455779887417777,1.075612981889294,3,left
18.432000000000002,0.26994517981720034,0.977658129788741,-0.047797984012300024,1.335870223693283,0.34454399652193035,-0.09669823714249035,-0.3054956014839934,0.34092525819924024,1.0968293175582708,3,left
18.432000000000002,0.27053352859900515,0.9785540702707316,-0.045040049225689105,0.896199159883448,0.3993364289024662,-0.08198362188357103,-0.3083555363366225,0.34374652781735127,1.0840414174936854,3,left
18.433,0.2699726456808782,0.9786573087193223,-0.04720875006039135,1.1613858864378943,0.3662788556454971,-0.09085525685022902,-0.3071840002258395,0.3425779792263487,1.0892330729149005,3,left
18.433,0.2705787293417494,0.9810869224180062,-0.05309779074374636,1.053484496150404,0.3797351889161676,-0.08724922684487645,-0.30717857233569246,0.34259034892358253,1.089322409169323,3,left
18.437,0.26801297589405954,0.9844336303160752,-0.05932086292833182,1.0519487453376843,0.3799315352419419,-0.08719770598964843,-0.30778238028356636,0.34317548063033804,1.0865847865759102,3,left
18.438,0.2660119301723293,0.9853762651958495,-0.0699090796881105,1.1085728212523214,0.37284071413072084,-0.08907990485114314,-0.30704398204905226,0.3424364994374249,1.0898432372982998,3,left
18.442,0.26609371185444697,0.98616304780765,-0.08077766209700665,1.0407046091620624,0.38137026842701305,-0.08683924717541429,-0.3076420928270934,0.34306933911952686,1.0873368856390044,3,left
18.442999999999998,0.2625551412615865,0.9875863005426649,-0.08784899862900586,1.0936222488004874,0.37467383444216795,-0.08856457043773945,-0.30728359635028313,0.3426388616047251,1.0886396523380615,3,left
18.447,0.25961126541603996,0.9884355006387774,-0.09354913061321243,1.065024978293191,0.37833849866261426,-0.08765376993995214,-0.30741780227155213,0.3428668433806572,1.0884127526929381,3,left
18.447,0.25775930136577596,0.9883027943765225,-0.09663822083805972,1.071587101343399,0.37747732738286477,-0.08785323899527339,-0.3074477345322304,0.3428195640649101,1.0879793357136505,3,left
18.454,0.2529972763784357,0.9874843574571182,-0.09793216938420146,1.0792482516455983,0.37643630462240396,-0.08806943033948053,-0.30730681008239613,0.34268062412443356,1.088608865195221,3,left
18.455,0.2481143971912735,0.9876938221902531,-0.0958290307270959,1.0658142194046134,0.37838817993877094,-0.0877496931011222,-0.307533647939784,0.3430451986304698,1.0881463188229945,3,left
18.457,0.24104791793640823,0.9874962446215184,-0.09488560084233243,1.0787127372031429,0.3763024343394537,-0.08795732098387932,-0.3072280723344193,0.34242089535233544,1.088248786251973,3,left
18.457,0.23256148778596797,0.9873981923596663,-0.10257654617826373,1.0697041626709143,0.3780119860268871,-0.08793098237243849,-0.30759078744805957,0.3432608227091609,1.0885135676051219,3,left
18.464000000000002,0.2273904538601771,0.9873641922525116,-0.1114979721964892,1.0739333942426286,0.3770170880292467,-0.08785307586329447,-0.30724520106543984,0.34240572576659545,1.0880474350512526,3,left
18.465,0.2211008735061597,0.9862029968540754,-0.11612591914211898,1.073921825202973,0.3770143574095243,-0.08785073906738164,-0.30742382847178873,0.3428792351047594,1.0884104587607517,3,left
18.467,0.21233563912918724,0.9886734113808067,-0.11543697657280708,1.070804115233937,0.37827101946844194,-0.08815373776438308,-0.3076222649229652,0.3433307009873206,1.0885263448534133,3,left
18.467,0.20512807648197076,0.9909611082385398,-0.11233532324965972,1.0759332624456808,0.3756478918544672,-0.08739442937289418,-0.3068476513051903,0.341446276869504,1.0876032237218332,3,left
18.472,0.19869109429669202,0.9887505472859374,-0.11500283102809825,1.0699252528802061,0.37935628813310734,-0.08858225319898895,-0.3082567243208938,0.34491429270966223,1.0894362179056338,3,left
18.474,0.19091832541374498,0.9892882629426656,-0.12284233832151792,1.0753690822945658,0.37552280215655487,-0.087283823153577,-0.3064597685338817,0.3404730437326528,1.0870292224716471,3,left
18.476,0.18203199424187988,0.9921699022397331,-0.12920865770856438,1.0725306450805476,0.37769951659594647,-0.08804432972247056,-0.30795433508054604,0.34417572448359457,1.0890607986204643,3,left
18.477,0.17176780707940506,0.9959159528720427,-0.1299856099084247,1.0702119514741413,0.3795599812213073,-0.0887042273452818,-0.30791943800309285,0.34407996765199567,1.0889881330730329,3,left
18.482,0.16148201494247916,1.0015887387531355,-0.128914504509595,1.0799907962144828,0.37146378053130863,-0.08580392874684559,-0.30505870875553687,0.33701139379331624,1.0851458213466025,3,left
18.483,0.15309767661660528,1.005829444332543,-0.12494713461303841,1.0622087918742178,0.38643422323381205,-0.09119431261125921,-0.3120798158764925,0.354377058968396,1.094620911871973,3,left
18.487000000000002,0.1445424858818005,1.011465210979428,-0.11301648820478144,1.0847972940550168,0.3672419781723143,-0.08426475106322026,-0.3004440089648384,0.325587882567089,1.0788971962142115,3,left
18.487000000000002,0.13942899821845506,1.0158190881353406,-0.10474899287236088,1.066046645214167,0.3832511081707925,-0.09005313995223393,-0.3157880096366967,0.3635586866270252,1.0996415095790824,3,left
18.491,0.13824437199740172,1.0171430440132552,-0.1036225401544861,1.0665668025954669,0.382816597245741,-0.08989797366041564,-0.3802131078845947,0.522941604026747,1.1867592792625974,3,left
18.492,0.1327277819711511,1.0221624517673122,-0.09573881868478454,1.1021012186240609,0.3523166942985487,-0.07885023698474337,-0.3955532521181215,0.560911212704708,1.2075022552973596,3,left
18.493,0.12481130417692964,1.027123118176077,-0.08175292156998373,1.0148236020521897,0.4272735431104503,-0.10600500583995698,-0.38392280608365925,0.5321244967173123,1.191774648800198,3,left
18.497,0.1198101401007552,1.0325963241110516,-0.07332668628279337,1.1594706184270802,0.3029994369892085,-0.060978314391083845,-0.39094129052913007,0.5494865199182435,1.2012691960856896,3,left
18.498,0.11873086436598193,1.0385776595724705,-0.07280139195233935,0.9687232485119525,0.4669122706998003,-0.12037368348334279,-0.388075399473763,0.542422178373438,1.1973831072295482,3,left
18.498,0.11703226157924285,1.0395126024545465,-0.0730902006244094,0.16798092345732177,1.1549848997159602,-0.36981844399639097,-0.38805740632182517,0.5423230085685482,1.1973785946790727,3,left
18.500999999999998,0.11046836999149802,1.0447984595845623,-0.07197186109375739,-0.022789991367952137,1.318910500971775,-0.4292471335290198,-0.3895230945524405,0.5460260247829506,1.1993332997568245,3,left
18.502,0.10524593715596019,1.054067784265507,-0.07321584756705052,0.12192773657137841,1.194606178433868,-0.3841485750935937,-0.38776069293907833,0.5415901348963963,1.1969768139468067,3,left
18.508,0.10018554277319783,1.0578282313840546,-0.07367255259276738,0.034499575361350523,1.2696158726765185,-0.4114164958030405,-0.389144091475589,0.5450452669837483,1.1988363631086236,3,left
18.509,0.09167785865590225,1.0612205401621169,-0.07172683941338465,0.07027983091200943,1.2390420131374156,-0.4002268009541672,-0.38836460982894083,0.5431805989421589,1.1977584660499132,3,left
18.511,0.08368691831952191,1.0662185346826618,-0.07050704005031647,0.07049171072112709,1.238686612377307,-0.40020235282357397,-0.3886214027394107,0.5436103328530748,1.1981812601987107,3,left
18.512,0.07363984212711722,1.0704154545534141,-0.06822989914853651,0.05200640814992314,1.254646373574193,-0.4059431994573913,-0.38867524789206953,0.5440974913596315,1.1981243006836793,3,left
18.516,0.06280167580238924,1.07500062729683,-0.06404121408477918,0.07455131564088249,1.2354232802674425,-0.39888626361926033,-0.3885085441045052,0.543250924074189,1.1980579703967396,3,left
18.517,0.055213415851889935,1.078331499693502,-0.05910408091292224,0.056378471550297654,1.2505555950470812,-0.4046560335899617,-0.3886901656436057,0.5440462632939225,1.1981768352644182,3,left
18.52,0.046429052576216795,1.0798752102931384,-0.056318520032055994,0.06713856690681523,1.242143586791661,-0.4011175864282872,-0.38847160232571476,0.5435085953459848,1.1978799532655884,3,left
18.521,0.03892531531734742,1.0812967728334175,-0.05978551673449905,0.0632830321737135,1.2444324079535445,-0.40254702826001093,-0.38883109683574324,0.5437561655535509,1.198601748531533,3,left
18.525,0.03596754417664405,1.083235469704791,-0.06391064380399178,0.062170189871508276,1.2462054959872169,-0.40271184128688486,-0.38822644003426654,0.5437269385009833,1.1972458270105144,3,left
18.526,0.03378082478254113,1.0859442151270988,-0.06487090238837831,0.06647685564248237,1.242511972485583,-0.4013686699389024,-0.3890764877805789,0.5436419806477915,1.1991981311248123,3,left
18.532,0.03370113271304635,1.0898493334968604,-0.07025894925429876,0.05990862137300945,1.24664013638704,-0.40375175306978905,-0.3881800627711581,0.5437565720181664,1.1971303027163702,3,left
18.533,0.034238850788733156,1.0947954769001205,-0.07883676900100386,0.06841336004870185,1.2427966694909067,-0.4003324161655032,-0.3886826285525835,0.5436524061659835,1.1983039635667625,3,left
18.535,0.03425237474548114,1.1016176790202437,-0.08511503365885345,0.05857220918108393,1.246084268506352,-0.4045466424333334,-0.3891918593466289,0.5437503164297317,1.1994194826960491,3,left
18.535999999999998,0.03603728396744521,1.111199326214472,-0.0923762982055983,0.0678096862745938,1.2436568323917843,-0.40044472409256976,-0.38708780887671473,0.5436293043503577,1.1947080350513697,3,left
18.541,0.03622983710133708,1.1208854445553396,-0.1006315336197804,0.06311144128145724,1.244510039990565,-0.40261564945233136,-0.39096712499954045,0.5437979638169608,1.2034139394521874,3,left
18.542,0.038469443304113574,1.1309833589864537,-0.10910661611561635,0.057716441818978295,1.2464015594571352,-0.40490610988891484,-0.3859912205234855,0.5435942623394105,1.1922431921030334,3,left
18.544,0.04424457469682373,1.1415328235982185,-0.11725453200211763,0.07848838308704989,1.2405636840082876,-0.3957666288829085,-0.3901428696446074,0.5437586251968517,1.201564480300604,3,left
18.545,0.048187035724119316,1.1518556087836398,-0.12477027631483449,0.04079350448483798,1.2506792546019043,-0.4124581833067943,-0.3900393337817322,0.5437750110192803,1.2013270268614495,3,left
18.55,0.05241908304811464,1.1630149328976065,-0.13428536561060506,0.08883012938929236,1.2380046591243095,-0.39113935825362434,-0.38209491652601907,0.5433946309658534,1.1835083260954804,3,left
18.552,0.05630157079705745,1.1699452659453575,-0.14306534001414625,0.04888023163781863,1.2484537910861584,-0.4088894349785632,-0.4016100279345517,0.544303692104926,1.2272833832802434,3,left
18.555,0.05976447967584426,1.1773422406489804,-0.15445597691360147,0.049834241441430394,1.2482812004260218,-0.4084489351354701,-0.3692570515871102,0.5428046725455006,1.1547121484015848,3,left
18.555999999999997,0.06296114587233162,1.1859196083094017,-0.1647598627795503,0.12624194609068895,1.2281560746955877,-0.37453041771394946,-0.4119286658830733,0.5447790029823905,1.2504263422830078,3,left
