time,gFx,gFy,gFz,ax,ay,az,wx,wy,wz,subject_number,foot
2.301,0.051855006565052535,1.0340273129360504,-0.26041994551673286,2.4702186631867824,0.773708687141704,-0.1604799169860578,0.3536668816102266,-0.6168752954916301,-1.634472385940087,2,right
2.3369999999999997,0.031210840693631274,1.025954917229832,-0.23903622868727045,2.733732350097881,0.9704945266874949,-0.3630900590633517,0.39871863860940837,-0.6931120797437917,-1.9631769981377412,2,right
2.339,-0.007620575295532449,0.9948394993093381,-0.16019198574359722,2.486838434964536,0.7288525446180483,-0.12534129425669413,0.4171671518595438,-0.798670221423309,-2.1348490276649046,2,right
2.34,-0.00224598714787156,0.9835046474449998,-0.14197164213799018,2.992794199791927,0.9348354772509149,0.5801507166754917,0.4076096120903624,-0.6698377570507862,-1.970924883065439,2,right
2.379,-0.030214628367253145,0.9989875975823969,-0.15501833481091842,2.682283341459013,0.7005284189360133,0.7989525068935621,0.4079890334051365,-0.8183542350396962,-2.1176702323053567,2,right
2.383,0.021523612250416112,0.9779051014462543,-0.14802994957110233,3.0146634043297906,0.8010337459330075,0.6332225283322033,0.3853506456155549,-1.5576700368804253,-2.432920991901873,2,right
2.386,-0.04679521994881927,1.0056118038292083,-0.1495674611531888,3.6841586402368045,1.3328981988790267,0.6293835240555826,0.3726731188432172,-1.7259531873964753,-2.4951503993063655,2,right
2.394,-0.2484079629616957,1.1900327428719668,-0.1517598814430864,3.719689197502503,0.7520174814541912,0.6085321505825939,0.38779880501749414,-1.544311658959907,-2.506196879918547,2,right
2.405,-0.2942315558214003,1.2364912777233241,-0.14821439114720228,4.070111213923387,1.816079910232196,0.556176217504218,0.37346197492395805,-1.7540428356204258,-2.409591424198381,2,right
2.435,-0.29286717526188255,1.1736728712248639,-0.15040999595506802,1.6743571374780017,2.934611660628655,0.5940061254286149,0.38326960759783996,-1.5055217189687,-2.587586732118151,2,right
2.439,-0.23673476873157442,1.2583771870601999,-0.15235570286009462,2.9185738253486972,4.688427323805439,0.42301438441800715,0.4519153858172844,-1.49249383779908,-2.902269998574791,2,right
2.472,-0.3475967113966103,1.151894125979334,-0.14365203739529997,9.924053193533037,9.83230966600669,-0.18797836656765307,0.44182490593023865,-1.2263951515576323,-3.155643619236158,2,right
2.477,-0.2039049635105211,1.2688989339544965,-0.1612552370462208,11.271188431743314,11.257129376895708,-0.42010685269127757,0.36409013631731135,0.2346134576424635,-3.8545092760778585,2,right
2.478,0.41686277014953926,1.7938326780044134,-0.23325072204178027,10.259048650159606,10.292060828350127,-0.1788960913577624,0.33173047646481724,0.32571602913266,-4.041891949827881,2,right
2.478,0.5115713422536012,1.8616444923485573,-0.27255753943901767,10.862179750706524,10.805864711616165,-0.40916467324353417,0.3697881106845291,0.3323018835688838,-3.8845713685265575,2,right
2.4930000000000003,0.4872656560529158,1.845972756696975,-0.2217599125555029,10.568922419590436,10.598302541657151,-0.22810650245150052,0.4616539175194155,1.4212646320295859,-3.7540198895753085,2,right
2.496,0.4413448199810225,1.815107289037671,-0.2830666771089224,11.423496658405448,11.473754402089224,0.19372613867963337,0.4943094963638961,1.3660425617234992,-3.4758986210639984,2,right
2.5180000000000002,-0.028595744719868227,1.5158950602974464,-0.5333826470057738,11.151239565471228,11.348502355565461,0.0684981199170081,0.4715645177115614,1.6038690915719997,-3.924563348871696,2,right
2.525,-0.12252600987574055,1.4833273418012014,-0.6094655171825611,11.603867772143886,11.516991158383993,0.45859307548488426,0.48130799704003446,1.1519537407220772,-3.273022504664344,2,right
2.54,-0.06270058365286754,1.4630114220267254,-0.5274738113067097,11.033274722873362,11.438958580747766,-0.2262732336857241,0.4770078521927523,-0.4785193636144807,-1.7658525571520431,2,right
2.541,-0.06550145798626777,1.5532298352379765,-0.615360371137152,6.371153223292008,8.03464257326483,-2.3995029575678615,0.45315205666461156,-1.1169807060490435,-0.8644882063719074,2,right
2.588,-0.12331384995865247,1.4015712914749536,-0.5244370641592083,6.160642484584289,8.765799802408544,-3.5148758154598543,0.3785463510033022,-1.8344480051199206,0.8468412018521541,2,right
2.59,-0.5763931230445832,0.6830163589517898,-0.19044443714455855,5.9702555194908005,7.522990153129074,-2.3635008773303543,0.30817755545823833,-2.094127643816875,1.5599468495272135,2,right
2.591,-0.7153264454972567,0.5138064399584467,-0.12049384383226858,0.8958386375275301,-0.026184750772381582,0.18242453008177706,0.40506206795567967,-2.145223916771754,1.0407766158471954,2,right
2.594,-0.5583518734090085,0.6356698322481243,-0.16513262795631056,0.14992741760363304,-1.544657427361607,0.997745907005592,0.2846040948421616,-1.8096643454162744,1.3800118800403727,2,right
2.634,-0.7244719057282218,0.5772773259030164,-0.14890267256477163,0.940010518445378,-0.37849028926794254,0.48060136214970006,-0.1895141745937033,0.09527312778396246,1.872597926748472,2,right
2.636,-0.5580226841126464,0.5769758954201543,-0.14064445318939275,-0.3807304875182784,-1.525216366978644,0.7040118905404817,-0.3305714255686591,0.6867427703445094,2.0425244799919087,2,right
2.636,-0.030623316271735507,0.4363873515901632,-0.054641906406834716,0.3129512738686328,-1.423665014259486,0.7481858317278003,-0.19199910178146926,0.13564910092748855,1.8541645770751543,2,right
2.6689999999999996,0.08918653757549794,0.3829523328228267,-0.024941166683009344,-0.3092276568039419,-1.1134773734852121,0.5214328280831315,-0.3246369009763092,0.5802821941077679,2.1006103251503943,2,right
2.6710000000000003,0.019498740634674987,0.4282024609559499,-0.05214958628872769,0.17360354731058378,-1.64746693235235,0.8460624442266957,-0.5195439036358689,1.16827228026354,2.8412676091522155,2,right
2.6719999999999997,0.030000494794596717,0.4055805978681924,-0.032381054390955524,5.5580464622658265,-3.470560223286485,1.6947074932968214,-0.6346006346905603,1.3497443860067138,3.1880681691826145,2,right
2.69,0.07641301105227363,0.39995076083464765,-0.042550196973869435,5.429131723700671,-3.928122395700659,1.9865371158737044,-0.842889985167137,1.3580300050057106,3.7432769455270756,2,right
2.694,-0.013847173348482176,0.4320755900869731,-0.04269191339653616,-0.028584773506932226,-2.6834631030601415,1.697019012217166,-0.929533286747266,1.3537655287528998,4.051430042488274,2,right
2.697,-0.3601038611010976,0.5600254193887906,-0.03197562722293085,-0.7580850958021765,-2.804551810401621,1.7853920150881368,-0.8559500907947064,1.3916105182789922,3.7984707445228185,2,right
2.7039999999999997,-0.4756791022216425,0.6234020583748909,-0.05303060750740654,0.07523751742252063,-2.8009637306404374,1.8104804472620741,-0.9221175840740813,1.367148874857146,3.992926335070447,2,right
2.7310000000000003,-0.3750740668983766,0.5574176302360587,-0.02345145880160366,-0.7546491144961566,-2.7305696960427,1.678354540308986,-1.1259351637586805,1.4810583865772977,4.373508895269735,2,right
2.734,-0.4516160433550397,0.6174305782645704,-0.05683467150741307,-1.612727253695367,-3.4017241635002433,1.643555390103555,-1.19948007378852,1.6185224382046552,4.460744065888916,2,right
2.758,-0.5714606518067392,0.7523237816550963,-0.16754670588146434,-2.3482543591214675,-3.241910976510425,1.3530828378345021,-1.1129496666216545,1.3559692834195043,4.42524135274737,2,right
2.766,-0.5975398078579572,0.7739237303131432,-0.18341037882538824,-1.647468779667988,-3.415754658092629,1.6577598040577257,-1.2139709717592257,1.736599521028603,4.409243467451223,2,right
2.7680000000000002,-0.5898602007446425,0.7815873540199112,-0.1883361268494047,-2.29974170059518,-3.2820767023977484,1.416606406561015,-1.43354637752498,2.5747742180385185,4.58324033394011,2,right
2.7689999999999997,-0.5876724856473521,0.7447870124809507,-0.16068764735800511,-5.137537706806409,-1.759708706344907,-0.24521371988177898,-1.5414690365225434,3.0154705945793365,4.481089271453117,2,right
2.8110000000000004,-0.5888178271593922,0.8029791931360695,-0.2056635238178991,-5.527446412891177,-1.9197211794993123,-0.11710211436009016,-1.6718278844707397,3.5936053298098667,3.9653146214349944,2,right
2.815,-0.511303755065957,1.0377223598704715,-0.39524925878089345,-5.321328322757184,-1.578525975086305,-0.45549332881202936,-1.7280084765681145,3.7321267044980906,3.8357026013459663,2,right
2.8160000000000003,-0.4722312581564494,1.0933830579920172,-0.43654581637771295,-6.088360906135973,0.8507831557961776,-2.976663024502213,-1.7162716165593048,3.831971382760096,3.962059221332462,2,right
2.838,-0.548301272696797,1.0605151044654266,-0.4162401618942939,-6.016314366580701,1.292383784080155,-3.415437960958382,-1.6779283566660856,3.5023191800404714,3.833632306531159,2,right
2.877,-0.432363543876054,1.0651963135889346,-0.41063687406718186,-6.234555923395995,0.9694755891438437,-3.12640613257763,-1.398144382090004,1.8947779960758122,3.3840947755438195,2,right
2.883,-0.5782899816038818,1.0852037373180399,-0.4386558870458018,-6.876516502818371,1.29874603779131,-3.7365640252180743,-1.2555548966980932,1.3019546454919007,3.1804979017560675,2,right
2.885,-1.1160485208599078,1.190971391301749,-0.5785546569690347,-7.680785345435837,1.3098150251667144,-3.8782049521024966,-1.4500764290288135,1.90386617919056,3.471183642759333,2,right
2.887,-1.2434387544144685,1.225782207217914,-0.617419907711753,-6.627901313891607,1.2057037631556557,-3.596176599613308,-1.2087409470581525,1.358881052579631,3.0707999021416943,2,right
2.887,-1.1683491089563822,1.203086576545399,-0.591551349126028,-7.736673704239317,1.3109843932091763,-3.907498744785898,-0.6524334768537123,-0.17153449891732103,2.4371456349910128,2,right
2.888,-1.1771397391124578,1.2049835916700817,-0.5975422860495845,-14.056914707758004,2.793896184976702,-5.524940613218275,-0.3699405045009957,-0.47808741288337236,1.8600337540611869,2,right
2.929,-1.2309397794972639,1.227102981496905,-0.6121962388062585,-14.477667643618156,2.7119251012926266,-5.573116439173125,0.004757175229013297,0.16462570428261492,0.4427106613970626,2,right
2.9339999999999997,-1.134794692149446,1.1833195824829175,-0.5816956713702891,-9.763209463248689,0.5406381669470515,-4.020206664966196,0.2328524884571891,0.10251130088015918,-0.11362959202742949,2,right
2.9339999999999997,-0.7524764209496513,1.002010382240438,-0.4596321551333589,-9.114453617742665,0.37547575837778946,-3.727946216184413,0.05188081998637316,0.0863132954861553,0.37798314316703385,2,right
2.9619999999999997,-0.6643173018991457,0.9372817477039876,-0.42319456326683247,-10.020457213579018,0.4941455686975008,-4.064040753422522,0.18373588434820384,0.15545412989396729,-0.047760326743187975,2,right
2.966,-0.713286945269001,0.9991926267833119,-0.4519381838877927,-9.179645517168048,0.407567177045423,-3.809476987721792,0.5497551311736367,-0.09299362149048951,-1.0826429121391952,2,right
2.967,-0.7038246744912593,0.9486796311707052,-0.43227315592574034,-8.999931620254738,0.4390871514759713,-3.586298970577289,0.5888993309396299,0.04405296836591449,-1.4259694390511948,2,right
2.987,-0.6940690502361653,0.9479929698514101,-0.36666766191651295,-9.335482903297194,0.06971559213607362,-3.85046816903178,0.5866642564062812,-0.0976212212812722,-1.1012319894507159,2,right
3.0069999999999997,-0.6873570656202266,0.9519053862604092,-0.34945132516816085,-8.008765970164694,0.8036983488240571,-3.2250718884234493,0.5683802784935764,-0.0014892990137913426,-1.405286838046885,2,right
3.01,-0.751146889793419,0.9024357159617965,-0.37975006546651296,-10.415335998743982,-0.5648186179750286,-2.9093704526016166,0.582780663784291,0.022701175999677664,-1.1478227310854732,2,right
3.012,-0.5993411786221317,1.0044086552142475,-0.32763576978848685,-7.31209407634751,0.9263450403392007,-1.7519630482852033,0.9385147076826331,-1.547823547910805,0.6163982535917907,2,right
3.052,-0.8443022064907478,0.8563927956372894,-0.40390845908280687,5.570189095508947,7.734706426860933,1.900093104405202,0.8746385663236677,-1.092862218318548,0.6502095952684827,2,right
3.054,-0.538170044272728,1.0244552337811246,-0.3114109777338497,8.502006620523638,9.110066538381043,2.885049448848884,0.3779484725975736,1.6870789136366962,-0.7644176455803774,2,right
3.055,0.8005139832962014,1.7498701291824075,0.09766267947902166,6.4147667025645285,8.146903003318354,2.2029018552755693,0.23169954883605481,2.4613883888927957,-0.974722580343082,2,right
3.069,1.0197016761032374,1.8236415813032754,0.16584766954835944,7.557340829046897,8.686249047408289,2.5752317182196904,0.3830410921578524,1.6879891949217345,-0.718770632813347,2,right
3.085,0.9383528035770725,1.851380333093188,0.13516265989868834,7.105213699671051,8.381034257662574,2.421982309363025,0.64659223393204,0.6310656022134712,-0.4407801006221618,2,right
3.0869999999999997,0.8710994268696514,1.7232790514908312,0.1271004388906973,7.337159575327112,8.636273197413356,2.6723575348529396,0.7244617201632488,0.11803703962783255,-0.25499258614214915,2,right
3.1060000000000003,-0.11709710230496492,0.8288426149344815,-0.08863369032388885,6.781778749889273,7.853569914748062,2.564611671509092,0.7062664946403232,0.45693815372126123,-0.366332826488622,2,right
3.1310000000000002,-0.35599080544209116,0.614609084431114,-0.12882982790254432,8.038914856194069,9.225697825950881,2.7649966709714735,0.6688089947225149,0.26998096760471174,-0.32582850879120984,2,right
3.134,-0.11348543221157638,0.8042433035608166,-0.10214955258782216,5.956505681476713,7.291897506828995,2.5026260829099938,0.4452840791755356,-0.1647018352089636,-0.2534519550799592,2,right
3.135,-0.32675397869780726,0.6633782858223752,-0.10341594837017612,-2.6690223880487873,-1.1561504686938997,0.3588716048501365,0.35243761010029573,-0.1706168613174855,-0.29478586553735775,2,right
3.168,-0.15448421540846052,0.750777418133272,-0.1294203891894506,-5.672223028607363,-3.334403838153754,0.2782871534234924,0.3106823170937026,0.021192320395765702,-0.41760726292542527,2,right
3.1689999999999996,0.2831646398780618,0.8698531826286473,-0.3324957069523946,-2.840935599830213,-1.545167078167379,0.15920567037339822,0.2409670763832961,0.059217969887082306,-0.4534003623932785,2,right
3.17,0.38246475620791176,0.8748662696145475,-0.39050531593592963,0.666448865257689,-1.215505653966161,-1.8100755854423745,0.2866229873934071,0.022570485965007027,-0.4370392142556984,2,right
3.1830000000000003,0.30654826303621124,0.8960293271639387,-0.32986809701810427,2.19871203548425,-0.49804739775902596,-2.138759356947461,0.2641246511476455,0.058869562929626626,-0.43568476951614554,2,right
3.2030000000000003,0.36952277421296736,0.8567591390490328,-0.3882164202449385,1.481257750288365,-0.8494101946251608,-1.8980919728581518,0.1976965909803499,-0.005648560224184529,-0.32595896792344875,2,right
3.2039999999999997,0.3114054870325623,0.906917151762227,-0.33456147959781807,1.57046679808604,-0.6626952726094799,-1.837872048631434,0.20769288223058113,0.055940007921238113,-0.31763389063073727,2,right
3.2230000000000003,0.05803256901649649,1.0927347289009903,-0.16166314608844495,2.0861096862589585,-0.847795058284137,-2.0138962737068704,0.18982512931017295,-0.025264876567105764,-0.31615277933541736,2,right
3.2489999999999997,0.0035278813738264733,1.145300370209946,-0.12295021612425908,1.313183203556912,-0.5941326208403804,-1.6543451290829219,0.10987362629761427,-0.4304824872121137,-0.19956438195757747,2,right
3.252,0.05418107059738765,1.0973791688212486,-0.15243570444024995,-0.8366563442071624,1.4542013828904496,0.11495655686521083,0.09246157828226323,-0.5278245511400048,-0.1772080494038883,2,right
3.2539999999999996,0.008148590053817656,1.140289212624424,-0.13127702246423234,-1.3950661880660933,1.6925239092629045,0.5151895646327231,0.10444911872293741,-0.43729125531724156,-0.20317122604902446,2,right
3.285,0.04952511827904574,1.1018409191288616,-0.14625597923081468,-1.1588353456702265,1.5952880916569074,0.24799779005032085,0.0781958453970709,-0.4176899081331067,-0.22849719754515857,2,right
3.2880000000000003,0.18323359442511275,0.9654269361275778,-0.19515027234061388,-1.080467023738468,1.518734338082897,0.3493695679349481,0.08016187724022963,-0.3452220028229692,-0.24903067222027636,2,right
3.2889999999999997,0.2134735329705944,0.9382853852374925,-0.20418543579372955,0.3601379079943462,0.0939425321083125,-0.19345902751842015,0.08064879140151787,-0.4134032988331048,-0.2331323152773712,2,right
3.303,0.18985968361632974,0.9574900794171013,-0.19597100668076312,0.7149612032280328,-0.18207333585706958,-0.30531116817112847,0.07880033321998375,-0.3489071033022196,-0.2456519375075372,2,right
3.323,0.20735725922833564,0.9463948308493936,-0.2041514142578468,0.42273286539063076,0.0751587689938984,-0.18852731991443955,0.10198680379106768,-0.0057690185664588944,-0.28445860565891984,2,right
3.325,0.19467373201002286,0.9506916944099342,-0.1957597792242582,0.670928541477267,-0.12253539141975273,-0.21844812708587238,0.09691860170373967,0.03804460274081673,-0.2964196561567273,2,right
3.3539999999999996,0.15390634876199427,0.9510619229885925,-0.16401137894868068,0.6530690415143585,-0.018266681283822195,-0.217953886338579,0.104114104391628,0.008981466279167787,-0.28200254820637216,2,right
3.363,0.14704282488388826,0.9481864685732188,-0.1566028767691876,0.57498650903087,-0.05278837403476923,-0.15563140326130065,0.14540298452369585,0.2174247454219328,-0.2697610249571384,2,right
3.365,0.152529768022379,0.9518572889442464,-0.1625673471777248,0.21934990366013685,-0.11192094400742161,0.23656649674270921,0.1542960852950909,0.20306082044521676,-0.2490303044642076,2,right
3.367,0.14720800765465125,0.9485609662266907,-0.15823622284052533,0.15554831887335321,-0.08488268983911482,0.33556990340877507,0.14667923399686428,0.21623544131536754,-0.2708513717612904,2,right
3.4019999999999997,0.15391365308869742,0.9506676777866179,-0.16114349151416402,0.13908458353152647,-0.11170257244011231,0.26248677610657367,0.1519317441425993,0.4282872912240464,-0.3509690429454714,2,right
3.404,0.19393645640553142,0.9504614292234135,-0.16924261073238098,0.23433372965747926,-0.09329664324968141,0.2982315272594381,0.1496579280652826,0.4225539021914802,-0.3659506620977724,2,right
3.405,0.20937106748518597,0.9480437897792231,-0.17061160047352797,0.7521312818416629,-0.0542199928001605,0.21505702716062888,0.14868570058748265,0.4482905208799781,-0.3571896306522151,2,right
3.424,0.18634850996736294,0.953687507434661,-0.16929008549539767,0.8546357953576729,-0.043080538600052905,0.20100762675158113,0.1528808052598702,0.40420973286478956,-0.3609503026521773,2,right
3.452,0.2180603451358676,0.9446977414188653,-0.171049062214435,0.8489733317427027,-0.06556671770006464,0.21433330385882626,0.1459457857674592,0.106033773685287,-0.3288727449234541,2,right
3.4539999999999997,0.1787944450972589,0.9562943722290415,-0.16838508930003954,0.8146216835719492,-0.03146044166806066,0.2648725035678532,0.1543525126545619,0.0611699444585483,-0.33312575499266583,2,right
3.46,0.011982040456907664,1.0037258112939165,-0.1524103056901403,1.090085605931427,-0.10181435155669086,0.2473542936245606,0.14672476601719417,0.0877741001602213,-0.32410425834870116,2,right
3.49,-0.03046364667965662,1.0152507290040658,-0.14654273790332822,0.7216381406549959,-0.009840625448045901,0.2730188744127616,0.10066081056010719,-0.017902099329904855,-0.2681373895224961,2,right
3.4930000000000003,0.007802673396023256,1.0063699291389556,-0.15469855120785714,-0.8242523396842147,0.3902269248132291,0.4673917690539137,0.10299542197125203,-0.026903644266408882,-0.25107391611389857,2,right
3.4960000000000004,-0.025198312204381932,1.0119288174184469,-0.14414149234068063,-1.1075817487105235,0.48081236371643515,0.45281445460897435,0.09335705433927972,-0.01489270052126445,-0.2679680388332216,2,right
3.533,0.003107047807388078,1.0095021762364058,-0.15645459456529914,-0.9818534654940525,0.4126371381624606,0.5099521277248902,0.019262026232991288,-0.017438892047152044,-0.29447556606196384,2,right
3.535,0.09860075082827238,1.009442031633005,-0.20393854844351753,-0.9381374923908112,0.45484221653972146,0.41321660788579406,-0.00043985214627190877,-0.03359612983482445,-0.3022696802275726,2,right
3.536,0.1199755426255401,1.0113024650826987,-0.21463215516794334,0.11927135652311821,0.44271143086015025,-0.08927965395411393,0.020396597582144276,0.0042470150073569855,-0.3008814071147145,2,right
3.5410000000000004,0.10102015876732084,1.0081650085466247,-0.20745129529299855,0.3543482247616449,0.4560971600092717,-0.20049961814014944,0.00042300057411226964,-0.05041369288306335,-0.2969563898509778,2,right
3.5660000000000003,0.11847766175275205,1.0121818290494722,-0.21037015257209074,0.11647297473987851,0.43999832461615496,-0.11937140944943533,-0.04163762860207862,-0.2707886679245427,-0.2736550117381724,2,right
3.568,0.10179718587084723,1.0077270648975931,-0.21145792563325044,0.4434939705311497,0.4457858940890286,-0.16802740710325442,-0.05706223868304988,-0.3204773506365429,-0.26734378101124323,2,right
3.58,0.037768739683144766,0.9920215893902996,-0.22724409649941074,0.2750675471489824,0.4104610807165067,-0.17162622633583557,-0.044102150087789546,-0.2931052887135296,-0.27046505522907244,2,right
3.6010000000000004,0.022941040913439043,0.9885639606170606,-0.23360080364072627,-0.2378151274059001,0.2582897419697196,-0.32419632180987623,-0.054903258168423626,-0.2926333980876388,-0.27221089858084424,2,right
3.605,0.03628834454229455,0.9906488811633843,-0.22583504036007493,-0.356084784604591,0.22862434456375874,-0.3850676735685953,-0.0860366453782436,-0.2582959551978687,-0.27541024837542283,2,right
3.6069999999999998,0.02430323160267743,0.9901538925823958,-0.2345025769108242,-0.2442327580921711,0.24067747543148107,-0.30867203113992336,-0.09299777279326149,-0.21681432758686411,-0.2859984894314335,2,right
3.6510000000000002,0.035300657375030096,0.9891759753503752,-0.22552757194616468,-0.35800348020193773,0.25031252067024057,-0.3955336235018221,-0.08795316235565762,-0.11127651589342191,-0.3139573367372661,2,right
3.653,0.07502752058926293,0.9813063995117383,-0.19388831248802726,-0.24277096470129372,0.2221246673455958,-0.3032933590703811,-0.09118536521390624,-0.07612175295816828,-0.32471779067362616,2,right
3.654,0.08466424601170057,0.9783590343952077,-0.18724805212246814,0.23156114501760322,0.0894357547905103,0.016758694556817,-0.08957181433463426,-0.0937625756727195,-0.31762875881671493,2,right
3.661,0.07555340204147132,0.9818997064292934,-0.19132317143215977,0.31087692175569115,0.05546856388605409,0.09504118208129587,-0.08974707784848349,-0.09596722865269071,-0.31956426771333013,2,right
3.682,0.08433657002980663,0.9779036025224997,-0.190015499271188,0.2711852396126656,0.07481741652413593,0.03589339170071306,-0.10082941627237356,-0.14708958256817364,-0.3330124017964395,2,right
3.6860000000000004,0.0758131300010653,0.9821560716081906,-0.18906276726147495,0.3888657093605,0.06679051170775098,0.03326713517606473,-0.09886230728408722,-0.17587166106149527,-0.32542557837732233,2,right
3.7,0.04380814983443748,0.9980123906331504,-0.18128052218421248,0.42330372272382244,0.04292656869027295,0.015237609350837698,-0.10092983699074737,-0.14515132502223532,-0.3344159975216429,2,right
3.718,0.036820213594778134,1.0015886067455138,-0.178920149640165,0.3752385979498609,0.08328898778644703,0.019683290486770724,-0.11993520376118008,-0.07084248867274277,-0.3876999637845885,2,right
3.721,0.04249454555353682,0.9989344565103129,-0.1805192732514535,0.23590961240251987,0.24597033311229705,0.031953685732256945,-0.11869875068571849,-0.054348091265608106,-0.3888080123834049,2,right
3.7239999999999998,0.037991959169238254,1.0005566997705082,-0.18016390103182722,0.21948356693126658,0.289861345267018,0.02911085138344634,-0.12271120039236695,-0.061369573195976426,-0.3947713928130224,2,right
3.7569999999999997,0.04188999512052351,0.9998495244927151,-0.17922748114608486,0.20481676094438062,0.2570496629601051,0.02830832134422368,-0.1463771861418341,-0.010486492646884405,-0.4529275735206742,2,right
3.759,0.05779707924247651,0.9998605849827775,-0.17121133673450983,0.24464267965925185,0.2757732872170965,0.034352808925612925,-0.1536649627670034,-0.010333530293600292,-0.4673172182577863,2,right
3.76,0.06293371119128785,1.0003520286789582,-0.1685005437885531,0.5161844116839088,0.25003957711702207,0.02444240498282304,-0.14725730761451022,-0.007188584514194079,-0.45447745797714273,2,right
3.781,0.056044580521650046,0.9994598984971529,-0.17171521219497288,0.5531227295355524,0.2459586101917112,0.03393771655686095,-0.15101674192352565,-0.015346800539881366,-0.4623101265790314,2,right
3.7969999999999997,0.06494153544028816,1.0007372915803328,-0.1680930990977212,0.5430117851078126,0.25657428296187157,0.031189621570322852,-0.1710918012071085,-0.10326952969222411,-0.4912857820997606,2,right
3.799,0.05460272419219235,0.9990496939140341,-0.17205314099085245,0.7111241359183795,0.2319370787553076,-0.04911797024609926,-0.16711502753463492,-0.11680826288886967,-0.48607200780248705,2,right
3.8169999999999997,0.014902240945055613,0.9911801036648811,-0.187885133154871,0.7602506436575853,0.24847194114485593,-0.02265795266078044,-0.17354807548845524,-0.10368016903579876,-0.4942825842006714,2,right
3.852,0.006597811738737209,0.9885594039058521,-0.19211046829099476,0.6944367465525089,0.23271224385184536,-0.062195442601968465,-0.21745062975197338,-0.14604092648634787,-0.5583608568505566,2,right
3.8539999999999996,0.011270120575323509,0.9917323251999217,-0.18789385021316912,0.5157134639169065,0.16406402446718066,-0.26929378502436885,-0.2200206653639521,-0.1340048288119191,-0.5564709897837238,2,right
3.855,0.010902837809364335,0.988011144636658,-0.1921270665634506,0.44671846737476234,0.16089559521089147,-0.3025189701201252,-0.2232446380488714,-0.1453791437626168,-0.5696237949599023,2,right
3.8930000000000002,0.007412775833997447,0.9920736974911472,-0.18789080046762113,0.5109802291806897,0.15365938350273292,-0.2896939704690824,-0.2637914182805271,-0.20678462600331993,-0.6553203193058519,2,right
3.8960000000000004,-0.016473996291361932,1.0081304793860018,-0.17196306910785383,0.45028978210054244,0.1705977097889935,-0.27845866154712756,-0.27804232260209943,-0.20918702834173847,-0.6871986626259228,2,right
3.898,-0.023812921140867582,1.0113900713234378,-0.1683225380187579,0.4575750212663532,0.27749824242397625,-0.18881235763291826,-0.261719774381187,-0.21598932057147247,-0.6535547084933788,2,right
3.9019999999999997,-0.01622470278914194,1.0092016607744414,-0.1713404242720126,0.4093384916689006,0.30207348240083587,-0.1510773319923298,-0.27679425270391483,-0.19913603220486073,-0.6824199503711131,2,right
3.915,-0.023735694467960363,1.0103166084462218,-0.16893383387795546,0.43539394806824855,0.2796516737269001,-0.18158096041909083,-0.33608773677328424,-0.12396471166092843,-0.8138704421086793,2,right
3.917,-0.01613406662434333,1.0098820022872261,-0.17092809558160493,0.748240772230722,0.29849889158056414,-0.29105355418841705,-0.34059835008990297,-0.09556488491119311,-0.8199142561322881,2,right
3.9360000000000004,0.015758956898586387,1.0102601559002502,-0.1790394536873215,0.6856062263275158,0.2829694622020187,-0.27541259676654883,-0.3417491540357595,-0.12222220091423625,-0.8231658135955386,2,right
3.9589999999999996,0.024947491851050385,1.0093427942595985,-0.18118913539294346,0.7926314828869667,0.2955875911606719,-0.31355870083370124,-0.39802305412675937,-0.17208087519111742,-0.9689424514835945,2,right
3.96,0.013974323166778942,1.0110778245065026,-0.1783771911251137,1.3866482259206765,0.3266374100399824,-0.546198003957513,-0.39981862707846794,-0.18255224577088822,-0.9642853354803137,2,right
3.966,0.02727903208167681,1.0088247034125495,-0.1822113578675657,1.493637459946653,0.32979504113374275,-0.5847308318666501,-0.40406323847272674,-0.18276481638647069,-0.9840871372046357,2,right
3.9939999999999998,0.011761784724577994,1.0105668181294987,-0.1771555518797514,1.4411927318111797,0.3348204974639079,-0.5702036151547296,-0.4713796000687345,-0.2526306271016089,-1.1398135733420145,2,right
3.995,-0.05155571239906693,1.0110247179233027,-0.15343378802365004,1.4192221603054633,0.32099213714447355,-0.5549724827319138,-0.4929500723240701,-0.27134008381238706,-1.1813331747527602,2,right
3.9960000000000004,-0.06779299093256999,1.006421250607186,-0.146011854927317,1.1642304371713328,0.36009991561682464,-0.4934761009576893,-0.4636990816073891,-0.24489396235225,-1.1430652073647933,2,right
4.026,-0.05347986799444605,1.016593717477635,-0.15454830198940595,1.0169635990959423,0.34528350578821687,-0.44902883313975356,-0.49777580180113673,-0.2786381148936209,-1.1684112528269934,2,right
4.05,-0.06483750848917198,1.0009713747275082,-0.14497403743466147,1.1818387657397014,0.33997202689236283,-0.47621690010019846,-0.5636355186593598,-0.2990646167822433,-1.3408870026409212,2,right
4.051,-0.05735031663142857,1.0195328578425984,-0.15516514130421927,1.521407981126038,0.45476139277762406,-0.717456318012994,-0.5914143731468231,-0.3401757992575791,-1.3340255990602854,2,right
4.053,-0.049628810675882484,1.0829582810948506,-0.1952548040926301,1.5950037162764374,0.35347273654090305,-0.6582619788188921,-0.576894675294229,-0.30551612146287216,-1.3420326045524633,2,right
4.072,-0.05443656674586079,1.0914763326238233,-0.20384964099552605,1.6241143601520935,0.5195292548430765,-0.7557763226459904,-0.5227329000561105,-0.16320786981631094,-1.6622006830531313,2,right
4.073,-0.04074378875164354,1.0959356075443214,-0.19709195502199806,2.1369507928004947,1.2614639071506384,-1.3581956894747478,-0.547205448841793,-0.17183937392007212,-1.6181814919335102,2,right
4.082,-0.06385064774522083,1.0770940096291683,-0.20248466269998378,2.4360046496515775,1.542078940478,-1.4405503512617701,-0.5065033949029452,-0.13371599839886034,-1.6969128822659063,2,right
4.115,-0.03321006920844775,1.1067817792216208,-0.19693789945172818,1.9955281735399937,1.218364573645749,-1.4081379096979902,-0.3335411132816244,0.015332538444221389,-2.2021581883654533,2,right
4.118,0.0930655203298719,1.2244245670869547,-0.1649663598268808,2.555419118768126,1.57881025904623,-1.3900237310116563,-0.2932191880799405,0.08247151355716298,-2.2809350945215003,2,right
4.12,0.12418825774432482,1.2489192578162633,-0.15170201926056343,4.243491277490892,2.873946170197833,-1.1027743390192026,-0.31504081163721454,0.03248993856947935,-2.249682596881554,2,right
4.143,0.1005103347152124,1.2417465335089946,-0.17269467229002985,4.885063656628429,3.3091013679286876,-1.0786395900083359,-0.31829645617233804,0.04089557825889627,-2.2153717208427,2,right
4.186,0.11404548483802815,1.2261388559237871,-0.14292866902064005,5.229928055190968,3.2266942926307216,-1.1693005403537686,-0.2905925756090755,0.09145843267135086,-2.313700001022931,2,right
4.188,0.11141449220449796,1.2648524743390612,-0.17980008909963607,5.744265490128196,3.7935042061359145,-1.3020327118306207,-0.2450007510319602,-0.48740694368752785,-2.869592393292791,2,right
4.189,0.14314237145878106,1.4866932959338008,-0.3304322707648265,5.3260643851844165,3.163143468220446,-1.0742415850575346,-0.196732295009559,-0.34916575462224547,-3.0347114354030342,2,right
4.191,0.16263872771104335,1.559486518873236,-0.36631231361591166,5.635355409903057,3.7888026852758574,-1.3641577529238313,-0.05473243986291208,0.8994430382373301,-2.9183495519210663,2,right
4.192,0.13116973159509832,1.4756952234082852,-0.3387354094717784,6.718553916144746,6.475375545285756,-2.6627974832031267,-0.03751459199307111,0.9206315659730112,-3.076862217467336,2,right
4.2,0.17461357105836273,1.5673913725008484,-0.35607374177219586,6.733268223573948,6.693668605990322,-2.8904770839408958,-0.031172062127917385,1.028941122511163,-2.926630426654981,2,right
4.245,0.12160212868737652,1.4736071884574446,-0.34805158040645456,6.894630976081553,6.835186790675108,-2.7657863864232173,0.13490171296070555,2.2563473138408554,-2.4322210887125024,2,right
4.247,-0.10105186081770041,1.14867335707963,-0.339397154127922,6.5795485933711415,6.365928300361726,-2.792464243808703,0.16455210278714683,2.567276929144073,-2.2850922971244776,2,right
4.248,-0.15661136668990375,1.0860607235445743,-0.34158185236848804,4.868949166968191,3.49020701112136,-2.08989605380501,0.1420615650019887,2.2449552966662543,-2.4438514260091546,2,right
4.26,-0.10677514141720153,1.1151839276847686,-0.338799959114332,4.437516542042372,2.8871581372241844,-2.06553074202842,0.1472659736593936,2.5088539446458444,-2.258970346092209,2,right
4.2860000000000005,-0.1507663389086697,1.122631576912401,-0.33965512645183504,4.839586214171632,3.2564329549297923,-2.047173474586702,0.03565402895632052,2.876042274855357,-1.5477175784905457,2,right
4.288,-0.10969621416923313,1.0852926189337766,-0.3429912470037204,4.636872218753082,3.498102527139108,-1.391538334356365,-0.009756706467235325,2.8507451934213233,-1.2552824845382657,2,right
4.29,0.05784131080199744,0.8882806722211625,-0.3831576164920208,4.990205257480001,3.231204436358002,-1.3132113922674093,0.06408482526827211,3.0628290531873925,-1.6296627413738256,2,right
4.31,0.10650035361212631,0.8363145027561332,-0.4019915147584746,6.319813097096484,1.175519668763651,-1.5933605724041384,-0.036867200135354265,2.6868077876902703,-1.166584747191345,2,right
4.315,0.046874010257958995,0.8738932502254044,-0.3719487394788268,6.834956170400284,0.7255776501617051,-1.645343018544049,-0.24431261533096654,1.6887814237201264,-0.20193212843797992,2,right
4.324,0.12057291079112216,0.8571843629269982,-0.41367654955521005,6.146825606937109,1.0353073175362093,-1.4615190713148931,-0.37878269887481053,1.2201474388989055,0.3638599813668365,2,right
4.355,0.03389687666627439,0.8536402677890035,-0.3632649101180062,7.0223559338094255,0.9360840297360987,-1.7880460649026628,-0.5938839193984988,0.5842564958699871,1.2629549459054685,2,right
4.356,-0.332575407198606,0.7820576671053998,-0.16544971543742334,6.0259813949441705,0.8418403085065698,-1.3473880194191725,-0.7191519601119705,0.3940694304439217,1.7287734153363141,2,right
4.356,-0.42465992025165084,0.7556234660852064,-0.12028685019179676,1.9697887690974198,-0.23218550536927432,0.5125352345915699,-0.6105535385097594,0.39711521681930567,1.3698783637479535,2,right
4.386,-0.3398319301319983,0.7843956567536768,-0.1512513060777017,1.2288048463407781,-0.44629027913360364,0.9745058448510329,-0.697468797668058,0.5332333455446614,1.609796715457672,2,right
4.388,-0.41632319304532994,0.7568456458708843,-0.13746554676052086,1.6042205779863312,-0.30601626300439516,0.5992484674119798,-0.9867618299605957,1.688612209749048,2.336387192594088,2,right
4.388999999999999,-0.3461463649562047,0.7810541706211851,-0.13555851383358736,0.7049964677058583,-0.8570471673345355,0.8658815241248066,-1.018079954408016,1.8253528511728745,2.358447831459666,2,right
4.408,-0.09230387895670338,0.8519458584972059,-0.08877029361513807,0.38089357160460585,-0.9248867887608888,0.699020228875332,-1.0150252651133658,1.800032300860655,2.4067939317464235,2,right
4.428,-0.028588754304503312,0.8642728914102409,-0.06937673166421171,0.8263392281332771,-0.7965997949544832,0.7864423098709898,-1.1967427474321768,2.8221712087969184,3.043789664836533,2,right
4.43,-0.09131996286021203,0.8596847099903777,-0.09073061997491766,2.3216919165891863,-0.5997452504413887,1.3123672325517393,-1.2259322029952795,3.0126737351088035,3.0925413326429387,2,right
4.45,-0.028496070160786736,0.8571088005646689,-0.07031483060122548,2.4124452572146056,-0.4788155088282271,1.2824107512176557,-1.195331454188957,2.7759148600766697,3.1031179938983153,2,right
4.481,-0.09020870196119049,0.864473552030496,-0.08759293008551401,2.656821063454771,-0.5570786828217182,1.3554662720087163,-1.2319262628712049,2.560811120432954,3.6823516993307246,2,right
4.4830000000000005,-0.31445376612985465,0.8960163587963506,-0.13568070260513734,2.1375358543265337,-0.5245855549436022,1.2606873313917242,-1.2105825478578685,2.32682703962988,3.822235197876313,2,right
4.484,-0.3572300718383323,0.9016652378292842,-0.14004944723705437,-1.5419370985168475,-0.5809260351792274,0.5564167131768505,-1.227410848703327,2.5472169992021514,3.646500293589285,2,right
4.5,-0.3328781775341364,0.9015203263846606,-0.14434790944351517,-2.1002267087906983,-0.6046962945126317,0.5063719832443172,-1.214953859597006,2.337751112266935,3.8307145293735556,2,right
4.507,-0.338228894158935,0.8958673787844109,-0.13261537868153617,-1.7211031854044165,-0.5788798621861667,0.5165446871574108,-1.1413354158888904,1.7532720228270777,4.185995526873851,2,right
4.508,-0.3467331088663843,0.9046429026493696,-0.14736533456671763,-3.588692345653129,-0.7473684147081969,0.13784858400434033,-1.1437581371187104,1.583631602708639,4.304973462516992,2,right
4.5280000000000005,-0.40357616818543574,0.9280823605430621,-0.18694054364485246,-3.4185621496111436,-0.7790153379533781,0.1804122605762695,-1.1311338086356493,1.712388287282774,4.252721356356479,2,right
4.555,-0.4114799873485342,0.9257236379392206,-0.18446913608700477,-3.6753855498566823,-0.679254639285749,0.029667325062357183,-1.0915906500418484,2.062403998288367,4.215978737305569,2,right
4.5569999999999995,-0.41546994536265125,0.9429404279747986,-0.20666143429059192,-5.5093446290256125,-0.44809696005045596,-0.678849673120784,-1.0707335667509414,2.102622611089881,4.323318752281343,2,right
4.56,-0.3996347531256616,0.9080999455160814,-0.1630872750470585,-6.1010390272192545,-0.12424453929905721,-1.1744552050670176,-1.0796415880026973,2.070600204477422,4.144311954901898,2,right
4.598,-0.4186664107905975,0.9584831268454934,-0.22208805170811902,-5.435290639654964,-0.5805492439997436,-0.5158666385943096,-1.048496294555128,2.1857293942672555,3.3695050274013703,2,right
4.602,-0.4233312595267088,1.189122824186858,-0.45097547869199894,-6.006612553770269,-0.01575314049268195,-1.25949207682195,-0.9855479536320989,2.0103210246449112,3.0916402706971233,2,right
4.603,-0.3931774629313094,1.2493073858639208,-0.49745248177118223,-6.982618455566896,2.425257926014896,-3.850698941384959,-1.1047179848555304,2.326938214439606,3.4086407188562293,2,right
4.62,-0.4788284368283461,1.1942623322566388,-0.4795670768819394,-6.6920447917034345,3.037246033697134,-4.359769244341944,-0.9267231942421191,1.8657648948081085,3.045255809651845,2,right
4.627,-0.3285077247392121,1.2422838043503126,-0.463132786423501,-7.674279011823506,2.4692629479154706,-4.141508650085678,-0.26412123748424726,-0.00022567403619527804,1.8977224894384512,2,right
4.629,-0.5338694619521669,1.1999828779965291,-0.5090703388007092,-6.501395973686021,3.1508922940383375,-4.00016221181758,-0.005990539571322038,-0.5937151577323844,1.4035081916529597,2,right
4.648,-1.3630906997300078,1.0391232118729277,-0.7175126742425981,-8.531636535480995,2.6622076149600153,-4.284686968586609,-0.27212530255519335,-0.05168202997749305,1.9755857915516057,2,right
4.6739999999999995,-1.5785363023779928,1.000382692260544,-0.7764336072855007,-16.399762642781873,1.1101069622087878,-5.970208035915938,-0.02197332334966748,-0.46988439379360813,1.3381515632386358,2,right
4.677,-1.4161655097951908,1.0412879689148768,-0.736898061175743,-17.688921156685932,0.701538057102042,-6.126654399797814,0.8174419586700806,-1.4851109193207515,-0.3709107485357933,2,right
4.678999999999999,-1.5004491166177527,0.9971982635201845,-0.7462089452432077,-17.421381453055545,1.0337671491080078,-6.257102822122587,0.9708187699842356,-1.4927423868266274,-0.9892002740104165,2,right
4.704,-1.5057132401125295,1.041159462474277,-0.7703457321473837,-16.63199511972705,0.7919954286596501,-5.823189907462661,0.6386394447274624,-0.4132695602154275,-1.3621904637780418,2,right
4.706,-1.4082639231199012,1.0075103673905985,-0.7166506724825413,-12.076097876687811,-0.7952684096371156,-3.318707417839913,0.681101565029375,0.0680180492305474,-1.709737605136201,2,right
4.708,-1.0569657345140047,0.8441697785958042,-0.5010806142155004,-10.51898490162149,-0.977792072946871,-2.6583534643104363,0.668425496180012,-0.6128869606005731,-1.5397196920225908,2,right
4.748,-0.7789338247484396,0.8828378539536192,-0.41623935222286335,-11.393488228484461,-0.6419001216978155,-3.1594873414257543,0.6695735670288276,0.1831816727684907,-1.5388179098335195,2,right
4.75,-1.1410804759740618,0.7867933235403008,-0.5028308599972188,-11.841541560580659,-1.3084670164557208,-2.9523065634733108,0.8596318816479385,2.17480665608734,-1.282656455479374,2,right
4.75,-0.709151376380109,0.939337974988476,-0.42035629426536003,-9.291008663327993,-0.1992953120079658,-2.6302102982050783,0.8606026783590845,2.7711880450869972,-0.9937546016830001,2,right
4.763999999999999,1.0435151432539556,1.7240662371207132,-0.1851739132799923,-12.878112527669826,-1.7721025107185013,-3.0868161359583732,0.8608960365786755,2.511285020102315,-1.4026239059368524,2,right
4.784,1.5426968798344558,1.9435558356768494,-0.119341613545448,-8.568551398157041,-0.003672373474771784,-2.4376020186605754,1.0056532568829186,1.8196973357797168,-2.0126057471985033,2,right
4.7860000000000005,1.0304382699523689,1.71308081730325,-0.17750426807347358,9.988861487013871,7.928730665626025,0.18384691015726284,1.0205159092635487,2.4159524070824165,-2.591237483867136,2,right
4.7989999999999995,1.5611578311636696,1.9491786512358455,-0.12380319570234095,11.91675947229499,8.667709468979563,0.6635573654443262,0.9891375064794538,1.5248119786410903,-1.9967994782048628,2,right
4.823,1.0099339113880843,1.7112581177019492,-0.17575668177405734,12.67993113165636,9.020045455570065,0.485912970394209,0.9563008044694596,-2.5399320305409034,-0.22777559329656688,2,right
4.823,-1.164297313521943,0.822294011576905,-0.38531670304400756,9.305185577110239,7.620359845673237,0.34940096417940536,0.86442893556715,-3.3042436339732464,0.19276223315676733,2,right
4.824,-1.6968188114017053,0.6099660046953033,-0.4323833537591806,-11.933503247802065,-1.2460126043651591,-1.4158729376120114,0.9942031423679158,-2.908611404297889,-0.06877672073574792,2,right
4.8580000000000005,-1.2076633520409648,0.7963790713924158,-0.390544531161918,-16.96154098180748,-3.260392689447563,-1.8327592294442718,0.834671736082532,-2.9030581996580325,0.03873762934363138,2,right
4.861000000000001,-1.6501338647651993,0.6343275777999771,-0.42672033003830184,-13.334431389712554,-1.8434575996465854,-1.5051921968909276,0.2231615394843566,-0.7802026964546382,-0.33674319856858576,2,right
4.862,-1.2512206791939546,0.7787559241227846,-0.39562538013804627,-14.23676962241488,-2.273357896035842,-1.5567651502704107,0.07303053106914026,-0.3785687890579794,-0.39617696425799115,2,right
4.883,0.11845907858821988,1.3059242067071648,-0.2921544350889084,-15.335713193247035,-2.740312278726156,-1.6218046958820502,0.18160177092265123,-0.7044235661944365,-0.3309802776069932,2,right
4.901,0.40607840656103406,1.430786474226901,-0.26999087930086485,-12.364526099476269,-1.6160793994222091,-1.4008196373437536,0.15564512579082007,-0.14720101842004743,-0.593799940234222,2,right
4.907,0.19216394698364503,1.310600286075192,-0.28833752488803344,0.8504786767687103,3.498225443352224,-0.3101549649529325,0.16162922055032963,-0.06832626289269858,-0.5807654912436738,2,right
4.918,0.334997254851747,1.42958732114711,-0.27238024208927225,4.463775310397677,4.495200952251567,-0.0787598606666852,0.19266806525047145,-0.321255277660923,-0.568255873747502,2,right
4.954,0.24730489397039573,1.3112249149675947,-0.28806579408137156,1.8622501114771859,4.133707578762473,-0.18744802346149206,0.32244084053873934,-1.3433179699566706,-0.5408163326384486,2,right
4.956,0.01173998984529312,0.8738470077019227,-0.36031636738647543,3.1618642462075983,3.802106730082558,-0.21905864294688218,0.37474391305806254,-1.7062686731620709,-0.48862552148716926,2,right
4.956,-0.03032025228791295,0.7759616887200658,-0.38245478371617175,0.49558728137762054,-0.7194538106813806,-0.8781180185601806,0.33252190055806696,-1.3817137868461105,-0.5654579673696327,2,right
4.986000000000001,0.015356148553907822,0.8515810116299141,-0.3538764848193908,0.005256818862419799,-1.7146868098255632,-1.0286190601865786,0.3589952261025099,-1.6493897502695707,-0.45838419884204124,2,right
4.987,-0.04259778920352403,0.8003036173666447,-0.3897178128907384,1.118454369335057,-0.782901778092808,-0.8280813567269683,0.34851829988073557,-1.432749860733237,-0.5949312355561172,2,right
4.988,0.026895465809172597,0.830532275535999,-0.34848011714390403,0.7327440523619881,-1.3083908975117093,-0.7657184085695222,0.30602697328208317,-0.811630734251576,-1.0502472189662768,2,right
5.001,0.26621310336294773,0.9052552345931975,-0.19990769082885276,0.6281375296881232,-1.1371765431022807,-1.0088805744810214,0.3169444157803101,-0.6599763216776093,-1.2033065805893386,2,right
5.021,0.3215594631637825,0.9121674444771508,-0.16553600508250318,1.2706732075959963,-1.0467065896710506,-0.5920753977886961,0.36257739306951775,-0.6213302881318236,-1.2628913298321616,2,right
5.027,0.2979377040601128,0.9076061399738173,-0.1862935395296138,3.6244964237761232,-0.21789902394124533,0.8781215224269734,0.3758449768242118,-0.5044829692029076,-1.3555084321765711,2,right
5.052,0.2799484735057167,0.9148355663995407,-0.18259225162058107,4.9359359329035275,-0.050332372614221035,1.4628315525301718,0.36695360685586265,-0.6120158688786412,-1.3065837115982326,2,right
5.06,0.33865472018293713,0.9014305639782192,-0.16993941321563066,3.6171995522866234,-0.0952184999506202,0.9151026598220156,0.36999875778898084,-0.8904888520011269,-1.245000201095014,2,right
5.062,0.2521876282339594,0.9223799686412574,-0.1944306763400284,0.8222756767605848,1.0304648667936556,0.16927707177247417,0.37242928489393,-0.9867927459191136,-1.2665104271791217,2,right
5.063,-0.11577738678068408,1.0048944697233737,-0.294984362753818,0.017651417615230054,1.2239118539346874,-0.13045381733723277,0.366430819123586,-0.8970880591788195,-1.2311368066594177,2,right
5.099,-0.18936527028351152,1.0359878555373228,-0.3224960392868229,0.48213108236006397,0.9953895889146362,0.013698825531570036,0.3730171854523323,-0.9765851982698048,-1.2616460693100846,2,right
5.102,-0.1508169408040534,1.005396567475998,-0.3013447198502773,0.269958626536525,1.1980103423246842,0.007905792229897124,0.39922219869969056,-1.1935126973595427,-1.5820726751531002,2,right
5.104,-0.1511038514953706,1.0305384188374358,-0.3155556361529447,1.0642094862552083,1.2280811203969377,-0.055004727458864956,0.39740970903620665,-1.232544024538398,-1.564964374146319,2,right
5.121,0.04054648361838557,1.0665659013383912,-0.3352153835399191,0.8928354571203719,1.252055854014034,0.08138754909527154,0.4060418193837134,-1.2235109703714837,-1.5984053370815663,2,right
5.154,0.08103659301536724,1.0635584767545803,-0.34705922883097007,1.2174340289216272,1.3578423669661355,-0.033816079154166186,0.44159467450830614,-1.2810216095546287,-2.202389937343658,2,right
5.156000000000001,0.04417360315737327,1.0875796081319948,-0.32798493030687736,3.6967074084827676,1.805374534750177,-0.34569598565728404,0.4588239945182348,-1.3313736401999596,-2.197073855478757,2,right
5.1579999999999995,0.06772337985219364,1.0429143496194073,-0.35815966982673636,4.303396740008608,2.2130796532564507,-0.23375369639089577,0.4429587508397092,-1.2607709267382958,-2.2413724820304144,2,right
5.186,0.0596362343730294,1.101366623527603,-0.31668296434117005,3.651654858198327,1.6577966790429632,-0.5068247988316322,0.39355886720273303,-1.0528837062798055,-2.96355609463752,2,right
5.188,0.09594976602741317,1.3222295595895681,-0.1257175586806493,4.286898003582454,2.325661013637305,-0.09866985232641867,0.39030130387503004,-0.96477220839963,-3.025275304468348,2,right
5.189,0.10508051424812444,1.3663361151539497,-0.07500666367353764,5.104425042265885,4.797919628687421,1.7199225974712924,0.3873449934447638,-1.0616930037882524,-2.9955407429535583,2,right
5.218,0.09625710415364586,1.3497971156269073,-0.12196808060430228,5.579798195382162,5.497892032697623,2.1601655743542922,0.36172981565774454,-1.4906266080933155,-3.4142467681864748,2,right
5.223,0.10186030458704304,1.3344151400157314,-0.082601169764249,6.330647681727101,5.483180122482404,1.605770285416956,0.36334479833179906,-1.6648650040971162,-3.45796066024936,2,right
5.225,0.09855909852380905,1.375929022688719,-0.11105732569662584,6.580198527060011,6.083893314367334,1.7591391354297978,0.34799737467519987,-1.4001908754575,-3.4003460880017125,2,right
5.254,0.0742277494560713,1.5724709929247214,-0.15798696841592147,6.399333971138721,5.481647415617898,1.8029691544368058,0.38214319507828076,-1.7861237705223858,-3.4509977085845884,2,right
5.257999999999999,0.058708978495971,1.6201529684808325,-0.1497643973663619,6.584862026048661,6.129310091739986,1.5545711339418313,0.4294737262028052,-2.4044667732772123,-3.2381455634707628,2,right
5.2589999999999995,0.09254721972270041,1.5935322162682255,-0.18464981139367864,7.072193775068465,8.59261122456433,0.9034094079741435,0.4935853526540448,-3.004341414282081,-3.2110668446942348,2,right
5.312,0.033530759467976415,1.5905328551177236,-0.12174633573534085,7.5431482933022345,9.341007466577537,0.27092202695227263,0.4313714118622545,-2.3985251185478287,-3.3110452287665955,2,right
5.317,0.12068771625347716,1.6239962875325662,-0.20695742876529089,6.817683759341724,8.57914827102755,1.04673384744296,0.15549756672781248,-0.16983230012052253,-3.1716113361887457,2,right
5.318,0.5662638946544875,1.8447256757141788,-0.5622815851391954,7.820224281379004,9.334055523505253,0.20520943640226397,0.1421331172193147,0.12587291450715637,-3.4461273827385863,2,right
5.319,0.7062763700901741,1.9236830791693575,-0.6506730686369097,12.677407199177921,11.9862561444873,-3.288369399675794,0.12240655158814584,0.08530180020648567,-3.1275714502749823,2,right
5.341,0.5404869144006686,1.8293932494413765,-0.5808960067437671,14.178988943924377,12.763237785515095,-3.933651079680053,-0.14549618382868806,1.9791257620753986,-2.3066078613135845,2,right
5.345,0.7317947873352689,1.936420031959659,-0.6273065217896643,12.483838038920561,12.27155277845765,-2.857525275012797,-0.1901619498713941,2.3489723831716134,-2.179489110843934,2,right
5.346,0.522333320469653,1.819977776169988,-0.6013702508093881,14.480969188357655,13.397754290597438,-3.141174529249774,-0.16345016862633296,1.8718098836234942,-2.046353098551961,2,right
5.375,-0.28829684499453906,1.2709840814327826,-0.5050258794027153,12.292154404114857,11.929537342758918,-2.916877300466743,-0.1589660477100599,2.4120316163434725,-2.5027275200938366,2,right
5.377999999999999,-0.47364507082315604,1.1481135405886245,-0.492586802185499,4.216213365193958,6.798334902135564,-2.1969979113921134,-0.19612504026966077,1.8340090383118297,-1.739773411340273,2,right
5.379,-0.33095778884841615,1.2771846294549487,-0.5156660653880432,2.2463093354804107,4.576109159124387,-1.7388362383295157,-0.30687666737273117,0.29814406973306185,0.49715918300915685,2,right
5.397,-0.42494574083933306,1.1311993243612843,-0.47198799767829985,3.7671518445335295,7.058804353823478,-2.408634566662723,-0.3690248517180592,-0.28779463623370344,1.490024288411341,2,right
5.419,-0.37444981868595906,1.3026481280300621,-0.5406481606402879,2.792738698420584,4.50435335156679,-1.5644510169319497,-0.5055123517824649,-0.5803077173093228,2.656488656330912,2,right
5.422999999999999,-0.39107355463826454,1.1102949458745135,-0.4513878856806851,1.6635479638390893,-3.948387381235702,1.8100594038227669,-0.513756393416506,-1.100000098294528,3.221028126182472,2,right
5.425,-0.4906241262547031,0.27187140102493684,-0.06819918805467445,1.5856240251292828,-5.831039087673988,2.6312844313613475,-0.5468861090421562,-0.6190175708529254,2.9806973402075307,2,right
5.471,-0.4584647407444429,0.1116263384955108,0.01937072611991173,1.466678260188656,-4.591724543991077,2.0096874702124743,-0.8281949976309373,0.6286323690401618,3.7655389424735812,2,right
5.473,-0.5118191403533952,0.21681442413778446,-0.045750962678457366,0.38858876309702695,-6.040191636726286,2.2785138596938523,-0.9181729877961443,1.0305865828851266,4.002994616833703,2,right
5.474,-0.4400926704458781,0.17175271982053347,-0.007820869487147709,0.40939723417497154,-5.892607965509807,2.112471643012198,-0.8240380859813979,0.670508084964875,3.6828612917767067,2,right
5.477,-0.11421991504032941,0.3511447948290895,-0.042172418835344894,0.2020509206373689,-5.818967813883281,2.1408895464235975,-0.9065191230348695,0.987058411846107,3.98773965325127,2,right
5.5,-0.02515251116543524,0.37187830764821317,-0.04313319474147923,0.5114009215226547,-5.8949866015578065,2.164352866302255,-1.1180695161380652,1.8098301212151284,4.629755092588163,2,right
5.502999999999999,-0.1132220392594574,0.35596584093837724,-0.03527968990181504,2.530028712946308,-4.968455711025021,1.9281748340861753,-1.1454475710262628,2.0176683808410525,4.7234594953765,2,right
5.517,-0.029897618496117946,0.35216412680189424,-0.044792184253454354,2.4441195282853267,-4.7174607062258005,1.880003131158864,-1.1487870316301698,1.8775740158240735,4.752985131983415,2,right
5.537999999999999,-0.10438896165658387,0.37618668956626783,-0.03419977855090542,2.981103269146238,-5.118203330475943,1.9813245337264629,-1.3326111509330612,1.8692812818898297,5.445197127778748,2,right
5.545,-0.33573798258178283,0.5444150556398107,0.0003372833307194955,2.011296656336042,-4.674143853895041,1.8669934173442155,-1.3692069091566608,1.8574330891625022,5.597995297152699,2,right
5.547999999999999,-0.3694782544018588,0.5647681164190195,0.02709579563730583,-1.697423155303484,-3.650686251075463,2.079744517570666,-1.3349811499920308,1.825474702282686,5.462741417416972,2,right
5.587999999999999,-0.3673833522154041,0.5728794093752858,-0.016937053343380692,-2.8104430229873687,-3.5776349976620896,2.1830189133890086,-1.4658363982164895,1.819649715172907,5.8693809764587,2,right
5.591,-0.338513693599519,0.5294567197807537,0.045784040425316655,-4.24733274463595,-3.3507475080589035,1.3006443992323633,-1.4682663797202995,1.7688415980272818,5.881630098600054,2,right
5.593,-0.3873804880129919,0.6003524439085467,-0.02873169490323506,-4.388591184807347,-4.018646306417566,1.906932640245632,-1.432560334094107,1.7885222301889017,5.756820911962957,2,right
5.593999999999999,-0.5588794798654373,0.9035025933058167,-0.2983961921381328,-4.771245844721309,-3.118551734153564,1.1141956367726042,-1.5098899721473114,1.826473475214884,6.008127119440832,2,right
5.622000000000001,-0.582265340133987,0.9579979977817389,-0.34355646978245113,-8.15578484181038,0.06588973953262267,-2.09403273279909,-1.3900532169224817,1.7119414136792446,5.6401905456289185,2,right
5.622999999999999,-0.6052873264864188,0.9506674856217229,-0.34192631164439813,-8.685402348667665,0.5751356064478611,-2.6384551822457007,-1.498151824426158,1.9356678265983045,5.6932993760022015,2,right
5.635,-0.5258832908455171,0.8985910618522812,-0.2917841188734156,-8.623863499306168,0.6835038770129762,-2.5540804193350484,-1.355314674416379,1.683638093712316,5.294511038311915,2,right
5.662999999999999,-0.6556618160236116,1.00577624708844,-0.3880788025250584,-8.020663659385995,-0.13194472557671766,-2.0871899693246823,-0.5558709912942916,0.4814972378361007,3.2416802823265383,2,right
5.665,-1.2560692596465513,1.5712610821117727,-0.8631533037667951,-9.264698627140646,1.2473884093437446,-3.032568520298344,-0.5602789049124548,0.2470845712954428,3.272159056516401,2,right
5.667000000000001,-1.4184379287446474,1.7310935521036759,-0.9946060692756814,-15.870807204352161,6.917877995237016,-7.7231868110033925,-0.4443701258056934,0.41097607771997335,2.943576383855933,2,right
5.693,-1.2767801066870368,1.5720961672387743,-0.8748614862743437,-17.639218103755965,8.265626918659784,-8.921876435325835,0.5785389769737781,-0.26470789544929435,-0.054591812908479254,2,right
5.695,-1.3825114393616937,1.7239733407424824,-0.9722622459532108,-15.64694175598615,7.389920489684778,-7.561550244021708,0.8282275987127888,-0.2861794823195446,-0.723827292184515,2,right
5.696000000000001,-1.3226879689721467,1.5790668176980247,-0.9028976474703044,-16.829827077979836,7.279083472074392,-8.11674710263065,0.5926360604757663,-0.1502737534420156,-0.07077701557068271,2,right
5.712000000000001,-1.3254671463144092,1.0384790027123398,-0.7783921020405933,-16.217056572444427,8.150851414981437,-8.021326018778536,0.7662656378168489,-0.43234664846148846,-0.6334419421908307,2,right
5.731,-1.3953437177035029,0.9027971368787329,-0.7851447372392474,-16.067026774413762,6.834748925722113,-7.634174869876736,1.016172428940714,-0.2509901582214815,-1.4352141995752927,2,right
5.735,-1.2363080883775597,1.0388081830536577,-0.7275460330322461,-16.301434379697046,1.2726413495913866,-6.476265210291144,0.9895609047321989,-0.8995003098622228,-1.8206123469097824,2,right
5.757000000000001,-1.4920342151226125,0.8964407686296785,-0.8393031791734111,-13.967208681187193,0.5209614581479385,-5.097505313952252,1.1168138652291835,-0.10429267825387373,-1.4555501871001977,2,right
5.789,-1.1511401215151027,1.048934622620297,-0.6803133369182239,-17.490349171797444,0.4420672317146533,-6.9255481897831075,1.6821877365072582,3.3388743130984317,-1.244189684644882,2,right
5.791,0.38367447201766613,1.6781245817352315,0.04050346104085123,-13.147294630682438,1.3442818299386758,-4.803484488615537,1.9306737418383455,4.169463163730902,-0.825696144314757,2,right
5.792000000000001,0.7973851540604793,1.8419536566548653,0.23972010255028778,1.4150174350764093,7.583881257733614,2.2590380904257845,1.673090018233149,3.3980868422625603,-1.224125336557503,2,right
5.81,0.38651932152205065,1.6789149253695301,0.04484705215761452,4.80494333460649,9.014762108206249,4.027106581832671,1.2899691009291359,2.913095089232373,-2.608116870676228,2,right
5.811,0.7942443293445465,1.8399794834922456,0.2294051285178976,3.996772779471576,7.781507718853657,3.090249987153209,1.0963481311678733,2.0352975613182522,-2.6394299777723735,2,right
5.816,0.37883757121649053,1.6839538143276922,0.05822203189508213,3.1756111062936005,8.020659653759544,3.322323696662363,1.2311451895045906,3.1498316339855954,-2.9425857788605767,2,right
5.831,-1.318053331157177,1.135609280862417,-0.5207446843447942,6.044104094657894,8.5857650522115,3.9276333249589945,1.1654960564025572,1.7443403697270234,-2.294825786554028,2,right
5.8660000000000005,-1.7780528762106917,1.0220864531166298,-0.6407966255933817,2.1299674089187857,7.380017860080221,2.677816603704411,0.8460566524176324,-3.1398590710977743,0.41704974594956523,2,right
5.869,-1.276700587375268,1.096408801817591,-0.5610529789522707,-14.962269200685402,2.2811444732980544,-2.3150231736130436,0.9291190418147792,-4.846223092844731,1.4339551848643564,2,right
5.876,-1.8344610892760316,1.0634987008614445,-0.5977841058433442,-16.412560678823432,0.7741072516861187,-3.915107559430147,0.786657391752671,-3.265381392154013,0.4759529466843317,2,right
5.901,-1.2223177748884437,1.0626655676276893,-0.5997753698467082,-17.89237624390134,1.9934258733606525,-2.5487645247958524,0.07066380757033025,-0.6650053269104172,-1.1207279612892105,2,right
5.904,1.2512474418126267,0.9930823229149788,-0.7168527863022762,-13.59027554084366,1.1757982716915598,-3.553072846480009,-0.10164198014933264,0.24459619189105425,-1.6174719222453993,2,right
5.906000000000001,1.866811440921123,0.9686173875628561,-0.7736102721380325,11.20620475838502,0.7164083113677324,-4.325127857868496,0.043425731124564125,-0.29499085974182465,-1.3816317360404775,2,right
5.93,1.3056975560591226,0.984802642114916,-0.6974036171977751,17.127181293140872,0.5432291331392636,-4.546065302784117,0.03476524867741999,-0.04609160221579919,-2.0096632782241937,2,right
5.932,1.803209758513959,0.9833601513081819,-0.7897961205975168,13.347498150919954,0.5255193372276172,-4.584187638363153,0.11367506928823036,-0.19216961841156766,-2.042849879005433,2,right
5.952000000000001,1.365249959703356,0.9697871911535638,-0.6871930585463806,14.993270532991058,0.4958360718800505,-4.087773260285003,0.04942571268183568,-0.026696804706663135,-2.025816596891107,2,right
5.954,-0.10692374469630869,0.8740992031564805,-0.29910835486324383,16.053481184187163,0.5836373124557677,-4.890194517953992,0.11335669834126802,-0.3033433314926135,-1.9701143753974166,2,right
5.989,-0.41571654744562886,0.845077701672237,-0.2113332675850868,12.965045638428775,0.4262421816962511,-3.8718441208302536,0.382616130752928,-1.7636980969657454,-1.1455947533772672,2,right
5.9910000000000005,-0.18247773632777595,0.8736770482192542,-0.2744048053364716,-0.5935451584213518,-0.5860905630654839,0.017119279432356582,0.4587834064797632,-2.2679967975774122,-0.9596577411739666,2,right
5.995,-0.3456531006470511,0.8485251389635915,-0.23973827151152463,-4.214441803235811,-0.740987125991014,1.0193155740398823,0.3841315099731551,-1.7393136480034541,-1.1539700785308074,2,right
6.0089999999999995,-0.23611690087885395,0.8688709950366434,-0.24908055065921353,-1.7951724552425479,-0.6711727601590379,0.22959191283751484,0.24901729147280144,-0.7602348289755534,-1.2461248395122126,2,right
6.0120000000000005,0.08808141825628812,0.92406265831894,-0.21820319564210217,-2.729093297269854,-0.6389508861636981,0.7551638462463672,0.19991903928195925,-0.37814424932642027,-1.3694125849371601,2,right
6.013,0.14782351446446018,0.9327584978093928,-0.19777691975610365,1.4357372273640234,0.058812138245804196,0.9209966852082911,0.23153752575845427,-0.6443653935127189,-1.2915585501230327,2,right
6.058,0.09042751723678513,0.9302464369544972,-0.22424325419315927,2.3900921238103603,0.20585911108227292,0.9900213289822417,0.21463159028281034,-0.6673452512905604,-1.1659092851511188,2,right
6.064,0.15474168484329245,0.9276118099507844,-0.1948084553927223,1.8452714648738082,0.12875410273467547,1.104423470357176,0.22228610556243625,-0.7726405026649756,-1.1362145886213257,2,right
6.067,0.07973358781893823,0.9329623342500419,-0.22526067520252796,2.4619336595712493,0.2298327966841592,0.910862230512045,0.21828755766128047,-0.6891081199045037,-1.1712647637106879,2,right
6.068,-0.2463417126277121,0.9484672351936619,-0.3356996852195762,2.4054246281835905,0.16596537163934813,1.1748633238345112,0.22231791117256447,-0.7778378029758954,-1.1152821569109808,2,right
6.087999999999999,-0.33445510884371177,0.9481925799739273,-0.3624752996535029,1.9905314296336454,0.2123962792715603,0.8826434767183908,0.2772060950308983,-1.3067263077534619,-1.0580168551400362,2,right
6.0889999999999995,-0.246215393749333,0.956293125373129,-0.33962859575776116,-0.8417341975846697,0.3715540347307511,-0.17708388995707983,0.28246762280624316,-1.411499320437187,-0.9562573101899369,2,right
6.115,-0.3322655367899062,0.9394369463752379,-0.3584870688702678,-1.3406563137582632,0.48072382811348646,-0.3757281818208261,0.27861343418401197,-1.317380054583932,-1.0553332312631454,2,right
6.126,-0.25124467873010825,0.963045923631877,-0.3431759331383464,-1.2053286827512655,0.29716292500863367,-0.2807584466043661,0.3099070040180831,-1.3200341681943863,-1.4898024992363452,2,right
6.127999999999999,0.01855757019638063,1.0673235911127925,-0.295029914750201,-0.8912974155668059,0.5646699695230785,-0.26998692449417727,0.31174653254399987,-1.2726737936384969,-1.4923688147709382,2,right
6.129,0.07000066163959807,1.089547846957051,-0.28716573804431345,2.331473334166777,1.6235155137679906,0.25951969037160405,0.30644111657386963,-1.2965977533156117,-1.5683315221674565,2,right
6.171,0.04353402121066885,1.07512783469635,-0.2902866956074761,3.2214999306986085,2.0130123044068706,0.3897627345081942,0.31546827833481605,-1.3118117810899528,-2.178761383376759,2,right
6.1739999999999995,0.04427848158686655,1.0802238750466624,-0.2923512368407906,3.1707646189326884,1.8580824036857209,0.21712330249714928,0.302926348501613,-1.3012581894074546,-2.3797366828197517,2,right
6.1770000000000005,0.06326884915028565,1.083344165426394,-0.2851293653223473,4.011063065830951,2.2375315940425944,0.32690656277535524,0.31757563033337666,-1.3253332825994928,-2.1581979766230024,2,right
6.223,0.15572102420080425,1.1541176256864967,-0.22735230890819758,3.2949019356841824,1.9423417451273175,0.2531470164537212,0.3038930125535802,-1.2875557975667808,-2.3677218967299085,2,right
6.226,0.1789815172450738,1.16859247878332,-0.20983380756334852,3.8761346028015202,2.0695999182406846,0.2854195096645,0.2224270385031948,-1.2306893290945538,-2.9501696484290454,2,right
6.229,0.17028938857670278,1.1468567227534603,-0.23351528777274805,5.625438357861338,3.4353672690288883,0.774257480490139,0.22244549115692044,-1.1589625004173278,-3.0544763780090096,2,right
6.237,0.16021875774729133,1.1805037830328495,-0.2032742682895953,5.875550547478243,2.9712862636025887,0.7332936233087392,0.21369334876968854,-1.2558744282250345,-3.0181998020363423,2,right
6.246,0.18524364257146236,1.1299528258494842,-0.23790889630181988,5.828772889136285,3.7474104978714373,0.7873316785820603,0.15668693415963858,-1.9097082290059921,-3.2418533752913103,2,right
6.247999999999999,0.15698261263192165,1.199687767325189,-0.20546499068243268,5.539399981887502,6.9921332903338484,2.059596398335835,0.14798781511826078,-2.1114610543442485,-3.2795355841591367,2,right
6.249,0.03147661566268739,1.4927809585736616,-0.05494385541258508,5.785817798568457,7.9443765496630965,2.1035701246026957,0.1423372137052184,-1.8066448135791424,-3.2578440001175597,2,right
6.294,0.04761040969816667,1.591682567060829,-0.06004101175950981,6.572647396560283,7.7913613921743226,1.3500038980502107,0.17050388406111733,-2.2491190110036547,-3.2303806476138672,2,right
6.297000000000001,-0.008867071996689572,1.4868490312972753,-0.023278664696486342,6.5796280284126425,8.118697973810974,1.5510856380649063,0.18681685125016034,-2.7022621460731466,-3.0284524697438426,2,right
6.3,0.08500783137167661,1.591435481871551,-0.09002753612301237,6.932062369790885,8.265529978282892,1.1571861824708112,0.2615699787596758,-3.388057829550778,-2.8552164409419776,2,right
6.327999999999999,0.5198621829995165,1.8641570950814024,-0.46368492492117963,6.147434895466531,7.669135159042847,1.7650859611811043,0.17787687910343514,-2.7104565406350147,-3.086641155314385,2,right
6.331,0.6326384692343288,1.9461256692975883,-0.5554955739243496,7.312267795359427,8.58991401725859,1.0129553625875716,-0.23585175135753217,-0.02956680836529635,-3.2595912684683457,2,right
6.332000000000001,0.5448409594685276,1.8872618285943985,-0.4695798419472877,11.911794510754737,11.881691033985575,-2.733749260304349,-0.29148845129925094,0.18907860615387595,-3.45440885141538,2,right
6.364,0.5920090902153858,1.9159673332753555,-0.5439753604654437,13.254690496134968,12.85204738478987,-3.2950389567827383,-0.25888241644820725,0.34068323879899187,-3.394826721417628,2,right
6.367000000000001,0.5932608352458189,1.9246024318569217,-0.48334049323729555,12.13222043973084,12.092779568092556,-3.020698060414046,-0.5586449535468774,2.676192005943866,-2.5649097964214973,2,right
6.367999999999999,0.5413930107355506,1.8704529792048603,-0.5265535094198935,10.383744013604787,10.531172988521774,-4.35812063569912,-0.5356866704122465,3.366584662157323,-2.9541234212483523,2,right
6.37,0.35313431813252416,1.708509536865538,-0.7284893393508804,9.758692291152226,10.042880276110637,-4.480206068727323,-0.5729272417231712,2.634531511067385,-2.3736620057472546,2,right
6.404,0.20394947215958076,1.5411480360739258,-0.7118995836303197,10.3934318007028,10.734842886478898,-4.4249438231326375,-0.9123443275942633,1.6294487722069413,0.1963080133728834,2,right
6.405,0.39506973377463683,1.7643027129229534,-0.7682400880559471,9.04060922323674,9.139682407806802,-4.003633729697581,-0.9644094194473919,1.2098275691584486,0.7182831812515303,2,right
6.414,0.17395241645853857,1.5043845959425708,-0.6772737106276709,10.432302699790831,10.952448728721267,-4.5380942136455795,-0.9264984520616588,1.3928527565129458,0.4718402934244912,2,right
6.4239999999999995,-0.6641111145304535,0.5553461806681728,-0.22676355535900947,8.537916471190126,8.598810205247563,-3.6862299811849497,-0.938409819990542,1.4135390377791244,0.3642287750371242,2,right
6.446000000000001,-0.8862929179180221,0.3362163895426548,-0.11998428285731491,-0.5443761796459505,-1.5276606595696423,0.4640762830538121,-0.9563062263072056,1.265661319844697,0.7993750184641086,2,right
6.449,-0.6869189588041624,0.47973781749238,-0.2065289888985223,-2.793549968091768,-3.7045452530496528,1.4807559777922394,-1.0233786147060187,0.043489291168583244,2.5762898740376503,2,right
6.475,-0.8611812304702701,0.42455793864821983,-0.1482102576785796,-0.7722019255583443,-2.3181709785243756,0.6352742991986119,-1.0801191620007793,-0.12125808419617667,3.258118898008963,2,right
6.483,-0.7088930659103976,0.40074045173022926,-0.17989398603964807,-2.4254048439484386,-2.7171756866251524,1.235586404157499,-1.203438459478443,1.2017444788064087,3.6786100022584725,2,right
6.484,-0.19043937997538624,0.12002357190500734,-0.22734989890050616,-1.1774619882747832,-3.2069854333319823,0.8741240563397908,-1.2477550687062255,1.1032602697246077,4.0106387574892866,2,right
6.485,-0.08233630997389896,0.011876814747189057,-0.23009946580326446,3.0232907170885763,-6.554657325465428,0.3660452334279581,-1.2234506962463336,1.2007701977731995,3.9346367147268686,2,right
6.522,-0.16368800199440908,0.1278204289337795,-0.22868572078419952,3.4935018898984684,-7.748323360605304,0.3278697945501123,-1.3053999761396726,2.3583904024511417,4.733767725966716,2,right
6.524,-0.10982287688494058,0.017404869054889582,-0.23494004279307923,1.5042347818667863,-7.499575919456706,0.19629506589159462,-1.324459457891718,2.454377273593251,5.0134123653751805,2,right
6.537999999999999,-0.13759397325921838,0.11314938237420617,-0.22040098445618472,1.3497222897610954,-7.987645341517164,0.30622414527882147,-1.2873638364321704,2.3740421590645067,4.68063465788794,2,right
6.546,-0.15499904355268682,0.3913826110701941,-0.12431671272191484,1.7345907899776485,-8.034404046622956,0.16534858900455698,-1.338539593443276,2.448178309691618,4.993033731261163,2,right
6.561,-0.13129745946905852,0.4294183540303633,-0.0913218474195706,1.143567441201541,-7.538492382819596,0.30441000291449294,-1.3892654222867302,1.9526167423085556,5.655581943105185,2,right
6.564,-0.183208569866611,0.4310300101843466,-0.13230538695923533,-0.42681682238865326,-5.314081298756646,0.9774316938054428,-1.4471184227251093,2.0981169901178385,5.78443082480135,2,right
6.593999999999999,-0.10411555445559278,0.3932149319497346,-0.08601884137026167,-1.4912361349073726,-4.478469050855278,0.9934403652196497,-1.404265227303056,1.8948099701645145,5.77631508672856,2,right
6.617000000000001,-0.20239698295148847,0.45123929786375344,-0.13142059575308723,-0.14434057005231327,-5.231774494553078,1.0811473872595658,-1.2560938422526784,0.6835904352905507,6.468093337669613,2,right
6.617999999999999,-0.5908406900363334,0.6303214774560646,-0.24771887775801085,-1.7476441236120286,-4.627461862219777,0.8909237666683358,-1.2894716108850994,0.45135053299698324,6.683633415003759,2,right
6.619,-0.6760129602860688,0.6418925931326914,-0.25585653570008804,-6.974935491269834,-2.780227243823144,-0.7410061582603492,-1.2042945182398195,0.6373717939088428,6.364079770064395,2,right
6.642,-0.6234148910037656,0.6964100793905699,-0.28572986490941416,-8.71345863624903,-2.3032359263503555,-1.1061694491959182,-0.8562351366621793,0.3990114594994753,6.178118312147854,2,right
6.644,-0.63607293249651,0.5657523349381356,-0.21245475298326633,-9.03660879297506,-2.3500770280080276,-0.9057337298142948,-0.694262614531992,0.44700391116120897,5.661973840123148,2,right
6.672999999999999,-0.6614760559590569,0.7584962306303245,-0.323315324544436,-10.32740034378071,-1.3055870096330022,-1.5954213246315265,-0.860530496721438,0.463560578434013,6.221131202833572,2,right
6.6739999999999995,-0.9250889399378466,1.560467065909561,-0.8017155599139845,-9.366544016238926,-2.884659759731803,-0.6372117062491001,-0.721341023858318,0.38562615979638915,5.7202506046086885,2,right
6.684,-1.006009633265311,1.7565041138219146,-0.9317469031271559,-9.960233469107184,-0.7740836499587922,-1.870871486898738,-0.14203037190984952,0.14018151580117355,2.903732281260077,2,right
6.685,-0.9028325116253442,1.622431262437485,-0.8233876340983926,-13.57173050010222,7.092067672289279,-6.361166430344787,-0.140717044341364,-0.08255935266449513,2.920124806159764,2,right
6.72,-1.027827284287998,1.675150544021999,-0.8963338388751252,-13.345109553521915,9.57580559814794,-7.799161970365305,-0.06456153218906335,0.2254093139473288,2.5474400371305483,2,right
6.722,-0.8875469420919586,1.699135047527283,-0.8675803691860897,-13.919892170747424,7.37932759036094,-6.535588583334175,0.6108533423539659,0.3076183013881646,-0.8657723441827372,2,right
6.723,-1.0223393238647378,1.6226224673572323,-0.8444226832848902,-19.49186329424567,4.901346162093056,-5.833023812315135,0.7369758904258539,0.6991667041486,-1.6194467199795284,2,right
6.724,-1.638688363771848,1.317000865162432,-0.7881529327988481,-20.332530595473717,3.786035443660869,-5.391643765518661,0.6563946399395479,0.3978777525629231,-0.9371812306079269,2,right
6.76,-1.6519100039689758,1.2385982341651494,-0.6368299946746764,-19.448996013413346,4.39095479941202,-5.279952199709596,0.8493668571946014,-0.7970177179380091,-0.990841603819312,2,right
6.763,-1.7431512204865707,1.2784794394614045,-0.8536769940184098,-19.883714691035117,4.026201979257398,-5.480026785622703,0.9340637606942969,-0.5242452891996946,-0.7586347811840327,2,right
6.803,-1.5535779287114464,1.2828004095792194,-0.5914679524381138,-18.317164223373894,4.116292830488518,-4.348354326648054,0.7745049643402051,-1.1861288202037836,-0.7534852721574365,2,right
6.806,-0.4253290874756128,1.4940653668399082,0.2924420263716131,-20.618168396432804,4.046513083961478,-5.712201533468994,0.9753268789882767,-0.22992259724767283,-0.9345422155062416,2,right
6.807,-0.16058723425047725,1.5487129647062132,0.5082117358824001,-17.530338579923146,4.161377687346011,-4.473481110172907,1.6713359764408007,3.506303474977787,-1.2056578625325765,2,right
6.809,-0.398879075002382,1.49733163110881,0.39220163505875616,-7.395278010370457,6.360560082605341,6.097232704885748,1.8090083367047998,4.262461021674782,-1.4659345082771322,2,right
6.834,-0.20415591688693474,1.5310049279053335,0.380289380126423,-3.6832611479231807,6.503514883521007,6.043541511038647,1.7619718783377012,4.04735028146772,-1.3033313267366737,2,right
6.856,-0.3564075901236574,1.5232572940051585,0.5180788746364705,-0.6860358299695504,4.822490499101611,-4.778908771609419,1.7103428556331042,3.5748190563898596,-1.3020564174722746,2,right
6.858,-0.24091642101144986,1.5019568705067985,0.28716499964680026,1.7725008975777787,4.871606138744785,-5.984411924920592,1.2231076645345895,3.354672118044878,-2.6213609288108723,2,right
6.859,0.26088407444151834,1.412148843299502,-0.653621053434731,0.2714785401816021,4.880590324622217,-4.773591661758786,1.0408949658538127,1.8544155658473003,-2.281803706772002,2,right
6.886,0.29445781682959693,1.3353684604150238,-0.9021178368720656,0.8783758458520996,4.783538944352138,-5.674911808867858,0.9215611665176335,-3.280681477489299,0.20024615673089652,2,right
6.888,0.3114920711735765,1.433874890714131,-0.7172468730993566,1.2765039269416638,5.059146591281603,-4.561830442911418,0.7228818001631119,-4.4331696428662495,0.5046569081106008,2,right
6.892,0.24802082527813848,1.322671825384747,-0.8231547419114067,0.6604044002089495,4.596533278497146,-4.623248857550887,0.9100716148042443,-3.881497455100597,0.38604026511433115,2,right
6.897,-0.1885358492674186,0.9330002890100924,-0.7462151139470714,1.5918904152578013,5.309781405086014,-4.833199349981221,0.7399728431190549,-3.8137975539150775,0.29477613761402566,2,right
6.922999999999999,-0.2890840891263472,0.8384138689532878,-0.738341771229563,0.5221668077544583,4.387598886601705,-4.504749032158463,0.2139923481069271,-0.8375935773149179,-1.165864285553529,2,right
6.925,-0.20152096545149417,0.9066229525184168,-0.7651429285157645,-3.076840622726607,0.49441346332196856,-4.223759517483169,0.10927070618321738,-0.1834815750214378,-1.4393245452292422,2,right
6.97,-0.26464769812420263,0.8676081093814325,-0.7382573740286136,-3.9502264167833494,-0.43298575931376787,-3.9943121222493096,0.16293426974753647,-0.7227521677169042,-1.2457352756222957,2,right
6.995,-0.22906384421477796,0.8818196000376639,-0.7570854243621826,-2.5734526076480657,0.22067453818881,-4.016537505539832,0.16400405562396522,-0.4543598926141963,-1.288592531168471,2,right
6.997000000000001,-0.23809753560751346,0.8841796336186595,-0.7444831712862667,-2.2263342315885515,-0.1924340957119747,-3.815281815407693,0.11565971206181913,-0.43290577029650873,-1.4055334878890933,2,right
6.997999999999999,-0.2548198421322994,0.873750960766941,-0.759058597179179,-2.0632479399860673,0.0020683241453188783,-3.7687417558012823,0.08393901058194855,-0.4208030514049253,-1.7853591380752203,2,right
7.001,-0.21126547666949783,0.8857607412268014,-0.7329563950147814,-2.078169891669875,-0.013272548542896945,-3.8222720174254827,0.30806636380736935,-2.2336841800983964,-1.201641029996407,2,right
7.01,-0.28294140147084695,0.875909647690434,-0.7764176176971979,-2.1586332644909687,-0.09724661574151935,-3.8037949802697715,0.3812915515048002,-2.419790344359545,-0.9732115006758395,2,right
7.034,-0.1853280048507252,0.8822181370537705,-0.7170584492504976,-2.0157685658115296,0.02161653088703852,-3.7655813844078043,0.26277528337545264,-0.5457998203063428,-1.4398328076413511,2,right
7.047000000000001,-0.060525808819652006,0.8893197015691224,-0.4333282192018527,-2.203596402665339,-0.09265474541543318,-3.8542367578782324,0.28441763951809423,-0.46256166106885255,-1.3812929687227218,2,right
7.0489999999999995,-0.31085921797911753,0.8797402861452245,-0.36282666487010606,-1.9871496593254612,-0.0014275408488891445,-3.752642800060052,0.28471744932716864,-0.6159487361709817,-1.372848090596928,2,right
7.05,-0.42267552741792663,0.8804343136051106,-0.40699956481806665,-1.6312200651360445,0.008577829400614988,-3.6514653804834345,0.27001180655866464,-0.4490572356594548,-1.4167477591734219,2,right
7.077000000000001,-0.32469076702909744,0.8802532412720743,-0.3835205364270422,-1.473224657055203,0.02872634096813231,-3.736321307442761,0.2924480562182852,-0.5984664020320013,-1.365815902519795,2,right
7.077999999999999,-0.4101693317927932,0.8783001420447164,-0.38855236811014393,-1.5027634051977066,0.06304790606127288,-3.4461315530073637,0.3165643292100647,-0.60843356577438,-1.3753568374894463,2,right
7.079,-0.35232083783702706,0.9434867996108756,-0.3354896979057711,-1.6769222712482188,-0.044552085918782486,-3.97225286838863,0.3439178280316035,-0.735670313683687,-1.3541755584175346,2,right
7.08,-0.09646697663757393,1.0349547384671132,-0.2940256021758024,-1.2465630714714584,0.15060062783792547,-3.247171741988015,0.3159065413629496,-0.5923135631750212,-1.359789142178382,2,right
7.08,-0.02475140157444712,1.0460850384370635,-0.304203684955427,-1.502703824760577,0.1801082292290851,-0.3453658221178857,0.34338214194779504,-0.7585987915075679,-1.3601764594113728,2,right
7.114,-0.09350122341824599,1.033194123466203,-0.2983184968294047,-0.635585670744592,0.5186938913969119,0.4265605737163094,0.4390022714834284,-1.5305672636097354,-1.296951883713242,2,right
7.115,-0.029108310726040983,1.047642171464076,-0.2996672512807086,2.4684550975843482,1.5921166724217808,0.13875833507473745,0.45676574947215937,-1.697255471251527,-1.2694108860917765,2,right
7.115,0.14290320388508376,1.0510901726340323,-0.3409408594034673,3.2484836805438677,1.8889277150018398,0.5255543513558709,0.448549849690234,-1.563819574865486,-1.328020362546558,2,right
7.1160000000000005,0.18234555937335756,1.020676589436483,-0.3902865794797684,2.719939745427705,1.6867371260434414,0.3511267977460249,0.44640432746538034,-1.6532867963153661,-1.236082106581521,2,right
7.1339999999999995,0.14253709550785137,0.997300678583607,-0.3869263534560474,2.9520150661167195,1.7757831507880117,0.365823698950842,0.45702750426248007,-1.605693167160528,-1.3511756616381367,2,right
7.152,0.17308334901964192,1.0242322330029676,-0.3963432565692857,2.97904188569008,1.7912078156432187,0.4424945898504386,0.511956613242456,-1.5221900447274115,-1.7561964713966203,2,right
7.154,0.1509332510375913,0.9960593898528557,-0.3814267822521542,3.544721037294229,1.9199244677179514,0.35700318098111883,0.52669187087546,-1.5222299603712812,-1.8403509296304983,2,right
7.155,0.08482407172361836,1.0204179220927974,-0.298534609771293,3.7978203089714846,2.046920139219515,0.44495602450088945,0.5162391198038363,-1.5206901534761401,-1.814946081360134,2,right
7.156000000000001,0.08985100771642214,1.1865991609713378,-0.2640527917532702,3.5796564356229963,1.930568913664277,0.40347103542953916,0.5203249538763748,-1.510265456269433,-1.766083952064492,2,right
7.251,0.08572435969633924,1.1848085141493123,-0.27160617083024663,3.7003109733753963,1.9854566528874438,0.38397775902718495,0.5227005548374222,-1.542805037632011,-1.8875920807327713,2,right
7.252999999999999,0.0970797567010291,1.2017199187825023,-0.27291917465770055,3.7068484100390857,2.0460506452165754,0.46720483301698323,0.5452003493925246,-1.6530342255579267,-2.4503379827294087,2,right
7.254,0.13309696218266848,1.467124929985265,-0.18432597140377954,3.571055482128237,1.8178970222473398,0.32905447648851927,0.5558770965355234,-1.7384362622101721,-2.6586090203390986,2,right
7.255,0.11314604454843061,1.6175116043979787,-0.07492054893988706,3.8163955282693376,2.25383456544004,0.5011169775862604,0.5439164303888966,-1.6376491530498112,-2.4436038470224117,2,right
7.255,0.11365662739198748,1.6133456493935592,-0.0699246235726729,4.567134621678344,3.8016596720961338,1.2050809700965934,0.5555949771385643,-1.7331350798169431,-2.645254543758147,2,right
7.257000000000001,0.09792839767653477,1.5922523122130197,-0.062421669147743664,4.916276410845265,4.680548369314685,1.3564591300952518,0.5854378436724172,-1.973258074196449,-3.1631387284989136,2,right
7.257000000000001,0.040466206359143955,1.6139399364486269,-0.18507311430252546,4.582871827173864,3.6301704373832684,1.243992287757302,0.593208637777126,-1.964146760929895,-3.2940902818359508,2,right
7.257999999999999,0.08232854347145419,1.8290179311970467,-0.4010241414655531,4.855976831013452,4.759077295031251,1.3246829256681578,0.588150723834336,-2.0663399326038734,-3.2085766534933304,2,right
7.2589999999999995,0.1430055622420776,1.9485450119030436,-0.4370090925292644,5.644503317434418,8.720124160430636,1.331232231473992,0.5907647810681156,-1.8701557404432296,-3.2528026110768886,2,right
7.26,0.07434038158557668,1.7945640167131764,-0.41114513094712957,5.686259001862619,9.584373983025712,1.4264358248542535,0.5899182593915451,-2.1297703790143183,-3.2405047267219884,2,right
7.275,0.14447162606362832,1.978273714988962,-0.4157290232013271,5.771035665624735,9.01319568498419,1.2930937712981843,0.5897583145495066,-3.313376256278607,-3.2897762587618047,2,right
7.278,0.5511573852476759,2.347211174730722,-0.4905040251520232,5.609197614578551,9.300139128439675,1.4522206113946745,0.5903520912975095,-3.526096277717196,-3.3198122658581957,2,right
7.279,0.8595638846037885,2.187188965083486,-0.7219317979579605,5.753763030843281,9.200533922774792,1.317139149831223,0.5895878664418456,-3.401047687837921,-3.2676458149793417,2,right
7.28,0.8319936109265693,2.006337657933697,-0.8153925183017872,6.968857732503361,9.877267280964517,0.7374732909728001,0.5905182433014549,-3.452044325573321,-3.348504052598133,2,right
7.31,0.8348126189048384,2.156159437088957,-0.6899754473577528,6.775542225754556,9.77827780614315,0.896646315260667,0.5893588998425022,-3.413009026512391,-3.2342952823885174,2,right
7.311,0.8597811180020729,2.042519443697335,-0.8372662357801106,7.161318841102902,9.947286995299145,0.5013923570547609,0.5905980068610258,-3.601236530798836,-2.849307881391111,2,right
7.312,0.5655780191889717,1.639072599606902,-0.8290121978991534,6.730824445731727,9.80351111462404,1.0997218384296343,0.5899368840525339,-3.3174028819509527,-2.685740342936879,2,right
7.313,0.21617317751467596,1.457358171630525,-0.41749251031535717,6.946363558474742,9.739743380776627,0.42661496991058995,0.5886145851085505,-3.8091768004235824,-2.8452871117534926,2,right
7.314,0.11818725075360967,1.470535409593836,-0.36029435146435207,13.857724684875981,14.265469716232548,-4.523593014362934,0.5942023468901978,-3.1411927378567164,-2.723671730721529,2,right
7.356,0.2193218818865695,1.4755696274383836,-0.3379427753429325,12.968205965990961,13.348916897371025,-4.809025103870991,0.6412110291428244,-0.22927081372858382,-2.6322414030268955,2,right
7.358,0.13112608779718404,1.464032701838001,-0.43351333234477146,2.8509307534894415,5.794380588799829,-0.9451980910320943,0.6652343772040583,0.43771426044106704,-2.726316599303777,2,right
7.359,-0.6159032845067688,1.1131884316149718,-0.5477350133219838,1.2727638020063812,4.474713722600864,-0.6727092037731085,0.6272376135796542,-0.0413740524812611,-2.4626106720562806,2,right
7.36,-1.202022868240189,0.6493482758253319,-0.06394589150474772,2.683232952809944,5.561290500624169,-1.0223109187037351,0.6792271716702628,0.19949657874982468,-2.8955604165547073,2,right
7.379,-1.180528553137266,0.6500661525945097,0.005447523603250223,1.6723529308009581,4.903103410893356,-0.7469469559717838,0.6185540721707059,0.17615731292443562,-2.352415849062843,2,right
7.388999999999999,-1.2083335099952561,0.6497586344947245,0.017908943174646353,2.2244768520190314,5.092108389288329,-0.8597600088832354,0.39677240831011545,0.6889021600272893,-0.327687583766759,2,right
7.39,-0.8557055413696746,0.29890280386737395,0.40975140151144834,2.058623251154606,5.268773061465117,-0.9151564914096606,0.3550077293647353,0.8883975140362372,0.05455782568208595,2,right
7.391,-0.20000893673582726,0.04493037090936449,0.23281601472527555,1.9674565095899836,4.938132943498088,-0.7640460248146186,0.36893538818618793,0.6778850459060821,-0.05613256125697381,2,right
7.391,-0.09016013135588108,0.029333713743867923,0.09353170188392364,2.103560871000104,5.125300143921595,-0.5603395478697395,0.3865507002387363,0.8680743475998857,-0.26082076395864423,2,right
7.43,-0.21200990343418102,0.0571231757937386,0.20842178889493518,1.824005738704808,5.33426879692471,-0.6335922206180905,0.3436404163247532,0.7022607001297059,0.20835495502029214,2,right
7.434,-0.09270536238169039,0.01701817016071104,0.13297023764206253,2.1178988359136977,4.46953946791133,-0.2382567179656932,0.15697622575226824,0.10764788701247036,2.4936960859555706,2,right
7.436,0.1525873196375606,0.00689122465250196,0.048393277015603336,1.825934682200344,6.091086382380488,-1.0139394115354692,0.11213713816924911,-0.06121033102267599,3.075310519611561,2,right
7.437,0.23478162735927172,0.112017313256045,-0.05544757889606495,2.0987135689887975,3.8245900800891026,0.08625013227848582,0.1315272509432837,0.14806747187774877,2.6465154279399954,2,right
7.439,0.17781167690054983,0.16636410186467082,-0.07162714101867755,3.8435635710422345,-3.7639213259338242,4.240657182512209,0.1477096692664025,-0.12118691284409999,2.858787147699824,2,right
7.474,0.21176039895140739,0.11709566172905234,-0.0456850658620723,4.6525330596883805,-3.8576030553157654,4.747476240074204,0.09460422258419604,0.20707575730035627,2.858339861955638,2,right
7.475,0.1955085881001814,0.15874664716691173,-0.07423683250347986,4.587079154879416,-1.9143921423396806,3.819341340076124,-0.17145276625701694,1.467634075037072,3.4266031006039945,2,right
7.476,-0.08920865411778049,0.4546923185216709,0.10198314084860888,4.5953782871180655,-3.1560303393237046,4.397411996198269,-0.27645463869400133,1.8118489437071736,3.6875034405960045,2,right
7.477,-0.39073940741198915,0.7141064709736018,0.34268651482418466,4.58881105775619,-2.5957288961564333,4.155040424166527,-0.16018959196786955,1.5302724982213902,3.37947317615985,2,right
7.507999999999999,-0.38677669415611027,0.6844839238122602,0.35053110577198543,4.660482510540531,-2.6367870110250164,4.146646520163108,-0.2790964794944174,1.714205787064564,3.7025344065538484,2,right
