time,gFx,gFy,gFz,ax,ay,az,wx,wy,wz,subject_number,foot
2.23,0.6962981299607272,0.6452112507169676,-0.3016464034710423,14.28549953424455,0.8299284229689764,-4.198323902503706,0.29595106014519096,0.2611045308471127,-0.5970354214548322,2,left
2.231,0.4986195742746877,0.8867871935610706,-0.19603677365681335,11.078950029172296,-0.010025915033236604,-2.926919807764116,0.41832523767614416,0.10753773402167745,-0.13119764900661143,2,left
2.233,0.44368469739760974,1.177178041012723,-0.4570032956036414,10.715817757874188,-0.4393427893626041,-2.9228524835588354,0.31961153258225106,0.1900974420996598,-0.32882499897985284,2,left
2.245,0.058674070047821214,1.5482651610959142,-0.03427873494415293,10.422155711710936,0.2734382926820797,-2.4881609993206295,0.37599168009390005,0.199082718994814,-0.44756286955949665,2,left
2.247,-1.1301902598165314,2.43303895432489,1.2280955467970285,11.479984257373179,-0.7340141093971589,-3.4084652188929754,0.37066441172691905,0.09392996917762646,-0.07308232508920304,2,left
2.248,-1.3897323706912883,2.6859894400701796,1.9415601396060178,9.781262199550007,0.4865834269726442,-2.111042113310541,0.4326104090377929,-0.3874348279663349,2.0020952624013337,2,left
2.249,-1.3234636950950147,2.565409349944316,1.1608011735767834,1.8713086676542525,5.519275722739008,3.7509293776002015,0.5327648317668394,-0.6319197528823712,2.423896996421724,2,left
2.265,-1.5722138883659444,1.7572558867154164,-1.1496724407804888,-0.04211273524792425,6.602966273130379,5.021464454232522,0.3855740098023239,-0.3726492180987052,2.201228276273566,2,left
2.286,-0.9034464052576464,0.35666249714255877,-1.9018875223469032,1.4557896120444616,5.8411404887707175,4.106143457660452,0.5687809532985779,-0.5897779281158432,2.166864925566636,2,left
2.289,-0.28542851565515154,0.2571389457345891,-1.1673060261405928,0.4991681219296973,6.261920486137619,4.6478813949414715,1.2965119117029118,-0.730007529173959,0.499499565159222,2,left
2.291,-1.0439522398313377,0.3046585938735107,-1.8961529952351643,0.8848981786101374,6.021120282970236,4.676135019905142,1.500297029908602,-0.6263569166023795,0.04905425492654139,2,left
2.311,-0.248948340909518,0.3348830259557347,-1.1670556945844752,0.7265863287641614,6.170891654880747,5.0736225594025495,1.3061065362196302,-1.005833803564318,0.6142748347863678,2,left
2.312,2.296334621220235,1.0843068424078572,0.7553417398070176,0.7359722174762326,5.870478863826683,4.3306084097529265,1.4871854100300084,-0.33069469095085396,-0.015381956167378558,2,left
2.331,2.4158771221162,1.2000126326106448,0.2178524060778959,0.7734580104790382,6.443138891326223,5.587223642733768,1.3215332804188442,-1.231042624099678,0.6288171104905703,2,left
2.333,2.268514352977984,1.1263779013914266,-0.13647389703594232,0.698730885497739,5.59510687928943,3.846290827389193,0.7836806251323295,-4.246537928320465,2.5563838945942785,2,left
2.335,2.125156774957121,1.1401849327284999,-0.02730268434524917,2.2000996829512074,1.6324453225346236,-3.9003359636545003,0.6788956191041571,-5.019644500151874,3.017177658491806,2,left
2.344,0.0457199643610553,0.8961871600209069,-1.0670206989592765,1.8649726736354313,0.645786122230198,-5.810597998591625,0.7336290604108413,-4.6569259946182715,2.758575660069336,2,left
2.365,-0.2995914368837953,0.8137978526852312,-1.3257963124798526,2.3710834299413195,1.449441775169005,-4.272167781295675,0.7325454850110544,-4.45898363672163,2.777779386511594,2,left
2.366,-0.05216525399895432,0.8976361562153641,-1.002273386934643,5.347663593402351,1.2561347306405737,-4.511996275028725,0.6896477748936726,-5.239699013771112,2.990110980591678,2,left
2.367,-0.62424494731227,1.3044729837732447,-0.8799809085672885,5.882912104597245,1.5155753353416834,-3.9643673266650414,0.7539862418802863,-4.000481480050243,2.598346327908719,2,left
2.367,-0.6372175669108346,1.3104854867257936,-0.6142876141475628,5.543768735679829,1.47467323988325,-4.162304002352113,1.0188524121095723,0.9463998499548252,1.1453889163121493,2,left
2.3890000000000002,-1.2852341880976577,0.8259910690620071,-0.31660116520542614,5.620978585088168,1.3781908937981044,-4.152559188989045,1.0349358054235642,2.325782937705078,0.6562112681311915,2,left
2.417,-1.298887610277181,0.7724562580897358,-0.198278159150802,5.3788170628908025,1.5299207843626323,-3.8608977370289903,1.0763180728236499,1.2546724478790474,1.0701603447348664,2,left
2.419,-0.5377063135635507,0.6957250652181615,-0.33655459979199054,5.141989351830043,1.3943144986667173,-3.916323696553806,0.9779228715579483,1.8949108532951042,0.7804599015750858,2,left
2.419,-0.38610447018222754,0.6822912771388652,-0.3178593790784775,5.259717781095276,1.4550420343543973,-3.842726699389954,0.434343727782202,2.0165678003716287,0.3633405167685117,2,left
2.424,-0.049138507820978145,1.011334989241964,-0.21580795785503631,5.49580972345461,1.515950307928202,-3.998660769888195,0.2887603190730655,1.8403281816941672,0.36901536040142113,2,left
2.426,0.1642392130059184,1.0589639193159828,-0.22652268911142956,4.708032136335392,1.3024541552322457,-3.6850266379421366,0.41657950112540504,2.277637258242288,0.23285847183008246,2,left
2.443,0.14328176511673366,0.9970498347949559,-0.2118594346576958,6.133180544403544,1.673465086645181,-4.198413006049927,0.32375062297043633,1.7187086009394255,0.4605890058165031,2,left
2.445,0.29502780765948805,1.062507812932872,-0.23050986202779747,4.155932776388241,1.1764731097619743,-3.5113141510102626,0.24517459234417208,-0.007589722279003508,1.3862214360318477,2,left
2.4459999999999997,0.18525797587104126,1.0006344581622195,-0.206750574928257,-4.552714381821113,-0.8960694723074031,-0.4739956808591528,0.23334821622275637,-0.3902725717823594,1.6305811147321774,2,left
2.4619999999999997,-0.06200704560436903,0.8944502340873268,-0.22484865774012408,-6.827762907678566,-1.4375226454965244,0.23115192619942354,0.21281764164122147,-0.23030273004420346,1.44685234324248,2,left
2.492,-0.14500123618366903,0.9114856214026807,-0.35606659843777155,-4.797193794650845,-0.9683031754204011,-0.30619362123990596,0.2551418580461631,-0.16794210477931706,1.5554316020518484,2,left
2.494,-0.12458145387593071,0.942636475562757,-0.3804079613878431,-6.4837514717024245,-1.3448414085803613,0.015758119665420428,0.41269867986716696,0.9394245820598429,1.5227523002535577,2,left
2.497,-0.1286864782853322,0.9220799454021609,-0.36441015808995836,-5.139129278890936,-1.0543719809308123,-0.10804855651726221,0.4652030877877854,1.232017510233082,1.5223107087342984,2,left
2.499,-0.13569741849629252,0.9349429467833977,-0.37132358561099144,-1.148370502735448,-0.19369494892416836,-0.04470991815845725,0.4188211598573306,0.9507698089457791,1.54071955966418,2,left
2.502,0.057696500567890247,0.9563597083168284,-0.3110698637514618,-0.42294444902085226,-0.03329817858128503,0.04430975160508671,0.457026068967737,1.1703518621760176,1.5239130528693905,2,left
2.522,0.3030826430731277,0.9436029970501182,-0.2687192635295734,-0.8529419097664923,-0.1445167378237743,-0.06051915304892333,0.4267686613083801,1.0308114759380165,1.5287940574688266,2,left
2.524,0.3136708312835417,0.9356325290774119,-0.26983538844158733,-0.6899351903336772,-0.07194485642020895,0.02495252720667234,0.3293757836414912,0.8525117163221041,1.4570509841062038,2,left
2.525,0.3104762640654243,0.945461568227638,-0.27234529392402507,-1.2365874437976674,-0.01695508982861619,0.05282638772158402,0.31487508946592135,0.8574737119066922,1.4408793077038657,2,left
2.542,0.4263890028065157,0.9436566966678415,-0.26573880270848815,-1.4495748601327934,0.00905312488927085,0.07334719667209556,0.3208000700195443,0.8004085761377211,1.456846158909578,2,left
2.543,0.43476602283098387,0.9564744528381967,-0.2750362284365318,-1.124968290799675,-0.0010750783020030315,0.0735894846623876,0.32276993145253197,0.8916755933622365,1.4492044660900425,2,left
2.562,0.37584515520299633,1.0044180680689512,-0.31582085788424547,-1.5221807411726178,-0.0104077317751764,0.06677489168698646,0.31528533219587007,0.7891748619878154,1.4420393656816537,2,left
2.565,0.3824649223340988,1.0138875103160228,-0.32181205819921116,-1.0937704661353584,0.027935239649184707,0.06683759486268964,0.2745667995837407,0.4057942683543411,1.3881743106321085,2,left
2.5669999999999997,0.37970086434454686,1.007990953892493,-0.3213939608014429,0.45798458849188256,0.13788608919213716,0.013384189086268795,0.2674650988764641,0.36019729134113826,1.341635838335553,2,left
2.59,0.3082335130096391,1.050571334275622,-0.33538866341161944,0.7939663287531615,0.2705520392026091,-0.02479095984985844,0.2694339488658603,0.3509023084033287,1.4064966144466238,2,left
2.603,0.25301360796288874,1.0900651801320314,-0.30728659343744413,0.5621880163566454,0.08300335032208363,0.034347642912673275,0.2737268662290857,0.4110459728736914,1.3299144195157262,2,left
2.6039999999999996,0.2472054893346321,1.090261899593962,-0.29073172859543306,0.6924940914963515,0.3123475324460896,-0.038954022929510966,0.32375325719321546,0.8210256802311867,1.047412657865352,2,left
2.605,0.2509507364535387,1.0883311948739187,-0.3105507070494568,0.6590621290168287,1.1808352139887972,-0.3132956502819047,0.337991780735314,0.9119051047328519,0.9809617938608605,2,left
2.6069999999999998,0.25191157356551597,1.094190795647592,-0.28905899567088833,0.7054861975109874,1.3968775538310074,-0.3783295061294675,0.32080058216911095,0.8452543620435093,1.0277718146393333,2,left
2.6239999999999997,0.10554741396424067,1.0623379157934725,-0.28008809289364034,0.6326217335485946,1.2378101247864446,-0.3328974783911072,0.3400084437053869,0.8751202046257431,1.0030680939486531,2,left
2.641,-0.10475862309439807,0.991746455728465,-0.3420634939624005,0.7487726286627603,1.3244171417626323,-0.3570778088190115,0.3197936401943358,0.880115740496739,1.0085178549576166,2,left
2.645,-0.11387661973813061,0.9639593908407311,-0.35511430213308925,0.6126325648580623,1.309075805195027,-0.3487455113262179,0.24946612216793698,1.002941707649817,0.9376023599204084,2,left
2.647,-0.10858399527665706,0.9999642663645306,-0.34727805314011007,0.26394791946443125,1.355848635987724,-0.3606817006212737,0.2322288233921384,1.035461740601055,0.9165964014932109,2,left
2.661,-0.20945040053923228,1.0074560754728652,-0.4016280777982877,0.3087182837382702,1.4386083973631822,-0.35563353716041585,0.2455010965083431,1.0119764416939971,0.9514806438266328,2,left
2.6630000000000003,-0.21112604043439012,1.0525784137612253,-0.39804015529771236,0.040703552303283375,1.339933121217681,-0.36966195413218006,0.2368777131020267,1.0187471718401682,0.896553248787448,2,left
2.694,-0.14962732952341723,1.1806648654821872,-0.33327373760832224,0.5772002236356286,1.4247641828944912,-0.3469576293365447,0.24090318137666544,1.028724927349026,0.9789863634862268,2,left
2.697,-0.14871085669857526,1.2132183347933392,-0.32490157762933913,-0.20155156715963293,1.391268452579986,-0.3713445547560811,0.2510825540515772,1.1276824831373895,1.2638454438148918,2,left
2.697,-0.15353488293103776,1.1943267877310086,-0.33715035604360427,-3.559088209396969,1.2115472714413118,-0.5465771207012593,0.24722996475155945,1.152036728498603,1.4120211454502156,2,left
2.7,-0.12394508443031368,1.2383855493195397,-0.2909026304530111,-4.491461781144228,1.39911791688748,-0.5414096785782239,0.2539538119008816,1.130461666335621,1.237625913571116,2,left
2.7289999999999996,-0.09832022068733792,1.257376930194842,-0.2303889561941201,-3.665232199463186,1.0744535395821737,-0.5697129034340318,0.2456809068777814,1.1470153391514177,1.4216066871492106,2,left
2.7310000000000003,-0.0804436418179715,1.2392252320439265,-0.20958362225574276,-4.317852921297147,1.504460614130597,-0.5252876153126039,0.21366357421378548,1.1538550989948906,2.004782283917394,2,left
2.7319999999999998,-0.09892046653439864,1.2610950928820317,-0.22873175874662932,-5.121982392665534,3.331065050720447,-0.1319000014875299,0.20785116017124372,1.167486532551524,2.123773990074122,2,left
2.734,-0.08410701041081783,1.242243596813688,-0.2147844845736539,-5.382171483231636,3.740238775370862,-0.09425301083806004,0.21035360586318777,1.149748724959297,2.0758674310800114,2,left
2.74,0.07912369487156429,1.190894651695015,-0.12038327838279315,-5.308041529998832,3.451877379936353,-0.12582595411921138,0.21091073356396672,1.1724045790417392,2.046736225502375,2,left
2.76,0.20544839023216627,1.2478114487145862,-0.0743678110398801,-5.20761128791981,3.599207980113184,-0.0778968358024768,0.20912927035504786,1.1487213026644834,2.1386212966971008,2,left
2.763,0.21827203411827772,1.2250909210740761,-0.06293492493124228,-5.4691218458496875,3.5657496551041943,-0.17918432809184154,0.20905248039569213,1.074784868621943,2.6232344011040287,2,left
2.765,0.20131887773089713,1.2562475929496526,-0.07601368156329705,-5.947248638025133,3.981472916325608,-0.10806594775590231,0.21445762424704745,1.0771466147988416,2.749411353565014,2,left
2.785,0.14538682963027025,1.4707973569432848,-0.15923889409628336,-6.453119303533365,4.003374289953575,-0.4038475991291605,0.20122085852018773,1.0483887754926002,2.6462102993426293,2,left
2.787,0.14061838944097932,1.474671830763501,-0.152693021291537,-5.903950517632888,4.029437983025378,-0.03004953145068913,0.22215969761604865,1.102739945044259,2.7183249155125533,2,left
2.827,0.13270200442244148,1.5028973528397382,-0.17524813932526212,-4.757863220099791,5.226179963488627,0.9943386726643305,0.19773324687469393,1.0371206923289384,2.6712532662697166,2,left
2.8289999999999997,0.1024099074557044,1.6923083061360353,-0.26015667498795036,-4.406525264859438,5.43380264685088,1.2583551145309553,0.21707986856311798,1.0852929860242044,2.706756399990691,2,left
2.83,0.07545529629842918,1.7752117449342317,-0.2992401278992981,-4.502055828795216,5.082303134461096,1.225313117015197,0.38368120307979525,1.5217831664392438,2.8290842717789912,2,left
2.8310000000000004,-0.20623457836693984,1.7862408786856139,-0.5360499171011142,-4.732533986372053,5.62344743185696,0.9413760708794353,0.36252033182953614,1.4279280128678413,2.8783918276642098,2,left
2.839,-0.5509974363168327,1.6846476221624238,-0.7963602185505257,-4.165821339708941,4.872377459125792,1.558497491878754,0.40962913334513373,1.6230869185268266,2.813591676649888,2,left
2.842,-0.5336992470043951,1.628352554341888,-0.7910172062455116,-5.002124429494128,5.790219290821877,0.683537844216024,0.7340767800919983,2.8664711347775946,2.573200012110634,2,left
2.843,-0.538114369912396,1.6597372165180477,-0.7831337504036461,-8.39206504662959,9.622122308712337,-2.999465496088829,0.8052007465056484,3.2196954948070693,2.4816743475493994,2,left
2.845,-0.554858375610635,1.646444047396613,-0.8006772355971278,-9.331359920496872,10.488804975150636,-3.895674034810929,0.7405373937090294,2.8268374507662797,2.5817169659835155,2,left
2.858,0.19078794954849088,1.5061892221842703,-0.5785016149015283,-8.56380958362967,9.84567775493735,-3.2187696012800213,0.7917506074674058,3.232037622221734,2.477873989497643,2,left
2.878,1.0951828751018486,1.3018921036989153,-0.357696228992865,-9.067974313459063,10.216023437995982,-3.62593458184178,0.7558858184708142,2.853263119247962,2.5772164634126917,2,left
2.8810000000000002,1.1928780701296484,1.3561296402920688,-0.35171521361401226,-8.88396184268774,10.098447443400257,-3.456643724670443,0.6971191172691189,1.6966349198813313,3.0436547861796424,2,left
2.883,1.0855641495516077,1.2663261183314773,-0.33439816907135483,-9.433739883590114,10.754359827361245,-3.662294226255825,0.6894917239388113,1.5579753107202596,3.1037575608032495,2,left
2.912,1.2409605361881346,0.9534095056648482,-0.3605694900845179,-10.065068153399316,11.002430255736176,-3.7499065518842514,0.6840086432717036,1.490507222835442,3.0614050040539786,2,left
2.917,1.146606629106993,0.8290603197752573,-0.28776520891845725,-8.93788685271176,10.587938971332132,-3.602877807441582,0.7022458144512029,1.7666133727693314,3.1111360913862827,2,left
2.917,0.78234128011033,0.6369263708436601,0.02270482290824309,-10.53857464928744,11.207426805700784,-3.822476784474225,0.6722878477414216,1.3444223679801652,3.011975116065826,2,left
2.918,0.7301252164174832,0.5634557458175001,0.11514066652193111,-8.63214107329091,10.337176426146977,-3.4805846997418453,0.5617860639763514,-0.6238256978205052,2.778696452477232,2,left
2.9189999999999996,0.7595322662466077,0.5968732673054655,0.03251555718790244,-0.7755104436282492,7.270064962984447,-2.4581724429734457,0.515856195723998,-0.9750276967057563,2.4471079261993585,2,left
2.948,0.436055945413517,0.4663915902104369,0.14650726718479046,0.7333171530631958,5.871541262705532,-1.6953010506241728,0.5645776721328937,-0.8153490416092269,2.919445317311441,2,left
2.958,0.18299020199480406,0.46881371642131586,0.306196401563814,-0.12403093277980362,7.463166645501095,-2.6987143209958955,0.51738842084849,-0.7671635020110021,2.349683795559708,2,left
2.9589999999999996,0.17549090888013327,0.489198770938843,0.32089755244167817,0.029719815976169184,5.798898205137527,-1.5217361483541418,0.38774056220207087,0.4440784492433028,0.20365611514973359,2,left
2.96,0.1861256279135427,0.47572108024885684,0.33010831283619435,-3.178661971915837,0.2582613688007076,2.938877954452935,0.35979082801867046,0.6960180257845024,-0.2587293688730643,2,left
2.963,0.1737952708530093,0.48033752098470744,0.3030916496891184,-3.8481423362464895,-1.0088830440330536,4.010154444081493,0.37133830970643256,0.48351843610467987,-0.0015205676815384095,2,left
2.9760000000000004,0.17398269936106825,0.36035568743640434,0.1681100717571653,-3.1511631290594364,-0.15153719230469959,3.205908087684336,0.3769482936115232,0.6018216466301618,-0.017724370958940742,2,left
3.0010000000000003,0.22033826555272845,0.3020933364092132,0.13587813591153527,-3.7255640195283375,-0.6037281900737005,3.7018439886976022,0.3571035591739558,0.5839739065765743,-0.2122694557128772,2,left
3.003,0.21444344773027166,0.29429591194576266,0.15702171373133106,-3.3097902001560287,-0.44017663989582795,3.4727902030288598,0.25560941033274,0.8052003631666953,-1.4945629473494628,2,left
3.0039999999999996,0.2299487209049081,0.30795386867469987,0.15048121886859117,-3.22762191494886,-0.9754308136222812,3.261040342574427,0.224626079445727,0.8654137205796766,-1.8654978729079101,2,left
3.0389999999999997,0.3577128122859957,0.41281537396340956,0.18385842852643053,-2.9848304542945874,-0.8950829126373113,3.303371814604876,0.25326074492673345,0.8489663337428395,-1.520069533121606,2,left
3.04,0.3826598946337342,0.42345623756933143,0.19873733496144358,-3.2121240072944977,-1.0930760537017004,3.2388398493325687,0.2297849088877079,0.7848144824209952,-1.8067185002491484,2,left
3.0410000000000004,0.35776564957363005,0.4216313043505473,0.18189525933459433,-4.245827628544651,-2.932389243153832,3.3483188007979336,0.2464324185969291,0.9356485769726094,-1.5858428976390835,2,left
3.042,0.4221322107114393,0.5039727786045153,0.14494773667459684,-4.387553364728478,-3.287828836744666,3.3229551517946208,0.23848241395952463,0.726581936391699,-1.7402513928880627,2,left
3.043,0.3974353583489566,0.5183058845961296,0.13939419106182033,-4.364102386337861,-2.9724101722653136,3.333788337866645,0.15526990414430797,-0.3503627439800969,-2.649605899698432,2,left
3.055,0.3130604477080195,0.4720480737192023,0.12665116997154865,-4.238184962140856,-3.184156391165527,3.3206023245004896,0.17157932909740245,-0.5093970823218792,-2.646197890273452,2,left
3.075,0.3466178928020458,0.4450622558501242,0.05575841570697052,-4.4982156212404885,-3.1043092888068538,3.3505237697436305,0.14248048500215663,-0.4406295803174874,-2.7330410119482433,2,left
3.0780000000000003,0.37398234444625333,0.4398782272210101,0.04359381341095275,-4.171991944847363,-3.0552929081884246,3.2981775196756735,-0.05854721662865854,-1.1573009522591522,-3.7021783294575603,2,left
3.08,0.34451026418392494,0.4340168887578013,0.05595562259925698,-2.252328249381172,-2.9494192856421533,3.00872526237075,-0.10377103776899671,-1.247807600434549,-3.886662915198036,2,left
3.0839999999999996,0.3778667405140733,0.4519740831323588,0.04464688247518672,-2.090388806804012,-2.7256083943806777,2.9303425653003936,-0.05407162484911025,-1.1227285849816904,-3.693651343406582,2,left
3.102,0.42992520780623367,0.48362875221543944,0.04518431931275969,-2.090339158142622,-2.977439468653148,3.0062084614189484,-0.10872730368050615,-1.257241024218089,-3.8848158330470985,2,left
3.13,0.4703414645058484,0.5178189624897915,0.03468733972717946,-0.5949081777258153,-3.601115896076152,3.0684650958880604,-0.04903478468376577,-1.127600912030628,-3.6957682121954654,2,left
3.1319999999999997,0.4533290287005113,0.5445514204762232,0.07485334099438792,-0.4722449156553379,-3.7837658220147747,3.1286415460845323,-0.10976095039980088,-1.2433007675815682,-3.87986603976202,2,left
3.1319999999999997,0.4775772261971549,0.5692553610366237,0.06739668172394324,-0.4887825696396494,-3.6779268052247387,3.0706344874412035,-0.36737336954945743,-1.5720414175515902,-4.594969779362712,2,left
3.134,0.6067837516370261,0.6395393178764495,-0.04200095516096242,-0.6521570332683213,-3.7061836976236124,3.134290671621561,-0.39985906184744974,-1.625381343203928,-4.717697711900273,2,left
3.1430000000000002,0.576384659723177,0.6315914126250488,-0.03204161683302585,-0.29583387671564865,-3.7315376574386594,3.055757418403649,-0.39477295500372295,-1.6221550981810142,-4.656994270118596,2,left
3.155,0.63782032704199,0.6541674006527438,-0.05281196324197099,2.574987999718887,-3.4402870426345262,2.3230957391805456,-0.3744431905374022,-1.5707140336005445,-4.650442071934014,2,left
3.157,0.8758623697149088,0.7755835455304576,-0.18596364273515686,3.2305918719906423,-3.409731837788417,2.1614543020376438,-0.40752487521480596,-1.6692866782001166,-4.710910045304013,2,left
3.157,0.9597895200552212,0.799042982451893,-0.2106675910893647,2.419436236938291,-3.5794128736395443,2.416878542527341,-0.7007156847106784,-2.043418000043925,-5.123520398338556,2,left
3.175,1.0942828400295173,0.9893979816826738,-0.28614575887233185,3.446180618389206,-3.2054556169839605,2.0264796145319837,-0.7046869398553155,-2.168885113481194,-5.20827463492922,2,left
3.208,1.2557987150286831,1.2829126448459374,-0.4259869444624318,2.1635374755520482,-3.8052397952214703,2.56720938069318,-0.7284525501024564,-2.072755612706673,-5.1466561998943785,2,left
3.213,1.2649162100463491,1.301292116807123,-0.44072308103614766,3.6457645285275264,-3.0285554517257376,1.9141944365479522,-1.0474125524506,-2.124431019739595,-5.3193092761630085,2,left
3.215,1.2184511958179045,1.2783584699943067,-0.41496348396720906,9.85452300740287,0.2957632559776434,-0.9347603660754265,-1.0847562445086076,-2.1558839974883,-5.309707305911003,2,left
3.218,1.2899901190244263,1.2994179529870058,-0.44661012883636386,11.130227304207747,1.0465130049577969,-1.5090198979864369,-1.072017317028068,-2.041764874716396,-5.305662542605177,2,left
3.218,1.3723138180911618,1.1939210635957445,-0.5042180538106337,10.274267251591457,0.4872592477832873,-1.1106117851979318,-1.0495457545013502,-2.2344144624505837,-5.318650705444823,2,left
3.2489999999999997,1.204993998983415,1.0825493679371867,-0.4936026394595992,10.654320277713353,0.8273937591684601,-1.3287890903261168,-1.102203756406392,-1.9847530992315352,-5.292206680255336,2,left
3.2510000000000003,1.174253477097587,1.080493495023551,-0.46830236019019744,10.657022491426243,0.6576412366365962,-1.2217996624688017,-1.36870692527022,-0.8562401510993004,-5.18559794909584,2,left
3.252,1.1655262826889912,1.0777556400601473,-0.49171939168705686,12.187932805153935,0.8166160260448707,-1.8240833786419426,-1.416831067759854,-0.5971868956858474,-5.087842447496914,2,left
3.253,0.8117032535066152,1.0319973324791276,-0.5352427333849185,12.391019481861871,0.7228610872784192,-1.634053538702416,-1.4063917481362127,-0.8282466708729452,-5.241292919490915,2,left
3.263,0.7342019150758036,1.0303548002638598,-0.5709764638256505,12.303733892075448,0.8670419692094551,-1.9454905993919493,-1.3704826028810586,-0.6152905609165632,-5.040774369339144,2,left
3.2910000000000004,0.839168935187377,1.0257957547410521,-0.5205737724895965,13.614122002037249,1.702032494434718,-3.754331471397663,-1.442347336235653,-0.8352163574873702,-5.247033215900981,2,left
3.2969999999999997,0.7169583610521971,0.9785885643288548,-0.5582648348298691,13.701402865737123,1.8716940378337268,-4.129112557112645,-1.3630844266256081,-0.5874062512349485,-5.110907263891578,2,left
3.298,0.874697801621003,0.9574014627656519,-0.473909371374322,13.680464757622673,1.79455624457471,-3.87672849023432,-0.7819944673556644,0.36445991254903937,-3.656418061585158,2,left
3.3,1.0518521793754765,0.8553329241981098,-0.11454208487761128,13.548493762028052,1.7106749519582742,-3.93227959833069,-0.7938549325647877,0.6564586928675535,-3.903461799328489,2,left
3.3339999999999996,0.8775594092257241,0.6648043704592135,-0.32969490100679183,13.846421703714336,1.9907875309063878,-4.093934026480166,-0.7151652720257756,0.375400888287184,-3.447322052633827,2,left
3.335,0.7495746406894155,0.6891183412011892,-0.5031035586317486,13.460717746456107,1.5271208705275487,-3.7518105897511913,0.053553358147366836,-0.09575007264885749,-0.7476818019466877,2,left
3.3360000000000003,0.8084900640499342,0.686961253171244,-0.24120126757026347,11.64494745569358,-0.4845872626986256,-2.304232066952233,0.1740385852464939,-0.30183652878016864,-0.24471454344230728,2,left
3.3369999999999997,0.8424188125304328,0.6442936547556302,-0.6319831250825033,11.541282105570636,-1.1122534149082006,-1.8577780369369432,0.09521302454281355,-0.13721380634015276,-0.5387734068681118,2,left
3.338,0.057283194102413365,1.3257284141719372,-0.3753911181606259,11.341443359046455,-0.5326007428037185,-2.225159547314009,0.11301308027229551,-0.26839427369077207,-0.537127081594633,2,left
3.3510000000000004,-1.2884169930292315,2.3481498500801603,0.7467475439556155,11.774580447376865,-0.9817729612917523,-1.9918291438651026,0.14652016658059544,-0.16449478397196476,-0.25243122936332896,2,left
3.353,-1.5710362167929062,2.6381733802276246,1.4599789546928301,11.36589495499271,-0.7541599640520914,-2.060708556201031,0.42576138795208435,0.31962605684562534,1.674947711777993,2,left
3.353,-1.2744428788233173,2.2604660590702936,0.7793738363955817,10.437709322255152,-0.7870364123593825,-1.9527229575119667,0.44935149723300666,0.36370799869319015,2.2672601254324287,2,left
3.3819999999999997,-2.116596542271272,1.9402433429330523,-2.049077397808963,11.355001279179493,-1.3511618852559595,-1.6546849596403574,0.4895514084584844,0.34752038468693325,1.67060723234893,2,left
3.424,-1.987988237206924,1.4458282256064607,-2.486580430747054,9.246597374521677,-0.25160797600920765,-2.119116046223159,0.3728915542689748,0.3574324954169523,2.2066095068696816,2,left
3.426,-0.36783174951611086,0.4978040805215372,-0.42400801157332524,12.47886875366728,-1.839278310030376,-1.5588592636623937,0.5464842150546085,0.3113156574031156,1.7768858441101623,2,left
3.427,-0.7564666766043836,0.027114853957740243,-0.7922042798195404,8.70817518253283,-0.004078742597089291,-2.0716346652487387,1.3932718418405678,0.21148004821302208,0.45676018619736225,2,left
3.429,-0.051954898919687464,0.4355380470545249,-0.31880550175147576,-7.628907712420553,7.853161446213564,-4.133386953991808,1.528934884543413,-0.08250982434992558,0.3684362576748743,2,left
3.431,2.846586618865447,1.1461356809221814,1.1209152975323087,-9.214869150123207,8.878294116916795,-3.923732073133216,1.4839320484138538,0.40797940353526163,0.2439682761414647,2,left
3.432,2.525952460760453,1.3069011609618784,-0.03792498663308247,-10.096364232822467,8.798472817517537,-4.728403797152092,1.4257709375194425,-0.2879524024781145,0.5633342692640523,2,left
3.4330000000000003,1.4688290361656233,1.1171541326986418,-0.6835413525580329,-6.7263242146802265,7.931704790897172,-3.369681503049391,0.6589131822370615,-3.640460040683036,2.4350547388553627,2,left
3.4339999999999997,2.4260305420601007,1.2750694478321294,-0.15180090332163457,13.89753702197448,0.5706295753120356,2.5737966698468067,0.46510793714116444,-4.667146888290248,2.9621655856956552,2,left
3.443,1.6126983135478696,1.1203343442070168,-0.5158712012522854,19.3802669894716,-1.1192618443854176,4.244569811853907,0.6770001239714316,-3.5079053183500557,2.421498557528972,2,left
3.45,-0.6495522647860537,0.8578020194553662,-1.0779213805128969,14.767429651614767,0.33557463226765416,2.93869788997865,0.4689876445538121,-4.787875105074768,2.9451710077357953,2,left
3.471,-1.1224312276613353,1.1288081898109816,-1.2284767230164864,17.56172422673026,-0.6498075737333795,3.609847026087487,0.658435320990193,-3.4386619910216614,2.4578064430013637,2,left
3.472,-0.8125065260397069,1.3060640758404856,-1.374435722333639,17.09571650845853,-0.1666012320180188,3.733135975184404,1.1129432587654309,1.5532596631851432,0.8138341057865096,2,left
3.472,-0.9998343260738745,1.146817913820247,-1.1321743178539299,14.443109377956992,-0.17417210941901634,3.1725896667129794,1.2150927317408184,2.6406705756825346,0.4795328909826032,2,left
3.4930000000000003,-0.9156484566459071,0.8559908362091553,-0.27827981071387586,18.539000082271315,-0.32077504625173725,4.878007168105203,1.1856751138452934,1.8897137445261862,0.7027773073843945,2,left
3.503,-1.0339859318754872,0.7607782720290643,-0.028828180201072747,13.019867028875884,-0.08996576383106526,2.6807495758704003,1.1305588229384813,2.269917639973103,0.5845138627878762,2,left
3.5260000000000002,-0.8864890794436722,0.8273114085036983,-0.20919434352782107,-6.4369586805106085,-0.15191267079624027,-4.700377242931288,1.2673054483241577,2.19615505083072,0.6292884788999196,2,left
3.528,-0.1571815979798752,0.6877800389446049,-0.15349776240137125,-11.528633897562358,-0.00717742923787712,-6.624834716205422,1.0705245470646858,2.093222288763647,0.6128770248922547,2,left
3.529,0.03616419217238158,0.7325021916983087,-0.17352596846243076,-8.123350205601326,-0.0809071882895599,-5.436689783981169,0.2796596518466543,1.4958617206687945,0.6542127624480263,2,left
3.53,0.11904518148144196,1.0350713223305394,-0.18486996204951758,-9.456194484868604,-0.05590755937864515,-5.709710343484808,0.08074386309826385,1.4519167446091412,0.579884709073163,2,left
3.549,0.2481630381318748,1.097071179848483,-0.26104001269882443,-10.04457079262352,-0.06149886995094022,-6.3048521030353735,0.22676238965734066,1.348019738660779,0.7024357250443101,2,left
3.552,0.1546523238113894,1.0418169766316727,-0.3127009971585364,-8.088311023978978,-0.05301737524974395,-5.082292203792046,0.09745039167917292,-0.13442628084221736,1.3579998015516543,2,left
3.553,0.20728815872239362,1.0980673309522895,-0.2783259132766782,-0.8668935130759676,0.17657977872643463,-0.33566916688870574,0.11405471153653675,-0.48127304178480934,1.5169382903591404,2,left
3.563,0.18504880761473605,1.0440079965858144,-0.29099824002928154,1.62763721574232,0.20607663708170587,1.0681785040168696,0.14548750629952117,-0.08677794782275292,1.3779217156512276,2,left
3.57,0.036795633948823354,0.8910635737570053,-0.25606274683169916,-0.3040098434516392,0.17635758357176712,0.008324043636009526,0.08424088206675512,-0.48936126029355365,1.4842502350644216,2,left
3.61,-0.020856093554917625,0.8865974921306208,-0.2614864860053685,0.8850010330771867,0.1971720661053062,0.629493451403615,0.15776252993166112,-0.1074017088590454,1.4119070342404467,2,left
3.615,-0.043924483860734324,0.9045983645742982,-0.27720375188398466,0.3757448562691673,0.19149245325792405,0.40182676851371746,0.34672515560670625,1.0774934248068528,1.265164640911555,2,left
3.617,-0.012591868416534126,0.9030902308022617,-0.2660795255761989,-0.17893145783777442,0.24930119642390092,0.4376222591742262,0.4050102423905403,1.3423250818180739,1.2446786067755218,2,left
3.617,0.0014178425840488326,0.9819942486639572,-0.28046333686341735,0.09791932504424875,0.2791350345180471,0.6208629702739634,0.3637872552039506,1.158883189717216,1.2481342549842367,2,left
3.65,0.03631345819980701,0.9998428464815934,-0.2819543561923302,-0.31041028172090934,0.23469631792549342,0.40009230024785325,0.3894887190538189,1.269030915042971,1.2566184529520417,2,left
3.653,0.16957695278017054,0.9805301953056119,-0.2970906305204383,0.11842787310226038,0.28693169998415124,0.6025718977241385,0.37404557162186963,1.2079622876764935,1.2409764466394115,2,left
3.656,0.1824489335883035,0.9981358782495019,-0.30265410163887885,-0.25198316269198384,0.23872841649644483,0.4354734613232599,0.32532515875741796,1.0804914450789271,1.1892479156508982,2,left
3.657,0.18472096667518165,0.9832289999994555,-0.298218173697959,-1.474386349375444,0.05671696345494927,0.06279068962167372,0.3134730975804195,1.0295914816957015,1.172291576613882,2,left
3.658,0.2916687590361334,0.9557874872271991,-0.3308356179482058,-1.5499519334025782,0.06518421379707058,-0.05828164803169748,0.3282032562436783,1.1052167375417765,1.1849778585440225,2,left
3.6689999999999996,0.3072487604082532,0.9547613032376103,-0.3598946522546947,-1.6634162534885006,0.01095499134338563,0.058246488819841645,0.3109834751350709,1.0023415630145813,1.1785341385080454,2,left
3.67,0.2975951332732673,0.9649745488555432,-0.35970440942990173,-1.3911073616458158,0.10728346039984034,-0.057776430306265766,0.24802036448431544,0.5325567659851798,1.1972226565336914,2,left
3.67,0.2962158518431742,0.9553339202827278,-0.3602808368548629,0.23930741369857988,0.546431584303113,-0.4977140843336808,0.2349342618633421,0.4107888212735219,1.2078958393142862,2,left
3.6839999999999997,0.3083485760845489,0.9638851188403804,-0.36020785353452445,0.6030400157908321,0.6658577691754892,-0.5905227390482957,0.2408531850454228,0.5208263014130183,1.1862391300194597,2,left
3.6889999999999996,0.27125132297674015,1.0276333716134687,-0.3289056752723129,0.29253419170214334,0.5734567982262561,-0.5247818250829048,0.24345139097022436,0.4287041969349697,1.2195231200661079,2,left
3.7089999999999996,0.12398690191053897,1.0702214545833615,-0.2921597058860653,0.5390539948705453,0.6200618479245639,-0.5609015308640568,0.2332452253386399,0.5027000507888131,1.176325469950899,2,left
3.71,0.12457095086635195,1.0721834204197198,-0.2868119501662782,0.3269504396228731,0.6292064112551496,-0.5486445548774752,0.16851639707988847,0.7445030312013908,1.0048497652853614,2,left
3.7110000000000003,0.10637727244000933,1.06544857310401,-0.2940868313431593,0.12925739504132994,0.6627655748351597,-0.558381685944863,0.15103151195252323,0.7900892606119574,0.9572852892453529,2,left
3.727,-0.07023670416175208,1.0368759143890767,-0.2951363669446609,-0.13323833487016618,0.7794581763023153,-0.5583104583845965,0.16882680541405004,0.7525991307686895,0.9978944792324012,2,left
3.7430000000000003,-0.11137095013465625,1.020562466789598,-0.3055781127318763,0.16138152985552065,0.6299205151175431,-0.5693462753328853,0.1513661973123711,0.7879505136072261,0.9689903701323954,2,left
3.748,-0.11095105324457014,1.002580906344711,-0.34362789219016093,-0.11033036039346693,0.7834062733418119,-0.5414446350730096,0.16827073341096022,0.7491791779123551,0.9819772127923534,2,left
3.7489999999999997,-0.14462270231484586,0.9736828059609132,-0.3574517542745647,-1.918478755283553,1.5318388348075174,-0.41665446425075564,0.15297123385629224,0.7937488006028526,0.9897248828610128,2,left
3.7510000000000003,-0.12016484673617346,1.0099595554688594,-0.34115235572821095,-1.8930301128406437,1.5916698351043919,-0.35808185792230607,0.08421884903167824,0.9856008354752239,0.9859441948459646,2,left
3.767,-0.10560421428229819,1.0378699920478138,-0.37008005518953396,-2.125040465921013,1.6015938011415078,-0.4237073945231319,0.08011549001736212,1.0317960410591414,1.0492268364024935,2,left
3.795,-0.09806168693470926,1.081333520189041,-0.3498389334662043,-4.386491622976059,2.1921504835917522,-0.5777780578652303,0.07502384200897029,0.993391686349564,0.9589797690268448,2,left
3.7969999999999997,-0.10822331247493128,1.2031081674711248,-0.25817664048683936,-4.797585567274865,2.2620960014845446,-0.6381771939886016,0.0888855828807178,1.0202864944053451,1.06358151026158,2,left
3.7969999999999997,-0.1163393977157623,1.2296224729499463,-0.24596549384565722,-4.4684450201839185,2.2196459423715185,-0.5879472774309793,0.17926487122018342,1.0557647492710531,1.4277634508241193,2,left
3.8339999999999996,-0.09778704442921976,1.2183559647287323,-0.248636005815291,-4.645214216620925,2.2160173564167667,-0.6230303527929422,0.20040643003562325,1.0595961030747405,1.4869051352030858,2,left
3.838,-0.09906442346422564,1.2553932899827132,-0.206668722029963,-4.632948174391258,2.256005458720301,-0.6113751192814191,0.18133568541372183,1.0627717681833555,1.4865861379015508,2,left
3.84,-0.054390592682286194,1.2673746446793142,-0.18926050825950014,-5.223901649532813,2.5150943522897267,-0.6956604562153739,0.19645255767209455,1.057495432604217,1.4218670192889253,2,left
3.842,7.545587363790365e-05,1.2939557380323132,-0.18291053927405146,-5.421514043527158,2.5082380391045356,-0.7774368276435146,0.18575109047628346,1.0601504650194036,1.5368184224569692,2,left
3.843,0.06016965320181713,1.3010572847451947,-0.1570710240007961,-5.194053514749777,2.6065780611121436,-0.62238450694878,0.1818988644618535,1.1423762958906964,2.0346933588460843,2,left
3.846,0.19458059113965032,1.2564784332694188,-0.1108709716432124,-5.417675188241067,2.395525354048972,-0.855222064448983,0.18113145635648506,1.138277620658024,2.1434782845786,2,left
3.862,0.2360836199937423,1.2348545224587317,-0.0929103754153682,-5.218376622312833,2.709276749648751,-0.563985878852961,0.17468648059309422,1.133942859183703,2.0913582295425037,2,left
3.866,0.21654766853312993,1.2732800569547817,-0.10202277070311519,-4.550635291640007,4.516050131994129,0.5815149363079732,0.19062681795489161,1.1637178875081677,2.0722028218988013,2,left
3.8680000000000003,0.3186722744221131,1.2710166856365763,-0.06408869490470635,-4.4304865593417695,4.937475213581019,0.8419309938118101,0.1636683060746325,1.0891696794574597,2.1547764530239064,2,left
3.8689999999999998,0.35772364540158963,1.3306520810252862,-0.04879984758906944,-4.515934542504463,4.481469648006231,0.6722502180667285,0.10109055314449877,1.0524597699423146,2.6044669181595204,2,left
3.886,0.24486816103372672,1.64195226814166,-0.13905385113169272,-4.4430537676147495,4.998253995055185,0.7333832237676645,0.05668504185049466,0.8608958756395291,2.7298229289119873,2,left
3.907,0.0817596310414024,1.852761462733978,-0.26318676874542657,-4.534725568678583,4.393173023792926,0.7647539257459206,0.1015089623822903,1.0886520674286055,2.627269814844538,2,left
3.9130000000000003,-0.05387044610791329,1.8129360460741055,-0.32304535254376565,-4.395174737040486,5.076216846249442,0.6842759889551566,0.19527063136776274,1.808870416910488,2.7008587971763705,2,left
3.915,0.09552101309277984,1.8421948381501037,-0.2542168485022738,-3.9573060563692417,8.050178885413573,0.3869852766345144,0.2132289768683288,1.964197690979385,2.6808864370623406,2,left
3.9219999999999997,-0.03972322344597257,1.8219640562819515,-0.322866108220346,-3.701155576113565,8.664069954375172,0.3736659643530741,0.22119209971098375,1.925100795200017,2.659854980415015,2,left
3.9530000000000003,-0.6878339929596973,1.5843107882803165,-0.6367944817504885,-3.973782967502941,8.208612058815227,0.3014016211216028,0.1844988638053527,1.8164260924367506,2.716284265114319,2,left
3.96,-1.0154649180813209,1.4483895022140434,-0.7882047394720697,-3.754166139078082,8.483118661437853,0.4442729572153141,0.24641751580352403,2.077741598603679,2.6305254423783913,2,left
3.9619999999999997,-1.149815041406697,1.4508829823776375,-0.7883406765702763,-3.8249677467183614,8.359901116656932,0.29146130300571316,0.5380512866176141,3.539733738130067,2.3005882948157983,2,left
3.963,-0.8919700441786705,1.4481035478792017,-0.7581934424332236,-4.769608438440639,8.833216268516003,-0.42921777168336805,0.6224959125619156,4.052325752475973,2.1689140466455763,2,left
3.966,-0.36360246387655665,1.6321901887153683,-0.6783733017604934,-4.302741992630413,8.875215752481367,-0.321599495762453,0.5399241465651036,3.443816489132902,2.3213397561463758,2,left
3.9819999999999998,0.026968118060155172,1.6323096934959334,-0.6239115355133533,-4.995952855942571,8.758702895258203,-0.6543135666733337,0.6160876253385916,4.12263146086357,2.1517082408502546,2,left
3.986,0.8309046082780513,1.3553723554059944,-0.5353837460700518,-4.296853303488941,9.00423146956527,-0.1334801071876366,0.5500724568105342,3.4318628117778633,2.3258175116476005,2,left
3.987,1.1216716299560379,1.403578143475941,-0.5210328338912905,-4.65030193887402,8.558078304097169,-0.710184481113696,0.36980175346187316,1.0597070056099378,3.0505626988063463,2,left
3.988,0.9284420939835636,1.3168354213966955,-0.5009410438726235,-13.981242195674817,9.514265426051043,-5.5733872116038174,0.3452347082460083,0.6834657650713766,3.161990992374278,2,left
4.004,1.2223643919618192,0.9556734667816768,-0.3847077837751126,-12.75627249549868,8.628007089093288,-5.740372140989513,0.3360957665066621,0.7388515160129725,3.105266644589426,2,left
4.039,1.180771294933094,0.8239838520333458,-0.3044473490493929,0.931757684596207,4.604066754776182,-1.4044848608487388,0.38279578922000845,1.021846642264708,3.122790954355918,2,left
4.042,0.8499465978521967,0.6640375114445883,-0.14134049435895918,3.163387727264965,3.7529978707871243,-1.0456370818788148,0.3023751690319254,0.48705983436777517,3.1013330799461225,2,left
4.043,0.8504173680664278,0.5761459616268878,-0.03655299433582724,1.1226935374160236,4.3591376558476815,-1.4636189685963572,-0.04471742892448674,-2.195935035060829,3.2166841481832544,2,left
4.046,0.8536351769861938,0.6214069288792532,-0.14343902328012978,2.6368815101241903,4.042149626358848,-1.1171328607643765,-0.15549417667020077,-2.7041615101997496,3.0107269665800507,2,left
4.047,0.5417203464787973,0.5481303022908337,-0.15810227510968794,1.7819697828464847,4.13325797105324,-1.3330108569160393,-0.0495990408019721,-2.441855477410998,3.366669398008841,2,left
4.063,0.20017990529618282,0.5282441874050364,-0.008605171279887573,1.9901256129166025,4.126400394413087,-1.233333056628125,-0.14262247000769632,-2.422983107163893,2.8767893928030617,2,left
4.064,0.18237284242723067,0.5784958505977968,0.08346938673550834,2.3562798066464827,4.220136907115715,-1.2797293276692971,-0.36579463715284194,-0.7204159078205041,0.5611046538303448,2,left
4.065,0.19146421922310836,0.5213739011820868,0.003093757482238623,1.4488663583521033,3.8832662181105806,-1.0903280127366526,-0.42691511983366515,-0.3769855924680245,-0.0025384623502764103,2,left
4.084,0.09579464546080617,0.3633841058264442,-0.19016936334788564,2.698419775430609,4.514253298526551,-1.238537208713005,-0.37783293246593397,-0.7239253268208607,0.5065540630250793,2,left
4.101,0.07837263461358525,0.3249083084835962,-0.24370600633204012,1.208445506312575,3.6150606437504083,-0.9993076577700923,-0.4200609254106872,-0.4271048059452976,0.06787872332379993,2,left
4.104,0.1043652174258485,0.3466614788935159,-0.2000022772838337,-4.1014095324585895,-0.5608769924858394,0.30517809174531896,-0.38119729295084526,-0.672951039522292,0.4438086364598782,2,left
4.105,0.09677932863047636,0.24966555047851496,-0.27891355983533944,-5.385696886919654,-1.5586316851914568,0.5943129512082197,-0.4155671295325287,-0.4476490626415137,0.12821915417604954,2,left
4.106,0.11832250591703831,0.24683122699273186,-0.24124550946729878,-4.517310894868107,-0.7274012164436451,0.37183649833638766,-0.6514003937545909,0.09394649847993575,-1.5450722980498066,2,left
4.127,0.3490087339137793,0.41427258401913414,-0.11687109676829968,-4.896982642681367,-1.3475292566495243,0.4929769910958085,-0.6591077301429225,0.36201482294140347,-1.6756188917271482,2,left
4.1419999999999995,0.6034731078656795,0.5462803826014584,-0.14845704789100958,-4.954443352698732,-0.9104613906227175,0.47568355023278447,-0.6689056572469947,0.07252288956656229,-1.658000242516898,2,left
4.143,0.6222370447741676,0.5523818243572199,-0.16318494028676028,-4.602158309572229,-1.2175588787875486,0.41229524582813903,-0.8489084043234243,-0.8257001041811977,-2.565604670794852,2,left
4.143,0.5947003241118181,0.5485685834983365,-0.16588362944412033,-3.505863764648319,-2.5246824538689996,0.14961798151249261,-0.865536330670333,-1.0629251636695431,-2.6435113170886444,2,left
4.1610000000000005,0.6256917662684602,0.5520452816346648,-0.14740669210737478,-3.103684676561004,-2.6491555527758255,0.03604951629779028,-0.8661308356679757,-0.8982910326387891,-2.6175562772583603,2,left
4.162,0.5465375028055457,0.4752427375829675,-0.08450411785805861,-3.3246751855112704,-2.6218561678617265,0.12676220085429085,-0.8404627919843586,-0.9815604551507329,-2.551164351920198,2,left
4.181,0.39878044549451414,0.3991390893965012,-0.1290376297061095,-3.328117165389698,-2.552684173026236,0.07562550924259441,-0.889433831615946,-0.9691299401824574,-2.706464716659567,2,left
4.1819999999999995,0.3873949901221746,0.37596492426716843,-0.14348827945677187,-3.133173671550658,-2.693005065084688,0.08133932047628403,-1.138018761652709,-1.003807410089363,-3.5673367172568136,2,left
4.1819999999999995,0.38683166379771317,0.4080040190847631,-0.14490536140623286,-2.2996158079218953,-3.4503639266255877,0.04949226710253741,-1.1965036840009995,-1.0588677087904945,-3.7432115160454194,2,left
4.208,0.3065741577338999,0.4602787677397121,-0.19895844615819733,-2.0182692939325184,-3.5794527593947625,-0.025466245782351883,-1.1545602631896474,-1.0118642907746664,-3.651871549870812,2,left
4.221,0.29336464044744165,0.49841019615481064,-0.2228001679408146,-2.1732638662107746,-3.5232281362217255,0.07232821512066875,-1.1726423714095495,-1.0254087565725445,-3.625788798273444,2,left
4.221,0.3237040400341613,0.5757838042051183,-0.2802402738716633,-2.2275767556991433,-3.5023445555260064,-0.023527655443254348,-1.1784445607488312,-1.067765518204865,-3.765015353692274,2,left
4.2219999999999995,0.3208147766463405,0.5982004613654357,-0.29315228292647233,-1.9185757118400883,-3.564588254677223,0.031990113181659584,-1.2542030355700324,-1.250961643132174,-4.557890615458511,2,left
4.223,0.31531202244036144,0.5882537059292716,-0.29481938120028306,-0.3428138153234286,-3.9861734262640027,0.2553646525926105,-1.2889562305847648,-1.4537527207629943,-4.803796364151562,2,left
4.24,0.5750429187975428,0.7156898299768337,-0.37797619051122766,0.47997268556751016,-3.9296906330374934,0.08782888346326187,-1.2515554542689094,-1.1668253624284302,-4.57320997875949,2,left
4.261,0.9405092472972695,0.8199516618041595,-0.3971538135252879,-0.5458902013311577,-4.128237309242195,0.40982709492607955,-1.2849699230551883,-1.5152865052669764,-4.76013805303505,2,left
4.262,0.9281532798908403,0.7947628598996174,-0.3603316716254453,0.5897809650133239,-3.788826808374631,-0.04128842246135225,-1.3508395546285152,-2.8391928643710678,-5.038977095576038,2,left
4.262,0.9656421922315019,0.829390509722987,-0.39923847501332926,3.305119887466793,-2.3729301690609974,-1.7174454927379958,-1.3618725424502345,-3.1702663166220377,-5.11443740959502,2,left
4.281000000000001,1.2425260806934049,0.8792037930635805,-0.43444724927646067,4.119642441695824,-1.9589671320166746,-2.1651647956407754,-1.3655611164405004,-2.916224966444063,-5.086097775235706,2,left
4.282,1.3248356980230933,0.917914569867964,-0.45884985067580825,3.8074828702812007,-2.259188252887391,-1.8806590717520368,-1.348469807461472,-3.0731803326239744,-5.081322361617232,2,left
4.306,1.441820720509318,1.019602502945832,-0.5692521305532469,3.4336413770885996,-2.157917023167979,-1.9274360468668679,-1.3747385095210634,-3.0152823739970263,-5.103409537071974,2,left
4.308,1.539328846500963,1.029720469695186,-0.5645635253786585,4.568382270539184,-2.0110765158021318,-2.1433094400763357,-1.5149574505949577,-3.1774205297261284,-5.1875522721387615,2,left
4.309,1.4414085273681456,1.0411326873152553,-0.5755824672479326,4.724670472048839,-2.686270391337693,-2.0651858447491707,-1.5440181084022215,-3.3132629130041296,-5.2096193802983635,2,left
4.32,1.672645049239136,1.131145384635873,-0.7031731736775759,6.964870581676106,-2.100388098392901,-2.6631543357976564,-1.5155044496098549,-3.070873025172282,-5.190532564219364,2,left
4.341,1.6044249230341636,1.1710845964206937,-0.6796524406243553,14.636415340672258,0.46161086067203977,-4.582328345487051,-1.5491691177444273,-3.4238716852206617,-5.215840678907393,2,left
4.343,1.0239389054931394,1.1829650206008664,-0.641330357609133,16.638833093369982,1.0856468761004459,-5.128603038806078,-1.500655199238798,-2.976201629032073,-5.169297333694933,2,left
4.343999999999999,1.0774337212994682,1.207542664431724,-0.5417980820169912,15.129303936924407,0.603017712012167,-4.746458555822143,-1.3545393206284908,-1.16662393306322,-5.053631590419184,2,left
4.346,0.9453376859612606,1.2049177138658431,-0.6618417689486936,16.170304247960292,0.9041254409626993,-4.9438326148785325,-1.2474856486448997,-0.668758293600795,-4.918217304468654,2,left
4.36,0.531113484153805,1.0138484806813202,-0.7143096027561079,15.405979952152181,0.7709139027378656,-4.897475513114289,-1.3891904745169374,-1.1172760271471702,-5.1102313347824335,2,left
4.381,0.8435871828207102,0.8107498129332154,-0.26105491341030523,16.12572799524599,0.7789725642025822,-4.860320346701517,-1.220541315999315,-0.7446713732614261,-4.8657305981378265,2,left
4.3839999999999995,0.9714468399425935,0.7764727650094602,-0.27893734965875555,15.30319232876069,0.8505419625028434,-4.902977794602242,-0.5002610893750269,-0.23983936831670138,-3.4747305237380135,2,left
4.386,0.9535724849132425,0.7809809456990378,-0.19928850423314898,10.71090579016062,0.8217937637456733,-4.654149574490836,-0.3262515430439817,-0.050338369690691886,-3.13867614136472,2,left
4.421,1.355080434643709,0.6479327944973474,-0.1477368531001264,9.793360813575177,0.9701307535606432,-4.52418693668489,-0.4861183936878223,-0.13151685206194053,-3.546223042910305,2,left
4.425,1.6097153796412655,0.49907186341019993,-0.17844464016640565,10.547359489175346,0.8052294426955525,-4.767044471930792,-0.33770013322300746,-0.17711746239709053,-3.030088637701663,2,left
4.427,1.2431021572836198,0.7611220329386338,0.08671356584430207,9.681180483084422,0.8914750011516086,-4.387691269619592,-0.4815696172661176,0.014960703399342405,-3.6716721608019225,2,left
4.43,0.8378884623552153,1.022880430093215,-0.767912075828453,9.785677036933636,0.7964040594444646,-4.609381306659099,-0.34201704200213967,-0.3344838466503992,-2.944080840252754,2,left
4.4319999999999995,0.38967080667758247,1.4961631869522007,0.1662011243700555,10.07266553003662,0.7459576315972292,-4.677757335000215,0.3445977277142894,-1.177375632067882,0.43475257527155386,2,left
4.447,-1.0466623078178932,2.330192303808075,1.1718523565587315,9.408245723750618,1.0450438679056484,-4.061499373165056,0.4329861727003906,-1.7838003998646734,1.0039019927109307,2,left
4.459,-1.6079350871934097,2.1186453291317804,-1.414504414858795,10.372985258053571,0.40737527411528707,-5.456139855745923,0.3941717083642976,-1.1373691926524594,0.6618169468255344,2,left
4.461,-1.2724088085394498,1.6291142908334715,-2.3783529183118217,9.26895807858724,1.4191916227487726,-3.174416594575144,0.8102651904956124,0.27170007887279235,1.8822746212927717,2,left
4.461,-1.6430434749675693,2.054489914898276,-1.81104804449642,4.35277858636722,4.4905335598090135,3.489537932628687,0.8708175869290598,0.7013319010781514,1.9371114404330438,2,left
4.462,-1.1775262913769229,1.7088651625581632,-1.9249722881215252,3.6534074800675427,6.028578942283492,7.102243767050397,0.7719127925532778,0.5232954787157948,1.8111965814716957,2,left
4.477,-0.9140346683376523,0.529362566874538,-2.004943253139167,3.917822913005457,4.469086976140158,3.3776484484765192,0.9020843800752147,0.4008583120125889,1.9297201357841063,2,left
4.499,-0.2799540296728762,0.3873392241171001,-1.5139223179389323,1.153028737404298,0.9726752053588998,-5.51510711708736,0.7501285748097888,0.8128786181625817,1.8572521418176198,2,left
4.501,1.852636357016482,0.6419449030689564,0.8822730624595603,0.7774621444025345,-0.10472885053357558,-8.159996182111316,0.9053190931636537,0.18950054859321072,1.886841162590637,2,left
4.501,2.2431979939930313,0.6901922790528154,1.2550087690732066,1.1953234527799785,0.5852226872756905,-6.442669853170877,1.5264515798897584,-2.1007639688510706,1.5993111059834981,2,left
4.537,2.2954672419208766,1.1031051784150814,-0.2926043520907874,0.8926626516604171,0.2608187044455792,-7.273351299643827,1.596296753797871,-2.7194238358302614,1.6401661993642027,2,left
4.54,2.139976248114624,1.1802433528436584,-0.32325755320889105,1.0038234776965351,0.31212489865448423,-7.102968453611455,1.6067530360120923,-2.3165648939063606,1.5595809725093668,2,left
4.541,0.15478649825604784,0.9607890893782233,-0.5763773668330063,1.0747176854536504,0.4119661829078267,-6.92145331355151,1.5177954507839264,-2.4215887569278705,1.6626674189534216,2,left
4.543,-0.25299799992752925,0.9249009713980059,-0.6970627844423479,0.9005829813096735,0.27631377967890297,-7.160949938827573,0.8897371278870698,-1.7011951619611407,2.3760687297968124,2,left
4.544,0.10397015872793147,1.023424214963777,-0.6514699150525243,0.2774697789473384,0.3699977570731431,-6.691662499703355,0.7331259681886504,-1.171795442300669,2.365286117633647,2,left
4.5569999999999995,-0.8258357349813412,1.2194636792876763,-0.8555200914810139,0.2652098912061171,0.3913612484361416,-6.494908740069132,0.8684671419275618,-1.9649817586328397,2.5067702288083296,2,left
4.577,-1.409414464289052,1.0462761639902034,-0.38350552762617984,0.033468270493656624,0.24545792435953878,-6.976165906119043,0.7779272609779256,-0.9841485945607183,2.2320733487209266,2,left
4.579,-1.4008664987191635,0.8754234871215583,-0.2652912600987237,0.5588335605507081,0.5076502623188629,-6.301390110298682,0.823758792671295,2.6668765124079954,0.6492890005177925,2,left
4.581,-1.4867175615863224,1.039960964937809,-0.3468910843619586,3.835235144689941,1.743844008197931,-3.9650615397967375,0.8430004814857097,3.7292074779594597,0.25243479372785993,2,left
4.582,-1.3699753566421051,0.885872743171253,-0.3254022531095001,4.944769318256785,2.1643436950689265,-3.4198007211466654,0.77396068205781,2.7299775967040745,0.6234749850597788,2,left
4.606,-0.3327096609733371,0.6959104568208765,-0.45082967307479344,3.5582950340818345,1.690784448568264,-3.660870337081266,0.8827444793617862,3.651613651389326,0.30945990116613237,2,left
4.6160000000000005,0.7037973965005805,0.945614691028362,-0.21787916740822863,5.193411981477891,2.2099081473523974,-3.7790400713093946,0.7502421322022365,2.8128893492585036,0.5560589841300465,2,left
4.618,0.7069665329126557,1.041359086714671,-0.14725081862752165,3.412291847607851,1.665640552461417,-3.3513630060337998,0.26503945250194516,-0.20037019423806757,1.2287260071178054,2,left
4.619,0.6469249274715012,0.9695610481851754,-0.20008086546966403,-3.4119397703009615,-0.41056512094096864,-1.1380508164083392,0.14952052173295216,-0.7659573836948879,1.3369549712845523,2,left
4.654,1.1099234035654535,1.1239554871034554,0.0364964884303218,-4.840447372150442,-0.8551550315564419,-0.5114491505616767,0.2318583182291168,-0.39499263483737834,1.2930581287818304,2,left
4.66,0.9877935316683892,1.078873562057323,0.03448941104491405,-3.878328432495816,-0.5324957882161436,-1.0263517874425683,0.1840954579421894,-0.5859043213174859,1.2871173630683865,2,left
4.6610000000000005,0.23610402884903245,0.8391346205490731,-0.12252566545524685,-4.362811533306136,-0.727981511102314,-0.6961771453282308,0.20729069779522158,-0.5084404084784448,1.317568692238744,2,left
4.6610000000000005,0.17564357009203932,0.8042813705303278,-0.0917611893875182,-4.204210168927976,-0.6281271557129613,-0.8237028340645622,0.22261289322072284,-0.6292387398025545,1.494245824337093,2,left
4.662,0.16707276384765313,0.8307020519650818,-0.13164525016281015,-4.688839678087372,-0.5833273015950999,-0.7648393708369167,0.24440645393463026,-0.4919928520584029,1.481307565996921,2,left
4.677,-0.24610460513629376,0.9143842730754297,-0.3275130290279396,-4.419952192927502,-0.5238634517340585,-0.5390888177340418,0.2058074524135059,-0.7611924468602616,1.5469198308696952,2,left
4.711,-0.13168293126628994,1.042341802696574,-0.39124260402497624,-5.044765718733698,-0.6171514334260535,-0.9036182956731467,0.2615706009916957,-0.3653867870487123,1.4320922027424703,2,left
4.716,0.01640908373950766,1.03823537332297,-0.3509087759185982,-4.041753207461479,-0.4886112526054236,-0.43268965267945364,0.5076161555162925,1.3693204589923156,0.8732269998389804,2,left
4.717,-0.1319923994486602,1.0431690295746834,-0.38687178128589694,0.657791514254813,0.2713486834151184,0.9255516766776779,0.5653710444710566,1.7815473015522976,0.7389239930003706,2,left
4.718,0.001971822530837615,1.0352303049865017,-0.35559002012715346,1.9365564819186487,0.38872241060749935,1.462201924839349,0.5275579582540602,1.5089908229524571,0.8363995273911393,2,left
4.718,0.24183689735480668,0.9449417226154907,-0.26096008780467017,0.8395806667657415,0.3194787561932463,0.9752532567288238,0.5373452006605851,1.5851630248995567,0.7926112783090893,2,left
4.746,0.3220575495077359,0.9367441743445367,-0.24378624893642237,0.4956171493481467,0.6854013075308425,0.1610003548083993,0.5558868156729363,1.7082990244986713,0.7818007981389604,2,left
4.747,0.46367263050468377,0.940631200626162,-0.21088477558544594,0.0498831123087618,0.709550853371061,-0.12250897748738598,0.5159630441139936,1.4326372099645743,0.8350528877059935,2,left
4.748,0.48460674750565197,0.9414030748743543,-0.21358788998669193,0.20514687446840152,0.6665072232861025,0.05091398165325395,0.3456507584852775,0.2917075837363789,1.058750740996862,2,left
4.755,0.290351328051783,1.0082478051276984,-0.30404836996320417,0.24766912196411833,0.7095400448734339,-0.033789620095726364,0.2983771833229923,-0.046330694753677265,1.1383550027528693,2,left
4.762,0.29139556821276963,1.010430429475345,-0.31596270296611106,0.10674509065279503,0.6786739465043341,-0.007831322231588021,0.3346673957285269,0.21792506269281275,1.0699165877221155,2,left
4.777,0.28314091190067686,1.0115625385162357,-0.3055681450856632,-0.09292523482117843,0.8006112058530335,0.08814490009141498,0.31216202035500384,0.05467694822129071,1.1200433712803641,2,left
4.78,0.11210177618817746,1.076944100322531,-0.35251671718767974,-0.22883212087434418,0.8132541599836122,0.06680288358150976,0.323220477959391,0.12167840352669057,1.0896924916591089,2,left
4.782,0.08547929744454064,1.0835250866791886,-0.3489719383118769,-0.12353203273617336,0.7681074739677308,0.09778853160557709,0.31853343292267866,0.21739361186781536,0.9916437935439067,2,left
4.796,0.11364013756351748,1.0767343415664166,-0.28031451992357675,-0.22102234916431782,0.8553119049835789,0.056261901224010175,0.32202278441943705,0.1683648998240242,0.9953908540664335,2,left
4.814,0.11958660934596177,1.092938404794554,-0.22952755877696887,-0.0959540964572157,0.7200829985205873,0.10960392720694387,0.31625267625254294,0.2333958973510442,0.9801819611281125,2,left
4.817,0.13615720956834285,1.087009227663406,-0.2313790112880464,-0.27891333010319774,0.8990147638206978,0.04811804544974811,0.24566547208714,0.363770002513087,0.9105731898310467,2,left
4.819,0.1281901915367451,1.0933529977976217,-0.22739322513907934,-1.0943479951339636,1.6035585538299475,-0.2424518351081924,0.2325252407881011,0.40459938480055535,0.8927835463977607,2,left
4.821000000000001,0.12755704197145074,1.0865122541196106,-0.2335885147073326,-1.4156731396527418,1.8105509674171674,-0.2865751220860133,0.2494106428275093,0.3865284521518599,0.9002543488262243,2,left
4.85,0.04716367032794477,1.0727114923008791,-0.3059799048922661,-1.0477653136987275,1.625647874150301,-0.2676024566642978,0.22840165261335163,0.3874109928589259,0.9090207950190914,2,left
4.853,-0.04311587535250632,1.0893758074104491,-0.3540844539048925,-1.428926804395149,1.7722634697548187,-0.2600051934532941,0.25350264498567987,0.3903249334981116,0.8811298012026711,2,left
4.854,-0.009717824430322212,1.0874009875499513,-0.3457849066993116,-2.6475062222165473,2.0519215192376974,-0.0967115227118136,0.22600218195179794,0.40161574765708496,0.9276593273283847,2,left
4.856,-0.057245414191434446,1.0962488844893286,-0.35467422196076603,-2.9285623673021295,2.1056383218488173,-0.06335704105155075,0.11212278761480744,0.4477759904081374,1.1552189775793198,2,left
4.881,-0.18832170793068562,1.1305726894851817,-0.384606947927827,-2.7380631708966874,2.090395503047879,-0.09137525003147012,0.09204771121351003,0.5376333615779303,1.2312477517658038,2,left
4.882,-0.25152496615736686,1.1514567892357421,-0.39604954801888326,-2.8497900041507,2.084736102756213,-0.07621857798912124,0.10275475458033698,0.39911135486929616,1.1411185103785733,2,left
4.9,-0.2941760635620617,1.1878986351512848,-0.3739026238543821,-2.7755731146492564,2.085528531501728,-0.07647235230864316,0.10169800334547241,0.5733119560853549,1.2486839751200007,2,left
4.902,-0.334848134965283,1.2114971653201914,-0.3847824515675585,-2.8703722802412255,2.1196450126866626,-0.08925369558614696,0.14596175693040606,1.261487315758069,1.5498434777569015,2,left
4.9030000000000005,-0.31997160537971225,1.1901276680591084,-0.378539565352026,-3.324879153394373,2.2326511823831963,-0.19597426015120145,0.15383605447079693,1.4166854546324261,1.7015322494935328,2,left
4.912,-0.12392809009655721,1.1773089470907079,-0.24621597219713226,-3.6304428987207977,2.409714447448681,-0.23045270932073836,0.14843408495739024,1.3151865109652168,1.5305563123725723,2,left
4.9319999999999995,0.13985182864872625,1.17622988552468,-0.11980258140315227,-3.1676319400160033,2.156905627254206,-0.1776836721103783,0.1481577009826848,1.352429422788654,1.7087861374551645,2,left
4.934,0.2090179727924881,1.1793336134656696,-0.09527294103469058,-3.783508983143463,2.4500292048473407,-0.26340016351780915,0.105509189511159,1.163005199183305,2.284896825951659,2,left
4.936,0.12994793844220343,1.185548143738314,-0.12651446593101873,-6.447647537358801,3.3837256908863016,-0.7132926161865215,0.09117689446855543,1.102058181504062,2.408375060495077,2,left
4.9430000000000005,0.20100004853717696,1.1701561167175947,-0.09671684347651757,-7.261789993651728,3.5398494452461957,-0.9329969454673103,0.11122569670299237,1.1815920114532834,2.3458902040950114,2,left
4.952,0.33950582167829985,1.312042090349944,-0.033818519325729546,-6.397563781279992,3.5648642349721715,-0.6129451523983591,0.08819539977914709,1.1065194029606313,2.3407194665835878,2,left
4.973,0.36963666829039915,1.5689832296347244,-0.021563169264932597,-7.294486908198809,3.3294211295980016,-1.0342018801056359,0.10920030129469933,1.1519886535436794,2.4042000949463347,2,left
4.976,0.44657333623157036,1.5872866272520327,0.02030487239614446,-6.399293274321542,3.7460356384733364,-0.5463410179131873,0.14786788647675037,1.1048255593540919,2.7731940287614676,2,left
4.976,0.30079886295583,1.5768617609260707,-0.05762076968070015,-2.9630184426635746,5.551487964889174,1.5782310510216395,0.14034077636564385,1.003710847176701,2.8882041100679463,2,left
4.992,0.12727334814444108,1.7210250907881424,-0.13243789882110713,-2.2932066567764893,6.053934282628761,1.9860372049105253,0.17460229236284192,1.2153958945051782,2.7771854448434015,2,left
5.001,-0.08150580061507276,1.718188577408199,-0.2451869928371575,-2.766032339001405,5.664523437470321,1.694488844784226,0.11084477869707642,0.8930087532661801,2.874895816064106,2,left
5.024,-0.6012611565901202,1.634558710512748,-0.6007562807929538,-2.454534689973582,5.872091538822158,1.8962774723438782,0.19883905587195277,1.2916728793009016,2.793696961206261,2,left
5.026,-0.6847759954226209,1.622352936592255,-0.6537784761273635,-2.7190759725090548,5.881386528866427,1.6953134199235982,0.5794158347490742,3.0031534944820564,2.5371205145570412,2,left
5.027,-0.7168323362519524,1.6398988353426505,-0.6531498440627839,-3.251316827351448,6.184018887805077,1.4071246943959776,0.6749460372487034,3.3479670009895592,2.4922688980511687,2,left
5.031000000000001,-0.729712430848529,1.7589887703929874,-0.8364798566425664,-3.900502751003252,6.6438580307843615,0.8543249626288983,0.5940490168370152,3.1112149972870307,2.5198238272844327,2,left
5.051,-0.06438976156593021,1.8812935577208614,-0.6834689480925413,-2.8740242945691374,5.9880438822209205,1.6885168535972954,0.6587325565545781,3.2497930836277025,2.5043167676254887,2,left
5.053,0.21614606370524186,1.8590712251615051,-0.5954445589094852,-4.2936048796735395,6.782070851915735,0.618975816644317,0.7926686300132708,3.285311606582548,2.4969993451775703,2,left
5.053999999999999,-0.06847466371436195,1.8795452682460099,-0.6816220516068032,-10.981829270960136,9.946756215602448,-3.9173192782996114,0.853605853049924,3.4512528124361825,2.475871869374715,2,left
5.06,0.18531614609520905,1.8630508803610264,-0.600586606025808,-12.944882928465582,10.755894250495308,-4.993886695513652,0.7736308904361591,3.1334052893837896,2.515834522208637,2,left
5.07,0.8297997960912333,1.3844721103336628,-0.4904762527882114,-10.827619055149714,10.031932038844374,-4.145135785642726,0.8807391167008952,3.647494172732367,2.4503662401904247,2,left
5.103,1.0284573477451233,0.8851987948457465,-0.45524140437498006,-13.06478355704062,10.67442705734626,-4.716793148097487,0.7507818078699615,2.9697830457388616,2.5433213069821177,2,left
5.107,0.9919502054663478,0.8994716180574555,-0.5497956182007453,-10.780078079349193,10.079925376230104,-4.3860760584972205,0.22532102886631428,0.021570258313896695,3.152310655511,2,left
5.109,0.9571583333974358,0.8731605491137016,-0.44873187016926863,-2.3760425381763897,8.242830619842499,-3.9548384157681293,0.11242419317198764,-0.6194562391682057,3.3079676130321953,2,left
5.145,0.7689400153821411,0.6732203824521799,-0.1647961612591593,-0.5508119272324543,7.694888899303798,-3.8718506184396864,0.18033990764485786,-0.18561043097247937,3.099214166635405,2,left
5.146,0.6704277118445964,0.6242385098126848,-0.09147212636540662,-1.866513643556816,8.179612176070776,-3.911914818807023,0.16893529260446646,-0.37122996964086463,3.387993778589835,2,left
5.147,0.5485521726378197,0.5441354006106658,-0.05456237951278455,-1.0930829583530723,7.83266142584032,-3.9181990056789275,0.12676685975114457,-0.3919177695811961,2.996544657099453,2,left
5.148,0.48747638111130853,0.4997893507192763,-0.0716370393891828,-1.4268148548121586,7.929830108693571,-3.818391102171537,-0.14154646362922768,-1.0834796552749886,1.5765283028295987,2,left
5.149,0.5183587917039854,0.5365146004821276,-0.0068705174284287435,-1.536815395008954,8.47783682379631,-3.7055822611219607,-0.2442666242572808,-1.2072619624293295,0.9826962501748822,2,left
5.15,0.3394090208871405,0.415312779761097,0.13586599986070189,-1.5188547374965582,7.690524110455475,-3.201150526960408,-0.1371110960217105,-1.1730376730487038,1.6359496706784933,2,left
5.169,0.2002174719742778,0.24498781207282286,-0.04729425033227085,-1.503561943271749,8.999082556321339,-3.9689242911427365,-0.23689337492065773,-1.0848145560231388,0.9804094401354587,2,left
5.171,0.1946249264641579,0.21313791917100905,-0.14167203976036669,-1.5938292083235102,7.30344779150339,-2.9897036924181073,-0.4717290057752048,-0.03684798688223645,-0.9324267086211595,2,left
5.171,0.2127912716090978,0.2494295143469853,-0.07322943859465593,-2.4810966599356776,0.4330614703144422,1.0519477262768133,-0.5389131711910208,0.2106313627937716,-1.3431854699812988,2,left
5.182,0.1811032820439222,0.2086408345097283,-0.11342935164595402,-2.580118149194361,-1.0884452598188936,2.022252073845383,-0.4892899125941634,-0.04227426861648051,-1.162248865545429,2,left
5.189,0.1707832113063253,0.2509775590328938,-0.03545466950234571,-2.5916242853109996,-0.1236040860516861,1.2720280551084198,-0.52472309399059,0.1816523267128818,-1.1026717709466003,2,left
5.216,0.3226219581571795,0.4527177498233774,0.04976057068178212,-2.4299003218142765,-0.4242695266928537,1.7508497486572732,-0.49929427424687234,0.004866027684218899,-1.3526976275504832,2,left
5.218,0.3501222616456203,0.4810308950802488,0.04901374262945453,-2.72626806151617,-0.6948267517753753,1.516658401183187,-0.387762867919327,-0.3456022873025084,-2.538345491938281,2,left
5.218999999999999,0.337875112373404,0.46557789987468484,0.050866045617425956,-4.45701277445132,-3.0469867936113015,1.24745437441625,-0.37454354956631347,-0.399745385473547,-2.8662601185497962,2,left
5.2410000000000005,0.4960888362448155,0.6293162599330342,0.019458472662398755,-4.825318347628918,-3.7177455709344316,1.2801987043792757,-0.38425405255041845,-0.41671464715561984,-2.645231421055125,2,left
5.242999999999999,0.5072832529435201,0.6342081382199328,0.020358462387689222,-4.502534611964538,-3.200920413975819,1.2196815131528789,-0.3749198913009912,-0.3297303128102097,-2.711883145356251,2,left
5.247999999999999,0.4209382442822325,0.5125675706685873,0.04986973471813317,-4.787851735510204,-3.461736515163809,1.2648612058314592,-0.3885816562159402,-0.4749039731261142,-2.8009222917799095,2,left
5.249,0.44055953753769056,0.5313200711543643,0.049619503016751124,-4.485470732178894,-3.4408185263453177,1.2563387265503918,-0.4153864485231272,-1.043898420090988,-3.4190409478456116,2,left
5.249,0.41785393535395254,0.5045118248481077,0.05113356048171651,-3.778820656639042,-4.169010571334946,1.3629828235010593,-0.4519522820167682,-1.233292439409476,-3.705156738240804,2,left
5.267,0.3832809925981276,0.4087121183097058,0.038185492183592545,-3.2353085511052644,-4.310399057862577,1.4343588315444928,-0.40180439143702895,-1.0608397045800362,-3.393931914160177,2,left
5.287000000000001,0.426687504420312,0.42990088825807393,0.012077095494497932,-3.9394498843490924,-4.246811307875641,1.3322763603961107,-0.46023221237457634,-1.1966148275817514,-3.686588057564885,2,left
5.287999999999999,0.4521275531179079,0.4696255053564192,0.008157041993822545,-3.140275051207142,-4.192292687695586,1.4576030125366262,-0.6743181032874539,-1.402598811233481,-4.370913585609671,2,left
5.289,0.4297826881092631,0.43224499291273055,0.011482636187453881,-0.4198243205829264,-3.265413909231013,1.993914104329221,-0.7145847946062982,-1.4235939585865154,-4.518749813921931,2,left
5.3,0.4485078489919239,0.4650013950510783,0.008163047305875065,0.09474769978664271,-3.071338768129438,2.1573321206286327,-0.7001490569676307,-1.4704291617034824,-4.474595316922256,2,left
5.315,0.661683521000284,0.6478613290682189,-0.08590588269327218,-0.028547737559686162,-3.2418676197337652,1.9649177565224385,-0.6861357734236901,-1.3624087121388684,-4.421312455198577,2,left
5.3260000000000005,0.8909054473264004,0.7504902066449031,-0.18930559179770912,-0.3573962078813824,-3.142033377743756,2.1980434653649334,-0.7219561188880094,-1.5098855182263617,-4.5429144363010145,2,left
5.327000000000001,0.8637104303400324,0.7286521721625556,-0.16250181278968748,0.35643843437255956,-3.150732780717304,1.921848751288013,-0.8983195381216091,-2.0877271709981726,-5.087485925442938,2,left
5.327000000000001,0.9025748723957533,0.7548428411403117,-0.2071296064713305,3.518200995891577,-2.909324875090456,0.944643642983515,-0.9334205529473921,-2.2065773753965967,-5.211342491061137,2,left
5.346,1.0929130451537843,0.7305730106512165,-0.32434884547102494,4.405075699117463,-2.7646895084865255,0.6499495138933992,-0.9194107726274652,-2.14822366203754,-5.1392608374763125,2,left
5.36,1.148319780973488,0.7724993071693095,-0.4008089400937448,3.7662890438491665,-2.9416172185251686,0.891550051504886,-0.9081650541342564,-2.140217596630424,-5.154662395640038,2,left
5.3660000000000005,1.2032067690062669,0.9681075245294533,-0.5483534918471962,4.010322851770982,-2.7784714136597595,0.7522205955221548,-0.9392918455793264,-2.1974180160520005,-5.175864899221624,2,left
5.367000000000001,1.2543208272610444,1.007213052709049,-0.628548275125903,4.22659245776838,-2.868238577157756,0.7373331397542238,-1.1304493337645938,-2.5835751243995935,-5.4530092353503985,2,left
5.367999999999999,1.2074346306643724,0.9801911545558706,-0.5576353432645007,5.5702357084796414,-3.2394685439140796,0.677689039896602,-1.1639103673303133,-2.6404598589089865,-5.444127194892138,2,left
5.386,1.261992231737333,1.101471665226767,-0.5935160497650082,6.658497901483963,-2.9901712584725075,0.2149040776754387,-1.1432120204854885,-2.6196034563905637,-5.4992610275510625,2,left
5.407,1.3981211161610743,1.1865699069347326,-0.7178384188167729,5.253371944090363,-3.454866092226915,0.91793770993825,-1.1537819136043874,-2.6097620219694617,-5.413448179104801,2,left
5.409,1.4410037738055144,1.166562979098405,-0.7292046139415508,6.81856146106348,-2.822780120958508,0.04032488673583984,-1.1506496029681346,-2.4409754185501127,-5.0052446921238145,2,left
5.409,1.4019904216396122,1.197910910470501,-0.743180420663357,12.250175083800812,-0.22811722744105256,-3.5062769325776104,-1.1848884857521749,-2.4709195571436906,-5.006126176573703,2,left
5.421,1.4313094295885707,1.1615381119131518,-0.7078203920529977,13.476873250270042,0.36558803644302346,-4.324342684161373,-1.1125860282769726,-2.3618604086724697,-4.885315153914105,2,left
5.433,1.3304887815940662,0.9942577359822778,-0.5156729974252178,12.680896823583936,-0.016556735434179196,-3.7236715676975676,-1.2293423357048379,-2.5642096813637165,-5.135155148940413,2,left
5.446000000000001,1.1030636224780295,0.923714375206139,-0.41678612895312916,13.0273416345081,0.10204273190361182,-4.072524358707639,-1.0795906600028191,-2.2915093272210036,-4.802604013283315,2,left
5.449,1.153684147615623,0.9275612088733521,-0.4558597505455658,13.03194721208083,0.22011934342705305,-3.9395902394436995,-0.5022250260651715,-1.1554894663053497,-3.5292416800715234,2,left
5.4510000000000005,1.0779191056702446,0.9375387849393818,-0.43461460339213187,14.753812455148552,0.9539414332552147,-4.52196481580858,-0.3868317629155802,-0.9359894650731695,-3.3503742160637637,2,left
5.465,0.991760379837176,0.8458233671558522,-0.27396624866691643,15.056294226234382,1.249724294298788,-4.643014266235655,-0.42975091771250196,-1.0288684942528368,-3.293231782296988,2,left
5.481,0.9645400616988157,0.8383384186953868,-0.2960438186403312,14.664665852585838,1.03966263274445,-4.416597385367568,-0.47623725700365804,-1.0858619042021516,-3.6162005729714486,2,left
5.486000000000001,0.7241595106358297,1.0210492328928893,-0.43640645219995117,15.253101993327853,1.0765213989877658,-4.79839453129402,-0.34763309978829127,-0.9031668709759182,-3.089242822262709,2,left
5.487,0.9296235282266658,0.8998252734594825,-0.49163364852567104,14.30668591861228,1.2577886442411867,-4.19738943222754,0.2897439833555408,0.11909271041381056,-0.7585079232342419,2,left
5.4879999999999995,0.5869224349084963,1.101033676642717,-0.4102348247276616,15.619200423408618,0.9048625757094411,-4.812648108248835,0.48841290386881026,0.36092441177906115,-0.27935714232966996,2,left
5.5089999999999995,-0.17935810908246763,2.0142572553980993,0.7847221161879905,13.790308965749233,1.449172389033142,-3.7784924774411457,0.3093049570385467,0.17654245756697418,-0.512444440366026,2,left
5.58,-0.6153889326751486,2.350754331642431,1.0682997070178692,6.838685551970691,3.6442919467633903,1.0597662785764217,0.4416266066373197,0.289744675131346,-0.572746616694744,2,left
5.587999999999999,-1.4715280599937366,2.2242500391414195,0.05313404801059357,5.051248262288738,4.183090201532217,2.065669480189964,0.3765823971440406,0.2234194839128304,-0.2750175837314125,2,left
5.5889999999999995,-1.6220848827249414,2.618281810797024,0.9087878373328879,6.245302913486218,3.7709199333386096,1.2153074544257212,0.2172615984801084,0.23132928830709054,1.5133033015675355,2,left
5.591,-1.6758034505098252,2.238508705377644,-0.2883111362415533,5.910266501680518,4.044613656793841,1.956041281258927,0.33283000655882833,0.10939064861204277,1.863862519369428,2,left
5.5920000000000005,-1.0956472089500222,0.8895048313901269,-2.3603445443357423,5.300143247842087,3.8717096499282553,1.1980159387237181,0.12275909882107236,0.3217015244741572,1.678027830518355,2,left
5.593999999999999,0.782657702274778,0.5044085586410826,-0.006053227145913831,6.7428969578041675,4.00068790707823,2.094450280747797,0.40222372065119766,0.012378203386614883,1.6680034662825685,2,left
5.595,0.8773023220672334,0.5837417559137812,1.2223164394690278,4.764495907077009,3.872098440967937,1.0284881593379294,1.443514640666607,-1.603830242541452,0.7003937848713098,2,left
5.597,1.0251070055551132,0.637994122201007,0.3784102895742025,-3.908143721923026,3.20069701733778,-4.331344482264337,1.698573742837846,-2.026830660279705,0.5117864609396866,2,left
5.599,2.721898404263087,1.1641061176580387,0.6233261824046945,-5.7801957088542,3.0757695819290816,-5.41822271150342,1.5416424375080693,-1.593308927184091,0.624878491636522,2,left
5.6,3.4075968407064883,1.3651180370515417,0.6091843532617837,-4.29797355304882,3.1431577051416166,-4.508044179068007,1.5721051316699906,-2.0174336675234104,0.6626800692989279,2,left
5.605,2.5555052960982416,1.1707958953076592,0.3457545072617185,-6.055417170853749,3.078305120355731,-5.036568950114416,1.6633145354553236,-1.6337875844927578,0.46046625623758425,2,left
5.608,0.9940075600091618,0.8867703245254719,-0.011144511466709917,-4.779082094689773,2.912328632575346,-4.433643173647707,1.4855038748699063,-1.9097882980050294,0.7729689045937805,2,left
5.609,0.1349081127329089,0.8117430541600126,-0.4246947370125669,-6.455888374676596,3.2052932315783194,-5.027065801022875,0.7752642149401476,-3.248733536104581,2.2452583463865703,2,left
5.645,-0.3719698216391626,1.1029596455786388,-1.1157380129574512,-4.192023589699133,2.8317190035096402,-4.376030461351387,0.5907203813781068,-2.9794062558629903,2.4510587768659606,2,left
5.649,-0.9472627075692726,1.163374241370326,-1.3153796131096387,8.035639823909378,1.4899807182823923,-1.0881638545171455,0.7081054140762499,-3.644186750909825,2.438628606542732,2,left
5.651,-1.2568000018465701,1.0714540295717332,-0.6774308755044238,11.258789061367,1.2293922252457536,-0.39685638976846455,0.6750297669839392,-2.6201663144821477,2.2441870006241667,2,left
5.653,-1.5866243105184945,1.1917650078722075,-0.6784120368616268,7.784198326085822,1.3000234463330058,-1.0093413822973822,1.0287256726334468,2.396779146176267,0.551997745890768,2,left
5.688,-1.3034794148596962,1.0776583816985756,-0.6988308506031253,11.408989753899078,1.4494277645125169,-0.5131710560112024,1.1382237609178896,3.673856102498229,0.13904232541596945,2,left
5.691,-0.9121396959682543,0.6310352979496983,-0.45987807703226474,7.775602076691905,1.1150897861958353,-0.8881428278400832,0.9826408113800374,2.510347887158133,0.5359574491375139,2,left
5.694,-0.620829455642915,0.5978151315116308,-0.41814647628340673,-4.841434533398343,-0.5038762118170679,-1.7644714354895172,1.1694148861794478,3.492311350555564,0.20422761241025567,2,left
5.695,0.09291064669109333,0.8131908032841482,-0.23792548860171306,-7.605229514167312,-0.9242701595086922,-1.927888868827375,0.9679189354344274,2.7001735179327095,0.45275596308736155,2,left
5.697,0.37351686715055976,0.888875875064292,-0.13570217878129465,-5.7197866161610795,-0.6004465875167049,-1.8534786593486714,0.2923536655666522,0.5479642013985118,0.959214255508982,2,left
5.702999999999999,0.4367878382689767,1.119593278785056,-0.041838304114748544,-6.668224899450564,-0.788847078968983,-1.85569784688193,0.12928569689289945,0.13119934616046508,1.0399735436254727,2,left
5.726,0.6430937951476907,1.2418618478047985,0.0539758158683828,-6.48980434460046,-0.7258308032629067,-1.8987097414135248,0.24210602694278538,0.3431008961824905,1.0387641431379908,2,left
5.728,0.4726237721346633,1.12389638530483,-0.024340517811013675,-6.626590787114374,-0.6680556802916768,-1.7598116658830447,0.1869874690522152,0.34065670700693496,0.9676311537763622,2,left
5.729,0.26596013216286474,1.0262251925273727,-0.06477046377579398,-6.981289554433712,-0.7060927809051933,-1.7632135242776972,0.1883720739562243,0.14819903063676637,1.0965958260845974,2,left
5.73,0.14385814177281261,0.9455421394599599,-0.10750205698473292,-6.879291955117667,-0.7076653759719415,-1.8631782463755013,0.16933749305008294,-0.38895306850967143,1.5318400448109073,2,left
5.768,-0.11454934565512104,0.9122004299646507,-0.278576410587197,-6.49743720063794,-0.6209349724832678,-1.6092203731348087,0.10053783283097782,-0.8519581986320872,1.7067790978997919,2,left
5.77,-0.21333249373033744,0.939541656146335,-0.40725573881366034,-7.443294045433017,-0.8129281537734118,-2.039871591368753,0.1823389580168531,-0.3385822639850355,1.5447494559024726,2,left
5.77,-0.15914031700675974,0.950255749757804,-0.3950384647133013,-6.025546041877984,-0.5273294786420808,-1.4559154556784646,0.4108119496203139,1.1083265393385962,1.2979698477445765,2,left
5.771,-0.1893918365872646,0.9572519040893418,-0.40369781213762546,0.06936358618763472,0.7427616705473561,1.105679361197168,0.48240347925453386,1.5529493270558112,1.2003312718634764,2,left
5.779,-0.1801509059399259,0.9389751895442595,-0.39793300501516493,1.677461410765505,1.0871094412325724,1.7719396307929864,0.42501093684195607,1.189793052232079,1.2643225717541255,2,left
5.782,0.05696856356203882,0.9006044665222087,-0.2790643569628024,0.33700691503467195,0.777667995657394,1.1738695341375995,0.46910011511847083,1.4741499389037371,1.2261164023942923,2,left
5.818,0.319751916927606,0.9334185072850678,-0.20519413554079435,1.3148536700497404,1.033698107119537,1.6770340489724163,0.43484536245728866,1.2542436966341728,1.2479050589457037,2,left
5.821000000000001,0.3399474605218835,0.9406710411920807,-0.19040768812843314,0.6856646897037968,0.833784403567059,1.2671980761105395,0.3123483819453379,0.48973749026524466,1.3653579720473483,2,left
5.8229999999999995,0.32267293728794355,0.9448959495258917,-0.21273292893265516,-0.7479050528221725,0.21020751529905327,0.011452203281987289,0.29018094830956914,0.3777753829890905,1.3726670787708593,2,left
5.825,0.3941964610778266,1.0315906356543008,-0.2963128541265322,-0.8842636060779566,0.11355274530835584,-0.23066805734893625,0.3072496100114984,0.4348727173824137,1.3682914572256446,2,left
5.84,0.38823706172207895,1.0494300372786562,-0.32242493990121157,-0.8927867254084457,0.16881268067211275,-0.06707638651558395,0.29534111816050834,0.4267394480261859,1.3723964506866604,2,left
5.846,0.3403131364893704,1.0313083021964298,-0.3103072873857558,-0.801754931252068,0.13742041141441072,-0.16276112291005917,0.3020514060408923,0.40306057054428507,1.3644859557547278,2,left
5.847,0.3403501745412424,1.047334512213503,-0.32645372534342615,-0.9095154642404283,0.17129374776458212,-0.11744747229841493,0.3205877976353363,0.20316853788343453,1.3612966630669905,2,left
5.847,0.33947476273270866,1.033833140426303,-0.31658047512889054,-1.3229254393113323,0.22536686763727326,-0.031424121516804376,0.31693376981421,0.19225865324842176,1.3310768464061025,2,left
5.861000000000001,0.29062123483687774,1.0354131548986834,-0.28098543038046775,-1.2690624146843217,0.3473023076678241,-0.03342078759016989,0.3248367205620577,0.16745170015716648,1.3763231656581143,2,left
5.881,0.2587960774775415,1.065088899050413,-0.2606112396438677,-1.4677282666212994,0.1611246920906032,-0.02487540575059832,0.31488394253951557,0.22913376993288234,1.3193128356681854,2,left
5.8839999999999995,0.2627251842782107,1.0744384182554567,-0.2587913793189028,-1.126809971705105,0.39604503705109706,-0.03631837520504044,0.2832621170426216,0.61439660398659,1.079908688850928,2,left
5.886,0.2549102731940115,1.0661279434493571,-0.26075278305743266,0.6856114229271164,1.3114751573877674,-0.08114371940432102,0.28077871707399926,0.7006517923585875,1.0259411203863977,2,left
5.914,0.26741678558002224,1.0731906193695373,-0.2606786830770344,1.1931372283124606,1.5154129588613592,-0.1036608628037273,0.2737780609472565,0.6320550205767093,1.0653805024850203,2,left
5.917000000000001,0.17174406970904985,1.0974751676744692,-0.2671214422212115,0.6588966505342857,1.3938687429862768,-0.0695992152386974,0.29153239384918767,0.6733113761702118,1.0432532851316938,2,left
5.92,-0.013552604261904917,1.0822481991076596,-0.2754731190256755,1.2055863588051288,1.4153335896639374,-0.11723986661266343,0.2651252366878857,0.6581786362741984,1.0500156461580965,2,left
5.921,-0.022225967735296413,1.077158690118797,-0.2621402683823795,0.6588483664399716,1.4834192211209152,-0.0586491492582114,0.1549036038275438,0.6763239875709206,0.9947499577813667,2,left
5.922000000000001,-0.022596344116157515,1.0843810007032377,-0.27926274360979964,-1.1741033455770093,1.907919959815032,0.1894769841370306,0.1285061274016642,0.6827485536048568,0.9808812143955117,2,left
5.954,-0.13418079907934014,0.9840638042824484,-0.3409653193027881,-1.614057307279415,2.0497990424691297,0.24485202115056867,0.14577354770620393,0.6831012150242981,1.0053309177838226,2,left
5.96,-0.14628046795797794,0.9955942292853113,-0.357013219551695,-1.299717066149698,1.9288788010067344,0.2031051825686579,0.14054609322981648,0.6687874228755392,0.9650238703276605,2,left
5.962000000000001,-0.1157517648379953,1.1583590994169626,-0.33643950776542103,-1.453410502681928,2.002031037617326,0.23023480927894313,0.1340793428372721,0.6987157026935126,1.0281013351383457,2,left
5.9639999999999995,-0.1208197742095677,1.154142522878285,-0.33930602585494596,-1.4801534692963392,1.9928865432440974,0.21202000420077105,0.08941801159888836,0.8563725766132806,1.2367778647277192,2,left
5.965,-0.12280648500162607,1.1747018616292069,-0.3450121217076324,-1.7630634157507314,2.059465510291406,0.1521420989498578,0.0691933701820514,0.9055924700041788,1.357625508506645,2,left
5.98,-0.14431338580734704,1.3080487314603246,-0.28148307691228464,-2.1718599308884508,2.1973155748637687,0.11645026766741838,0.09028724682125547,0.8544438469591262,1.2128935213276004,2,left
6.011,-0.16715708716024863,1.2757265665873687,-0.1903219273351721,-1.5874982054673612,1.9932681823301441,0.18176691181691274,0.07188537355172521,0.904714093134098,1.3661216711928494,2,left
6.013999999999999,-0.15328402607960143,1.2242261039190727,-0.17007810997764192,-2.2990944674284925,2.2391724894427822,0.0746235831001093,0.0345146547991461,1.026096445069791,1.8497532022326153,2,left
6.016,-0.1640198427235945,1.272564497177588,-0.18742797865516608,-4.93433994110778,3.0041306896569973,-0.46688597467647086,0.030082042873679334,1.0736340175628059,1.9398662583325468,2,left
6.02,-0.16074447979698891,1.2338101392697642,-0.1765361168249554,-5.633786611513075,3.1946023829825014,-0.684241426120443,0.025138475863903723,1.026024468462995,1.9184759801095446,2,left
6.021,0.04631386083946652,1.1862566393741314,-0.1090273448233631,-5.0675304261778855,3.1081163745955225,-0.40415731247511855,0.038747538151390544,1.0742709819877372,1.8657797060143761,2,left
6.042000000000001,0.27952676681994787,1.2072331371679876,-0.04462556616253298,-5.463847247049712,3.0605200370155616,-0.7390556124500192,0.019170137085395045,1.026346818872684,1.9767289496361171,2,left
