time,gFx,gFy,gFz,ax,ay,az,wx,wy,wz,subject_number,foot
4.367,0.06240978769878648,1.0215524816404646,-0.15606995040437635,0.8657503584608531,0.37188145626847047,-0.318504553765244,-0.0824290450925296,-0.43787517693001704,-0.6733107303400514,2,right
4.368,0.07768464396940185,1.021622011954649,-0.15941708389335896,0.825610382825285,0.37407893858797836,-0.31998825280541277,-0.08250970845051306,-0.43844860619108816,-0.6731106814112602,2,right
4.372,0.0880127281780746,1.0235590711745703,-0.15932649937267496,0.8348993673722427,0.37371281075868434,-0.31975109926788375,-0.08220204659631163,-0.43752299633331027,-0.6731778302637148,2,right
4.373,0.09610917626410834,1.0249046012540308,-0.15565630734573993,0.8453096426340965,0.37286598777252133,-0.31916129580817854,-0.08266909945338768,-0.43832031441762453,-0.6734110477886994,2,right
4.376,0.10017076682307793,1.0217067020450321,-0.15261347959560156,0.8271836216706872,0.3742046543634359,-0.3200865333752685,-0.08206653168177319,-0.43790099584325215,-0.6727742247741245,2,right
4.377,0.09981407162293347,1.0189618780568692,-0.1582254959118227,0.8442245641118543,0.37299245923268687,-0.3192513116191717,-0.08276208610281421,-0.43791269607385797,-0.6737697031888772,2,right
4.381,0.09755672414971839,1.0182387060590705,-0.16212321870700852,0.8326545021911237,0.3736372913817416,-0.31968776736633364,-0.08211017410243499,-0.4381706368595594,-0.6726884445710595,2,right
4.382,0.0925254407169435,1.0146711190652287,-0.1564386990805524,0.8381194846507214,0.37381250190917215,-0.31983246505382634,-0.0824411598129508,-0.4378835167526617,-0.6733235181169073,2,right
4.386,0.08670052424071585,1.010086910107796,-0.15143687279809365,0.8371739136911185,0.37276634196966474,-0.31906493863739105,-0.08282264056453748,-0.437926837092396,-0.6738490948907214,2,right
4.386,0.07872127249783614,1.0046393529884816,-0.14776323040234604,0.8358203739835337,0.37448172998144313,-0.3203144249106963,-0.08135609297651251,-0.4383511514368581,-0.6715027719332469,2,right
4.391,0.06525853232231604,0.9991919407915372,-0.14141731597005752,0.8377775308889392,0.3726242425699736,-0.3189630316815721,-0.08401667674351146,-0.43738523379226313,-0.6758675892650408,2,right
4.3919999999999995,0.04839027010325407,0.9978591414591628,-0.13567307199504225,0.8358342490314492,0.3737430305344583,-0.3197747491643902,-0.0806265325192575,-0.43870504147177247,-0.6702567790516565,2,right
4.395,0.028620819812633286,0.9986959625444685,-0.13530789839057006,0.8381851090530466,0.3744820313354729,-0.32032147222303087,-0.08344573333072462,-0.4375690543971857,-0.6749439102654972,2,right
4.396,0.005211312378751254,0.9987322916031801,-0.1351951860714503,0.834485485443498,0.37087875574267226,-0.3176782052728022,-0.08337873979751892,-0.43762966054719404,-0.6748138683658861,2,right
4.401,-0.016883944538154613,0.9981808707555412,-0.12849603490346306,0.8401584268650517,0.3776277495908933,-0.3226255720567305,-0.07798605261565308,-0.4397401867244572,-0.6658828594375834,2,right
4.402,-0.03823028838284425,0.9994268905706234,-0.1227841603261801,0.8331391153815617,0.36894664798009547,-0.31626242709342384,-0.09122404626661992,-0.4344991046724215,-0.6878401714401574,2,right
4.406000000000001,-0.06478445459374478,1.0016884414757388,-0.12003404807946629,0.8388940059824298,0.3762003107837327,-0.32157941269778,-0.06928247272010231,-0.44321503708003324,-0.651430388974855,2,right
4.406000000000001,-0.08201462923078681,1.0021368879261654,-0.1169883348603975,0.8391460706002498,0.37598030330174254,-0.3214182607517912,-0.09822003939232594,-0.43170556369497004,-0.6994575388225763,2,right
4.412,-0.08623648864083722,1.0010161708335032,-0.11686987374867919,0.8268288179688891,0.3622263065671384,-0.3113351565726638,-0.21967985711392796,-0.38339659450140295,-0.9010409461037905,2,right
4.413,-0.09890580265346025,0.9987505248704311,-0.11731299036297749,0.8566279442560638,0.3960601974805051,-0.33613964274604946,-0.24861743064565384,-0.37187824546670156,-0.9490736332973291,2,right
4.414,-0.11601641628270079,0.9965518113435486,-0.11691744919406502,0.8073363422485549,0.3399544156468234,-0.2950059399477771,-0.22667730192386693,-0.3806124447845417,-0.9126548703719128,2,right
4.415,-0.12280508016204061,0.9957955350368404,-0.11688371499521893,0.8723489964280033,0.41395864517045616,-0.34926292954474814,-0.23991014883514328,-0.37534432671418627,-0.9346204923639408,2,right
4.416,-0.1253074905105152,0.9953844226975358,-0.11755801187640635,1.1456349747011587,0.7245423191082525,-0.5769378172854365,-0.2345280910439364,-0.3774862663232886,-0.9256875269698555,2,right
4.416,-0.13167080771922945,0.9934375151278214,-0.12075158148593662,1.2106937297074505,0.7985429978951992,-0.6311910915680403,-0.23444531138608843,-0.3775215481834462,-0.9255471112229595,2,right
4.419,-0.1347451489196598,0.9915043490318761,-0.12312596681923643,1.161376293923132,0.7424430783570267,-0.5900672787124027,-0.23728147494529558,-0.37638803345879834,-0.9302607923304846,2,right
4.42,-0.1305789248302764,0.9905185864775042,-0.1258559823452849,1.1910712844661429,0.7762712732481589,-0.6148525012549998,-0.23388152247317534,-0.3777476437507079,-0.9246089591721219,2,right
4.426,-0.12686197976550906,0.9884836190427047,-0.131337812946845,1.1790950590700167,0.7625192884700398,-0.6047989289417154,-0.23653318705251486,-0.3766860715656337,-0.9290185615191362,2,right
4.427,-0.1212937430829163,0.986177145523615,-0.13490266537472034,1.1787306567410967,0.7623048092980764,-0.6046028722890966,-0.23510536211669134,-0.37725703839900315,-0.9266450547352992,2,right
4.428999999999999,-0.11596215073767,0.9839258551485898,-0.13896656359440623,1.185275527304904,0.7695426537803609,-0.6099469772174646,-0.23541424380933848,-0.37713906594405927,-0.9271508333255407,2,right
4.43,-0.11703850196843463,0.981276306797624,-0.1427284896642621,1.177586860985219,0.7608871615520687,-0.6035854649103862,-0.23584070800873996,-0.37695320975935037,-0.9278809658985375,2,right
4.435,-0.11719313912044596,0.9785434773804996,-0.14246070906047104,1.1833307946630973,0.7676068001986155,-0.6084789479221486,-0.23510309666793067,-0.37727453439847247,-0.9266183320208953,2,right
4.436,-0.11530755707681427,0.9752963430784909,-0.1406647200890913,1.1807078669632232,0.7640237130796983,-0.6059568166445712,-0.23581989320698254,-0.3769552225740973,-0.9278550743848308,2,right
4.44,-0.11500590936619763,0.971712701617743,-0.13365360606661425,1.1804538748936322,0.7647702460889972,-0.606324139680851,-0.23532601533208625,-0.3771789060515278,-0.9269979009233252,2,right
4.44,-0.11593569635585407,0.9679298599131669,-0.12509453578615987,1.1825086425447624,0.7658348590360349,-0.6073252884543445,-0.23550450636915174,-0.37710806443619876,-0.9272937963646862,2,right
4.444,-0.11887205635756204,0.964068390025331,-0.12046369516518202,1.1800798374295933,0.7640876116736053,-0.6058685264607134,-0.23565997144208428,-0.37699601404126,-0.9276213295333697,2,right
4.445,-0.12049118027374325,0.9606058233008993,-0.11595760249037033,1.1814450781559884,0.7656497368237787,-0.6070120963668564,-0.23520613106619292,-0.37729135784962153,-0.9267093147103178,2,right
4.449,-0.12044549898133167,0.9565273356765678,-0.11458710642411965,1.1823148250267996,0.7647527289950335,-0.6066809022679969,-0.23586024844843678,-0.37685985443308045,-0.9280317450159067,2,right
4.45,-0.12213229545841234,0.9510646065492976,-0.11209952506691746,1.178624946968132,0.764867002558774,-0.6060188549985898,-0.2351933623374311,-0.37730777887397204,-0.9266725775770885,2,right
4.455,-0.12268652459312546,0.9495730175387925,-0.10609524749357403,1.1847294422850383,0.765378198644106,-0.6075061846411276,-0.23557897170774034,-0.37704878141830445,-0.9274582348954801,2,right
4.455,-0.12237352968898561,0.9525987534093544,-0.10395136267950289,1.1780022091971585,0.764583812118327,-0.6057378469399253,-0.23584411105811298,-0.3768525336140086,-0.9280242713698119,2,right
4.459,-0.12470250241917961,0.9539172768809905,-0.09962007948147919,1.182036573816728,0.7652100944548064,-0.6068821573738837,-0.23459676596913953,-0.3777465240751964,-0.9254035809638993,2,right
4.459,-0.1289940632078986,0.9552353587737704,-0.09528379767225906,1.1850564383677544,0.7652298333594663,-0.6074874897979707,-0.2369142020404451,-0.3760867240971152,-0.9302703055632242,2,right
4.4639999999999995,-0.13640618614330396,0.9566148202662137,-0.09622428064947315,1.1709950105241396,0.7641838594809729,-0.6041352559518394,-0.23394420629178353,-0.3782159213613993,-0.9240310407446756,2,right
4.465,-0.14443393571790508,0.9575636983356343,-0.09464130830719392,1.197272095362374,0.7663503683332182,-0.6105180398857196,-0.23642099379986586,-0.3764391400906546,-0.9292348346086592,2,right
4.468999999999999,-0.14866562881868284,0.9604663915256175,-0.09505630314190508,1.1634584726980557,0.7634867058656132,-0.602262477665676,-0.23634724936602014,-0.37649060162963405,-0.9290841333177269,2,right
4.47,-0.15208285279151895,0.9623031946117033,-0.09737832129605395,1.191719159710046,0.7659120524374083,-0.6091797528024131,-0.23165383768831987,-0.3798652123662796,-0.9192071540780435,2,right
4.473,-0.15425640684808722,0.9647809230703872,-0.09438925040272367,1.190905102303776,0.7657929687576162,-0.6089539420881103,-0.24319426529405613,-0.3715675851377255,-0.9434885999413878,2,right
4.474,-0.15318084634666707,0.96773927747887,-0.09073982034632724,1.137147695010143,0.7613104059855007,-0.5958668392343691,-0.22406080648143456,-0.385326068537669,-0.9032326395894785,2,right
4.479,-0.15222354876305366,0.9675996469805821,-0.08699809649665136,1.269349288316441,0.7724054173854997,-0.62808889627634,-0.24929545170634723,-0.36717852727408207,-0.9563242694936811,2,right
4.48,-0.1521297905507054,0.9681991011925315,-0.08730293652292077,1.0501238086708766,0.7539799787362471,-0.5746426064584977,-0.35520553019874523,-0.29102164915451745,-1.1791783860004221,2,right
4.482,-0.15135204492351417,0.9692994641520464,-0.09213202423390236,1.3392940901099382,0.778293951391591,-0.6451450826987121,-0.3804367265570031,-0.2728736584135294,-1.232260996139356,2,right
4.4830000000000005,-0.15094127584044525,0.9698632381423066,-0.09229218614098827,2.553003740456262,0.8803057026286186,-0.9410551171246047,-0.36130831292497334,-0.28663210499893516,-1.1920169762072188,2,right
4.484,-0.15277330126458177,0.9721362416021517,-0.09544645440669619,2.8421822074956973,0.9046221669640364,-1.0115579630506608,-0.37284550645049325,-0.2783365156276768,-1.2162944062907588,2,right
4.485,-0.15592898680982514,0.9745078128124184,-0.102566628222813,2.6229424462250526,0.88618787648703,-0.9581067614015268,-0.3681493103415225,-0.2817056933253891,-1.2064009868600194,2,right
4.489,-0.15932543282612488,0.9775740555094217,-0.10248490931377535,2.755159887910972,0.8973036672664199,-0.9903446474312175,-0.3680879658415155,-0.28176629275306975,-1.2062963014798367,2,right
4.49,-0.16168224216395932,0.9817592511872965,-0.0965195459099371,2.7013922406336306,0.8927850943433226,-0.9772259247230707,-0.3705418431699021,-0.27997845281623646,-1.211425596865197,2,right
4.494,-0.16044487232105703,0.9854554967307526,-0.08825355972902765,2.700573749276166,0.8927134600976969,-0.9770461378019868,-0.36760107086529736,-0.2821161099020635,-1.2052711610895386,2,right
4.495,-0.15577855792575562,0.9881050776656032,-0.0816267127526982,2.728861983082516,0.895094816898923,-0.9839150458434434,-0.36989399434136794,-0.28045739946460424,-1.2100815167050456,2,right
4.499,-0.14797425793446928,0.9898540736386086,-0.07722342311931849,2.6949944620566324,0.8922449270498898,-0.9756856360644705,-0.36864898389068634,-0.28133320324037536,-1.2074335322275984,2,right
4.5,-0.1372662585928635,0.9919494196961147,-0.07322378961812617,2.7213439521163423,0.8944612614980034,-0.9820980094055934,-0.368953787604499,-0.28117675097956796,-1.2081658469215975,2,right
4.503,-0.12722966264471913,0.9935245608885729,-0.0711717479333395,2.707215556386358,0.8932749577902273,-0.9786291355242276,-0.3692442708513932,-0.28085984892935645,-1.2086205237667527,2,right
4.503,-0.1225064681704492,0.9975722802086506,-0.07209125293839656,2.7102563081493765,0.8935256634911596,-0.9794481676701381,-0.3687225633415603,-0.2813675141087154,-1.2077147722191792,2,right
4.508,-0.11965289650788304,1.0066003041843599,-0.07864239500653969,2.714365295364378,0.8938794893373632,-0.980316252733044,-0.36921847134943453,-0.2809052923226785,-1.208605197441307,2,right
4.5089999999999995,-0.11249142839200232,1.0158490705126195,-0.08700569489025378,2.7074290040201108,0.893286176139163,-0.9787892150481146,-0.36886095611532443,-0.2811614445431093,-1.2078516339182763,2,right
4.513,-0.1007156970111304,1.0228556389270045,-0.09448095788075742,2.7138756986027213,0.8938362343307589,-0.9802301428299763,-0.36908584634934904,-0.2811956631256204,-1.2086085929019648,2,right
4.513,-0.0782113371664745,1.0249288123371882,-0.10075040285246063,2.709784733536644,0.8934922898137665,-0.9792315901635709,-0.36892832867533754,-0.2808611681420562,-1.2076285973017278,2,right
4.519,-0.04623528500594165,1.0206530675097851,-0.09599866102467011,2.710946710386958,0.8935753062575825,-0.9797576437318078,-0.3690779765861754,-0.28142153409095716,-1.2089110787387551,2,right
4.519,-0.01299301394928799,1.0116267439848974,-0.07543285140760095,2.7123768307446987,0.8937291531225143,-0.9795514708797806,-0.36893431410764665,-0.2808127738319078,-1.2075772099874253,2,right
4.524,0.020867595674960385,0.9988316484600221,-0.044412937936420455,2.7092647146566877,0.8934173161956918,-0.9796205382493766,-0.3689922613075805,-0.2811825224842165,-1.2082953733210062,2,right
4.525,0.04601482339948987,0.9882433834600975,-0.01690103439058127,2.7127647734776597,0.8937651581060173,-0.9795912811365732,-0.3691664458432711,-0.2814119599452436,-1.2091752524517867,2,right
4.529,0.0624106631635932,0.9818884426299795,-0.002465939327042882,2.7104541605291876,0.8935397807685757,-0.9795381002297808,-0.3686074114563752,-0.2802617440840894,-1.2057509661891275,2,right
4.529,0.07505385017324571,0.9778477730257596,0.006805159895616325,2.7098894646442093,0.8934660045809861,-0.9798395795161103,-0.3696075299025008,-0.2824211225614559,-1.2120248048938285,2,right
4.534,0.07968810942932533,0.9783403023605985,0.011323859551304317,2.7146975345906954,0.8939864167423328,-0.9790885640010774,-0.3683314477983431,-0.2796425739044637,-1.20398546803156,2,right
4.535,0.08615971743615525,0.9800844982213713,0.0064565122119495605,2.7053584124427825,0.8929853511319694,-0.9803788577846878,-0.36939362620150207,-0.28196446583137713,-1.2106911937316984,2,right
4.537,0.09517173001182996,0.9812339282766663,0.005532252802950118,2.717446126286947,0.894279242608049,-0.9787448976304914,-0.36937727369202755,-0.28189281650469733,-1.210534100149399,2,right
4.538,0.10435961656295423,0.984027232440213,0.014343803700132097,2.7073145496005684,0.8931950712397912,-0.9800999556748653,-0.3673108660360429,-0.277494692343107,-1.197665233216075,2,right
4.544,0.11561806830287272,0.9861448120730926,0.02121854933416603,2.707739776333127,0.8932384337739092,-0.9800984521913277,-0.37237560824812355,-0.28831474890118675,-1.2292688736205255,2,right
4.545,0.11675426381505229,0.9877054179804122,0.023433356799600985,2.726567313823222,0.8952613457266967,-0.9773986468642115,-0.3639812294610696,-0.2703724887768477,-1.1768724843631304,2,right
4.548,0.11304742052286479,0.9886831743521852,0.02466473835408941,2.6801094661533664,0.8902711159364975,-0.9839935975869718,-0.37505384886830073,-0.29403769245971556,-1.2459872673340575,2,right
4.5489999999999995,0.10919743174507883,0.9902314853623189,0.02682654261631625,2.757191287958219,0.8985520627511432,-0.9730685779936177,-0.42154509353188263,-0.3933631978976243,-1.5361081810052883,2,right
4.55,0.10333256103444885,0.9936828742504418,0.02933796104279749,2.655507011426345,0.8876252250507712,-0.9874792146567594,-0.4326213231970324,-0.4170253377897985,-1.6052389373674099,2,right
4.553,0.09863349226516753,0.9951844770212939,0.031227212386661995,2.228896567327026,0.8417778781935736,-1.0480181349356181,-0.42422208933178984,-0.3990873004224599,-1.5528192383898447,2,right
4.553,0.08437104680570465,0.9974154815152958,0.031144231848395758,2.1271952749448073,0.830838965560912,-1.062438003504428,-0.42928870737712066,-0.409905401783622,-1.5844376555695172,2,right
4.553999999999999,0.06527672335631744,1.00288405110648,0.021640530411926918,2.204320123357977,0.8391423693201553,-1.0514997949297857,-0.42722832660042354,-0.4055029119765755,-1.5715821008019644,2,right
4.5569999999999995,0.044729342565127825,1.0102623047255823,0.013090560771376877,2.15778208528409,0.834123839332062,-1.0581022835872913,-0.42719437685206096,-0.4054450851355166,-1.5713669597432869,2,right
4.558,0.014765005037925178,1.0207717146262785,0.01915629644301657,2.176728309496018,0.8361720026719921,-1.0554122386278815,-0.4282854927958541,-0.4077436121989493,-1.5781794562384879,2,right
4.563,-0.01912291600564417,1.0330185696113656,0.02811185031721881,2.1770182563372993,0.8362068548143784,-1.0553741203803582,-0.42697596470966986,-0.40499275987655775,-1.5700043895699405,2,right
4.563,-0.059589658879704466,1.0466390017017346,0.033542540748537186,2.1669844939575653,0.8350981989547788,-1.0567941779816903,-0.42799911312848893,-0.40713196144817043,-1.5763914065132312,2,right
4.567,-0.10324781123759508,1.0614935573194808,0.035360318026641524,2.1790949143209835,0.8364623005016567,-1.055079875188333,-0.4274489849219544,-0.405976919017587,-1.5729578249299694,2,right
4.567,-0.1429571765007847,1.078350391099478,0.030722752363601294,2.1695229386209363,0.8353458316687732,-1.0564338371856699,-0.42756039478870567,-0.4062545141824411,-1.573651157220596,2,right
4.572,-0.1847394361652867,1.1002439177165162,0.022021891935963524,2.174825519099356,0.836002077901177,-1.0556849811795423,-0.42774585268668697,-0.40652277523953806,-1.574813630972503,2,right
4.573,-0.2254860029122435,1.1247306119077645,0.003930850593784814,2.1735520626151557,0.8358281141345056,-1.0558645408752938,-0.4274251617601274,-0.40605821743147275,-1.572804018888136,2,right
4.578,-0.2601055130478136,1.1492091737036179,-0.02270881221453585,2.171960831989744,0.8355838824672785,-1.056086682076318,-0.42774662183577006,-0.4064742695451347,-1.5748200744009937,2,right
4.579,-0.2855503084942134,1.1754502826644961,-0.046704878520856,2.175110751845304,0.8361581281942096,-1.0556502709369362,-0.42752003353404777,-0.4062060341749031,-1.5733981963525108,2,right
4.581,-0.2977045828553263,1.2037816182579384,-0.07531958411472368,2.171482343619207,0.8353622849905453,-1.056147364293553,-0.42758802125423623,-0.406353135207002,-1.5738223522257293,2,right
4.582,-0.2984357361077944,1.2326057754777788,-0.11359171070112695,2.1747382630619616,0.8362102218217565,-1.0557070170964966,-0.42771719372357614,-0.4062287456680006,-1.5746430527676563,2,right
4.587,-0.28925676683642826,1.263576883707078,-0.1506414323627353,2.172660633127532,0.835589758109299,-1.0559845539617356,-0.4273842804977587,-0.4064325445966782,-1.5725322480926365,2,right
4.59,-0.2730674978004107,1.2995713273406237,-0.18463435177713042,2.1726506730507005,0.8355857458700913,-1.055985945731551,-0.4278721315717491,-0.4061096547276768,-1.5756262524773712,2,right
4.592,-0.2523485076430738,1.3387635441803485,-0.2140667158138015,2.175676513019904,0.8366464256628523,-1.0555883113339815,-0.4273637477414397,-0.40647886352814794,-1.5724008483536283,2,right
4.593,-0.22864882550117022,1.3790967577387323,-0.24037105793358243,2.169111632188553,0.8342590595974948,-1.0564470785914422,-0.4276575375042937,-0.4062655500216292,-1.5742648021965762,2,right
4.596,-0.19875506943069837,1.4209681162575785,-0.2713955739859083,2.178617106980403,0.8377904333393558,-1.0552071117882833,-0.4278852427312613,-0.4060273380710867,-1.5757120151199087,2,right
4.5969999999999995,-0.15678521526403127,1.4624232509638513,-0.3021440323276974,2.168652342344762,0.8340429825170368,-1.0565046842556023,-0.42685582587926857,-0.4070001688414816,-1.5691729439957083,2,right
4.601,-0.10470670134561612,1.5028555924519975,-0.32316529192136123,2.1743565787465364,0.8362042747433502,-1.0557632045416891,-0.42876632944912296,-0.40519890569801736,-1.581308808206955,2,right
4.602,-0.03745936633772096,1.546451097606134,-0.3289357598665448,2.179249931143927,0.8380592783529301,-1.055125271206081,-0.4263155103344333,-0.40751707135828963,-1.5657403831588759,2,right
4.606,0.03638671260128396,1.5894095841825884,-0.31959091624154157,2.1578960803062235,0.8299359150157146,-1.0579038838646113,-0.4283602773023214,-0.40557866278601007,-1.5787297531437159,2,right
4.607,0.11370847267272954,1.6305374625506093,-0.2989028621532245,2.1974363727823136,0.8449991527000231,-1.0527614376799648,-0.4283029696161229,-0.4056276659946061,-1.5783655029737051,2,right
4.611000000000001,0.19778135477962253,1.6708550747860897,-0.2746675747941907,2.1467062118572215,0.8256566718429672,-1.0593567342111885,-0.42441378708883915,-0.4093429536502337,-1.5536594179863257,2,right
4.612,0.2714337395336807,1.7034812190194464,-0.25055106215920875,2.1890416314219197,0.8418105800242262,-1.0538560117354063,-0.43397345802154563,-0.400210898676407,-1.6143881536000215,2,right
4.615,0.3605763398814781,1.7404748588183139,-0.2181794543575437,2.1878881959188274,0.8413543231036265,-1.0539988171387065,-0.4181244352538619,-0.415356264207008,-1.5137048999024536,2,right
4.6160000000000005,0.4244168377506486,1.7651728582113801,-0.19663744014533208,2.10721480650135,0.8106022223528191,-1.0644977557972486,-0.4390274056555835,-0.3953746037182501,-1.646494960021331,2,right
4.617,0.4346435692724442,1.7688543317428085,-0.1934481988082596,2.3054993341432386,0.8862222450898714,-1.0387065928649402,-0.526773452460926,-0.31152784365104325,-2.203910051627467,2,right
4.62,0.4995093589672459,1.8013141299681608,-0.17780028518688326,1.9767395164232473,0.7608177028914527,-1.0814595239922444,-0.5476735535267596,-0.29153808069307235,-2.336683308998,2,right
4.621,0.5640258820877091,1.8321550862937144,-0.16358995773417934,2.4103681004139768,0.9262430750363198,-1.025076205744805,-0.5318281377830381,-0.30669328493477455,-2.2360213707342593,2,right
4.621,0.5696292403564874,1.8361112642574118,-0.16295021419228828,4.230334504425826,1.6200585933133809,-0.7882239646669814,-0.5413872092442751,-0.29756076572061985,-2.296745912939909,2,right
4.625,0.614218680796339,1.8697864349807178,-0.14852686015040556,4.663949112617162,1.7854627823397822,-0.7318349356962008,-0.5374913990343609,-0.30125480526016424,-2.2720024243353696,2,right
4.626,0.6654874005489733,1.917828603536836,-0.11897701991628142,4.335229427527732,1.6601517337329454,-0.7746170741645498,-0.5374508034612198,-0.3013547578720705,-2.27173395111919,2,right
4.63,0.686307476697797,1.95739802327789,-0.07983182967508777,4.533431113966124,1.7355304952320152,-0.7487466928438112,-0.5394696456325192,-0.2993391097373107,-2.2845737479489365,2,right
4.631,0.7037008780090828,2.005320121856474,-0.030830890874145974,4.452890208237946,1.705217724668982,-0.759393297445794,-0.5370470943308898,-0.3017394219418422,-2.2691695668261236,2,right
4.635,0.6999437431309112,2.051483800272421,0.023570066522620642,4.451573733199831,1.704160480684536,-0.759330722487525,-0.5389408470995072,-0.2998929977967256,-2.2812061491758575,2,right
4.636,0.6831336732522573,2.0943961826262596,0.08016561595993542,4.494045230137733,1.7209004422899314,-0.7540345321209173,-0.5378976497964307,-0.30081767807211696,-2.274591514780529,2,right
4.64,0.6591529939649138,2.1366879325216113,0.1303246726801034,4.443301588297448,1.7013186743601227,-0.7605385023690967,-0.5381877969486291,-0.3007730878536172,-2.276394770642775,2,right
4.64,0.6197756397206474,2.170823563445866,0.1711187048576613,4.482621100114052,1.7158458087569897,-0.7552268422762645,-0.5383637505272896,-0.30020429405342686,-2.2775813158418132,2,right
4.645,0.5768631272832407,2.1981794834244504,0.20555872311493806,4.461800967525523,1.7094011406235898,-0.7585645851679762,-0.538010859453688,-0.3010329768686834,-2.2752551376388155,2,right
4.645,0.5358869325583768,2.216608252988453,0.2357916026110615,4.465873326617132,1.708383095131832,-0.7569525419558341,-0.5383584982351434,-0.30030910861312654,-2.2775308674978367,2,right
4.65,0.4950080813843217,2.221122515511067,0.26116731945176397,4.472482237515413,1.7140558853784098,-0.7574199811964866,-0.5380617254057551,-0.3005891118053712,-2.2756460685193205,2,right
4.651,0.454611046114062,2.2144858714191593,0.27955718228141474,4.461948729862663,1.7075271346835565,-0.7577325709654175,-0.5383653355875213,-0.3010258507140413,-2.277450167690297,2,right
4.656000000000001,0.41450559904884876,2.19553421049101,0.28889757912165304,4.4710986510264705,1.710992580353055,-0.7565327887695057,-0.5379668277484463,-0.2997458225248131,-2.2752035903455052,2,right
4.657,0.37478499682410016,2.1632506335680857,0.28305864157704985,4.46639296892911,1.7138617194746453,-0.7591074508946007,-0.5384905967575226,-0.30172275104571356,-2.2781055826210275,2,right
4.659,0.33317503854477637,2.12370224631299,0.2675460246422835,4.46580602911566,1.7029827830884197,-0.7546990052118098,-0.537945421782295,-0.2996030090592884,-2.275095879903172,2,right
4.66,0.2886691193863151,2.0793906981460157,0.2470062144534154,4.470674969153944,1.720733263310306,-0.760756202143269,-0.5382396197838113,-0.3008471883223264,-2.276702391795512,2,right
4.665,0.2403958154695855,2.0279695654001157,0.21602929217076663,4.464024207175491,1.701255834952875,-0.7544888461587268,-0.538596273235793,-0.3018227379914915,-2.2787429160671584,2,right
4.667,0.18907099386761947,1.9745425514597448,0.1693110362954886,4.468845014967728,1.7128799181024588,-0.7579834107671992,-0.537204065368035,-0.29739528486480227,-2.2708863645525463,2,right
4.669,0.13641085954620139,1.9210886265851659,0.1120305660006072,4.469960002030559,1.721749673320776,-0.7613896902028584,-0.5397554827381105,-0.30563377384619117,-2.285262074697016,2,right
4.67,0.07226715940833425,1.863422944107902,0.05361766498232255,4.459472357855228,1.68081196450097,-0.7472082224551013,-0.5364861702452345,-0.2950500086279678,-2.2668473142117005,2,right
4.675,-0.007076046890203171,1.8144228967020828,-0.034650460708937784,4.480244252345221,1.7572277431587122,-0.7733373273532593,-0.5392127897654517,-0.3038864125635766,-2.282201855808126,2,right
4.676,-0.10851005535966343,1.7651264599461043,-0.14738611751823152,4.453099154280466,1.6589335557446225,-0.7398463031235764,-0.5391495956074395,-0.3036420808278183,-2.2818570983691244,2,right
4.68,-0.2228929171637788,1.7160672804632828,-0.25763347219728083,4.475955113583508,1.7410570930846232,-0.7677833234946632,-0.5339156833334928,-0.2868139272641519,-2.2523495490584997,2,right
4.681,-0.33655040624468446,1.671479320963377,-0.31974622472445796,4.475044178879392,1.7387488817188896,-0.7670598835988526,-0.5467675067768765,-0.32817778050578583,-2.324789444058473,2,right
4.684,-0.4517864116827479,1.6033804839559134,-0.2710764647401993,4.432245100661088,1.5823918711630305,-0.7137005401233982,-0.5254618107118638,-0.25959802639025653,-2.204705698667688,2,right
4.684,-0.5127157359474972,1.558592638614127,-0.21391363034659866,4.53785151689481,1.9668024539893723,-0.844808480293948,-0.5535636705527353,-0.3500496999171515,-2.36309059964778,2,right
4.685,-0.5331088499329466,1.534988081079168,-0.174279601080779,4.362610930589735,1.3294186481855657,-0.6274356309988786,-0.6715359068668816,-0.729850332052277,-3.028106454695342,2,right
4.689,-0.5703779339429839,1.4931115909898036,-0.10119127382676377,4.5937841475698775,2.1700965672113437,-0.9141534174937049,-0.6996391195182687,-0.820305999877811,-3.186503677355802,2,right
4.69,-0.5908654970732088,1.4691252238580552,-0.06205872993868426,5.564230557310753,5.699329699560505,-2.117540259272181,-0.6783319807831736,-0.7517036512157099,-3.066393849639214,2,right
4.691,-0.6179889234749996,1.4145398835634744,0.0038429803867981917,5.795364616410796,6.539926315016341,-2.404277305745205,-0.6911831732336082,-0.7931305841958881,-3.138873838987726,2,right
4.695,-0.6622550799591268,1.3213287906380753,0.0869772748177868,5.620130355745997,5.902616751053268,-2.1868883150877565,-0.6859542692480773,-0.7761833321764152,-3.109317399380049,2,right
4.696000000000001,-0.6917354908717783,1.2427067682816575,0.11086394050441097,5.72588054203727,6.28710939807373,-2.3179716941586053,-0.685880401489541,-0.7761061142195235,-3.109015631697061,2,right
4.7,-0.7271701234640475,1.1580104321362328,0.1414482752699443,5.682677754043214,6.1303603882975874,-2.264715768569719,-0.6886222428331419,-0.7847742785774325,-3.1243583357821443,2,right
4.7010000000000005,-0.7603325646883667,1.0704729236067847,0.17791218566463418,5.682459633700762,6.1288286656364495,-2.263792724032631,-0.6853378749489769,-0.7742689001375971,-3.1058931569032913,2,right
4.704,-0.7847499100543773,0.9891378955200262,0.2065752433922844,5.704462999641397,6.209892474275409,-2.291997593374594,-0.6878955983479915,-0.7826391048110548,-3.1204061358162187,2,right
4.705,-0.8122411467489308,0.9114567824400628,0.23280864076375693,5.677991082250077,6.1125866060247205,-2.2582627602772276,-0.6865167567420976,-0.7777629012123545,-3.1123267073443435,2,right
4.709,-0.8392742507483308,0.8403470674174514,0.24060561958582383,5.69879901045901,6.188700265686112,-2.2844545160311944,-0.6868311073595574,-0.7795277798589434,-3.1146272629869043,2,right
4.71,-0.8642543204436068,0.7732117407510415,0.2404993822924437,5.686980968282732,6.146627407507422,-2.2705804507871,-0.6871977670725018,-0.7797844635762705,-3.116045699774411,2,right
4.713,-0.8830976683719971,0.7139985992392808,0.22198418840278739,5.6910872395851335,6.158660956365038,-2.273165170069393,-0.6865641178116242,-0.7784809511960102,-3.1129907066303866,2,right
4.7139999999999995,-0.8974798549993391,0.6568054303987358,0.18278891631864533,5.691488741206518,6.165113486029874,-2.2779795601611177,-0.6871577438450915,-0.7803983359365063,-3.116341347180005,2,right
4.718,-0.9097431863142007,0.6045102256232938,0.13778067964595797,5.6894811657289015,6.151685688047118,-2.2701941480031276,-0.6867614217579827,-0.7777566085216643,-3.1131489319775625,2,right
4.718999999999999,-0.9206916293419227,0.5607385337842417,0.09272396301998748,5.691814376172965,6.165057114118769,-2.2773096575351373,-0.6869318090951557,-0.7814269458897124,-3.1162997872624656,2,right
4.724,-0.9360503256676764,0.5166041543810109,0.05774968708463608,5.6885201332867625,6.15311687613938,-2.273260505504811,-0.686936660548385,-0.7767849758305367,-3.1130593082888938,2,right
4.725,-0.9574034599962361,0.47585295027670044,0.040166274049414474,5.694679955920562,6.166457923825387,-2.2730684857519705,-0.6868365936595723,-0.7814284376446182,-3.1159790024107163,2,right
4.728,-0.9821778189182317,0.44151945405591286,0.04295659846463644,5.683866103515708,6.147845018609136,-2.2775571714454808,-0.6869581944445515,-0.7789498814016476,-3.114651176560397,2,right
4.729,-1.0125717860443424,0.4099698343308604,0.06924714462549723,5.699219016424637,6.172769964820436,-2.2698912447995196,-0.6868647154810985,-0.7761777369431705,-3.112389921298748,2,right
4.732,-1.049867753698236,0.38384867722984156,0.11005323163404235,5.6829945388938405,6.146725675651556,-2.2782433792801147,-0.6869077696900444,-0.7871374565071475,-3.1202252672126836,2,right
4.7330000000000005,-1.0910175000290625,0.3672927603465085,0.15174848426269352,5.692145171534214,6.160943670196766,-2.273133109366537,-0.6869147131123194,-0.7670894699077443,-3.1061827583820603,2,right
4.737,-1.1356168288240518,0.3633054683475072,0.19628642414357644,5.701153467594981,6.1773245280684215,-2.2701384236949056,-0.6868740782338888,-0.7927324277033513,-3.124036225867402,2,right
4.739,-1.180219390825794,0.36357616071551085,0.246235120732849,5.663553411630538,6.112376260140793,-2.2855520090772643,-0.6869221252110949,-0.7713662139322635,-3.1092093861665004,2,right
4.742,-1.2239697004505792,0.3677718643998009,0.2997970367879025,5.732963493433104,6.2316164866407915,-2.2565523188470946,-0.6868982730090207,-0.7718804380318448,-3.109487044049152,2,right
4.743,-1.260397265898043,0.37553161291919446,0.3506743886304035,5.643896020620306,6.078763468839728,-2.293880567026499,-0.6868660248677894,-0.8127922080529952,-3.138085164978648,2,right
4.748,-1.2835747969433995,0.37712030034184274,0.39266076364316405,5.718248558363898,6.206287354965369,-2.2626827117624195,-0.686979259272242,-0.7123282169977403,-3.067978967792737,2,right
4.749,-1.30580244788529,0.3999644898550253,0.4291908468891147,5.716294998612986,6.203202423088051,-2.263664434465465,-0.6867768778495644,-0.8788680702813485,-3.184141077290458,2,right
4.753,-1.3216762717235335,0.42718528096205566,0.4475614206488892,5.574274792968243,5.958784000752898,-2.3226947172634826,-0.6870514505836631,-0.6592142381081303,-3.0309615006253914,2,right
4.753,-1.3269776369238628,0.4348731392670734,0.4511886187540507,5.923323123707293,6.559153342470948,-2.1774507026045447,-0.6881466048226175,0.26281354766563814,-2.387730392475121,2,right
4.754,-1.333861539914289,0.47227660147341216,0.4628410648136724,5.3445308865157175,5.5637508075202415,-2.4183034389805753,-0.6884279482115705,0.48246791087168256,-2.234579812489505,2,right
4.758,-1.3382017104804125,0.5068402242888047,0.47242900347075156,6.108042564434092,6.876764565427954,-2.1006291446388823,-0.6882159053663314,0.3159350070973933,-2.3506973755589664,2,right
4.7589999999999995,-1.333635290000326,0.5079412635592035,0.47081169264666345,9.312005475540284,12.387669923242381,-0.7672587137495116,-0.6883346279239784,0.416372129244713,-2.2806259087934135,2,right
4.76,-1.3091878518338829,0.5167274056778091,0.4478427634312662,10.075684072519849,13.700894135708307,-0.44962342356303386,-0.6883096206922434,0.3755172074030112,-2.3092318962341998,2,right
4.762,-1.2632633936427755,0.5091957003592824,0.39037881165481136,9.49671123764018,12.7052638883873,-0.6904339603004874,-0.6882587929253723,0.37491737207508824,-2.3094283617252422,2,right
4.763,-1.2157212759718181,0.4712027030400962,0.31672464003819606,9.845690890002679,13.305546680092402,-0.5451738946017347,-0.688354641010536,0.3963769487296127,-2.294769387939776,2,right
4.7669999999999995,-1.1762117806946544,0.42160222531438024,0.2377379430435859,9.704269720340584,13.061883448748855,-0.604344160735826,-0.6882550099696046,0.3706777270875976,-2.312391427142911,2,right
4.768,-1.1446488904474883,0.3678537444822774,0.1551296644380361,9.701027249039804,13.057173559136986,-0.6050246932611969,-0.6883085714861874,0.3906818287600542,-2.2985681199881043,2,right
4.773,-1.1242058570563638,0.32932854775119824,0.0888438359728296,9.777227832418145,13.187027360147766,-0.5742586822811163,-0.688353523375834,0.3799274842989734,-2.3063271979096704,2,right
4.774,-1.1158868548430076,0.3082742975506173,0.06660340448236615,9.686320081832312,13.031854164397693,-0.6111569053216007,-0.6881700405843348,0.3823082631309205,-2.303838521649787,2,right
4.777,-1.1063374905903012,0.2969483693286473,0.09561195051279658,9.756524227970367,13.152095632764171,-0.5823427599197397,-0.6884943484465003,0.38530775749892,-2.303171141891485,2,right
4.7780000000000005,-1.0790573123620266,0.2902085651376458,0.1365058934502861,9.720504397371762,13.089139433825887,-0.5981256199766167,-0.6880949263287395,0.3801878966305572,-2.3049950419480334,2,right
4.781000000000001,-1.0302691704859295,0.2832667513516701,0.15453469488783533,9.724422280572252,13.099102783522227,-0.5939414114132133,-0.6884140160180369,0.38496624574041427,-2.3030544028355235,2,right
4.783,-0.959659055155389,0.27697299494699507,0.15079720372878608,9.742343945737016,13.124378696854073,-0.5908807314971687,-0.6884131928978839,0.38185759694214283,-2.30523551023073,2,right
4.7860000000000005,-0.8660783587263754,0.26937343296141425,0.12785775108962685,9.71535517240973,13.084763268479932,-0.596717513546358,-0.6878329827784527,0.3829602763103143,-2.3018825288680693,2,right
4.7860000000000005,-0.7560041387874668,0.26095256251061283,0.09768783388852416,9.739289959678551,13.120508229206267,-0.5910569344535483,-0.6891623452390716,0.383543959209516,-2.307379324669127,2,right
4.792,-0.6424885700942986,0.24940988649198145,0.07597888442519604,9.728552452899994,13.10199071932919,-0.5955635208370121,-0.6871785566515958,0.3819296951918015,-2.2996984187936444,2,right
4.793,-0.533468640960417,0.22988599892306572,0.06356687945337725,9.718786888347328,13.09525503845543,-0.5916500373719746,-0.6892931587325988,0.38378925591435825,-2.3077888856889572,2,right
4.796,-0.4343947934915897,0.2040887158687996,0.049399944613196065,9.751887692139896,13.129198666189545,-0.5961056135775201,-0.6880716019875908,0.3824957004839427,-2.3032682428941267,2,right
4.797,-0.35334185427973674,0.1740598878130367,0.01886453872450733,9.699925212178552,13.074117326934097,-0.5905334931910424,-0.6870182819123118,0.38246499806610235,-2.2986113076051975,2,right
4.802,-0.29050403501169414,0.1446631128826964,-0.020972106489911886,9.755798374273176,13.133663630717408,-0.5962733448584703,-0.6916268285932949,0.38437506875426825,-2.31774590282206,2,right
4.803,-0.24240424609497707,0.11823760494033726,-0.05154034517215806,9.722756386794574,13.097949135306372,-0.593273020719296,-0.6830812796080922,0.38051155358923205,-2.282487958729501,2,right
4.806,-0.21246207650783674,0.09027450587814079,-0.06155656772460103,9.698033072842671,13.073641187464453,-0.5891205799643706,-0.6940528495993104,0.3855456398767837,-2.3277066524239016,2,right
4.8069999999999995,-0.19118218631179706,0.06563419169819261,-0.048727812159300846,9.812386159417164,13.190632050679014,-0.6047301242429102,-0.684895271222626,0.38131185799112766,-2.289982161023019,2,right
4.812,-0.17402871242622164,0.03978927348202406,-0.015676486297135958,9.599208762816883,12.971753603692948,-0.5762448100039009,-0.6851384838730807,0.3815426119160056,-2.290911486201238,2,right
4.813,-0.1678101253785121,0.006790170619220463,0.026872186602399102,9.873185231351425,13.253239125822535,-0.6127174382105732,-0.7026111636951002,0.3892386141097668,-2.363133105430141,2,right
4.816,-0.16066134173048796,-0.0218574508962648,0.07044905103617449,9.644359491591933,13.01805803041225,-0.582310453292874,-0.6596749867260745,0.37018198299198146,-2.185741128190927,2,right
4.817,-0.16918711428082872,-0.0588620831413056,0.12235326507941008,9.650930193794888,13.02511235124489,-0.5829718828772847,-0.7308578169710989,0.40181974319308245,-2.479820057845497,2,right
4.822,-0.1855510686389804,-0.08747572420524549,0.15589720201875604,10.08600855041919,13.471314017737392,-0.6414817070435955,-0.6369754153137436,0.360079844318546,-2.091954861673722,2,right
4.823,-0.1847244862186313,-0.09198681472559588,0.16556417008529423,9.016202806682092,12.373776796832193,-0.49786233704200217,-0.2428207635230127,0.18511960006195166,-0.46353706600505895,2,right
4.824,-0.21823696135588216,-0.123611772111632,0.18665746662816513,10.790093349495617,14.193774335172254,-0.7359404574670185,-0.1489506371840949,0.14338148449658805,-0.07569780116857902,2,right
4.8260000000000005,-0.25740989875323483,-0.15658000654635745,0.1993471132996269,8.45034245416093,11.793170112478034,-0.42192072521291385,-0.22012018610155581,0.17501732234878936,-0.36974867717364973,2,right
4.827,-0.26681730829058947,-0.15999517003915012,0.19393494876181555,-1.3704572343919303,1.7183015123840393,0.8964142739187009,-0.1771789587547382,0.15595993235117314,-0.19234602100297885,2,right
4.828,-0.3177947460665589,-0.17988678083215157,0.17496328569997738,-3.71016782857211,-0.6821912678959232,1.2104550405847574,-0.19469569145721222,0.16366238628448473,-0.26466072182159006,2,right
4.83,-0.38895322471062266,-0.20011822526417866,0.12346030700841025,-1.9362888678489734,1.1375952066262403,0.9723527796607708,-0.1948441176697583,0.16387929299835396,-0.2653897818161993,2,right
4.831,-0.4437445585492016,-0.2011608134395344,0.058591196027501166,-3.0062246149111354,0.04033264733583952,1.115968391490282,-0.18582244469535814,0.15966533756487938,-0.22795242075788083,2,right
4.835,-0.5033779083566312,-0.1953791232190243,0.0003016271209103239,-2.5707677967743447,0.48627348496981,1.0575239608683509,-0.19665868016529592,0.16467971536822132,-0.27288520416516804,2,right
4.836,-0.5556716872868992,-0.17399188543383376,-0.04846690499865679,-2.564855192555873,0.4934475703927474,1.0567150839190629,-0.1881715275677907,0.1608246399360511,-0.2377506035010145,2,right
4.842,-0.6034901703152026,-0.1411588552262596,-0.07771692772979479,-2.792862416471296,0.2584481795770504,1.0873388784740772,-0.19289628287183477,0.1627517822672287,-0.2571307629339365,2,right
4.842,-0.6563761894039496,-0.10082219619835106,-0.09267499649731792,-2.5195448036409758,0.5393113046556208,1.050643607979823,-0.19146861483110814,0.16266634155478227,-0.2516828834417938,2,right
4.846,-0.7131567398124194,-0.05018414028700874,-0.1033513939423576,-2.732728001584065,0.32152117850125106,1.0792375136849137,-0.19089207964034682,0.16146695818907875,-0.24852502152971392,2,right
4.8469999999999995,-0.7763634314770949,0.008707416342563074,-0.11202307439961046,-2.6171407228915093,0.43715756289532637,1.0637902933842112,-0.19221507398997212,0.16321109941410827,-0.2549430668073086,2,right
4.85,-0.8431562911651457,0.07579647248396637,-0.12336364388506191,-2.644689763803629,0.41396307258694237,1.0673701912535476,-0.19086240002258723,0.16168862448899596,-0.24859541803044105,2,right
4.85,-0.9099365418332641,0.14885774353388487,-0.1361290200556064,-2.6735157571880377,0.37817496759834635,1.0713852193825852,-0.1921973713272334,0.16227365227996937,-0.25410427528437207,2,right
4.854,-0.9689599353136265,0.226620833891705,-0.14408278966281826,-2.622123303493516,0.435852173057968,1.0643701333438074,-0.19044601455783028,0.16320478666635138,-0.2482767082393732,2,right
4.855,-1.0188146509585427,0.3069894151640049,-0.14907991375625196,-2.671549543638865,0.38518863993312213,1.0710036637592324,-0.19312167892605211,0.16048721937528743,-0.25611274011879803,2,right
4.86,-1.0603834514267767,0.38468801141481107,-0.15102656353165633,-2.6360408509717272,0.4124309496245523,1.0664545562096537,-0.189447861758249,0.16468290453222956,-0.24573613471139413,2,right
4.861000000000001,-1.090628953337174,0.4570712264973345,-0.14775755044313965,-2.655985871113288,0.41296299927844804,1.0686346464516712,-0.1933050007980992,0.16018323895109626,-0.25655265365373714,2,right
4.864,-1.1150288624674487,0.5223998604335738,-0.14268750725247178,-2.6477845953337953,0.39005755004621384,1.068276167211732,-0.19116985118874047,0.1628259917811159,-0.2506899543492143,2,right
4.865,-1.1349781227222815,0.5723414413168864,-0.13653722647722033,-2.648641643359748,0.4225658937171115,1.0675989748847232,-0.18886627200240513,0.16489419675578448,-0.24372077380531265,2,right
4.869,-1.1470335822289375,0.6060768428740531,-0.13026548351635608,-2.6534327933605306,0.39835750846594364,1.0687010951647673,-0.19818982076570635,0.15549719305454807,-0.2710844697280069,2,right
4.871,-1.1508099366010107,0.6250114110441813,-0.12619387887303019,-2.6411270116622227,0.39435705006887245,1.067441225958135,-0.18103610591619018,0.17298852081884938,-0.2209059276022229,2,right
4.875,-1.1460713709101154,0.621930249969683,-0.12311839381534426,-2.664662819847082,0.4429829969236044,1.0688771402609125,-0.20303149460765643,0.15051140777114094,-0.28520818842500606,2,right
4.876,-1.136685186289598,0.6039582453483504,-0.11653681227690191,-2.6281760597173993,0.3454545414503395,1.0671787910726747,-0.1846812494730395,0.16928752000419744,-0.2315806345148282,2,right
4.879,-1.1171978065581878,0.566309501207733,-0.09993376726615935,-2.6724504348940146,0.47333408807050703,1.0690103352514275,-0.1851298820885139,0.1687451558827497,-0.23282640535490448,2,right
4.88,-1.0936195355479208,0.5165500866193433,-0.0846609056678844,-2.63656950956537,0.36545660439240074,1.0676313945355287,-0.22027737644640916,0.13304350481056976,-0.3357504873820997,2,right
4.8839999999999995,-1.069006775141205,0.46895781046094304,-0.07042903386959598,-2.6358816003903582,0.3700967135317894,1.0674345747784681,-0.13394606849365642,0.22084501979631732,-0.08302556602431646,2,right
4.8839999999999995,-1.0314971145948972,0.40560606777555186,-0.04191116454608676,-2.7087184563995197,0.5712199900997348,1.0706845181730456,-0.27707226678001046,0.07523972983930428,-0.5019817083554438,2,right
4.89,-1.0097547072796522,0.36322045744500314,-0.024002635115608385,-2.5320805140681264,0.07439891001240842,1.063040031182347,-0.08829124393614311,0.267312964926751,0.050601046842638414,2,right
4.891,-0.9981612086794543,0.3468597062221125,-0.014538850378934957,-2.8240715036733324,0.8990844618988474,1.0755788427980755,0.7041896217525825,1.0732773132896307,2.3704981834099668,2,right
4.891,-0.976063874500416,0.31952571147834796,0.0036372604851901778,-2.4392345891623783,-0.18900519410487143,1.0590978973385443,0.8929758561491452,1.26538177916032,2.9230834114019433,2,right
4.895,-0.9640311176160712,0.303184116779507,0.013470773996823511,-0.8229795748584354,-4.754994096841991,0.9895947593989235,0.7498440175999536,1.11974269901854,2.5041245935581324,2,right
4.895,-0.9369524838238621,0.2772761370942941,0.03437006362225765,-0.4381407970336107,-5.843130797033359,0.973143263237909,0.8361731870673221,1.2075313645828127,2.756848497772057,2,right
4.896,-0.8939819077841002,0.24023459324497312,0.06653385882898241,-0.72993917424607,-5.018194684321935,0.98562407878057,0.8010443838882368,1.1719417931405938,2.6539332894833327,2,right
4.9,-0.859037154008003,0.22344772810432384,0.08536617997838324,-0.5539913775089212,-5.515703614435731,0.9780600404124111,0.8005555265504439,1.1711582731277064,2.652668425140483,2,right
4.901,-0.8194147448804157,0.21158608385853012,0.09751995965057715,-0.625400324909673,-5.313291194900163,0.981224838229964,0.818963452413036,1.1902801559107796,2.706323355686955,2,right
4.9030000000000005,-0.7795136728972989,0.2099762680950148,0.10028377337169536,-0.6268352800327541,-5.310450822332704,0.9810837304737143,0.7969106174621612,1.1674587251393658,2.6419938329136947,2,right
4.904,-0.7401915655548598,0.2207293673934328,0.0926361231547902,-0.5886707465965652,-5.41652765722692,0.9797269794271519,0.8140891347070884,1.1850986241104295,2.692184139057921,2,right
4.908,-0.7006759149172321,0.234877315061231,0.07795172834475556,-0.6342696240225864,-5.289467129365292,0.9814089333705619,0.8048148802383192,1.1759972797444282,2.6648438510069665,2,right
4.909,-0.6667789815603878,0.2560951834244763,0.05502823865989618,-0.5989745389851978,-5.388450967663406,0.9800118806831989,0.8069596079424151,1.1771130671315229,2.6717376244450164,2,right
4.913,-0.636999338812172,0.28042179734511197,0.028011879201870187,-0.6173102153097342,-5.334953878193099,0.9810307196546527,0.8093684998389201,1.1813968847381333,2.6777302555264244,2,right
4.915,-0.6143609644975345,0.30714763374879617,-0.00021332718928072057,-0.6147659865726272,-5.347475355513797,0.9801758457090028,0.80517537373281,1.17488321135891,2.666754275415147,2,right
4.919,-0.5980389250442505,0.3362555475246665,-0.024627658607735747,-0.606705677214233,-5.361072399535927,0.9811129610740841,0.809117110702346,1.1806845752427164,2.6772580143825966,2,right
4.92,-0.5890499773898785,0.3630919937863778,-0.04405282903686504,-0.6191202886053901,-5.337263436930906,0.9800723811203815,0.80644370807947,1.17798128399598,2.669423107616118,2,right
4.923,-0.5856449659520868,0.3870032058541502,-0.058590904507569874,-0.6080016684685321,-5.3596930771588625,0.9808491307554331,0.80769816515594,1.1759327788780998,2.675014766371124,2,right
4.9239999999999995,-0.582116579423648,0.4103380986333207,-0.06740897812433586,-0.6134226594489536,-5.344283799553596,0.9810926101107457,0.8074990032338398,1.183327333993756,2.6700450522609307,2,right
4.928,-0.5804926469999137,0.43303743842596554,-0.07154893274428112,-0.616592449794972,-5.35204943895244,0.9789034405115896,0.8071570510306305,1.1716461022457638,2.6755883756247734,2,right
4.928999999999999,-0.5810269836157846,0.45719067586095946,-0.06707055263034148,-0.6039112319314297,-5.34967372249443,0.9836732537633206,0.8076407929698275,1.1842197797171292,2.6700277744269076,2,right
4.934,-0.5765080184558835,0.4781609928871836,-0.056776795272999676,-0.6241321261298864,-5.349537398539308,0.9766132584854135,0.8071730250666744,1.1767630649271428,2.672690187209713,2,right
4.935,-0.5605421743013013,0.4844527147474286,-0.05025560845415101,-0.6023334221743136,-5.3503674963159975,0.9841292986477227,0.8077016288629834,1.1712836423116944,2.6777110267680353,2,right
4.939,-0.5411591196559645,0.47398122734984915,-0.05120964515282592,-0.615311506106024,-5.348805583914414,0.9798021807137992,0.8069140310348989,1.196817425312505,2.6601999032968884,2,right
4.94,-0.5257413408342482,0.45325908776750834,-0.055523867762960255,-0.6246030773401656,-5.352821982391628,0.9759933339002099,0.8080986756666904,1.1491835843515572,2.691868313161573,2,right
4.9430000000000005,-0.5109527308101989,0.4310698951891019,-0.052579589424298315,-0.5808357000212754,-5.34402153061174,0.9925348409145128,0.8066402238768134,1.2104120656941701,2.651386333962202,2,right
4.945,-0.49960509779034395,0.4093190891234255,-0.03982168753846607,-0.6625624402781636,-5.358758643526944,0.9618802824209541,0.8078313741858314,1.1592677123370754,2.685107872977217,2,right
4.948,-0.4916733567390219,0.3913801768735057,-0.02022343091842801,-0.5574962769616865,-5.34018986473741,1.0012390726796534,0.8078983340833898,1.1607550334208554,2.684479549201866,2,right
4.949,-0.4863247316582216,0.38039648368907863,0.006836935103471036,-0.6452605796167876,-5.355549559406293,0.9683792290110527,0.8053045827872665,1.2579438955838,2.619249784940764,2,right
4.952,-0.48254953085103736,0.3724464365555574,0.03488698402171704,-0.6426923431386771,-5.3556827503118996,0.9692680926473344,0.8115599830787033,1.0189395159054642,2.7792382063583982,2,right
4.953,-0.4755254924916686,0.36862805384829556,0.05403630847333833,-0.4759780825817569,-5.324590911504801,1.031933853186377,0.8012224958403575,1.415257775892123,2.514061175840349,2,right
4.957,-0.47274903969483795,0.366994663223153,0.061207578128103374,-0.8859663047398452,-5.400367059857256,0.8779031005097211,0.8148501153680483,0.8925050879634618,2.863815731285115,2,right
4.958,-0.4709704232833032,0.3684515035369149,0.06126776265294848,-0.20613173182199135,-5.274889072412737,1.1333026082931057,0.8722488683895826,-1.3015041913694831,4.3323763430377955,2,right
4.959,-0.4643039885544326,0.3716413698149993,0.06174309281604476,-1.1028308557775126,-5.440386129673579,0.7964200141778897,0.8858797523668474,-1.8242597587911766,4.68215635841121,2,right
4.963,-0.46224627968455445,0.3730962492020929,0.06216365524205986,-4.866478405853812,-6.135789600469856,-0.6175132355812882,0.8755387339665179,-1.4279383867852518,4.4169517857059635,2,right
4.9639999999999995,-0.4591588364421388,0.38485773389071054,0.05931663576106458,-5.763147781368672,-6.3013646303130395,-0.9544176051874792,0.881792788270102,-1.6669415695144536,4.576929717103736,2,right
4.965,-0.4533553031944555,0.4034566417180007,0.05749115692571019,-5.083345376417686,-6.17580225008292,-0.6989945393433797,0.8792107582225652,-1.5697630663524564,4.511791353062648,2,right
4.968,-0.4513111269332828,0.42379776432491334,0.05844601135677155,-5.4933459032678424,-6.25154642498301,-0.8530163258937105,0.8792525020888526,-1.5682534731863882,4.510966388762645,2,right
4.97,-0.44630833017465293,0.4535662638183309,0.0592519803936782,-5.32652474851645,-6.220734189756108,-0.7904287265610166,0.880479804095731,-1.6194297468873078,4.5449698555067055,2,right
4.9719999999999995,-0.4374603519542274,0.48466768703443724,0.06091293119829861,-5.324186420957561,-6.220265624638314,-0.7893716970914388,0.8789853564750574,-1.5581694961601942,4.504207153717477,2,right
4.973,-0.42683578026557123,0.5168137142441551,0.06377611126492733,-5.411621150873634,-6.236488238330546,-0.8224726501414672,0.8801855257407634,-1.6058170141667056,4.535996655653874,2,right
4.978,-0.41545454925035497,0.5539811642401236,0.06656026589443798,-5.306883085792971,-6.2170600186574765,-0.7828737731268677,0.8794288538564567,-1.580310583006618,4.518726671528273,2,right
4.979,-0.40779195494640774,0.5883015851602652,0.06709319217180887,-5.388468420087612,-6.232168249665128,-0.8136319099961169,0.8798578640594923,-1.5857020201586915,4.522970871986015,2,right
4.9830000000000005,-0.4048345682730322,0.6224333691950108,0.06045972448231292,-5.344418926886567,-6.2241051525367,-0.7972966019663403,0.8795616844894373,-1.5933102680753854,4.526971388200648,2,right
4.984,-0.4096298362756491,0.6577343812833496,0.04697878168611742,-5.354618627149597,-6.225745198609269,-0.8004412832311677,0.8798348610927305,-1.5805506953077924,4.519768681773634,2,right
4.987,-0.42115634424246096,0.6861984639241332,0.032184603543773393,-5.366032332862515,-6.2282784811610785,-0.8059127528244926,0.8796607569720035,-1.5923800213898964,4.526621046277839,2,right
4.988,-0.4349886199484626,0.7091331018487621,0.017669821947429803,-5.346153124119019,-6.224082068252022,-0.7969923418270031,0.8794631478636644,-1.584987040198288,4.521663284348845,2,right
4.992,-0.4545140044795504,0.7294145004760515,0.004636047882397248,-5.3648442859272345,-6.227954136229854,-0.805171915964101,0.8804059924806109,-1.586760138135252,4.524825051408492,2,right
4.993,-0.47908574177080254,0.7465329546115635,-0.0042909938005629466,-5.352148095302761,-6.225611804668713,-0.8004122030744061,0.8784446244674597,-1.5900923656817003,4.522542735365057,2,right
4.996,-0.5064611425273124,0.7619182086582909,-0.010401080948101108,-5.358159741261456,-6.225944288095455,-0.8005234474199634,0.8813242045359506,-1.5833530995555831,4.524763327965648,2,right
4.997,-0.5366714123280358,0.773271791587011,-0.015272746621856105,-5.357088575226732,-6.227526479906104,-0.8050284955043945,0.878263261044756,-1.590866149090818,4.52261686815849,2,right
5.002,-0.5669308778705311,0.7826386128487066,-0.021476778790529984,-5.3556532590229935,-6.224604216944604,-0.7971678918831531,0.8800181604041846,-1.5860056648703678,4.523508738708838,2,right
5.003,-0.6016797311423292,0.7931995803759408,-0.03244673104368564,-5.357747600434337,-6.227825132923872,-0.8057598136526379,0.8815985468165211,-1.584390346090193,4.5260025158782025,2,right
5.007,-0.6415598165684794,0.800695818395742,-0.0451784323685243,-5.355646259630133,-6.225797438239307,-0.8004599500526453,0.8747928950933381,-1.5956727555390948,4.517912387945744,2,right
5.008,-0.6791117029507554,0.8071663022679676,-0.0602245361323858,-5.358251669412464,-6.224871348553714,-0.7975526637989685,0.8873938687259635,-1.573990203730662,4.532405693450709,2,right
5.013,-0.712306111595005,0.8144213076818612,-0.08083966805666495,-5.354077208252182,-6.230272245005265,-0.8129959621688658,0.8712183286129572,-1.6020004087489075,4.5139102872442685,2,right
5.013999999999999,-0.7396170887596529,0.8194663727743525,-0.10147838901531511,-5.36051591078335,-6.220010261653064,-0.7838650327628555,0.8847203097934205,-1.5785499886590053,4.529304362231781,2,right
5.016,-0.7607719009034666,0.8287048279823099,-0.12133974350107232,-5.352538394656473,-6.233245873273626,-0.8213812383767908,0.8843626061704012,-1.5794428069324538,4.529066445515012,2,right
5.016,-0.7769752379015238,0.8397421399742173,-0.14028623583378041,-5.359083926054999,-6.2221676756898665,-0.7900153729361341,0.8585923288077804,-1.6233052111199555,4.499127632477945,2,right
5.02,-0.7884033632647904,0.85076648594034,-0.1562997906919169,-5.35935245690411,-6.222566410703374,-0.7910374049422091,0.9219227601931319,-1.5151982297966262,4.572502092587551,2,right
5.02,-0.7949123117901815,0.8690816877277792,-0.1716847610432478,-5.345400579474074,-6.243379511439846,-0.8502798992802878,0.8169211942607568,-1.6945155468265616,4.45089926987464,2,right
5.025,-0.7955823952653704,0.8794305073368649,-0.17954048570960476,-5.3791760116570755,-6.192093536037065,-0.704463312277988,0.9554167358682919,-1.4579979723051724,4.611287505306832,2,right
5.026,-0.7949845329537384,0.8852202632539263,-0.1802147464778589,-5.323297034419581,-6.277178572683072,-0.9462893084933548,1.5367829316486694,-0.46539197335902116,5.284805324768202,2,right
5.026,-0.7964215339708546,0.8971702315057593,-0.18263720440291686,-5.397008188211432,-6.164921539901425,-0.6273138900311175,1.6752801653455471,-0.22890104759155472,5.445217676395224,2,right
5.03,-0.7965764578910554,0.9025753355735057,-0.18426429924901258,-5.706961465315668,-5.693995585975076,0.7113173538209369,1.5702739855573609,-0.4082147328829069,5.323583930251772,2,right
5.03,-0.7938305056132374,0.9130673925833255,-0.18058034432209455,-5.780774855978745,-5.581675582242525,1.0302829442968942,1.6336135785642047,-0.3000075250401451,5.396965579244242,2,right
5.031000000000001,-0.7871536480329746,0.9291944221848503,-0.16985490299420114,-5.724764077134454,-5.666864229579954,0.788461786612568,1.607829050873137,-0.34414958797663586,5.367078037093313,2,right
5.035,-0.7751789834206945,0.939050373472517,-0.15368744460294081,-5.758572487824537,-5.6154784945959,0.934302942734891,1.6074884316328455,-0.34456362144192365,5.366706236084269,2,right
5.035,-0.757653457776776,0.9440938814641837,-0.13343759808590355,-5.744832807088067,-5.636324683866834,0.874982862906056,1.6209767871593563,-0.32170125754866224,5.382311143169057,2,right
5.04,-0.7329790756346629,0.9422092197288128,-0.10633614215896117,-5.744541407152176,-5.636825310727309,0.8740994970327325,1.6048012378780547,-0.34924882195523466,5.363582222858486,2,right
5.04,-0.7029883113584797,0.9403677965637303,-0.07521640038329724,-5.751972521856125,-5.625462441702846,0.905289176484134,1.6174274282856471,-0.32753759524526,5.378220052664519,2,right
5.045,-0.6674656311852205,0.9340486537975707,-0.04807410368639049,-5.743009773738569,-5.639154634489644,0.8679201429368715,1.6105636881685068,-0.33974332677546726,5.370229595906121,2,right
5.045,-0.6236765067955337,0.9198408935181658,-0.025829104475734263,-5.750065561529921,-5.6283741719120055,0.8970400740957692,1.6122312456218042,-0.3360587348565955,5.372228804416222,2,right
5.0489999999999995,-0.5783190170165572,0.9059144341812084,-0.004747895671917791,-5.746294751511394,-5.634123781947253,0.8813494104201525,1.6138926882446594,-0.3342499038697892,5.374071337331933,2,right
5.05,-0.5317404552490803,0.8900225633986594,0.014799017626804991,-5.7468388895828655,-5.633348722518159,0.8848454009614296,1.6108861750440784,-0.33856349112830686,5.370653562877775,2,right
5.056,-0.4804700178425395,0.8745279950541978,0.029664384921097187,-5.748721159361651,-5.630337467593859,0.8892490387728973,1.6138124043674513,-0.33355966616890087,5.374044016146924,2,right
5.0569999999999995,-0.4276723437359373,0.859806330198002,0.03878809058921624,-5.745468011569081,-5.635533409846584,0.8816315864478966,1.6116441347907884,-0.3387845682106027,5.371412242503991,2,right
5.059,-0.36886753446346177,0.8465908183987156,0.04478864519603378,-5.7489808638853335,-5.629889670426136,0.8889026099846091,1.6129760850607475,-0.33303002837390877,5.373228782557529,2,right
5.059,-0.30444336838201175,0.8423390184336099,0.048081492165219675,-5.746377522126373,-5.634087166389225,0.8839612062688122,1.6122651176757143,-0.3394367185299648,5.371997798649497,2,right
5.064,-0.2404540990138583,0.8463823033918569,0.050719012649933906,-5.746822085274106,-5.633415779872531,0.8859328614323838,1.612555983299961,-0.3334035565197975,5.372768122674302,2,right
5.064,-0.17431069472287652,0.8567445460418801,0.05087294087561944,-5.749708818707583,-5.628577910242953,0.8867147289627864,1.6127012319410312,-0.33635599951139106,5.372687376039613,2,right
5.069,-0.10697106345327383,0.873385344824921,0.04463332448572041,-5.742858493954405,-5.640014841099761,0.8838419773913976,1.6118523389095656,-0.3405599792600478,5.371485114509676,2,right
5.069,-0.04529156495397902,0.8936279594400969,0.041399335889402526,-5.753020570335764,-5.6230428261620435,0.8878746511195885,1.6137701985917006,-0.3252208977447941,5.374655711240379,2,right
5.074,0.010786310011679024,0.9172129966417084,0.04203870272369926,-5.742264180093646,-5.64101646888232,0.8839111059965796,1.6106384268549847,-0.35294580833911554,5.36927187472551,2,right
5.074,0.06128200699623895,0.9440861529892028,0.042251231409329515,-5.7484814115719445,-5.63063155402731,0.8862042918117851,1.614506229694098,-0.31760385759991105,5.376003286156175,2,right
5.079,0.10002977659624969,0.9707975579262001,0.04618088692271708,-5.7536646944219,-5.6219363052072975,0.8874397919160772,1.6113427274834233,-0.34700303738737637,5.3704650846188,2,right
5.079,0.13060155303206092,0.9972986526898953,0.050574569777282044,-5.730748832960636,-5.660319455232557,0.8810743596918835,1.6113266459875977,-0.34636740572982416,5.370484204987656,2,right
5.084,0.15780095110632647,1.0219597436639676,0.05493535564487685,-5.7732611752920775,-5.5891247813992635,0.8929255383252724,1.6176287772016944,-0.28988059229387053,5.381388213570028,2,right
5.084,0.1822226728849885,1.0401165074418066,0.05953727463250672,-5.718684005157783,-5.68051654405782,0.877771032530563,1.6022872380866282,-0.42849246979148,5.3547855744713555,2,right
5.09,0.20660751409896455,1.051548973738044,0.058389283811743305,-5.764246380731508,-5.604233775549551,0.8903927324330361,1.627666581194454,-0.19874519049756667,5.398807277019681,2,right
5.09,0.22188794036769116,1.05489701028938,0.05557046545786254,-5.7629831643420575,-5.606312756640479,0.8899774926044652,1.5942143869794738,-0.5017623804319525,5.340789614937268,2,right
5.093,0.2261916079891692,1.0552830950060086,0.05510267937192383,-5.676210603773593,-5.751682998070828,0.8662329360897151,1.4536836386167682,-1.7736299470331558,5.096897653848065,2,right
5.093999999999999,0.23862747243103422,1.0572447888654375,0.051696470067979575,-5.889524746356027,-5.39438668513775,0.9246441903207587,1.420240370877562,-2.0766673763051977,5.038923885095436,2,right
5.093999999999999,0.26439526178109685,1.0534462748801294,0.04600225397070799,-5.5358231769708555,-5.98677799778695,0.8278082251837091,1.4455985320648321,-1.8469178604957528,5.082884739787024,2,right
5.1,0.28092206213049664,1.0486646202634358,0.042735726883509476,-6.002367840081917,-5.205443837938888,0.9555086513929034,1.4302941382798873,-1.9854517694171951,5.056311353771755,2,right
5.1,0.28655358221442584,1.0478025883134037,0.04286317107809333,-7.9604241370560045,-1.9256431883379865,1.4914024781115134,1.436544154180915,-1.9291811625402584,5.067275345836473,2,right
5.101,0.3074434771003972,1.0424205126773758,0.04191360745606466,-8.426993818634864,-1.1443518482910235,1.619063902987695,1.4365839872450594,-1.9281762486919636,5.067100238906001,2,right
5.104,0.3394322962477131,1.0346437214105726,0.03434806934035163,-8.073268546088578,-1.7366917372188733,1.5222846230723641,1.433385323704307,-1.958028114859403,5.061892691887661,2,right
5.105,0.3711480179894334,1.029749619171894,0.023104243130850622,-8.286560474184213,-1.379395852569378,1.580660608144592,1.4372319197899373,-1.9223312998580993,5.068229672857573,2,right
5.1080000000000005,0.4100299784420963,1.025759865074057,0.007792049657882173,-8.199902275031612,-1.5248825606864824,1.5568818772171644,1.4342136968133348,-1.9500312140351395,5.063137039300974,2,right
5.1080000000000005,0.4538941425309354,1.0225572276451271,-0.012178626637020164,-8.198409412376432,-1.5266860913672367,1.5566108474443736,1.4359092084064127,-1.9354072746778492,5.066367494459355,2,right
5.113,0.4975674847784591,1.0244771108580526,-0.02905332968130333,-8.24428791021963,-1.4508181648138028,1.5689691907121412,1.43536270762011,-1.9380136565999,5.0644926957843825,2,right
5.114,0.540426924460901,1.0337437170949049,-0.05164665541343945,-8.189412367103433,-1.5417719706989452,1.5541476215652028,1.4352218751847714,-1.943317973559212,5.065843104449452,2,right
5.118,0.5833608039026492,1.0448982363961865,-0.0948602133907792,-8.232022960986352,-1.4708124352141931,1.5657238710687373,1.4356142974429895,-1.9348242070318378,5.064567792601707,2,right
5.119,0.6260419541321793,1.0538626050419573,-0.15252982028777384,-8.209433577436865,-1.5094652765025647,1.5593750411119192,1.4351952066868139,-1.9425565026289724,5.065399867139373,2,right
5.122999999999999,0.6711988566236907,1.0597080039473141,-0.21265498390688858,-8.213686052491843,-1.499718265792433,1.5610774330642543,1.4356713232246068,-1.9382783539482058,5.066239741676543,2,right
5.124,0.7247536887757053,1.0634690472859303,-0.2644104186284613,-8.221438498200836,-1.4912494603177748,1.5622707744170141,1.434931022948885,-1.9376829161625744,5.062062546471583,2,right
5.129,0.7858028932230735,1.0683021785595124,-0.3016757639061528,-8.208870854301306,-1.5067612685626819,1.5599706059221359,1.4361502580843264,-1.9433251428014477,5.070788885432069,2,right
5.129,0.8481927602454442,1.0718097108219142,-0.3298380699043296,-8.220368168213767,-1.4919166550609941,1.5622088248062436,1.4344444615619556,-1.9338820797511151,5.057966723320256,2,right
5.132999999999999,0.9042334028074837,1.0750538237412,-0.34973595889135245,-8.213780102206766,-1.5029934705072403,1.560397940271753,1.4362420170748273,-1.9441402804541383,5.071599602343786,2,right
5.1339999999999995,0.9578209599216045,1.080728728715108,-0.366310989135608,-8.21361475048427,-1.4950771675886885,1.5620376152919224,1.4352362292087406,-1.9379102387867875,5.063778783478322,2,right
5.138,1.0103215552853835,1.0814594713664238,-0.38306262492911936,-8.220580043993786,-1.5021288891404292,1.5600930230070094,1.4342057774648227,-1.934037584930727,5.056755789715626,2,right
5.138999999999999,1.0529333841645243,1.077142157572938,-0.3878940547669323,-8.208613232386018,-1.4942530125017792,1.5625628687272106,1.4384486590237953,-1.9534397355626525,5.087033554007091,2,right
5.143,1.080521937378448,1.0709875509615072,-0.3807821614475547,-8.221660913301877,-1.5021563771321005,1.5600094794226242,1.430627643537386,-1.917013399810719,5.030963471200598,2,right
5.143,1.0887092270552898,1.0574798060613921,-0.3667842636149921,-8.213662950445576,-1.4983675607619926,1.5613592685896576,1.4406605387570623,-1.9638891363338473,5.102945413373841,2,right
5.148,1.0827793060110464,1.0391804226496533,-0.3518429260315781,-8.20905182730282,-1.4912493034723253,1.5631475311102643,1.4322871678376343,-1.9247097247698075,5.042852867677315,2,right
5.149,1.0489516756990256,1.016019059440557,-0.3385376379012547,-8.232962036965596,-1.516096438306906,1.5563416293223526,1.4325010341278737,-1.925935678805545,5.044463934116109,2,right
5.153,0.9909417151383109,0.9877730199276193,-0.31647933094267255,-8.187955288455782,-1.4711555050467717,1.5687813687372731,1.448513112393395,-2.0001106721506776,5.15911176095077,2,right
5.154,0.9218324552123163,0.9615088203239897,-0.28228475336973735,-8.245884350188032,-1.528606181682056,1.5528458333961277,1.4091686285655176,-1.8175920349966177,4.877326925719435,2,right
5.1579999999999995,0.8145304047172586,0.9330673209867955,-0.23538869302569124,-8.197481388509313,-1.480747357051675,1.5661386116828204,1.474405531668053,-2.1202827435341085,5.344553829429329,2,right
5.159,0.7307463078194394,0.914008628438544,-0.20073516190345514,-8.198980031803465,-1.4816450793109606,1.5658299592145546,1.3883507491936735,-1.721009113501529,4.728257705466017,2,right
5.162000000000001,0.7068157705456437,0.9092138690936986,-0.19333644563645955,-8.290613500097283,-1.5742058670625405,1.5403034609462098,1.0271557188836673,-0.04540130624829808,2.1414630568482798,2,right
5.162999999999999,0.6340073839553091,0.8915479970522319,-0.1735842312212888,-8.065208345289964,-1.3471721491252904,1.6029957833445954,0.941077907862601,0.3539122248258306,1.5250926243688459,2,right
5.164,0.5063328947013448,0.8660009426918653,-0.13698461662352507,-8.438938130873813,-1.72348248412459,1.4990477272986993,1.0063497625252666,0.051149675677139295,1.9924338697547737,2,right
5.167000000000001,0.4373951935010507,0.8548619151179003,-0.11825481074510481,-7.946059386388363,-1.2271420089047087,1.6361742845804248,0.9669792064500353,0.23375344456171915,1.710559379116337,2,right
5.167999999999999,0.4128318116046056,0.8521911729695759,-0.11167236927703848,-5.8766927667182145,0.8568272273962508,2.211612138430857,0.9829819242001839,0.15951229516131693,1.8251883927063983,2,right
5.169,0.33361388553230575,0.8480756957078183,-0.10076264210179159,-5.38396772548991,1.3532151874094407,2.3487823112366897,0.9832648910690642,0.1582888196748098,1.8270055333260191,2,right
5.172999999999999,0.23018316864053331,0.8437131449519089,-0.10134703233686353,-5.757531223640431,0.9768534767299306,2.2447870650009403,0.9747532445132736,0.19757665835941912,1.7664849373562386,2,right
5.1739999999999995,0.14653545285708763,0.844954508195145,-0.11941647380416918,-5.5320627875180834,1.2038676558337824,2.3074614435992253,0.9849727998292988,0.1504530688673959,1.8390587442526622,2,right
5.178,0.05882142860560608,0.850916032612092,-0.14008037553679595,-5.624247946750971,1.1114772833956101,2.2820914684302935,0.9769803100195918,0.18724611924680326,1.7824257227168596,2,right
5.178999999999999,-0.017996803179847875,0.8537920736369031,-0.16425751176072106,-5.624559603965253,1.1102128900865291,2.2814460318184038,0.9812724477547048,0.16745820107305906,1.8129039709943127,2,right
5.182,-0.08480213429875881,0.8516897059710815,-0.19740968332605685,-5.577858502140586,1.1585974473911127,2.2952216941800945,0.9804437944138747,0.17154377597878318,1.8064543445537375,2,right
5.183,-0.14703080949286917,0.8427658181464697,-0.2360771831509087,-5.634092913259044,1.1006232497428332,2.2788053021404986,0.9788856940278953,0.17799144189697036,1.7969535658886389,2,right
5.187,-0.1895481032699352,0.8238426151399528,-0.27130978830575525,-5.58981728850737,1.1457900744565013,2.291452531480659,0.9815783030563768,0.1668456076945941,1.8133828918430563,2,right
5.188,-0.2186975702160484,0.8002443128072771,-0.2911273110519992,-5.615182914079983,1.121392489038164,2.2850595258600204,0.978834510110207,0.17792309604903572,1.797234013616945,2,right
5.192,-0.23700619277444052,0.7756409440120632,-0.29068401503089236,-5.605883840423447,1.1270626171057692,2.285517700259293,0.9807911365211742,0.17016250302608454,1.808456024721314,2,right
5.193,-0.24960278952392725,0.7527325149193342,-0.26810025392932957,-5.605963214225863,1.1333466238085295,2.289159306574698,0.9802645516909843,0.17261707121385433,1.8046601473246278,2,right
5.197,-0.261820052617752,0.7374848313668639,-0.2280815864252389,-5.60909818916681,1.122381031988215,2.2837932623773156,0.9788974084334539,0.17651688651885794,1.8000461640963907,2,right
5.1979999999999995,-0.2796343427085839,0.7328858757743832,-0.1799742465282808,-5.605033948274194,1.1326982681112014,2.2885055227587494,0.9823149139118512,0.16624447917609414,1.8126901601386192,2,right
5.2010000000000005,-0.31872108557708456,0.742851266462925,-0.1269813648676925,-5.612070397534643,1.12566829385068,2.2865808444633777,0.9772847688529337,0.181253082930964,1.7943156755466578,2,right
5.202999999999999,-0.3716314462197397,0.7721252246169126,-0.07465385418765015,-5.59723828437832,1.129054099394527,2.284059349483133,0.9825566016943226,0.16567257955921547,1.8132558141646198,2,right
5.206,-0.447870246682019,0.8284563125006057,-0.019739023754016878,-5.62416732125385,1.1283309940363204,2.291758249037139,0.9795095790160969,0.1746802630251361,1.8023054263008138,2,right
5.207000000000001,-0.5414615458134813,0.9195226085457429,0.036744216294328266,-5.5856636209311485,1.127729539876773,2.279809312028396,0.9770834202778139,0.1815125764092516,1.7943010815177614,2,right
5.211,-0.628641157559822,1.0334267530117653,0.07724564047349883,-5.626396960638387,1.1286836266488858,2.292633118555158,0.9879609064291749,0.15040190659794467,1.831189377109354,2,right
5.212000000000001,-0.7019351988335419,1.1537429162814679,0.09415921510954059,-5.603354662771698,1.1276385194761755,2.2850877088190016,0.9677756172320792,0.20815905744555827,1.762687648901613,2,right
5.216,-0.6725220767273086,1.2616265116115521,0.07411598745921283,-5.581052844858773,1.1291839176566523,2.27925734021433,0.9936778769817645,0.13407090156709606,1.8505277733879981,2,right
5.2170000000000005,-0.5775991835932315,1.3390612363317285,0.03969535415403934,-5.674659955846542,1.1264244563199899,2.305876016486578,0.9720609460954477,0.19589170680455298,1.777249163423012,2,right
5.221,-0.43029227509725015,1.4365591634970647,0.05835430612101086,-5.50179041239158,1.1308196841326943,2.2563134831121268,0.9726671720764587,0.1941124932897178,1.779382584431921,2,right
5.223,-0.17830854319657857,1.56806604780598,0.1269714551232897,-5.72359438531679,1.1253373701311018,2.319997261580512,1.013796245148154,0.07666942426538312,1.9184683343443385,2,right
5.225,0.0788983746477107,1.7108331205592853,0.20378228279423935,-5.538498363735018,1.1298499560809652,2.266815297907243,0.9126899530121197,0.36542065699644216,1.5765001636341907,2,right
5.226,0.523203936382615,1.8979157503297248,0.2680955912127019,-5.543230265635635,1.1299764784850634,2.2683182950902356,1.080327355997611,-0.11334751985361707,2.1434866560769965,2,right
5.231,0.8843002366641262,2.0228676994377226,0.29926539410596437,-5.897059892684531,1.1205533485058228,2.3695120274700603,0.859219442045883,0.5181344292850745,1.395672015034322,2,right
5.231,0.9469129577330408,2.0541703273793157,0.3044925502573106,-5.0277385781750334,1.1434238119244986,2.120719962415088,-0.06882134803288398,3.1683682002899403,-1.7428870620025212,2,right
5.232,1.388396638191644,2.117940285540616,0.2881658948738083,-6.469000846879304,1.105575626444911,2.533241741084188,-0.2899222632560482,3.7998376371569855,-2.4906470924815127,2,right
5.235,1.820891000262037,2.1558485233140923,0.26045566185696123,-4.5680166561441435,1.1554946467105776,1.9891320619495252,-0.12229633882552321,3.321101127617281,-1.9237476634143231,2,right
5.236000000000001,1.8664885941531284,2.136706401116676,0.2515965538066791,3.4125046456696206,1.365295555873296,-0.29483440094981056,-0.223391674387596,3.6097932927762484,-2.2656392062604516,2,right
5.237,2.1125298940197776,2.1028567944253527,0.28304089225734363,5.313549977295059,1.4152435001297072,-0.8389412994891963,-0.18226600893800474,3.4924377063904855,-2.1265617687992853,2,right
5.24,2.2559365761576053,2.0408920935836097,0.3857394373723503,3.87212094774997,1.3773753924085592,-0.4264014182708436,-0.181671507864504,3.4905587072634088,-2.124546951274981,2,right
5.2410000000000005,2.062915232637418,1.983399453254372,0.5039613853210163,4.741773467865764,1.4001936751991413,-0.6752694031414508,-0.20325636998785762,3.5524517729430825,-2.197546229831574,2,right
5.247000000000001,1.7568176559455568,1.9367538609939334,0.5181141331823069,4.387428587549659,1.390957388085242,-0.5739115343535485,-0.17740510327212022,3.4783801162230956,-2.1101207671091977,2,right
5.247999999999999,1.305267871716864,1.9042164603883878,0.4119271746348665,4.383314507677598,1.3907373691174827,-0.5726587110904973,-0.19753299562663074,3.535965880192109,-2.1781900756315142,2,right
5.25,0.8375366101322967,1.8981628958272014,0.22861547770067095,4.567917645720687,1.3957024115059196,-0.6255644280065956,-0.18669328189783935,3.50521957239977,-2.1415298590056118,2,right
5.251,0.4175731226375295,1.904841487665857,0.0023895453979755343,4.3461136541932675,1.389825021919882,-0.5620527437391153,-0.18913806979273357,3.511529340357156,-2.149804386944319,2,right
5.256,0.053239800430516765,1.921767169437471,-0.20520933253041768,4.519894652815793,1.3942876997323563,-0.611732269738127,-0.1920733548753956,3.5210677809713564,-2.159718849589474,2,right
5.257999999999999,-0.20480159812044926,1.9362779943127364,-0.3151048248924103,4.424187369063887,1.3921048716975557,-0.5845251335552859,-0.1870232038062271,3.5052283174871413,-2.1426556267391,2,right
5.26,-0.3910908809854835,1.9402412147822803,-0.2788764957815607,4.449641298729354,1.3922011547160826,-0.5914929552444474,-0.19175034041438377,3.5198573323556124,-2.1586293516289334,2,right
5.261,-0.5135289077199447,1.9304063687291448,-0.1020158829200944,4.469303629681688,1.3934210865819214,-0.5975088986389949,-0.1886207508406672,3.5109303179174285,-2.148045410103456,2,right
5.265,-0.602292886120155,1.8922448852656513,0.1450408529534149,4.430539785232622,1.3918416400735238,-0.5861050027385903,-0.18988362683455462,3.5124409351152774,-2.1523404600578626,2,right
5.266,-0.6726781206606003,1.804120365422163,0.3662210996280384,4.470728399406063,1.392892127463304,-0.597604931818829,-0.19012114761649668,3.5179081397428575,-2.153088227889585,2,right
5.27,-0.7123555561971158,1.653538010072182,0.5124031436917399,4.436319836576827,1.3930308300036671,-0.5883294563903764,-0.1890187553514272,3.5076163522912545,-2.149443091191391,2,right
5.271,-0.7432444283436563,1.4592548352151336,0.5640437744312553,4.465220866584032,1.391407491427651,-0.5952923476846482,-0.19033320058035552,3.518984756354656,-2.1537997122230443,2,right
5.274,-0.7545284325647712,1.2450839827297204,0.5166305281580224,4.43962028541629,1.3942892617412048,-0.5899181235382909,-0.1893537261127192,3.511788723847105,-2.150538652107457,2,right
5.275,-0.7232969272811576,1.0339560482049184,0.40529769451558095,4.4605024188095275,1.3910491574388024,-0.5938123738495407,-0.18959920268452776,3.508695195849058,-2.1514127060304755,2,right
5.28,-0.644419292343575,0.8468757969175901,0.289618956685869,4.452733110970693,1.393033433781313,-0.5927931296029871,-0.1903086711449748,3.527322474317585,-2.1536190353660833,2,right
5.281000000000001,-0.5176334574452488,0.6925429013390139,0.20587542988360724,4.432678511329971,1.3943955020526342,-0.588087657459782,-0.18867106539117762,3.4918610906527436,-2.1484391987556894,2,right
5.285,-0.3671609829761941,0.5752794529038705,0.1527247696261635,4.4958050830719465,1.3877921825958888,-0.6016202186552029,-0.19084598045943807,3.537598996592099,-2.15533396220533,2,right
5.2860000000000005,-0.20791461738796818,0.48954859158680114,0.13091202868984642,4.384556874063597,1.4001889362680837,-0.5781932145630184,-0.18900112866520996,3.499334839295469,-2.149479938535857,2,right
5.289,-0.06719431255590821,0.43953088923013045,0.10545541847692406,4.525309444706445,1.3842179220439972,-0.6076715124039616,-0.18916299447909785,3.5006825790257725,-2.1500156444350025,2,right
5.29,0.043478009144644815,0.41429012612894756,0.06706554885651425,4.408683805048556,1.3975714046459558,-0.5833188553675304,-0.19231326905161814,3.5726133315132707,-2.159938353001638,2,right
5.294,0.11963035145109538,0.40875298258035975,0.020706044667808374,4.410486088347392,1.3971815601600872,-0.5835787947897733,-0.18443866002171494,3.3954558430968618,-2.1351070321481354,2,right
5.294,0.1255177979934989,0.4412599008014032,-0.07519041086741134,4.636473392378756,1.3717966691195898,-0.6310741539466175,-0.1975287190895928,3.689275332863747,-2.1763901421597547,2,right
5.2989999999999995,0.11152437026407797,0.46818788023012414,-0.1435214906817439,4.0829758814082275,1.4342264027601508,-0.5149183524633175,-0.18026079822146285,3.3017343464343574,-2.121932480400689,2,right
5.3,0.07919317576504827,0.4879515726487172,-0.17888194553041725,4.999973034463188,1.3307069451711255,-0.7072841451937433,-0.10793461141726518,1.675346573264794,-1.8938509591279558,2,right
5.301,0.021096146735600247,0.5225638873529569,-0.24178633330089014,3.79071001843157,1.467244141764176,-0.45364452945855077,-0.09068143708219105,1.2878668821436299,-1.8394464986143335,2,right
5.303999999999999,-0.01185672257457601,0.5426123667137395,-0.27766246968440267,-1.2860031932330722,2.0404617342832254,0.6114519318397328,-0.10375554019100686,1.581620050171792,-1.8806720408177644,2,right
5.305,-0.12459929764520034,0.5911394907298104,-0.34491383189226865,-2.495252674933161,2.176980986803289,0.8650576185796178,-0.09587486722029066,1.4044373540990882,-1.8558188547072425,2,right
5.306,-0.32628986983826036,0.6659547888830373,-0.4410317950567188,-1.5784283193748063,2.0734767849905884,0.6727738014670428,-0.0990780567014555,1.476588057036927,-1.8659324409177023,2,right
5.309,-0.5263539083937606,0.7210160505994372,-0.48813178421839143,-2.131371213153984,2.1359286321479463,0.7887832287898596,-0.09912606373397001,1.4774625252304898,-1.866057412886241,2,right
5.309,-0.7412096718046155,0.7757987179970981,-0.5263633402631644,-1.9064902148694978,2.110448975444884,0.7414966503028766,-0.09744446687228084,1.4398769595967797,-1.8607923276184826,2,right
5.313,-0.9430811465029088,0.821401531575537,-0.5556248333717884,-1.9030791034936825,2.1102427444648257,0.741008318482002,-0.09945680842316457,1.4849391094835145,-1.8671005947439405,2,right
5.314,-1.106121490198694,0.8518652192210191,-0.5711709732167403,-2.0213937825700277,2.1233492043620164,0.7655116486454321,-0.09788936066943968,1.4497693398759037,-1.8621738883732446,2,right
5.318,-1.2272835681464858,0.8760795268817385,-0.5815326767585145,-1.8797308367804408,2.1076038857059833,0.736104145179409,-0.09873840863423688,1.4689768108122347,-1.8648836924348464,2,right
5.319,-1.2953338924927302,0.8889340997377877,-0.5787139149998843,-1.9899391084392184,2.1199409289657556,0.7590905242390371,-0.0985342195680005,1.4640141737734993,-1.8641356468766999,2,right
5.325,-1.3210561823554088,0.8969308651557995,-0.5717971792005618,-1.9308956736419691,2.1130569945218762,0.7464420886341674,-0.09832956120358005,1.4600387781545399,-1.8636696837526696,2,right
5.3260000000000005,-1.3095961708424158,0.9012765475662494,-0.5508957667828362,-1.9434770066836573,2.115173658703349,0.7499251661193622,-0.09869308803918755,1.4674545645844772,-1.864595859155476,2,right
5.329,-1.2785926553586258,0.9012338302091367,-0.5114195565737591,-1.9608986000921032,2.1159425201186135,0.7521277470679115,-0.09834885069676216,1.4603141266437965,-1.8636858790555388,2,right
5.33,-1.238401967940601,0.8999805767265016,-0.4567013534779173,-1.931595295819893,2.1141039865991043,0.7477614292761978,-0.09859304309182641,1.465809111710082,-1.8644574701591083,2,right
5.334,-1.1876633379269168,0.8999186181092489,-0.3851911816062301,-1.9587928032294872,2.1160029017415756,0.7520474775698511,-0.09844917826587041,1.4614723519755626,-1.863678056649078,2,right
5.335,-1.1308496665625585,0.9001380684530655,-0.30423927100265713,-1.941687045727071,2.1140610272938494,0.7484468338366017,-0.09853461313436324,1.465909088842766,-1.8646919524219323,2,right
5.337999999999999,-1.069959107272783,0.9017924879122989,-0.22287974249154843,-1.9461014034920003,2.1167344105459094,0.7520049975749687,-0.09846533211503396,1.4606011156512535,-1.863362785081197,2,right
5.3389999999999995,-1.0109693481742594,0.9114110763839369,-0.1502821086651245,-1.9530998407554199,2.1125539514855003,0.7474575019582235,-0.09852842806910594,1.466015500059135,-1.8647458434351145,2,right
5.343,-0.9607381971162183,0.9309727147512705,-0.0973340735665581,-1.938566004211715,2.1183286532425654,0.7533831788024415,-0.09850905567794192,1.4632726851888613,-1.8640004871901434,2,right
5.345,-0.9141099306677827,0.962501582473608,-0.06391473290114527,-1.9548228935440994,2.1122583668589017,0.7472259316313221,-0.09840751696230998,1.4589979989721429,-1.8630907383560245,2,right
5.348,-0.8636591863839616,1.0059359934679497,-0.04025195328697668,-1.9442242485133032,2.1156305818180234,0.7505317659566477,-0.09871314136893478,1.474579157834416,-1.8666353115935301,2,right
5.349,-0.8023791442691114,1.0567465704298706,-0.016345950789576482,-1.9410548566026076,2.119208430663755,0.7546297595824071,-0.09817130717581252,1.4462481503454447,-1.8601402669460327,2,right
5.352,-0.71958258597698,1.1101070687781514,0.023951215034028323,-1.9646954696332364,2.1046472511236107,0.7387373825161334,-0.09886156425044273,1.4824998260110325,-1.8684632101484095,2,right
5.353,-0.6237177715052601,1.161263586266857,0.08880498727822417,-1.9190875065040132,2.131454145871475,0.7678423137370822,-0.09828737982194959,1.4522865777846286,-1.8615209164095796,2,right
5.358,-0.5028127280108831,1.204557346211826,0.17223200833559998,-1.9780503814990378,2.097075541125001,0.7305512887411267,-0.09829463776967431,1.4529072031239716,-1.861683738802483,2,right
5.359,-0.3747588383941921,1.2356484198963529,0.262942214593898,-1.928658462766376,2.1257610898848114,0.7616526750453168,-0.099417070478281,1.5111641998544667,-1.875005717980269,2,right
5.3629999999999995,-0.25412956676200615,1.2554581367234428,0.34311442935921566,-1.930624116036429,2.125048054224738,0.7609338690410791,-0.09666766740925331,1.3682082207690835,-1.8422895555660481,2,right
5.364,-0.10482755519767245,1.2640233093688777,0.4007198310716068,-2.0227561763239823,2.0701368691758644,0.7012207817861783,-0.10122426198062007,1.6051755184275507,-1.8965293536828136,2,right
5.367999999999999,-0.014695443314252973,1.2648833091844929,0.4270415982899305,-1.795551199194822,2.205032991685089,0.8478489605957678,-0.09521387671949519,1.292621882248166,-1.8249855053360355,2,right
5.369,0.025018996306031105,1.2602429540443976,0.4277500512047466,-2.172482352358529,1.9813788593824884,0.6047609434683303,-0.06998643796159779,-0.019614008317158982,-1.5247154063264614,2,right
5.369,0.0946891520361597,1.2539156890169254,0.42957217672802495,-1.6752609056714218,2.2763901285119603,0.925403527989394,-0.06397542400267353,-0.33219338327854875,-1.4531707231132747,2,right
5.372000000000001,0.1336176932768477,1.2494428145520264,0.4298907957210515,0.41095151309803585,3.5147943970176483,2.271479126806475,-0.06853099415153055,-0.09519625661481453,-1.5074020859827428,2,right
5.372999999999999,0.20386388918474663,1.2329831456009104,0.40678528053345275,0.9082229490839498,3.8098628241274084,2.5921845883307393,-0.06578788764059235,-0.2381486622707485,-1.4747193443886952,2,right
5.374,0.3109621007841209,1.2035333454176222,0.3641038783273497,0.5311493289412046,3.586113635790926,2.348996623663524,-0.06689561641031283,-0.17996957074769582,-1.4879701353150354,2,right
5.377999999999999,0.3740351660389988,1.1673779937866837,0.31007885272319163,0.758646785741713,3.7211038856867127,2.495711985700675,-0.06692619597819854,-0.17917165705302146,-1.488240571847627,2,right
5.379,0.4293350684957856,1.1248806253881662,0.24833263086927962,0.6660487513131507,3.6661552930203523,2.4359914800657934,-0.06632523076206073,-0.20964683907896342,-1.481180454167827,2,right
5.382000000000001,0.46222923484697764,1.085192522276552,0.18766980316147325,0.6646545379527775,3.6653607093115137,2.435132923319882,-0.06703383985910699,-0.1731246662054458,-1.4895751674509805,2,right
5.382999999999999,0.4674312718974458,1.0458924755388965,0.13153007726579008,0.7135723374859407,3.694292914807308,2.4665593547586457,-0.0664995296789262,-0.2015903372426175,-1.4831337546445171,2,right
5.388,0.46425556926367406,1.0070321641502198,0.08094441910386535,0.6546503537043613,3.659506629750612,2.4287889149312685,-0.06675381167341393,-0.18620009875471,-1.486421761375624,2,right
5.388999999999999,0.4407299736901308,0.9741457620160056,0.03561760084626278,0.7010415200164493,3.686790397624585,2.4583899270925,-0.06675644415134449,-0.18978862536208968,-1.4860031185957405,2,right
5.392,0.4044026255047262,0.9463263030482322,-0.008899723664510776,0.6755203272688249,3.6718857526471105,2.4422427473417443,-0.06659233469496761,-0.1937541164777452,-1.4846019608467436,2,right
5.392,0.34984567968017133,0.9288184241245494,-0.04923924718834214,0.6815730282013497,3.675376967479684,2.4460150542881776,-0.06679614788769564,-0.1867963001531842,-1.4865876397050934,2,right
5.397,0.276596008253407,0.9182175982096084,-0.08226078627509484,0.6890053938051274,3.6795755842308333,2.4505327650936266,-0.06666983118130596,-0.1933988725230663,-1.485080167920024,2,right
5.397,0.19095295736366671,0.9136506687560761,-0.11281236965436965,0.674721664435275,3.6717722998435014,2.442197494980349,-0.06662777792453606,-0.18882608693454553,-1.4853968398587842,2,right
5.401,0.09113416229432827,0.9202531857038718,-0.14095905477641307,0.6905383031833148,3.6800019060144438,2.450890989613332,-0.06688110230071921,-0.19109903682924184,-1.486544395567432,2,right
5.402,-0.014711759369385216,0.9327655543898977,-0.1646931686507016,0.6769795349396066,3.673373593500084,2.4439948048003286,-0.06644780653396415,-0.19058812517488027,-1.4841734451485635,2,right
5.407,-0.12025287110251522,0.9503314068914908,-0.18416255864437114,0.6852558487151845,3.6771552263809664,2.4478595119046638,-0.06692998730602588,-0.19007894378957835,-1.4869420587630353,2,right
5.407,-0.22990240113032373,0.9704559620982178,-0.20055021960304392,0.6852883732462391,3.677163730347073,2.44786647033121,-0.06663776953956915,-0.19107962747508572,-1.4851806879448675,2,right
5.4110000000000005,-0.339049758573282,0.9901711199143598,-0.21517636559948417,0.6739847009690769,3.672553995396179,2.4433119997839605,-0.06642819393744603,-0.18974594518227023,-1.4841649697586707,2,right
5.412000000000001,-0.4419220622553985,1.0094552654420532,-0.22436813127557875,0.6981042132286657,3.6820731502695985,2.4526167525139657,-0.06742350211961762,-0.19153088808775523,-1.489537491438776,2,right
5.416,-0.5407452940368405,1.0214492146126082,-0.22810109489449593,0.663532170322515,3.668708673902253,2.4396447563322763,-0.06555920602326148,-0.18917786688619015,-1.4793550607632528,2,right
5.417000000000001,-0.6223988778957448,1.0278895778794799,-0.23131371335161244,0.6995625988618398,3.6824665556276246,2.452941784099403,-0.06795976383505031,-0.19185454955472295,-1.4925086845288917,2,right
5.421,-0.6921395724700459,1.0342611624125844,-0.22981117747485816,0.6790076674974155,3.6746735037246534,2.445428568949932,-0.06595274827595612,-0.18976513038426865,-1.4814941372091937,2,right
5.422999999999999,-0.7408634255579564,1.034280848485885,-0.21870146771198817,0.6613980054438646,3.668020800441912,2.4390228102283524,-0.0660116305022247,-0.1895983673858136,-1.481843422170405,2,right
5.426,-0.7546364955959814,1.0260021908418047,-0.20194900294555423,0.7381487509635264,3.696948288536566,2.4668533609990506,-0.06982655936685157,-0.19417691492866548,-1.502709776991214,2,right
5.4270000000000005,-0.7535957578798811,1.0134396193854376,-0.18536052136785586,0.5961164823380614,3.6434816421382985,2.4154365375930507,-0.060443165049177135,-0.1832453991589415,-1.4513490223140242,2,right
5.43,-0.7064309584709809,0.9949928013549202,-0.17402667917094164,0.7782839231533404,3.7120110726477864,2.481323191604251,-0.0760040758372092,-0.20125030792932114,-1.5365350912589621,2,right
5.431,-0.6594127240150127,0.9813705159247694,-0.16924864567343795,0.6262911356039613,3.6548536560199105,2.4263765951463574,-0.05547787438057515,-0.17754317321076024,-1.4241654716349506,2,right
5.436,-0.6441161581787733,0.9768702621006449,-0.16974752259671155,0.6304238688247343,3.65640811992953,2.427872544049233,0.03067733140737381,-0.07785910314478371,-0.9525342505543758,2,right
5.437,-0.5721589742902653,0.9646811111559683,-0.1689436655515046,0.9200320873981034,3.7652812591093805,2.5325182035085194,0.05120570127120321,-0.054148842681107576,-0.8401644228198479,2,right
5.438,-0.47117540467123875,0.9472819849470877,-0.16986067404746763,0.20825480938259516,3.4977148598089887,2.2753442568242033,0.035640552721639226,-0.0721384592751309,-0.9253556255294628,2,right
5.441,-0.3541359926719036,0.9357719241686584,-0.1859636882749902,1.3883521755402826,3.9413186832235745,2.7017135962639047,0.04502975514544094,-0.06127437369887475,-0.8739775700781133,2,right
5.442,-0.2629288618362843,0.9306365524417443,-0.20015381984810143,-0.16812000676392996,3.356233607457675,2.139365404553503,0.04120879497075509,-0.06570534084430094,-0.8948790218265819,2,right
5.442,-0.2385982575420723,0.9302860460239161,-0.20311288075960454,-6.700343224370407,0.9004591431003459,-0.22087816801792104,0.04115366149936535,-0.06576501819486731,-0.8951767370169191,2,right
5.446000000000001,-0.15219258256401452,0.9332027312281987,-0.21550302809921112,-8.256551186347934,0.31540198646197576,-0.7831752224728505,0.04316269069604938,-0.06342386172765753,-0.8842169593076374,2,right
5.447,-0.034929646045685575,0.9412113110376228,-0.2328582225392613,-7.077012174077672,0.7589549498367888,-0.35690641482326374,0.040750898158533624,-0.06626012605814921,-0.8973399898660104,2,right
5.45,0.04589056098865267,0.9531971888100423,-0.24488508228114536,-7.787933027628899,0.4914502166451983,-0.6139412881965157,0.04263718178772149,-0.0640074047122928,-0.887126293816921,2,right
5.4510000000000005,0.1328617586859302,0.9669201734600938,-0.2536745058120804,-7.499366308517809,0.6002727392551294,-0.5094421979574388,0.04161202451751428,-0.0652655473065761,-0.8926275443684196,2,right
5.456,0.20409414826226946,0.9787987213109888,-0.256994666382208,-7.494321917937448,0.601835356162731,-0.5078514098640536,0.041849808767493765,-0.06495825979347597,-0.8913734260928825,2,right
5.457000000000001,0.2645085626352932,0.985591427518992,-0.25493585898121285,-7.646557640493336,0.544746917953406,-0.5627574331634766,0.04213198726640499,-0.06457116336558082,-0.8899227496620106,2,right
5.46,0.32167741974531217,0.9912447954407435,-0.24993835053664196,-7.465477519182421,0.613106892899856,-0.4971317134229051,0.041621183172501644,-0.06536068348506122,-0.8924163653729443,2,right
5.461,0.36809153772400727,0.9975693137385483,-0.2448500627653681,-7.604572389237404,0.5599004951785538,-0.5480264285024328,0.04213844532432297,-0.06441884928190283,-0.8901058042782007,2,right
5.465,0.40899851061170023,1.0003910292168499,-0.23675009061513666,-7.532575184648852,0.5885422806858362,-0.5209154434462058,0.04174514312702107,-0.06529592909736393,-0.8916196841526056,2,right
5.466,0.4375704115530311,0.9999510608797497,-0.22401669970903867,-7.544657060411117,0.582068105134991,-0.5266266832252997,0.04195414903552877,-0.06471733067287402,-0.8909849352990049,2,right
5.47,0.45811883283410815,0.9997090588828351,-0.21216065609061444,-7.569180949525776,0.5743884995755204,-0.5344149517242676,0.041954291291765325,-0.06471450560450737,-0.8909887536998564,2,right
5.471,0.4667644082856668,0.9975503044884293,-0.2021462455525596,-7.534181399224984,0.587560118597098,-0.521759181355608,0.04173385929543718,-0.0655938734201393,-0.8912502339817043,2,right
5.476,0.46355552690082147,0.9934343023870086,-0.19811143125428574,-7.559110924820888,0.5753306670864555,-0.532757484757616,0.04216691833269627,-0.0636654469348315,-0.8910394842820721,2,right
5.476,0.4505687880151964,0.9900688316960818,-0.20110705425033332,-7.555219222429278,0.5833233848744914,-0.5268022269864948,0.04157909259874751,-0.0664753173797791,-0.8910353229626109,2,right
5.479,0.42225360413028745,0.9867250357492268,-0.2024006521012689,-7.537798653285037,0.5801316758430703,-0.5272939689414899,0.04217167683259008,-0.0635190416199145,-0.8912259784860199,2,right
5.48,0.38552148392900054,0.9844847328194736,-0.2033185559181081,-7.566599979019767,0.579687683088064,-0.5304667016412941,0.041840211193357874,-0.06521490491966309,-0.8910562751615304,2,right
5.485,0.3442111700947687,0.982703675337806,-0.20689502581485858,-7.544736147371255,0.5819080202989049,-0.526745819448449,0.04155882215650297,-0.06667065485771148,-0.890885332714942,2,right
5.486000000000001,0.29802627738976095,0.9780206420607663,-0.20921745985810059,-7.536886127155995,0.5796862893426057,-0.5275140485628123,0.04277685195359435,-0.06031284430612616,-0.891705276229461,2,right
5.489,0.2509839801200145,0.9720137072870775,-0.20745482771111304,-7.594455235853038,0.5806795914306248,-0.5325441874399444,0.0405306638076053,-0.07208977584069814,-0.8901161674385132,2,right
5.49,0.20544892331083242,0.9646278376145873,-0.20071087102322166,-7.480925458819024,0.5813828773764123,-0.520768652511039,0.043406067658130834,-0.05697688712772563,-0.8922041192144509,2,right
5.494,0.16207810670296496,0.9556354131928407,-0.1954311445861104,-7.629705679044597,0.5793498846795633,-0.5369757060143276,0.04100955649666771,-0.06959057249623521,-0.8904401157855293,2,right
5.495,0.11743249687459073,0.9498838513104088,-0.19338239755616854,-7.504213829123572,0.5815309885161394,-0.5229792092652749,0.04107438408092873,-0.06924610243617192,-0.8904854772674893,2,right
5.499,0.07213882989478847,0.9453555806811302,-0.19141268686036444,-7.50871930309571,0.5810514880420194,-0.5237644061686927,0.045637410053606664,-0.0452094610022862,-0.8938916156043162,2,right
5.5,0.03064353234337798,0.9400021234063693,-0.19497172361114692,-7.74595341243062,0.5776729525715358,-0.5496976421603668,0.034425281900546945,-0.10429112999313664,-0.8855073017809366,2,right
5.505,-0.017464387821057217,0.9389650474900442,-0.20271015098699335,-7.160874600414656,0.5867315088490335,-0.48522688100320965,0.05301234115247867,-0.006329916691387855,-0.8994222019931666,2,right
5.506,-0.05757937723038699,0.9407433907699226,-0.2066941750040121,-8.131908081811531,0.5713496021726918,-0.5924749255219448,0.028498735709158795,-0.1355420168386201,-0.881058108552382,2,right
5.507999999999999,-0.0587412134128308,0.9407697279313507,-0.20644865170740073,-6.850663723075277,0.5918181051360549,-0.4508370211843684,-0.07439962750941521,-0.6778564770683897,-0.8039447504884214,2,right
5.5089999999999995,-0.058582529394261264,0.9408875785251511,-0.2067389378925685,-1.4725841870830478,0.6777567546824856,0.14370796427756555,-0.09891010684985682,-0.8070731139927938,-0.7855700422281409,2,right
5.51,-0.0908480426595491,0.9423974266196062,-0.20824944535549572,-0.19112863750842427,0.6983317290903718,0.28546678906803347,-0.08032759501562438,-0.7091083367272855,-0.7995028063059992,2,right
5.511,-0.12142609805359855,0.943769425049976,-0.20550949845202154,-1.1626460978665125,0.6827199579577745,0.17796492134984354,-0.09153688245621697,-0.7681833765072319,-0.7911002647327248,2,right
5.517,-0.1401966767196774,0.9459080550142069,-0.19853373202781321,-0.5767492553290541,0.6921408642888318,0.24282157716518737,-0.08697114562588124,-0.7441728350175965,-0.7945148907409032,2,right
5.518,-0.15969336745943663,0.9494769829767179,-0.18647490477925244,-0.8150910446211589,0.6883070961841121,0.21642416774502524,-0.086917834998225,-0.7437787668252314,-0.7945731108271743,2,right
5.519,-0.1753654695700268,0.9522722344038875,-0.16853920806263395,-0.81845952396101,0.6882476968807107,0.21603769184265953,-0.08929328212809376,-0.7564583142396443,-0.7927657538484005,2,right
5.519,-0.19048694842296077,0.9559482399330322,-0.15640198480914488,-0.6936001200189104,0.6902743014900447,0.22994286580675147,-0.08644453878789354,-0.7412864009364557,-0.7949280026869723,2,right
5.523,-0.20493161726743805,0.9638421081895321,-0.15234912842765808,-0.8429967804573653,0.6878357890752456,0.21322675364528798,-0.08866866549497832,-0.753076617348762,-0.7932490316803091,2,right
5.524,-0.21590407641847237,0.9716982099831593,-0.1477797923654478,-0.726886997678234,0.689752726067074,0.22633607139305412,-0.08745207160485369,-0.7467975666447788,-0.7941383794973051,2,right
5.529,-0.22523110851107603,0.978584608889291,-0.14399957018828047,-0.7892584998188898,0.6887009892085268,0.21917591199322967,-0.08777068675019255,-0.74804790342667,-0.7939730031843256,2,right
5.529,-0.22660585704099384,0.987330714623911,-0.1399442876475147,-0.7751121341277236,0.6889493149853421,0.22085238907067406,-0.08801425659965093,-0.7500702918848658,-0.7936636583056167,2,right
5.534,-0.22188947377303087,0.9923742672934034,-0.13137032301735818,-0.7588879492396835,0.6892516404689575,0.22286866095528657,-0.08755475789394726,-0.7467423849578321,-0.7941637427691444,2,right
5.534,-0.21318682718335313,0.9931575233639912,-0.12084140649908376,-0.7863029656386634,0.6886777121561183,0.21912400587412773,-0.08799883095344245,-0.7498050911690017,-0.7937067539005864,2,right
5.537999999999999,-0.1971997659804303,0.995011333834502,-0.10626428635519256,-0.7617129229372611,0.6893021401301628,0.22306952790716789,-0.08765112896105572,-0.7479788934737875,-0.7939663114711243,2,right
5.539,-0.18185715030446215,0.9961008170254806,-0.0887679568977496,-0.7768183029181344,0.6887783792543456,0.21989569956511412,-0.087939638295031,-0.7481597879588839,-0.7939802964447158,2,right
5.542999999999999,-0.1702772683079007,0.9943151847867348,-0.07597426912906488,-0.7713003817798851,0.6890909297375297,0.22170378424717482,-0.0876266496782652,-0.7495717293077233,-0.7936886888897005,2,right
5.542999999999999,-0.15745367987603842,0.9935300519804096,-0.06643982615416046,-0.7713603963421612,0.6890920096219963,0.2217079920514854,-0.08801061270777144,-0.7470282181039666,-0.7941859011706589,2,right
5.547999999999999,-0.14408914116069166,0.9945681558256955,-0.0610365088355205,-0.7711460444950913,0.6886800944448077,0.21950930607465263,-0.08761676636221641,-0.7498210465781883,-0.7936442988950131,2,right
5.5489999999999995,-0.1342528764545627,0.9930068642918087,-0.06143652021662382,-0.7760455706762603,0.6895504188143662,0.22404566338494986,-0.08781990205790921,-0.7480787804156155,-0.7939754767170752,2,right
5.553,-0.1267629504032255,0.9914084003047146,-0.06074141443580969,-0.7651043480569951,0.6883105324391352,0.21768037089896264,-0.08811595420102239,-0.7472138139788926,-0.7941705348981213,2,right
5.553999999999999,-0.11993609839909761,0.9923181821671634,-0.058291021300218786,-0.7788905355722608,0.6895980683310946,0.22423072026903393,-0.08701830815957812,-0.7520418237733781,-0.793168926635474,2,right
5.558,-0.11614493283541609,0.9915100730670566,-0.05511861968254125,-0.7702477201600184,0.6888651304912006,0.2205213991914438,-0.08901811086631845,-0.7429000880318806,-0.7950530396665023,2,right
5.559,-0.1131326631860714,0.9909801092094993,-0.05139032604338273,-0.7625102442687766,0.6882376032042798,0.2173539510561322,-0.086458368338544,-0.7546807291574255,-0.7926278855234167,2,right
5.563,-0.10947404994233909,0.9921459678514517,-0.05078964802135276,-0.7971795953977969,0.6909702771162216,0.23112337785682485,-0.08859199219284179,-0.7448285704606984,-0.7946547429648265,2,right
5.563,-0.10518933762171914,0.991594092542628,-0.05287034385143598,-0.7321087643627044,0.6859152899238261,0.20567523965002665,-0.08854699172086324,-0.7451608241735291,-0.7945910523063876,2,right
5.569,-0.10074452933386097,0.9910919388681868,-0.05637275866859401,-0.8161989356178175,0.6923972187830174,0.23829105266260805,-0.08443704532901042,-0.7637317221352802,-0.7907556523863659,2,right
5.569,-0.09831878528785118,0.9906173796401112,-0.060555364284768556,-0.7457659122818372,0.6869899336265379,0.2110895190269343,-0.09452351040156849,-0.7180094504255847,-0.8001925795642433,2,right
5.5729999999999995,-0.0941704607423497,0.9885629846779681,-0.06856666181295176,-0.7476268775791219,0.6871359640980765,0.21182539335118938,-0.07780393725528954,-0.7938389733306443,-0.7845436564248933,2,right
5.5729999999999995,-0.09061091434256219,0.9882627549781248,-0.07701477871897032,-0.8824578943391572,0.6974406335354645,0.2636478587726406,-0.0998562025158414,-0.6938186482627982,-0.8051839600669821,2,right
5.574,-0.08950214093272998,0.9881222075152072,-0.07821594254472011,-0.5509536409596127,0.6721167703486176,0.13629678671821283,-0.19244355195409377,-0.2740788512462876,-0.8918167945323785,2,right
5.577999999999999,-0.08417407193914397,0.9840738192563082,-0.08373712385310121,-1.1007296890259615,0.7141014717927961,0.3474295860071295,-0.21449660594997147,-0.17406655888787909,-0.9124546740981238,2,right
5.577999999999999,-0.08012488354941127,0.980738129016158,-0.09227217141620336,-0.3754804518063756,0.6587264814068041,0.06896265116769612,-0.19777617951405216,-0.24988739080523448,-0.8968083735153087,2,right
5.579,-0.08095062231627725,0.9808576085025638,-0.09335641706745773,2.669551689608731,0.42627313308050185,-1.099965438144137,-0.20786231977783662,-0.2041618141183714,-0.906246298664767,2,right
5.582000000000001,-0.07988010887575822,0.9802398840520828,-0.09637173561859264,3.3949196542102626,0.37089895464425293,-1.3784248494536766,-0.2037552045737812,-0.22276153959594122,-0.9024021980443653,2,right
5.582999999999999,-0.0806620399614223,0.9781488760781197,-0.0942357546930368,2.844897714723288,0.4128846797861878,-1.1672938145502445,-0.20370411279021394,-0.22303176670701155,-0.9023572273708103,2,right
5.587000000000001,-0.08345267204816198,0.9733023178011881,-0.08312577390416628,3.1767690738581518,0.38755374492487527,-1.2946705650425119,-0.2058464700720401,-0.21326854202115642,-0.9043572446894292,2,right
5.587999999999999,-0.07997939749815133,0.9657955233524453,-0.08456069005025507,3.04150661312997,0.3978752185316599,-1.2427745421755776,-0.20327803121935029,-0.22496062287008897,-0.9019588170359396,2,right
5.5920000000000005,-0.07329141547684559,0.9632374870337264,-0.09766529657647327,3.0400010565794098,0.3979943720572457,-1.2421658343847013,-0.2052815855863536,-0.21585710029094246,-0.9038313993292705,2,right
5.593,-0.06630851425392198,0.9663416423285424,-0.11223077784335005,3.110383177226616,0.39261819406810206,-1.269209935752422,-0.20419140866220092,-0.22076115543068056,-0.9028068378398195,2,right
5.597,-0.059558114583794626,0.9705283064726268,-0.13416378827660025,3.025770731456898,0.39907842562709084,-1.2367197947444581,-0.20446340327891488,-0.21965122194614223,-0.9030758297155907,2,right
5.598,-0.05553404605116813,0.9757698513931075,-0.1595885035657687,3.0921309372469707,0.39401557065871506,-1.2621714489511944,-0.2047079896337911,-0.21833104642993484,-0.9032796195405818,2,right
5.602,-0.04973776023487124,0.9809674833023374,-0.17595901711298506,3.0554582062616147,0.39680657605403036,-1.2481610684204638,-0.2042632744994533,-0.22060586158428225,-0.9028943512487512,2,right
5.603,-0.04096750055333961,0.9852442575094387,-0.17504240905837073,3.065431269828405,0.3960594502719661,-1.251875787718916,-0.20468779023648867,-0.21847533892613513,-0.903266931049094,2,right
5.607,-0.03202217360277841,0.9895135635906436,-0.16047704666875176,3.0726162442942524,0.39549380184306004,-1.254772138046992,-0.20437516842808373,-0.21989095308707374,-0.9029742024482883,2,right
5.608,-0.02592608237533356,0.9918385316439304,-0.14747093225946234,3.058077209348219,0.3966172353863525,-1.2490813510438379,-0.20458841019733787,-0.2193054673082847,-0.9032194960767196,2,right
5.6129999999999995,-0.02453489816779042,0.9897287046236769,-0.14006405902549524,3.0734151700358483,0.39544659041097974,-1.254967955413989,-0.2044127098390643,-0.2192307171800449,-0.9029504554336937,2,right
5.614,-0.025280597715591144,0.9871454525925302,-0.13536372484457013,3.059816697824681,0.39645938315062235,-1.249951327742734,-0.20460019215147163,-0.21968053700220558,-0.903282033666466,2,right
5.617000000000001,-0.02900897843681783,0.9861715547142798,-0.13517765367575463,3.071914918148071,0.39559341164503736,-1.2541311464513056,-0.20441421598898749,-0.2191380430866893,-0.90294150653184,2,right
5.617999999999999,-0.035332732369413075,0.9841175739743199,-0.13810535752003966,3.0605507164745855,0.39637516433361814,-1.2504611207738645,-0.20449976198542746,-0.21955101553258394,-0.9031178260935983,2,right
5.622000000000001,-0.04035762692135668,0.9845532459847253,-0.14187708531524706,3.0702188705704523,0.3957284294589528,-1.253434580620421,-0.2046821002630233,-0.21941398775896798,-0.9033712425656579,2,right
5.624,-0.043449885625149065,0.9881695391887184,-0.1464938353025642,3.066273316688577,0.39597702217220276,-1.2523461929385564,-0.2040617994024173,-0.2192066927081139,-0.902428037073399,2,right
5.626,-0.046319432301611355,0.9926684774524532,-0.14945303223188283,3.0577714534433227,0.39658022642824187,-1.2494502613062624,-0.20518014689706848,-0.21973678186238826,-0.9041474477791756,2,right
5.627000000000001,-0.04835271648730085,0.9994507360315447,-0.14532768369217366,3.0855686071119437,0.39465774402963344,-1.258512303409052,-0.2037512211052465,-0.2190234175968015,-0.90194609314199,2,right
5.631,-0.049033067287239177,1.0044833350473759,-0.13680911869421267,3.036243005607669,0.39805361070248796,-1.2425602785766765,-0.204941427733843,-0.219632257537708,-0.9037816063915718,2,right
5.632000000000001,-0.052297703473475496,1.0052081372806556,-0.12757260030934342,3.098776414587176,0.39375403922317675,-1.2627354481958843,-0.20491995966854742,-0.21956486978895645,-0.9037413429155505,2,right
5.636,-0.05699866374949468,1.0059870652660567,-0.11213482370755959,3.046911918364742,0.397318090319496,-1.246022951741965,-0.20261484587995585,-0.21857084180685243,-0.9002096098449994,2,right
5.6370000000000005,-0.06354293055140289,1.0089302042886603,-0.09432606527544873,3.0477869435235334,0.39726050742086494,-1.2462731256548674,-0.20826821136587256,-0.22107411978831024,-0.9088798827163045,2,right
5.641,-0.07497010525589842,1.0113349093094792,-0.08458841694968394,3.1480869641197007,0.3903609558296888,-1.2786778411384052,-0.19889748629852444,-0.2169079958878368,-0.8945059774367023,2,right
5.642,-0.08222686765456844,1.0102317313775908,-0.08249325237279717,2.9023300772966385,0.40726342541269034,-1.1993243772727036,-0.21125760545291394,-0.22240439940624307,-0.913465880326417,2,right
5.642,-0.08507128455977736,1.0108483588238135,-0.08235302434913136,3.3095121236501948,0.37925888525725254,-1.3307842023379306,-0.263141982207577,-0.24539763820111066,-0.9930337819412428,2,right
5.646,-0.08970614611063223,1.0154289817301654,-0.08244645942431511,2.772551521259563,0.41618975465369096,-1.1574309607997495,-0.2755030579271758,-0.2508873201283658,-1.0119938908299655,2,right
5.647,-0.09223199034481916,1.0153780808342463,-0.08192887055185821,0.5180477891000845,0.5712104094109729,-0.4295687168135401,-0.26613293946147615,-0.24672925305972526,-0.9976236828524995,2,right
5.647,-0.09426144155891797,1.0138498062964814,-0.08001672182972305,-0.01890303083492406,0.608138944058346,-0.2562200651466181,-0.2717800969396499,-0.2492325181774491,-1.00627998557685,2,right
5.651,-0.09660218761486136,1.0150604791288538,-0.07849803927127205,0.3882346819352596,0.5801449924546137,-0.3876590721234697,-0.2694904030694403,-0.2482200959063839,-1.002777617869103,2,right
5.652,-0.09638272837793171,1.013872122735921,-0.07706679220842805,0.14259331169260164,0.5970198651625572,-0.30835986828244405,-0.2694437650924212,-0.2481961128644871,-1.0026932950358765,2,right
5.655,-0.09296430640924999,1.0135035860148487,-0.07673889134280161,0.24268199288768436,0.5901708087275043,-0.3406653001984479,-0.2706636489882413,-0.2487396552698378,-1.0045766696495584,2,right
5.656000000000001,-0.09030559806967384,1.013807865117509,-0.07742659956503462,0.24384709978814084,0.5900439106765529,-0.3410517632593749,-0.26921317910381326,-0.24809514092955554,-1.0023467796847625,2,right
5.6610000000000005,-0.09300635614866562,1.0134888609822994,-0.07602199669054058,0.19169849902281622,0.5936758563912695,-0.32420576860351874,-0.2703259514401437,-0.24858841564800205,-1.004042989247874,2,right
5.6610000000000005,-0.09386628715636922,1.0123826908972435,-0.07419579073905452,0.25435016935742166,0.5893480089799062,-0.34443653986197487,-0.26975841711019605,-0.24833837448650545,-1.0032061190869828,2,right
5.665,-0.09467091675682195,1.006057593251541,-0.0723648763646213,0.20527928394306427,0.5926830365282305,-0.3286041313580037,-0.26982973105826236,-0.2483672168040446,-1.003257781857211,2,right
5.665,-0.10107004668247753,0.9991472849689168,-0.07104350127591347,0.2322703797927151,0.5909531355841589,-0.3372875224196653,-0.2700731086318475,-0.24847839372473354,-1.0037018064270076,2,right
5.671,-0.10668431335333173,0.9926842884490324,-0.07001903326665385,0.22515303355604233,0.5912255229522543,-0.3350420471513509,-0.26972897885444513,-0.2483232657149398,-1.0031176240321744,2,right
5.672000000000001,-0.11272883424002121,0.9834658937627433,-0.066338914329365,0.21950998923249937,0.5918797478347045,-0.33315609110372746,-0.2699894391956413,-0.24843887765802164,-1.0035166245526534,2,right
5.675,-0.11885966879948615,0.9742584593641543,-0.06495599770416344,0.23053059081112073,0.5909097825305145,-0.3367651118792343,-0.26993666924140136,-0.2484195866838805,-1.0035402023373494,2,right
5.675,-0.12249068550998986,0.9644144956799962,-0.06763648760136778,0.2191800682693456,0.5916883802547845,-0.33310125803391705,-0.26973392050982276,-0.24832022200616075,-1.00299036514189,2,right
5.68,-0.12533677605193028,0.9537282077555423,-0.068359077247729,0.2287643775793876,0.59142296307253,-0.33610029257349094,-0.27015027478119036,-0.2485189372277193,-1.0039853308436686,2,right
5.681,-0.12389834876369461,0.9461024870164989,-0.0674589091422127,0.22090878254966229,0.5910636184572763,-0.3337815601308544,-0.26966474081428227,-0.2482886403957233,-1.0028606826902804,2,right
5.686,-0.12392041593936727,0.9387985419433191,-0.06681584492631197,0.22768044300229195,0.5919398742504474,-0.3356435036887184,-0.269973258034523,-0.24843411115449437,-1.0035535104323856,2,right
5.688,-0.12788789459102712,0.9271914482495855,-0.06611879995706924,0.22227233239153532,0.5908812852883241,-0.33424311399479223,-0.2701522340994995,-0.2485208910080318,-1.0040170301330704,2,right
5.69,-0.1276500307584058,0.9165631720583747,-0.06932225436145725,0.22418297068105308,0.591576402506366,-0.3346603879369146,-0.26920846261847897,-0.2480698679134992,-1.0017416351110433,2,right
5.691,-0.12642107079173884,0.908727743219248,-0.0777773080076664,0.2296045852710607,0.5919161265236996,-0.33623831709221574,-0.27099665660732597,-0.24892313120389314,-1.0060198735363697,2,right
5.696000000000001,-0.12569082470364212,0.9038536179534589,-0.08637968135745594,0.21284114143029143,0.5899506120079122,-0.3315800959328895,-0.2686867856858128,-0.24782140921595083,-1.0005050577824903,2,right
5.697,-0.122311085135411,0.9039351809026281,-0.09469885437364178,0.24228332850917053,0.593708781718048,-0.3396877904717489,-0.27062108605185853,-0.24874379971281863,-1.0051185517842456,2,right
5.7,-0.1166644983719102,0.9037202083340674,-0.10328559294337936,0.20507175801671043,0.5888423487100298,-0.32946846784042283,-0.27055952767880803,-0.24871474308990943,-1.0049786616847136,2,right
5.7010000000000005,-0.11201572207125875,0.9040183837053366,-0.10529253834737762,0.23588628715818766,0.5929223053509374,-0.3379192929418241,-0.26689559261441,-0.24696677704730344,-0.9962211970463434,2,right
5.704,-0.10466684283190206,0.9056262458850617,-0.10503416438180352,0.23544061253172827,0.5927853489934689,-0.33781493165105864,-0.2759146105754917,-0.25126906877857147,-1.0177685797182625,2,right
5.705,-0.08865796338258095,0.9044868908513736,-0.11152742830180873,0.17565115495466838,0.585076255241749,-0.321370041705639,-0.2609552776999503,-0.24413327631732681,-0.9820322452988637,2,right
5.71,-0.07913228673808972,0.9035691374909185,-0.1162969802765155,0.32204327169475094,0.6040626173837182,-0.3616098294502946,-0.2806889359163882,-0.2535464098539971,-1.029173655657337,2,right
5.711,-0.07479439829634713,0.9047011209876916,-0.11877892692368182,0.07953277213067904,0.5725679008445685,-0.29495806941180813,-0.3635105888983933,-0.2930533737228408,-1.2270243685143294,2,right
5.711,-0.06648282970658581,0.9055001925327595,-0.12373694717636577,0.39932279633144274,0.6141145075437313,-0.3828470973023854,-0.38324618067948035,-0.30246738526067685,-1.2741732350177906,2,right
5.7139999999999995,-0.06187406420308549,0.9066322127144422,-0.1265315655145951,1.7419799903151136,0.7884854179727558,-0.7518529996824826,-0.36828294029245356,-0.2953298277597808,-1.2384238877011775,2,right
5.715,-0.04935469979781888,0.9100861906001247,-0.12986145477815902,2.061751045832038,0.8300329533817485,-0.8397384819064706,-0.3773075932224489,-0.2996346453019993,-1.2599857204776148,2,right
5.716,-0.030317097928793883,0.9138730768094351,-0.12958925381489245,1.8193057447056147,0.7985341570942803,-0.7731049824570284,-0.3736373401603066,-0.29788387826432006,-1.2512188995200573,2,right
5.72,-0.018115279256257968,0.9176585401806204,-0.12291288906023456,1.9655474249123854,0.8175310286147586,-0.8132951375799194,-0.3735805190118142,-0.2978568719941298,-1.2510750131491912,2,right
5.72,-0.010223988852797334,0.9237378470436868,-0.12268790788807979,1.90601612235687,0.809802813928497,-0.7969428530496911,-0.3755151180663314,-0.2987795062499041,-1.255713554229568,2,right
5.724,-0.009194625582234158,0.9322401609264896,-0.13149861599000023,1.9052329366472374,0.8096919980843763,-0.796709606525281,-0.37319609230731576,-0.297673564887271,-1.2501496668966952,2,right
5.725,-0.013772986845526568,0.9442843730777988,-0.1385196200090525,1.9363569015583282,0.8137464841614805,-0.8052888903480635,-0.3750046846970587,-0.29853603341175156,-1.2544938888494732,2,right
5.728,-0.021089470597734836,0.956621635218236,-0.1359776318853297,1.8990551473336088,0.8088904133986039,-0.795012019126707,-0.37403087312724514,-0.29807161720216335,-1.2521573758537163,2,right
5.729,-0.029808384384192442,0.9658205790786959,-0.12537032964731779,1.9281315232843974,0.8126719684628405,-0.8030138715464434,-0.37424141388259946,-0.2981722664003509,-1.2526401427062428,2,right
5.737,-0.03836351984708895,0.9745790015154099,-0.11078638969766397,1.9123780999991928,0.810633367899485,-0.7987061699983373,-0.3745325578159567,-0.2983104575635994,-1.253400638600166,2,right
5.7379999999999995,-0.05002519658451957,0.9822215837070823,-0.09770662490958298,1.9161505503496854,0.8110980946614585,-0.7996729888841299,-0.3740290398959917,-0.2980714480877501,-1.2520858803483437,2,right
5.739,-0.062435453551212605,0.9905209964186696,-0.09037531538952515,1.9199919180306568,0.8116405192020972,-0.8008491450616906,-0.3745184476085722,-0.29830347038763233,-1.2533923291177245,2,right
5.739,-0.07582533953231668,1.0018383273503595,-0.08377423316421741,1.9131817032020517,0.8107027389448572,-0.7988297564874793,-0.3741811856427594,-0.2981437196086256,-1.2524771709649087,2,right
5.744,-0.09230915371568843,1.0117868387986741,-0.07441906457573416,1.919625780183101,0.8115821652577291,-0.8007185161919802,-0.37430292658918507,-0.29820183107981957,-1.2527670940310203,2,right
5.744,-0.10627798824061843,1.019987072423171,-0.06306824936415822,1.9150951847506734,0.8109937938851883,-0.799474509203526,-0.3744097216766016,-0.29825061537259107,-1.2532251715945009,2,right
5.747999999999999,-0.12057180448780964,1.0281700993247214,-0.04755237701126673,1.9176517366320625,0.8112480428550687,-0.7999584496207472,-0.3740984251297421,-0.29810700132547385,-1.252017580476571,2,right
5.749,-0.1382695746800492,1.035110338691255,-0.027622833987793458,1.916328277099676,0.811254320172812,-0.8000943192676155,-0.3745472056668018,-0.29831384099834435,-1.2537818809388246,2,right
5.754,-0.15221826266014968,1.0401015395368893,-0.005800964517672689,1.9172199074135925,0.8111041053597515,-0.7995941620004493,-0.3740895098350635,-0.2981031736022426,-1.2519504580080154,2,right
5.755,-0.16379502662451495,1.042463578989681,0.01611330562713563,1.9164714915415253,0.8112907585545814,-0.8001827529980776,-0.3743542160298313,-0.2982251054703612,-1.2530094636915559,2,right
5.7589999999999995,-0.17367731868752628,1.0413282242242836,0.035299371594305004,1.916584932645513,0.8111409657777269,-0.7997552119797988,-0.37453634289366744,-0.29830796507227136,-1.253811657941202,2,right
5.76,-0.1813032255183758,1.0408898608159758,0.05065376903213653,1.9182613342239687,0.811218540381147,-0.799819829566377,-0.3736795753312637,-0.29791626828343004,-1.250156860073375,2,right
5.763999999999999,-0.19026412201590306,1.0450982441215788,0.06352218787307813,1.9135096539582774,0.8112182488954387,-0.8002460500150624,-0.37527149865827203,-0.2986443721268536,-1.2569425747067016,2,right
5.765,-0.19379253992270434,1.0503224905977961,0.0709931896286056,1.9218540283704553,0.8111566341972707,-0.7993276848716178,-0.37323111986773777,-0.29771097614146336,-1.2482376830117825,2,right
5.768,-0.19310888129256992,1.0548075607224292,0.07207838349336168,1.9112458246052915,0.8112509667628818,-0.8005355608155587,-0.37493292481143725,-0.2984898414817938,-1.255502056813206,2,right
5.769,-0.18723527768716275,1.0571586471110124,0.07006752560493232,1.9200570541224777,0.8111643037321483,-0.7995156487260272,-0.374881708627152,-0.2984653827249246,-1.2552908994798417,2,right
5.773,-0.1676515115276756,1.0563456322244194,0.06588991485576011,1.9199871308299452,0.811193336751719,-0.7995875940610349,-0.3716581194874415,-0.29699270529884103,-1.2414957912843976,2,right
5.774,-0.14554643750471383,1.0552828079457262,0.0635093758360459,1.9026384128339917,0.8112759760768974,-0.8013866609231737,-0.3795855809247254,-0.3006161817263234,-1.2754169849455863,2,right
5.778,-0.12092214699552904,1.050783095420304,0.06377384683517942,1.94507555563009,0.8110366831894849,-0.7969127632524693,-0.36644143770661936,-0.29460707528304475,-1.2191710954164523,2,right
5.779,-0.09791971966618065,1.044623943774201,0.06304723684282311,1.8747716780696084,0.8114484361685188,-0.8043438110793366,-0.38377761063682453,-0.30253353594523436,-1.2933591974971244,2,right
5.78,-0.09772465872121552,1.0446981535676605,0.06300223253699559,1.9674886556000253,0.8108961855554178,-0.7945416596663462,-0.45652293616826034,-0.3357667940059089,-1.6046422784612269,2,right
