time,gFx,gFy,gFz,ax,ay,az,wx,wy,wz,subject_number,foot
13.714,1.6215903727517127,1.565473790842281,0.5629795784148761,-0.6229766355057583,0.34335759614138495,-0.5312919083937341,-0.005912759163279789,1.5032237102040977,-1.6759602408803245,1,right
13.716,1.47476760290277,1.5792371020081104,0.5709153472896303,0.5533526640426036,0.11629091162004711,-0.8248214650736818,-0.005351718415964334,1.5016664781736686,-1.6737518524170625,1,right
13.716,1.1894256759064508,1.6034067981807882,0.5761090671643211,-0.3386444227106327,0.2883380426285894,-0.6024467580704662,-0.026460708397217904,1.5516678814439957,-1.7537212792974157,1,right
13.722000000000001,0.8652275066310589,1.6354967128070892,0.5525854072985477,0.19958402228292468,0.18476006476795703,-0.7362931801510711,-0.0011677416928056877,1.4919329928271061,-1.6579701246505323,1,right
13.724,0.49290481615738657,1.6766578043850906,0.49054090795269595,-0.019740699385933924,0.22662962948579207,-0.6822222659498354,-0.020878524566369173,1.5382121209626018,-1.732473360174247,1,right
13.725999999999999,0.12250263572522348,1.7173573108160003,0.37079514408341574,-0.022371708425403813,0.22760828109623055,-0.6809124501192543,-0.010224902059447318,1.5137208533462605,-1.6924311509297754,1,right
13.727,-0.21931459084134963,1.7473850627234147,0.21098411785035692,0.09219153160630823,0.2052896953309567,-0.7097824374514345,-0.012704185889529748,1.5184855544944917,-1.701342150313757,1,right
13.731,-0.5177717465396702,1.7533305476743586,0.049525891039099164,-0.04567631454818977,0.23149404152595807,-0.6759338641252954,-0.015456483828805915,1.5263009431435441,-1.7123364785290747,1,right
13.732000000000001,-0.746652399605648,1.7270533516062772,-0.08296990036423726,0.06266377644330937,0.2118986773176421,-0.701179777874542,-0.010633631680471252,1.513872512124673,-1.6936237410670798,1,right
13.735,-0.9053846173822021,1.6643056315703557,-0.17228579526368387,0.002731605335853163,0.22119502178125122,-0.6893065167640211,-0.015205909524800523,1.5246443173713002,-1.7109215323703932,1,right
13.735999999999999,-0.9964028631247994,1.5658803448566008,-0.22362154315022775,0.01862347004777304,0.22091773943622958,-0.6894902349875718,-0.012047035982749053,1.5191558068023898,-1.6998277636279098,1,right
13.741,-1.0301369690551403,1.4468500428664641,-0.24595205655542773,0.03177283501089251,0.21615403324095325,-0.6957866863675887,-0.013603474590783558,1.518346532873077,-1.7037521920877654,1,right
13.742,-1.0269081876277673,1.315777982882552,-0.24805329611700935,0.005271828245120461,0.2212504214014852,-0.6891991668403741,-0.013275731746094028,1.5242565252902738,-1.705444403584082,1,right
13.745999999999999,-1.0121758468310373,1.1773670103282106,-0.24179662448014652,0.03410416731072307,0.21981403861572363,-0.6908027304914666,-0.012895394116442487,1.5162347911187424,-1.7008786892380363,1,right
13.747,-0.9976630569678041,1.039540238367346,-0.22805139661616486,0.008332920037691628,0.2153505326590669,-0.6971514693397454,-0.013604475165097857,1.5220253044937941,-1.705368836035277,1,right
13.751,-0.9861917693969239,0.9062386069353321,-0.20500680842697577,0.029224414966569513,0.2253993546079574,-0.683298225383431,-0.012694370575883636,1.523423993128787,-1.703481447261899,1,right
13.752,-0.9731351202550037,0.7816877266315378,-0.16991464489704444,0.014684544438723857,0.2131933366886562,-0.6999969642832555,-0.013870704920360782,1.5106727831096873,-1.7011182408233545,1,right
13.755,-0.9504308143826665,0.6648551310556404,-0.11275136311994369,0.019142465793658383,0.2210091911848947,-0.6893615168439913,-0.012352319707074087,1.5358886276288364,-1.708011291970064,1,right
13.755,-0.9263623524236717,0.5644216936125128,-0.05318294029113317,0.03128370551473626,0.22613868232200046,-0.6822735315809272,-0.014062988545668944,1.5029416720945958,-1.6982547671556374,1,right
13.761,-0.9035813984536043,0.4835652741269414,0.007868603074127928,-0.004334584450810407,0.2002951279359592,-0.7176846049619711,-0.012735847945701147,1.5306930332581437,-1.7067837521083165,1,right
13.762,-0.8899581860013877,0.4305228834024313,0.044863656118561135,0.05661658866910691,0.2492128241632574,-0.6507329446748396,-0.01261607185044875,1.5295574962705463,-1.7059602664568612,1,right
13.765,-0.8953015251714056,0.4133391753314889,0.023182252284589307,-0.019390215429140642,0.18595891106703188,-0.7372734477941155,-0.01556079024989953,1.477659168375997,-1.6912725629753147,1,right
13.765999999999998,-0.9112149537082489,0.4127465653315945,-0.028786945999547387,0.04311244498201014,0.2389580811287048,-0.6647758862472473,-0.00854825202914267,1.6057849349483146,-1.728232425837083,1,right
13.770999999999999,-0.9476645055200347,0.4611357391799231,-0.1675241007205875,0.04221668460402325,0.2373514782270989,-0.6669641757219054,-0.02009030365513465,1.3931194575125776,-1.6666240759001396,1,right
13.770999999999999,-0.978026935976501,0.5140028015220786,-0.2889169397928364,-0.07841386075662826,0.13661693091333393,-0.804774719566129,-0.004897347781605249,1.6737238793427367,-1.748007690537427,1,right
13.775,-0.9825341153749787,0.522662416523286,-0.3112864440314537,0.21666431608186054,0.3845210021863015,-0.4656442345754675,0.058997820015866564,2.850960946728307,-2.0890876650962977,1,right
13.776,-1.0140357764797985,0.5997214279282908,-0.45831575788579526,-0.2719363529754565,-0.026669567734305816,-1.0281429396925552,0.07418522143850423,3.1316236330897755,-2.1705014797795847,1,right
13.777000000000001,-1.0468207913134808,0.6794301346887925,-0.6005613198213251,0.3722411962684473,0.5157721736566534,-0.28609665398600004,0.06266718664140838,2.918852660928772,-2.1087923039278182,1,right
13.78,-1.0514161731056317,0.6903492478794431,-0.6148789391960876,3.075267793246193,2.7925109450541936,2.828371972449406,0.0696182282338093,3.0471048334105966,-2.1459811338705603,1,right
13.780999999999999,-1.0717404804286192,0.7498608409273197,-0.6977147237983261,3.719366186658798,3.3350166253213076,3.5705100939851033,0.06678506889074001,2.99510558391303,-2.130904157052722,1,right
13.780999999999999,-1.0916826414754852,0.8163566858543038,-0.7500368242743436,3.231075401586418,2.9237135759444186,3.007856064035016,0.06675265699693775,2.9939800768351557,-2.1305857770675516,1,right
13.785,-1.0925374147291915,0.843910568885198,-0.7027853082092885,3.5253918762076846,3.171744713062911,3.3471469871411395,0.06822767435567743,3.021882876075094,-2.1386567179422915,1,right
13.787,-1.0851934520136315,0.8732535754225873,-0.6324265673268917,3.4061147289837925,3.0709234334348805,3.209257363320395,0.06645759963093016,2.9885779968559136,-2.1290238326466273,1,right
13.79,-1.0693142955630957,0.8921767523688081,-0.525655837075421,3.40340087988415,3.0692922080100153,3.2069662142381476,0.06783848628742065,3.0143328977273436,-2.136480931495873,1,right
13.790999999999999,-1.056841159808096,0.9133156831747846,-0.4251890753740708,3.4676345342045503,3.122495796147969,3.2798298238977974,0.06708905691592709,3.001002788485261,-2.13258892896833,1,right
13.797,-1.050919565610192,0.9440967270487239,-0.34881455305528863,3.3909978932018086,3.0588270962321267,3.1926518146855374,0.06727066098908555,3.0027415800491353,-2.133178756760226,1,right
13.798,-1.0453945904601383,0.9771496945330734,-0.29661637575225697,3.450189655348174,3.1083159895001957,3.2603854689505436,0.06744968268902651,3.008811683638636,-2.1347900336940295,1,right
13.799000000000001,-1.0403220622145164,1.0130920473596126,-0.28304891529783416,3.4197923219049335,3.0819248781090693,3.2243538107257983,0.06713001716530724,2.999527493964451,-2.1322816937546114,1,right
13.799000000000001,-1.0299284161462836,1.0495787252481055,-0.29098027340635,3.423167524770866,3.0872633228685142,3.2314313011351796,0.06743323888988673,3.007817581542249,-2.134538600306623,1,right
13.804,-1.008773441007113,1.0885527066413907,-0.30904655958578653,3.4381575778875817,3.0956020263450674,3.2432258973163397,0.06721795785417572,3.0038669219750886,-2.1333914084874754,1,right
13.804,-0.9805175217454453,1.1236971745140798,-0.32055919914411934,3.415549521190747,3.0818163721041696,3.223892333559891,0.06734464760121983,3.001217927225864,-2.1328977200189327,1,right
13.809000000000001,-0.9463829964943467,1.1560093337130288,-0.31311877102457186,3.4356128555895724,3.0945265741114576,3.241658194985379,0.06726992844727633,3.0112344574572316,-2.1351750568443943,1,right
13.81,-0.908034134788096,1.1862221473141084,-0.2795440071151093,3.426556554223716,3.086857673235083,3.231170926775147,0.06732988332326778,2.995342921164963,-2.1315026878025245,1,right
13.815,-0.8692041604281695,1.2092309807925132,-0.21483679520340654,3.4185464582425173,3.0878935822351647,3.2318849101535227,0.06727559309293804,3.012459924767211,-2.135468670754082,1,right
13.815,-0.8327658359084111,1.2292670607064515,-0.12641169148479642,3.4459460890099893,3.0931902874900907,3.240737192723336,0.067291844499757,3.002291001890834,-2.133095981467597,1,right
13.819,-0.7980366395092306,1.2459799876047724,-0.024791475815326654,3.4028930601566088,3.083453013416703,3.2250203322081727,0.06738067591822314,2.994906936505707,-2.1314525960930437,1,right
13.82,-0.7614858962133908,1.2554267014585592,0.07878392847250724,3.4491937162354565,3.0941750123758944,3.2422423967580185,0.06711438173408765,3.0294841486713047,-2.1393029430556796,1,right
13.823,-0.7241760241274897,1.259601884051159,0.1776405408060182,3.421800860745617,3.0874398385185398,3.231552914048943,0.06758614193492048,2.964952977426046,-2.1246253047074797,1,right
13.824000000000002,-0.6745469728363984,1.2600557551000016,0.26135148996238716,3.401360389814502,3.084308659610058,3.225996819075154,0.06698529291725039,3.047904723975509,-2.1434993164905256,1,right
13.829,-0.6176657825932617,1.2595795133483185,0.32860839400468705,3.4960104918570423,3.1023904723662175,3.2563014249049322,0.06748499092666554,2.9786168119688172,-2.1277306131811815,1,right
13.83,-0.5506427688369162,1.2578943483297425,0.37974414603907114,3.3195441584400154,3.0680671246174196,3.1990202722965426,0.06747895660415762,2.9806313986935766,-2.1282010160307827,1,right
13.834000000000001,-0.46595765356409,1.2545661529689873,0.4088587402452668,3.546345292372396,3.112317680601235,3.2728148347460193,0.06650136671557648,3.1122898136509556,-2.15812777455458,1,right
13.834000000000001,-0.38588685660463923,1.2528243218222872,0.4251523325035816,3.356915868611151,3.075302630291188,3.211108763515104,0.06889553273827558,2.7885284346629446,-2.084518040014429,1,right
13.839,-0.273769159017691,1.2398179675786518,0.4162783663742041,3.3623686138288464,3.0765815385895205,3.2131568644467734,0.06492786786792965,3.325377449075255,-2.2065827470229307,1,right
13.84,-0.1909349906412508,1.2266265591642407,0.39880846688886906,3.722503136505009,3.14625435209748,3.3295790880910276,0.07016143240995795,2.617278827731575,-2.045574619426758,1,right
13.843,-0.1776035397760819,1.226774436125245,0.39648771186419207,2.8369540923100223,2.974679299678013,3.042981208048575,0.09213796724387115,-0.3547881470546511,-1.3698270533269965,1,right
13.844000000000001,-0.08251886458571803,1.2048043199280478,0.3638335101657509,4.305332090567207,3.2592446982134673,3.5182897918387326,0.09737357411719347,-1.0628554125295282,-1.2088122638543033,1,right
13.845,0.009879171626793989,1.1791262896444223,0.32942419560587755,2.368542988161469,2.88389524212291,2.8913492865212618,0.09340319222580676,-0.5260466478842738,-1.3308899242869618,1,right
13.849,0.01949048957978184,1.1741809178099647,0.323794955520569,-5.760655861445377,1.308795571325461,0.2603373524614744,0.09579831489389103,-0.84979852715449,-1.2572625796489076,1,right
13.850999999999999,0.08845293077108081,1.147310124694942,0.28953133615103105,-7.697403608251204,0.9334756262926939,-0.3665602313175885,0.09482434989791212,-0.7180737645182311,-1.2872073857889226,1,right
13.850999999999999,0.16843882462678011,1.105485116888871,0.2414606313342895,-6.229070358156562,1.2180090967175374,0.10870191397687004,0.09480804111019904,-0.7162327877284063,-1.2876669866670971,1,right
13.854000000000001,0.20689721587172746,1.0706462372253336,0.20175049150401822,-7.114636405359143,1.0464218974188337,-0.1779136272951647,0.09532445223792524,-0.7852470750146432,-1.2718913295098502,1,right
13.855,0.24025272935032121,1.0340545748937555,0.1550814618058638,-6.754353492536793,1.1162006292161577,-0.06133736499600173,0.09470448507792376,-0.7025986599952666,-1.2908002991658554,1,right
13.857999999999999,0.2461492969206289,1.002521097461326,0.11260526430242934,-6.749220047339335,1.1172516455620123,-0.05962069848174231,0.09518909132358228,-0.7669416431520749,-1.276055517421236,1,right
13.859000000000002,0.23556076234574144,0.9765314914436761,0.06921868179685296,-6.938191643734842,1.0805633423699186,-0.12085155936819345,0.09492862120870377,-0.732236009901944,-1.283995809333689,1,right
13.864,0.2109396390526726,0.9532179438892208,0.02600389152841595,-6.711846430216948,1.1244885310395074,-0.047530208046132026,0.09498046931690726,-0.7402609188585842,-1.2822690535562997,1,right
13.865,0.16830343217161597,0.9356242573388287,-0.009720714781301345,-6.888116005436532,1.0903055646664637,-0.10460717734143667,0.09507078775770192,-0.7491967003849175,-1.279922878180523,1,right
13.867,0.11923996666285806,0.9266472892738132,-0.04485006929397152,-6.793074484440664,1.1086667939685437,-0.073896222951723,0.09491461741404197,-0.7337299658447963,-1.2839806848374606,1,right
13.868,0.057891247993732325,0.9280459580481671,-0.07180214609942409,-6.814775969728679,1.1046355717938092,-0.08076128393964474,0.09507219589319399,-0.7481013827198577,-1.2800493809337552,1,right
13.873,-0.011853241232850024,0.9386496192854172,-0.09015673728174195,-6.839995962570976,1.099451190208515,-0.08919536099937622,0.09496060270546228,-0.7385418346462906,-1.282751862439767,1,right
13.874,-0.08594196156938194,0.9599728281304523,-0.1089345281260582,-6.796362040477279,1.1082699994638783,-0.07474124712769717,0.09499270009511243,-0.74293254204543,-1.2817582649907346,1,right
13.877,-0.16572957710241612,0.987409785930005,-0.12570014282409547,-6.8372888916544445,1.1000500082775555,-0.08825136026728858,0.09506208435457097,-0.7420489924537756,-1.2809778793328728,1,right
13.878,-0.24902315350644996,1.0139738745315692,-0.13733041314413386,-6.809870607789323,1.1053603081453516,-0.0793794200065835,0.09488569355315496,-0.7416556215409857,-1.2833097394294952,1,right
13.884,-0.3352836833783298,1.0397928469397337,-0.1434021266679779,-6.821825654455015,1.1035803735865488,-0.08276055793963416,0.09514467739957522,-0.7416818927756044,-1.279958538482343,1,right
13.884,-0.4200887960536908,1.0623803660953102,-0.1461636750307346,-6.821865892561665,1.1023464779672316,-0.08388909857894879,0.09487411778052032,-0.7423974857736468,-1.2833618769018507,1,right
13.887,-0.5021149670607494,1.076825902359346,-0.14720785684755278,-6.815253500982669,1.1054568065629948,-0.08008494725585544,0.09503046182039042,-0.7419921753000824,-1.2813935979900655,1,right
13.888,-0.5797256320188413,1.0830508085243695,-0.14576552506728715,-6.823521973802002,1.1019047090096086,-0.08453498799064904,0.09515317901011494,-0.7399928546170034,-1.2800719978567217,1,right
13.892999999999999,-0.6494242264960932,1.0802384623981791,-0.14320828058426716,-6.81681821995659,1.10433077706164,-0.08133999168603608,0.09460061869947384,-0.7466063867588895,-1.2863415979339006,1,right
13.892999999999999,-0.7100203474267853,1.0688615423091403,-0.138501356243533,-6.820583270374213,1.1045713015012417,-0.08167601739359659,0.0956260068295828,-0.7344482962955803,-1.2746903404524108,1,right
13.897,-0.7547467340495457,1.0520733124300587,-0.13456796209831873,-6.819725792812228,1.100488890921731,-0.08526348025815213,0.0943104986506059,-0.7501960707465641,-1.2896201165096701,1,right
13.898,-0.7847919750107379,1.030862496477376,-0.13620263587885717,-6.818498494464878,1.1086069339777165,-0.07769761903626621,0.09540809428064634,-0.7369876804411608,-1.2771699860777148,1,right
13.902000000000001,-0.790970542055729,1.0089983188612681,-0.13850125356474507,-6.820704344554155,1.098059699879204,-0.08761739388498493,0.09537756807210254,-0.7371693730361256,-1.2775468785574584,1,right
13.902999999999999,-0.7814404221375043,0.9899922798168697,-0.1402875589954632,-6.818610556498628,1.106915672605274,-0.07925284104965688,0.09328901003171963,-0.7631009324128548,-1.3011173341557711,1,right
13.907,-0.75955383721512,0.9752155657344634,-0.1439512863305387,-6.819641322296097,1.106483294133563,-0.07979767759537303,0.09842250139876427,-0.6995000867300492,-1.243153307761292,1,right
13.908,-0.7008784505799023,0.9654211733035898,-0.1450931647949808,-6.820429442010123,1.090226784720846,-0.09470270837627623,0.08991163915762498,-0.8049631405162685,-1.3392579434424305,1,right
13.911,-0.6591082417414735,0.9602684531092934,-0.14404369382142362,-6.817353387080063,1.1304124639026434,-0.05769252006411916,0.10113664764300437,-0.6658173574595381,-1.2125057351243291,1,right
13.912,-0.6325938142051728,0.9588249101160664,-0.14317437869151686,-6.822735353317087,1.0637207542596157,-0.11915425767223303,0.1482634561924905,-0.08120153443458675,-0.680589967792079,1,right
13.913,-0.5873079172215605,0.9570111959456197,-0.14143585909076087,-6.815633754672567,1.151696741349956,-0.038078053723515436,0.15948844614652324,0.058015898514170355,-0.5538540709572761,1,right
13.917,-0.560435112988692,0.9553990186328207,-0.1409166841353781,-6.787210593997716,1.5207056266297754,0.3017892882409698,0.15097619887444333,-0.04757356175609629,-0.6499298756826696,1,right
13.917,-0.4977328485048135,0.957659342940176,-0.14229568395581488,-6.780297442678406,1.608677062083355,0.3828302420195886,0.15611467470137477,0.016170955709070678,-0.5919987476441027,1,right
13.918,-0.39954594011074807,0.9621210935603954,-0.14519320869384406,-6.785432389357991,1.541976649861577,0.3214028960273497,0.15401578992102444,-0.009860436543174738,-0.6155460826006456,1,right
13.921,-0.31926586230161513,0.9703370808485602,-0.14954515695017198,-6.782431563429927,1.5822124696171815,0.3584408606512276,0.15400062856393282,-0.01006580953911728,-0.6159181673754817,1,right
13.922,-0.2285339430606764,0.9817805677003565,-0.15507521572278304,-6.7835810408262684,1.5658401170941674,0.34338196184427894,0.15508168181273152,0.0033674702732685927,-0.60351860824191,1,right
13.925999999999998,-0.13797896291099138,0.990445297770219,-0.16323886275264263,-6.783623885839959,1.5655905108954795,0.34314991341681245,0.1537757918232846,-0.012842753278900679,-0.6183434659936171,1,right
13.925999999999998,-0.0518831126971238,0.9989271714262035,-0.17103696352282177,-6.783115043586673,1.574237651462504,0.3510806261168934,0.15480975841437394,-4.221152613351556e-05,-0.606838798091524,1,right
13.931,0.03881329252949078,1.0070741088934156,-0.17677272618745205,-6.783532170020381,1.5638318809669287,0.34157458415271047,0.15421960955977546,-0.00727924172522771,-0.6129650218881257,1,right
13.932,0.12094637322161875,1.0111020409071907,-0.18373711120958897,-6.783467498975233,1.5720123637943377,0.3489958778098597,0.15441295159571705,-0.005027206637902669,-0.6117036380940281,1,right
13.936,0.1983265630683915,1.0128446631659855,-0.1902517241000788,-6.783245402418299,1.567523933339885,0.3449749023384511,0.15447625330436227,-0.004060683255766964,-0.6098595944359386,1,right
13.937000000000001,0.27236466370602086,1.008034630649468,-0.19293117342941657,-6.783414483108283,1.5685828901400651,0.3459007599534679,0.1542894527950262,-0.006523288328594399,-0.6128683798584273,1,right
13.940999999999999,0.3419870555093063,0.99848961898124,-0.19014357017698724,-6.7837860307973665,1.569876573298373,0.3469978626996328,0.15452712586692943,-0.0035760502468902876,-0.6101933341920676,1,right
13.942,0.40428507305454553,0.9914319850945256,-0.1829034855440015,-6.782437931237388,1.5674192921864232,0.3450413785901391,0.15424585682370398,-0.006794658461851273,-0.6116988894853383,1,right
13.945,0.46000617424132256,0.983396755381114,-0.17543041695880446,-6.784886052111085,1.5700971178980359,0.34697861869101465,0.15459500169166018,-0.003082801919705641,-0.6115730350878297,1,right
13.946,0.508057112032445,0.9750942555537951,-0.16867047429887266,-6.781799929606224,1.5678460995832613,0.3455548388125297,0.1541775316734466,-0.007336696817295811,-0.6105935123268877,1,right
13.953,0.5440476295300377,0.9690264089752487,-0.16196846197381365,-6.784296002935344,1.5691925331831094,0.34627712059659066,0.15458476137961397,-0.0032718575298465355,-0.6120647425782162,1,right
13.954,0.5734882079726107,0.9623348736921313,-0.15718177006029127,-6.784316209496236,1.5691973447822867,0.3462771060306902,0.1543747644203186,-0.005305340281249242,-0.6109283981815379,1,right
13.955,0.5926859523403574,0.9570971824924825,-0.1565448727313683,-6.779635754462135,1.5674156986314647,0.34559651506309824,0.15411508620396022,-0.008037870888785227,-0.6108389339258465,1,right
13.956,0.6016674621059254,0.9522176124630801,-0.156286874171778,-6.79035906845006,1.5711842148680542,0.3468725847920694,0.1551065114639424,0.0021132711964394514,-0.6128724088664814,1,right
13.96,0.605264564966586,0.9455927806641794,-0.15410637598642452,-6.774340475979246,1.565811678722048,0.34519862348335384,0.15330208370091153,-0.01628458878265497,-0.6087135960460943,1,right
13.960999999999999,0.5950931403943718,0.9400641203564619,-0.15685362373128986,-6.7914297242626915,1.5713931891677326,0.3468489971375352,0.1556068703463563,0.007184537819484942,-0.6141931505626659,1,right
13.965,0.575909496467435,0.934660621555206,-0.16328362773285487,-6.781549174569578,1.5682146791335443,0.3459379882285659,0.15368765519606292,-0.012342523611417997,-0.6095600959030196,1,right
13.967,0.5446831249266241,0.9320557752801936,-0.16803721724134285,-6.77303909140724,1.5654944145748846,0.3451715585909094,0.1537322204454364,-0.011916690026138037,-0.6097751025979963,1,right
13.97,0.5020749267477052,0.9319625042192707,-0.17269637249522363,-6.810305753780529,1.5773442013462433,0.3484764149571154,0.15741161376947505,0.025589829931189113,-0.6183706028971396,1,right
13.97,0.4602573740956094,0.9306470125565862,-0.17843981519051816,-6.741182754678727,1.5554219056981533,0.342395866240789,0.148378351909252,-0.06644641777561194,-0.597115278601935,1,right
13.975,0.4014455040413242,0.9321918546391956,-0.18619746595803321,-6.829950427592248,1.583534483793863,0.3501705029983071,0.16335267194701264,0.08609486743835545,-0.6324047776819199,1,right
13.975999999999999,0.36171826218775543,0.934499398214004,-0.1909700119766298,-6.755830125779803,1.560080356017997,0.34369314820529906,0.14360190033280995,-0.11508157247830172,-0.5858428922094912,1,right
13.979000000000001,0.3512357283540119,0.9356766857361687,-0.1926885786638326,-6.757863303762775,1.5607187117239236,0.3438743746999325,0.06069903347403486,-0.9596221153938844,-0.3904553537713334,1,right
13.979000000000001,0.30804784564149734,0.9370718906626088,-0.19734490068400207,-6.899131882018398,1.6054036368388587,0.35618448320289764,0.040945101230141646,-1.1607827689261652,-0.3438975043522001,1,right
13.98,0.25645071098284133,0.9379982253938284,-0.20048366942517354,-6.5518578430082375,1.495580047892417,0.32592857822837284,0.05592355817297899,-1.0082761332042383,-0.3791897667305685,1,right
13.984000000000002,0.20995864721932544,0.938518944655736,-0.203716965559671,-7.127689957461246,1.67766437964461,0.37609017237470127,0.04688905616954114,-1.1002566447566264,-0.35790752679861293,1,right
13.985,0.17295565010803052,0.9356288377590652,-0.20787143816477432,-6.368143280538,1.4375024008548443,0.3099304725191264,0.050562344284580056,-1.0628217668699453,-0.36656957736169704,1,right
13.985,0.16464809578864115,0.934458099608356,-0.20997302042344917,-3.180754788162163,0.4294955818605677,0.0323674747456198,0.05062354501700528,-1.0623274971654404,-0.36667617529443175,1,right
13.99,0.13239008995721913,0.9353301201587181,-0.21875977121653972,-2.4212371301125977,0.18934237206562637,-0.03378137500724959,0.048677676117937295,-1.0818840603185005,-0.3621707100066992,1,right
13.991,0.08745494806136557,0.9325394076584776,-0.23317233914691216,-2.9969360925253605,0.37140700905772517,0.016349498759204363,0.051012504544318216,-1.058471272671706,-0.3675579943852453,1,right
13.995999999999999,0.05970660480058359,0.9327283612474115,-0.2438790574024574,-2.650010533172123,0.2616159661403581,-0.013843638815066612,0.049188613690490435,-1.0766856481992493,-0.3633744070014072,1,right
13.997,0.029693800398420202,0.9347275041768832,-0.25092321369819426,-2.790640214249519,0.306257826449019,-0.0016331960568521792,0.05016922234918817,-1.0668529104614535,-0.365635936550586,1,right
14.0,0.00811699986799367,0.9342213769815788,-0.2577942034738484,-2.793551663380719,0.3069390466908021,-0.0013301233721976363,0.049970155124855295,-1.069190762903415,-0.36506788417812286,1,right
14.0,-0.005195736356673437,0.9366717312237711,-0.26438738307041393,-2.718569519262913,0.28346332706836197,-0.00790804569975423,0.049641100447821204,-1.0715460885534203,-0.3646107946339926,1,right
14.004000000000001,-0.015520378651223774,0.9423740996382304,-0.26702701933437223,-2.807698993203294,0.3115476064358692,-0.00012586804574775314,0.050209961129015,-1.0674666584936312,-0.36540283073333446,1,right
14.005,-0.020775387266477707,0.9476487412890928,-0.26805944043487856,-2.7393417040276073,0.2897300008948286,-0.006037706389446954,0.04964047104471648,-1.071163918723753,-0.3647340148622518,1,right
14.009,-0.024081116210551517,0.9532558928387888,-0.2720432433699157,-2.7741735931120646,0.3013909859291921,-0.0031355778771499383,0.05004153612109569,-1.06875530643164,-0.36514237856563747,1,right
14.01,-0.023207479986508003,0.960905787864057,-0.274100141599881,-2.769852340026982,0.2989123066190368,-0.0032863968861728144,0.04992023646868467,-1.0700056491760173,-0.3648517750926793,1,right
14.015,-0.01979079543102454,0.9685874055836846,-0.2725664932263404,-2.7548288631497906,0.2955256332374767,-0.004871144703669726,0.049695547275761,-1.0691840208686472,-0.3653183920983061,1,right
14.015,-0.01205247319614279,0.9742332521661876,-0.2708802772751097,-2.7760263982714717,0.3011416519829896,-0.002804878016167055,0.05027635293337675,-1.0703760311891584,-0.364410542788851,1,right
14.017999999999999,-0.0005995773159198857,0.9783675097668848,-0.2676719132309284,-2.760024639593267,0.29607164352925713,-0.004196485230586585,0.04942550957617231,-1.0684385546073587,-0.36580183941601924,1,right
14.02,0.009679349385502314,0.983673505993337,-0.2654353352146623,-2.763168199479561,0.2990831790968467,-0.004331210179682525,0.05031180941512907,-1.0707152543675038,-0.3642697155042214,1,right
14.024000000000001,0.019568899049634367,0.9899741730178194,-0.26454501033217614,-2.7758480701469717,0.29848273592462976,-0.0022934140361269163,0.04979943475636723,-1.0694019473249345,-0.3651545452544245,1,right
14.025,0.03261211878691908,0.9946796057908179,-0.2577589569474448,-2.7499368813761094,0.29716624475090003,-0.005942695496928583,0.049403915677577986,-1.0678015766766658,-0.36602546767897914,1,right
14.029000000000002,0.04990341073920272,0.9986464530009442,-0.24636300839368921,-2.7801179060726127,0.29937912367044706,-0.0018294667856150106,0.051194774923057094,-1.0741996153981344,-0.3623537139632915,1,right
14.029000000000002,0.06568040921314364,1.0006894814133047,-0.23607178414199267,-2.7609638402438055,0.2975577644530031,-0.004355789868109497,0.04787051129435623,-1.0623642648742297,-0.36915627598720163,1,right
14.034,0.0756289623352028,1.0016643218579606,-0.22537706384608647,-2.7497863134604796,0.29767521311948275,-0.006068056609492789,0.05213535280249683,-1.0776006251660766,-0.3604122149772033,1,right
14.035,0.08337521432855349,1.0038245961572256,-0.21483557436744097,-2.8085435743194065,0.3002743738229151,0.002284558656809078,0.04857637036525092,-1.064862331651833,-0.3677166597285062,1,right
14.039000000000001,0.0890922765766379,1.0038419073990492,-0.2013333576723328,-2.6972543689759183,0.2947187644756066,-0.013408651507505311,0.04867806642204772,-1.0651590610038593,-0.3675294812591564,1,right
14.039000000000001,0.0904146396898273,1.0033132080383793,-0.18472575416058074,-2.8409905679300813,0.30211736339147677,0.006815859897207474,0.055442390345612214,-1.0896556617490059,-0.35355486445682394,1,right
14.044,0.09131279216401786,1.0036336515571644,-0.17518478404279444,-2.720642541809556,0.29582891979157533,-0.010100440313522115,0.03881183126642135,-1.0294809178806719,-0.3878958302889637,1,right
14.045,0.08604639756584648,1.0012178771730722,-0.16362660443535887,-2.72443569147232,0.2961710726561966,-0.009592563400579294,0.06638637547214653,-1.1292586733136623,-0.33095495338906233,1,right
14.049000000000001,0.07741289593287802,0.9996031575020612,-0.15313442618238826,-2.9524877931430553,0.30770433807787045,0.022530891623265683,0.030016377547809052,-0.9976389524332103,-0.40606334717579173,1,right
14.049000000000001,0.07650058529782763,0.9988389786521027,-0.15143083054298484,-2.3911938922747753,0.27910865839418475,-0.05649814626779986,-0.12261694086630111,-0.44506626702738145,-0.7213354907454957,1,right
14.05,0.06746194094326893,0.994546671608106,-0.1374764471782301,-3.3221293385071173,0.32661490195558757,0.07456473337541501,-0.15898442127502044,-0.31342829119483023,-0.7964474510065105,1,right
14.052999999999999,0.055171828570044636,0.9922067836399684,-0.1252711859276021,-2.0941324363818223,0.2639209371033693,-0.09831833400354409,-0.1314157580966131,-0.41323243271875665,-0.7395034586303106,1,right
14.054,0.05297309428390752,0.9922570274299115,-0.12322588291125619,3.060230444081602,0.0008795146384836666,-0.8238817474212501,-0.14803617009519615,-0.35304169784777084,-0.7738403243781943,1,right
14.055,0.0421794017313525,0.9905191838762143,-0.1085700429659988,4.288255685578319,-0.06182087549324,-0.9967636417001258,-0.14128586597996035,-0.37752123687772376,-0.759883934428728,1,right
14.058,0.026156369929839093,0.9902704106302096,-0.09090655981811402,3.357191727123719,-0.014285495339908492,-0.8657060967685599,-0.14116940663222094,-0.3778870468917796,-0.759661164132766,1,right
14.058,0.013375633534723944,0.9899998561032903,-0.07501648598264377,3.9188205569142425,-0.04295711042258464,-0.9447212172951711,-0.1447372254352465,-0.36502378856045803,-0.7670137379740991,1,right
14.062000000000001,-0.00438241983166816,0.9873372706781184,-0.058851425467691565,3.690155632030033,-0.031284905560777905,-0.9126232393375987,-0.14047898778785028,-0.3804169631440124,-0.7582253751747188,1,right
14.062999999999999,-0.022608536706998774,0.9855366218222671,-0.04735445823173573,3.6872037001791513,-0.03113347341281244,-0.912080378115248,-0.14377179868709827,-0.3684538255105713,-0.7650403227223694,1,right
14.068,-0.04067436877385222,0.9846778148776916,-0.03649255959702673,3.806727760940497,-0.03723510827874284,-0.9290309603703661,-0.1420411782398574,-0.3748557565506045,-0.7614221165528781,1,right
14.069,-0.06090883333800129,0.984011992992726,-0.03038150704976585,3.6633346939847335,-0.029914303028418108,-0.9087921447199094,-0.14235603864215485,-0.37348118173184963,-0.7621472281604145,1,right
14.073,-0.07642136664652502,0.9847002379158468,-0.028020782247352206,3.775362292602734,-0.03563732241251367,-0.9244546968683102,-0.14294302262127936,-0.3716435472063182,-0.7632681405360189,1,right
14.074000000000002,-0.0870380682270804,0.9868829015536816,-0.025878246583662154,3.714267794573535,-0.0325082620744063,-0.916199229892726,-0.14203351576822654,-0.37470732577747534,-0.7614623965506957,1,right
14.078,-0.09700379696401384,0.9896383371906335,-0.02332543122342097,3.729460181627869,-0.033301062556571295,-0.9177445554232606,-0.142800739018238,-0.371927935300552,-0.7630477299912138,1,right
14.079,-0.10328054734456846,0.9920395811847336,-0.01881475366091046,3.743691468583814,-0.034006331527171293,-0.9204756375034848,-0.14245428765908402,-0.373605846699286,-0.7621971750353065,1,right
14.082,-0.10527574446355648,0.9943762768229015,-0.018486368033433453,3.7174331081847294,-0.032682794005249746,-0.9161991505544067,-0.1422947872241927,-0.3732150389597504,-0.7621760981365355,1,right
14.082,-0.10614341116255793,0.9969220454770532,-0.01854109435039851,3.743382772749814,-0.03400801601390885,-0.9198470566871242,-0.14286773710922535,-0.3725852018274374,-0.7628995361632425,1,right
14.087,-0.10477473316555419,1.0006615519236108,-0.01732607227365905,3.723414256184479,-0.03295596917911574,-0.9181120899036559,-0.14213436333269142,-0.37370045779348293,-0.7618750909969247,1,right
14.088,-0.10143253855948739,1.0064660016860123,-0.023643207052533415,3.7369233426495345,-0.03371992656221899,-0.9175545194864023,-0.14264034167964085,-0.3727584682982508,-0.7626368613217234,1,right
14.092,-0.09628394337911267,1.010915879741558,-0.031078330333405794,3.7280836093289755,-0.03315787542440943,-0.9199791828264473,-0.14282081800178653,-0.37287162252460626,-0.7627654710864781,1,right
14.092,-0.09002988381003799,1.0132688477307825,-0.03626278376936064,3.7333670873740874,-0.03354561526777755,-0.9168112768844987,-0.1415592279020108,-0.3740832838532108,-0.7612283610687623,1,right
14.097999999999999,-0.08445347082156524,1.016389750602259,-0.04564666506094887,3.733090495971255,-0.033463488416930504,-0.9190332111198307,-0.14401035669732287,-0.3714329471657448,-0.7643092006400627,1,right
14.099,-0.07966827868693781,1.0197204367385453,-0.05363231297753237,3.7242204270807804,-0.03295139158980004,-0.9197312387443004,-0.14082273863897632,-0.3749814755119738,-0.7602701651976929,1,right
14.102,-0.07756877204137083,1.0223703165680078,-0.05723317972435996,3.747115597383827,-0.034378316329795135,-0.9144299112687481,-0.14350103469312736,-0.37195755245343026,-0.7636774235150392,1,right
14.102,-0.07499721468104639,1.0224781538271601,-0.05831336666548538,3.7084189155725276,-0.031924652642529736,-0.9247929202547992,-0.14340205176572635,-0.3721340825735681,-0.7635306729760609,1,right
14.107000000000001,-0.07047020425353692,1.0213980450837448,-0.057410932569501937,3.756750898134163,-0.03500555168538065,-0.9112933768250365,-0.13836544434135328,-0.3776482692119385,-0.7571786004496475,1,right
14.107999999999999,-0.0676664133873468,1.0219121597506358,-0.062059901561351515,3.716974706032085,-0.03246345864820682,-0.9226471781008149,-0.15078334233819574,-0.36395810145441354,-0.7728704178481516,1,right
14.110999999999999,-0.06659494278211366,1.0204190803874493,-0.06904035183338862,3.7171663865746662,-0.03248544048922762,-0.9222084509173307,-0.13017904140130787,-0.38670876954838196,-0.7468222935247546,1,right
14.112,-0.06720556632887408,1.018350201347054,-0.06943565947439434,3.795364915628224,-0.03745680564078607,-0.9009067425853515,-0.15736186330731608,-0.3566818894234928,-0.781191365331454,1,right
14.117,-0.06640130530825583,1.017941066166136,-0.06942388012001219,3.6044434808703603,-0.025306517112854567,-0.9534579186571043,-0.27143756582003065,-0.2307184706430345,-0.9254077276860366,1,right
14.118,-0.06560759823635305,1.0174695270825715,-0.07359320804225936,3.920514926119106,-0.04542497479952385,-0.8662468750358994,-0.2986230976835067,-0.20068792498678426,-0.9597814169524792,1,right
14.118,-0.06761806011064803,1.0183195235729539,-0.07710415072180049,3.503796343302911,-0.018900450168023903,-0.9813134667631329,-0.2780119574364145,-0.22345374858761896,-0.9337206976045214,1,right
14.122,-0.0686263302071553,1.0185230559608405,-0.07778592404057272,1.753899822851572,0.09250196164666397,-1.4640804027097791,-0.2904425801051719,-0.20972545516734975,-0.9494375316311745,1,right
14.123,-0.07239728280826327,1.0168544045825088,-0.07813364012770388,1.3372164604200836,0.11902046184494823,-1.57916991314069,-0.28538716631261607,-0.21530819600719758,-0.9430465392800281,1,right
14.123,-0.07960355377430572,1.0151957230212827,-0.07984043942227487,1.6531476439603208,0.09891373557915137,-1.4919196903524354,-0.2853095864603934,-0.21539180986539447,-0.9429464580288593,1,right
14.127,-0.08708671277551196,1.0151906705450835,-0.08069167089989718,1.4625735539226252,0.11104803719879516,-1.5445123791782451,-0.28797245555959006,-0.21245740711994793,-0.9463164821667335,1,right
14.129000000000001,-0.09447850896804041,1.0166015362819598,-0.07827162388445214,1.5401525211029863,0.10609312039238243,-1.5231878979654803,-0.2847811372655451,-0.21597138070565236,-0.9422774506620011,1,right
14.130999999999998,-0.09870764080423308,1.0168437209970258,-0.07586468999786516,1.541178918912693,0.10606118041375476,-1.522728006396312,-0.28726926095667493,-0.21323458447299592,-0.9454271332915979,1,right
14.132,-0.10289586303426818,1.0186254273013013,-0.07689624258839295,1.5006048944304122,0.10859718983428902,-1.5341683264189623,-0.285929281355239,-0.2147094973111688,-0.9437313840000645,1,right
14.137,-0.10689913547751234,1.020151578488821,-0.0789678993740052,1.5492329856242042,0.10554778225754916,-1.5205124627832636,-0.28622194817094554,-0.21437648986346014,-0.9440981042738064,1,right
14.138,-0.107324109974235,1.0178866868777257,-0.08160647843348467,1.5113339836489454,0.10794062906938176,-1.531073215688354,-0.28661427914673343,-0.2139751203875022,-0.9446045324258872,1,right
14.140999999999998,-0.1063890757052689,1.0167506983744325,-0.0835136686080927,1.5318424383540843,0.1065954887250372,-1.5256058926763236,-0.28593577997234143,-0.21466919343307123,-0.9437289179287746,1,right
14.142000000000001,-0.1060415391595181,1.0156896892513896,-0.08436477445018703,1.5269920236598935,0.10703135837562827,-1.5263221288586326,-0.28659137090553977,-0.21401312702161868,-0.9445795236351624,1,right
14.147,-0.10616739327404866,1.0145227242936796,-0.09062084181094732,1.521872157249911,0.10713853714850133,-1.5288059227345618,-0.286141632519215,-0.21445558793799468,-0.9439936362696724,1,right
14.148,-0.10293887665539933,1.0152626441934358,-0.09850227139708237,1.5308875172424656,0.10683294024291616,-1.5250052151429014,-0.2863093893951386,-0.21426977797542857,-0.9442055295521248,1,right
14.151,-0.09915924308403529,1.012944964500297,-0.10179567699155867,1.5223776307548293,0.10716083283418425,-1.528399704614492,-0.28642912937965526,-0.2142383970824387,-0.9443890571743538,1,right
14.152000000000001,-0.09671081610015761,1.0096271122665077,-0.10462076036429242,1.5282800121668276,0.10678313593702696,-1.5267794072832443,-0.28606299591685685,-0.2144123228018926,-0.943852805018425,1,right
14.155,-0.08801855583609144,1.0091576492791676,-0.10995138311485761,1.5251591538624787,0.10737868550258839,-1.525702877796169,-0.28658759168767084,-0.2141766645133914,-0.9446253998596941,1,right
14.155999999999999,-0.07384349484312544,1.0076774102608939,-0.11835488328818562,1.526403028792898,0.10639261566908512,-1.529788489039148,-0.2860570048847565,-0.2143963518957392,-0.9438380922590908,1,right
14.161,-0.05902912974167388,1.0052803950948621,-0.12561380616094076,1.5259578628541,0.10777380084878335,-1.523304144832509,-0.2863637380790842,-0.21426902507814277,-0.9442930756704415,1,right
14.162,-0.043139094221839716,1.0049494012563396,-0.12938915152279035,1.5261697958643938,0.10631821628104762,-1.5302892709958713,-0.2865652815455644,-0.21422939894228543,-0.9446061827190856,1,right
14.165,-0.026574328779435063,1.0041684665258925,-0.13276567798220026,1.5264616100856316,0.10713277055836354,-1.5261383240977828,-0.28560221241550354,-0.21449376052179603,-0.9431342583403628,1,right
14.167,-0.010603283021194764,1.002324697209957,-0.13552578820769118,1.524660663549436,0.1079659377907622,-1.5231287601358567,-0.28739191676181436,-0.21399882688756802,-0.9458682740850808,1,right
14.17,0.005236077805603409,1.00019944820202,-0.14110775066105818,1.5291834554184904,0.10453415553446291,-1.537231481436988,-0.2850994884238928,-0.21462872233552707,-0.9423651294791529,1,right
14.171,0.021418962987711863,0.996559309863023,-0.150162350896419,1.5214013481039554,0.11085958727239892,-1.5109090163129202,-0.2870103648672881,-0.2141052261014336,-0.9452855015694799,1,right
14.175,0.039492608816360505,0.9939655201543005,-0.15726369693282566,1.5312592816593886,0.10274628956667878,-1.5447472420386559,-0.28695328941619613,-0.21412738758565714,-0.9452008189686455,1,right
14.175999999999998,0.055663867146974855,0.9906812502538046,-0.16667992649903227,1.5230822232998338,0.10951588947270041,-1.5164802179918606,-0.283334914613795,-0.215092681711898,-0.9396615103511343,1,right
14.18,0.06891836386445656,0.9844490934482187,-0.17824612197997863,1.5230974713812104,0.10934674918615131,-1.5173083166805617,-0.29223084074434147,-0.2127132469298278,-0.9532772009268595,1,right
14.181,0.08537757791151113,0.9802699563971211,-0.1836551348431131,1.5393703095525668,0.09639282010415957,-1.5710051719189653,-0.2774834717518393,-0.21665890695532658,-0.9307066414579075,1,right
14.186,0.09511033146356938,0.9788580071377505,-0.1850677838603532,1.4996118668002965,0.12821486352949013,-1.4389467508926348,-0.2969315637639388,-0.21145538052321042,-0.9604707779557824,1,right
14.187000000000001,0.09953396974889586,0.9778645825615839,-0.18356491831335175,1.5654773472324663,0.07545750713155899,-1.6579304360246538,-0.37857012168884696,-0.18964442539413945,-1.0854322622760262,1,right
14.187999999999999,0.10820235991758873,0.9779595618763116,-0.1805712132280441,1.478597697089429,0.14504291503272312,-1.369083539609405,-0.39801252240339563,-0.18444182800393732,-1.1151862818705653,1,right
14.19,0.11210430639636337,0.9768744254892511,-0.17895921145350713,1.1137149458453215,0.43715703474149015,-0.15681802517489893,-0.3832725459217172,-0.18838512003240848,-1.0926282307511688,1,right
14.190999999999999,0.11799237750337208,0.9727403660389975,-0.17357202685883943,1.0267946829613623,0.5067426036632938,0.13203389792256687,-0.39216643994691286,-0.1860101301421953,-1.1062425498831967,1,right
14.192,0.12461646855845063,0.9694658460178265,-0.16755015280290375,1.092704095005565,0.45398507450907655,-0.08695522531951248,-0.38853665724949193,-0.18696880680758188,-1.100678342781566,1,right
14.196,0.11990449740094748,0.9669541544891925,-0.16227791798840072,1.052962395007907,0.48580704651291917,0.04510112573215221,-0.38851015161532143,-0.18699855816779354,-1.1006548549558681,1,right
14.197000000000001,0.11210567483593081,0.964256947297315,-0.15677040171003603,1.0690894154076482,0.47285370595719617,-0.008577686214374922,-0.3903723738693847,-0.18646950257373515,-1.1034813832597237,1,right
14.200999999999999,0.10218613111786054,0.9631179321983826,-0.15600940915209702,1.069418366153791,0.4726833064929816,-0.009444605200347032,-0.38813441999946313,-0.18709828471874906,-1.1000793109828337,1,right
14.200999999999999,0.09004233546614254,0.9623399977585338,-0.15115239864700503,1.0607915559965355,0.47945470611107477,0.018878077576085762,-0.38988943069903526,-0.18661617958955584,-1.1027555585324813,1,right
14.204,0.08088207100647951,0.9634175805581948,-0.14234485350759707,1.0710973058024322,0.4713396233793235,-0.015015570506382355,-0.3889053668654362,-0.18685304278242998,-1.1012294656214108,1,right
14.204,0.07189815509060438,0.965678580047843,-0.14025799648309886,1.0631220533196633,0.4776658121164454,0.011330804398297565,-0.389218893398428,-0.18685304795683116,-1.1017731847394379,1,right
14.21,0.06383206916630631,0.9688087216569221,-0.13835533739046263,1.0672601175157341,0.4742355931148202,-0.0027243159986309745,-0.38930749956614613,-0.18668521862858384,-1.1017989593505773,1,right
14.210999999999999,0.06032197117635533,0.9734505858203698,-0.1345462343558523,1.0666981701576694,0.47506377702674624,0.00013192801704584901,-0.389071337910711,-0.18692511485751045,-1.1015722182228194,1,right
14.214,0.05964387385784665,0.9761657994232288,-0.13291255222543333,1.0648553162280052,0.47588688805293927,0.004547042610893723,-0.38932128616572115,-0.18671739845338858,-1.1018473947504743,1,right
14.214,0.05867309729881821,0.9803665919307105,-0.13221740337867413,1.0676868316081674,0.4744208337675566,-0.002762273960757741,-0.38904457507314627,-0.18679018484834836,-1.1014229527231154,1,right
14.219000000000001,0.05761274830824639,0.9834538577705959,-0.13248097504083875,1.0651534934956075,0.47581031877236063,0.003980516085049599,-0.3894632710899855,-0.18693950012210117,-1.1022629369657122,1,right
14.22,0.05531837053427892,0.9827944563010904,-0.133709284955784,1.0663781018972638,0.47482443140892094,-0.00010275871443001959,-0.38878110781267583,-0.18652471782565228,-1.1007636755215904,1,right
14.224,0.05142260349718067,0.986900450079328,-0.13666297062702407,1.0671338487680733,0.475404329792147,0.0004940870742250539,-0.3897330304171095,-0.1871611950608043,-1.1028997460920331,1,right
14.225,0.049753703485970024,0.9900159809868978,-0.1382745056379699,1.0641780891481805,0.4750622042120915,0.003210561154288812,-0.3887304416420967,-0.18647926952273014,-1.100641202628314,1,right
14.23,0.04708036750581625,0.988083709564908,-0.13800398066794678,1.068882159009749,0.47533718796209484,-0.0018191984946799079,-0.3892905091113364,-0.18687873585714387,-1.1019169231823682,1,right
14.231,0.03935561826311128,0.9908378854566425,-0.13925077331373714,1.0638122843374678,0.4750877998572397,0.003724689259526023,-0.3898687745809069,-0.18719658230857614,-1.1031622326967954,1,right
14.234000000000002,0.03263017861083478,0.9968264568381083,-0.14165357171907755,1.0668288034903648,0.475162831797945,0.00023379268456478228,-0.3874941029854412,-0.1857617436569884,-1.0979499805118902,1,right
14.234000000000002,0.02618507154452442,1.0034030624016164,-0.14594743887886022,1.068998721475644,0.4755699510230967,-0.0013509355082195317,-0.3918699816844905,-0.18843101646029367,-1.1075738018994432,1,right
14.24,0.015297291035789463,1.0132710272434449,-0.14931542537226242,1.0587966966100963,0.47434845047845603,0.007916591090624741,-0.3862571355008847,-0.18500103908887522,-1.0952250450610346,1,right
14.241,0.003477571507259196,1.0249933767539972,-0.15047589661435995,1.0778447309077652,0.47651291616884833,-0.009691355275879379,-0.39094099594605997,-0.18786646962343495,-1.1055320367795034,1,right
14.243,-0.012424908496397997,1.0413261801678142,-0.1497463547870615,1.0533560721058564,0.4737558540955843,0.013013092040705682,-0.3908227744926161,-0.18778334195881785,-1.1052644070118056,1,right
14.244000000000002,-0.030941904915221974,1.0569549243818446,-0.14558698558889474,1.0738142875235166,0.47604913533362414,-0.005980838669895722,-0.38186243603941517,-0.1823353786566474,-1.0855707002271726,1,right
14.249,-0.050044395520881024,1.0701280954400265,-0.14070649850141242,1.073211059927266,0.47602065640437663,-0.005318026270815884,-0.40387676623839674,-0.19573458072450406,-1.133964894365802,1,right
14.25,-0.0751439132670765,1.0893482653977475,-0.13563594297963272,1.0343588026617008,0.47153604160233087,0.030413606884802834,-0.3673772902522599,-0.17351348954020743,-1.053724817459885,1,right
14.254000000000001,-0.09067873314988519,1.09981914397364,-0.13359431271447805,1.1299160792699792,0.48252066145116174,-0.057587491643228704,-0.4155209689551822,-0.20282592764298213,-1.1595643953646397,1,right
14.255,-0.09645673598849316,1.1045127264449526,-0.1332920066074359,0.9714552658328782,0.46431546242893623,0.08837042479718442,-0.6175787385170269,-0.32577440029437166,-1.6037352905187932,1,right
14.255999999999998,-0.10611347261202145,1.115235180517638,-0.13025869465127038,1.1804756398410396,0.48833048173916266,-0.1041549238651377,-0.665722249659797,-0.3550833282977477,-1.7095727127232294,1,right
14.258,-0.11238743912449539,1.1193390063568265,-0.1301304295353189,2.057718547967508,0.5891657871369975,-0.9120476534491992,-0.629227893568659,-0.3328769915527403,-1.629349083350401,1,right
14.259,-0.11852749992329821,1.129076119205819,-0.13012258886160974,2.2667605334813827,0.6131936941735007,-1.1045659892170714,-0.6512248000450358,-0.34623882893625435,-1.6776941681117699,1,right
14.259,-0.12253110657299926,1.1473021257538563,-0.12788443163619234,2.108263224376403,0.5949705297867873,-0.9586100112256252,-0.6422999230810675,-0.3408582769789814,-1.658095797284934,1,right
14.263,-0.11754986466271694,1.1616756492338014,-0.12761599308831414,2.203858056027582,0.6059640913174873,-1.0466340045399716,-0.642129493902321,-0.34068355587546595,-1.6576918987863634,1,right
14.264000000000001,-0.10745289221694679,1.1769277253399268,-0.12896490973839003,2.1649876029991724,0.6014963618425322,-1.0108359525711026,-0.64686892121174,-0.3436375197305898,-1.668139143294474,1,right
14.269,-0.08992373666509275,1.192380964442952,-0.13602556161172397,2.1643595536065963,0.6014119327127418,-1.0102884903998417,-0.6412248350237383,-0.3401728341140663,-1.6557195849960948,1,right
14.269,-0.0699836681737048,1.2122963681216676,-0.14489545409676768,2.184904577069418,0.6038011431286492,-1.0291390964554847,-0.6455694534935477,-0.34275782383008147,-1.6652460837381033,1,right
14.275,-0.0528977275596303,1.23570506602624,-0.14779607245987542,2.1602654952324327,0.6009289338567514,-1.0065498088751044,-0.6433246988844002,-0.34158150577319896,-1.6603892771617526,1,right
14.276,-0.037060176694732015,1.2618512612091837,-0.14283312103127377,2.179497250089529,0.6031795223554677,-1.024159249904104,-0.6436618214115511,-0.34146006508098825,-1.660996504382893,1,right
14.277999999999999,-0.02249476857771375,1.2992368499978213,-0.12764326895235256,2.169150602386109,0.6019729321345136,-1.0146748886811112,-0.6445366994265631,-0.34239305442749546,-1.6630838851286378,1,right
14.279000000000002,-0.005807911577138439,1.3417108500038388,-0.11079291910670502,2.1713153992610614,0.6021875756571249,-1.0167552052799795,-0.6432546976266498,-0.341293614814828,-1.6601348756246428,1,right
14.282,0.016053831291067095,1.3886736710569418,-0.0937570396772621,2.1746080833646557,0.6026762404410011,-1.0195073489018258,-0.6442696007676134,-0.34190846607702213,-1.6623647433629292,1,right
14.283,0.0407622305529952,1.4486429632245041,-0.06554477310035375,2.168915451573066,0.6018321740107057,-1.0147478248952697,-0.6439558796042114,-0.342309667361813,-1.6619177708651325,1,right
14.287,0.06436805254366357,1.5162234766602956,-0.026808243290786855,2.1745399022012424,0.6027112638394149,-1.0193348570975105,-0.6434136248926605,-0.34062645833807137,-1.6601712108958249,1,right
14.288,0.08873338278874603,1.5801427135942587,0.015282770191372516,2.1706167686441846,0.6020753283496945,-1.016194173407725,-0.6446660172833754,-0.3434073991402157,-1.6637515394330982,1,right
14.292,0.12065930086154267,1.636231106261058,0.047573464868669924,2.171902158979074,0.6022204099282402,-1.0173828503326865,-0.6431686944295602,-0.3403440668910654,-1.659578215549419,1,right
14.293,0.16632835470750057,1.6865895476151982,0.05329143635674894,2.173686626460471,0.6027711365228945,-1.018148219519564,-0.6441426125145476,-0.3421803719733767,-1.6622285969493085,1,right
14.298,0.22902856158064655,1.7363554224167121,0.02906056676349665,2.168898101086719,0.6014327631194875,-1.0157435025732013,-0.6446439947332132,-0.34355710989884747,-1.663770100132868,1,right
14.299000000000001,0.30584478997044473,1.7905777273126435,-0.012268252295911743,2.175874977845922,0.6034086890240513,-1.019178449970604,-0.6418258860678965,-0.3371513760332119,-1.6556527978957056,1,right
14.302999999999999,0.3913861592188314,1.8499636675234155,-0.048629647999325246,2.1686584856143094,0.6013296075429357,-1.0157188261360748,-0.6471994269816217,-0.34912086821706473,-1.6710301281424162,1,right
14.304,0.4829271183867998,1.9098748952165727,-0.06201212866846025,2.1728280676560234,0.6025276308401195,-1.0177202012693307,-0.6402465171940406,-0.3337188618989233,-1.651168483007221,1,right
14.307,0.5732768093602627,1.9662494907364783,-0.04734288852360931,2.175943171032542,0.6035155230893259,-1.0189962464667428,-0.6460734360318492,-0.34659125547431746,-1.6677987503802283,1,right
14.308,0.6626599803125622,2.0096042594740577,0.002829646830082272,2.1616959134063136,0.5991430010134874,-1.0128295280587385,-0.6458814944480262,-0.34622095302991474,-1.6672738450250848,1,right
14.312000000000001,0.7483297179045254,2.0337747200944305,0.08086310389644008,2.1881422145688507,0.6072457502479661,-1.0242953566240436,-0.6348619033602266,-0.3217338436438349,-1.6357626270126404,1,right
14.312999999999999,0.8213256875286922,2.0394086385239287,0.16378279417536884,2.1542309127497177,0.5968557477167853,-1.0096091141703143,-0.6619959450499844,-0.38195242048001293,-1.713320587696121,1,right
14.319,0.8923337328838661,2.016762424300933,0.24634867728658927,2.182513623786935,0.6055135121465757,-1.0218541167930666,-0.6169882777943345,-0.2820941812615696,-1.5846868287320564,1,right
14.321,0.9311285678933916,1.9901382737770854,0.29153152061237264,2.181719447834947,0.6053062540797898,-1.0214728554872239,-0.6763591554633233,-0.4138129199864854,-1.754366200981845,1,right
14.322000000000001,0.9355788417060377,1.9814702379732345,0.29527776318573684,2.1279544183827306,0.5887437334559298,-0.9983316880359412,-0.9255414723185791,-0.9666851098609219,-2.466536109432588,1,right
14.323,0.9509416799246744,1.9531493927734453,0.3054830015958796,2.2600954392432615,0.6293901229262302,-1.0552509806458539,-0.9849108157618215,-1.0984118490906338,-2.636208575263626,1,right
14.323,0.9312202603062735,1.9080066057564675,0.2927406898621542,2.041037896088749,0.5620475965913115,-0.9608754786377468,-0.9399026564983369,-0.998537498805031,-2.5075799887178354,1,right
14.328,0.8946659142133462,1.8871372166244074,0.2666969044139035,2.3299265753838965,0.650819688284836,-1.0853491208428245,-0.967044951756747,-1.0587791894025425,-2.585148937626725,1,right
14.328,0.8851508187300668,1.8819431837812668,0.26058884011693917,3.54279640029195,1.0240073883311256,-1.6076532230811909,-0.9560041404562348,-1.0342663546664894,-2.553596138743972,1,right
14.329,0.8327557602690492,1.8686941043962602,0.22144546728045586,3.8316091450078194,1.1126922536190973,-1.7321173760212418,-0.9558473591049481,-1.0339150350425643,-2.553149480807037,1,right
14.332,0.7537514029003587,1.85489149204305,0.1614777205753768,3.612643242696334,1.0454451903504456,-1.6377608805082238,-0.9616322695474867,-1.0467893290645267,-2.5696765381358304,1,right
14.333,0.6890791482142529,1.8544447640695862,0.12247412634852327,3.7447819155177076,1.08612361282149,-1.6946531215887224,-0.9547106944048896,-1.0313490573697037,-2.5499064532489224,1,right
14.335999999999999,0.6221364834160082,1.8622986392782939,0.09767533609533707,3.6908136245561,1.0692560053247182,-1.6715417175230447,-0.9600902060308701,-1.0434026071321805,-2.5652650986819383,1,right
14.337,0.5583489578050753,1.871949443440874,0.08842831411201765,3.6905030606112605,1.069710496315483,-1.6711390522646217,-0.9572002806572947,-1.0368740813647057,-2.557021203676232,1,right
14.341,0.4848785734055975,1.8830365997101817,0.09341075162220613,3.718055325281551,1.0774151905771205,-1.6833806080332103,-0.9578557359268858,-1.0383786069614653,-2.5588879466398238,1,right
14.342,0.3942883788995032,1.8919314402481109,0.10789218064483394,3.68491767064424,1.067979563832607,-1.668740439031779,-0.9586080569678482,-1.0401467137601061,-2.5610248279846415,1,right
14.345999999999998,0.2812066553077268,1.8964504482590006,0.10464524767745466,3.710944221499849,1.0756606439376064,-1.6801072003429436,-0.9573360684849556,-1.037005713613103,-2.5574318140656676,1,right
14.347000000000001,0.13732854447455023,1.8989135137886284,0.06103425281470923,3.6962306500585997,1.0704913404934027,-1.674083393416882,-0.9584785108067155,-1.0400895690712368,-2.5606241625778976,1,right
14.352,-0.01680422995111273,1.8990771790060856,0.002685170954887288,3.701188531599209,1.0740850236335584,-1.675212983820248,-0.9577747273739013,-1.0378544023379204,-2.558701950851202,1,right
14.353,-0.16465802891340509,1.8906888692509582,-0.053423654116129454,3.7019895714073963,1.0707709458615913,-1.6772885312712145,-0.9580335633158864,-1.038965684400579,-2.5593705846015906,1,right
14.357000000000001,-0.28942424416520585,1.8744761972731603,-0.10179962239567453,3.6991124114464133,1.074252928034641,-1.673927046539124,-0.9580307693590457,-1.0389641958314464,-2.5593620735388,1,right
14.357000000000001,-0.37626366079191664,1.855310739352782,-0.11999152263929717,3.70232318047797,1.0717600843808337,-1.6770012427052774,-0.9580348228805365,-1.037977044138049,-2.5595053357065827,1,right
14.360999999999999,-0.4215164636841724,1.821104509021255,-0.09647806024547892,3.698206689242709,1.0704629476200467,-1.6752435048905754,-0.9578213736380422,-1.0397800031608857,-2.558594190132461,1,right
14.362,-0.41856668366034205,1.7581211317671839,-0.040435495442875814,3.705361669700075,1.079120605658109,-1.6751870178977712,-0.9583079628766399,-1.0374633899557675,-2.5604342233624093,1,right
14.365,-0.37770366444472836,1.6694411447907622,0.03139236186856275,3.6930932826171396,1.0605915609053698,-1.677074073172536,-0.9576910439038634,-1.0397150770132872,-2.558191824211155,1,right
14.366,-0.3186579256264053,1.56220208924484,0.10703276220681258,3.7104171948845943,1.0879323740066873,-1.6738378936147567,-0.9580786479431825,-1.0384831268200574,-2.5595768881401257,1,right
14.37,-0.25670307151671423,1.4420478715781295,0.17252509793257195,3.6921323795765906,1.0588428984247802,-1.677366208369922,-0.9584267689767545,-1.0374523348490396,-2.560809636567913,1,right
14.370999999999999,-0.20389451090184257,1.3222209959439106,0.2213220728452588,3.7024085977316794,1.0755619446229674,-1.6752034905624529,-0.9568673318898522,-1.0418841732096458,-2.555309403773494,1,right
14.375,-0.16915546062159412,1.2136433239726419,0.2639417498796975,3.712694923154638,1.0904132903157047,-1.6739533667713395,-0.9597946582398751,-1.0337435909343815,-2.5656117046824107,1,right
14.377,-0.16143420154718185,1.1147680770855446,0.30056273666718547,3.6700163070078538,1.0261362057645844,-1.6804301633978365,-0.9560116338829434,-1.0441429154541009,-2.5523127946361015,1,right
14.380999999999998,-0.17295194553786764,1.0309847792697362,0.3321357920770893,3.7487400947856653,1.145208219645939,-1.6682369981755962,-0.9591795903106021,-1.0354823933427268,-2.5634447933485864,1,right
14.382,-0.2120304120440562,0.9604599365706473,0.3578787350377054,3.6477526834962193,0.9923439485272774,-1.6839349755315087,-0.9590982676524944,-1.035727037672467,-2.5631521046774353,1,right
14.385,-0.26987455420067175,0.8997066575237682,0.3782586488331473,3.732018761194582,1.1199496101111306,-1.6708119596144309,-0.9530274107777605,-1.0521728574646607,-2.541849161352479,1,right
14.387,-0.33136907543038974,0.8503647491754271,0.3894275612880975,3.729896463947372,1.1165437412347423,-1.6712329708999993,-0.9679492651511887,-1.011751199355022,-2.5942182015375743,1,right
14.39,-0.41625488784748504,0.8026619964961348,0.3755226352052563,3.56870797149433,0.873070555519226,-1.696042178163296,-0.9432052841168922,-1.0787663205963915,-2.5073745309286126,1,right
14.390999999999998,-0.4700646173569931,0.7756145951506532,0.36309238017526857,3.9646938494580573,1.4714390774090527,-1.634984656708234,-0.9758447056405767,-0.9903783024895795,-2.6219312273595934,1,right
14.392000000000001,-0.49733982537084237,0.7646342844483545,0.34971900014571045,3.3081911235550536,0.4793343202164624,-1.7362433869403877,-1.1129537873157402,-0.6196183133144869,-3.1029647709044763,1,right
14.395999999999999,-0.5456045505786631,0.7457309111660817,0.3245116471585805,4.174099705512022,1.7879113145139993,-1.602679610860013,-1.1456012012658277,-0.5312485786075345,-3.2175399679030177,1,right
14.397,-0.5727334377491802,0.7352486082186204,0.31106039566734045,7.809293588248135,7.280786727802411,-1.0422176630723987,-1.1208345186107238,-0.5982108608404446,-3.130651102716624,1,right
14.398,-0.6252327877508754,0.7170473652304474,0.27006872787855063,8.675233335885029,8.589371871343115,-0.9086649746690697,-1.1358028649586114,-0.5578987699324234,-3.1831017117042766,1,right
14.401,-0.714715595784134,0.6867423667461319,0.21493741051265944,8.018653974564744,7.597250000108257,-1.009901315224259,-1.1296580640788285,-0.5741688130233638,-3.1616813083324597,1,right
14.402000000000001,-0.782477692080765,0.6655434165677369,0.1962012995946999,8.414779038334087,8.195644557164677,-0.9488760454402944,-1.1296672793618932,-0.5746303969160782,-3.161518521684914,1,right
14.405999999999999,-0.8499942283295043,0.6422232511865504,0.1909498658590319,8.25338901171746,7.952140030776601,-0.9736491490081838,-1.1327603147719287,-0.5657879402875424,-3.1725626065180377,1,right
14.407,-0.91646269597212,0.6185506148231188,0.19616810919193955,8.2514909814732,7.94876111938719,-0.9740971389040519,-1.1289833296701908,-0.5762071570688208,-3.1592284019084778,1,right
14.41,-0.9744314047074348,0.5968428045888036,0.21255457166792305,8.33560312092207,8.076360534846629,-0.9609760345172481,-1.1320353777936956,-0.5683574811906276,-3.1697740449168608,1,right
14.411,-1.0329036183294642,0.5699689959360356,0.22844104972447876,8.234559633429654,7.923462006216963,-0.9766214035507134,-1.1301773571567126,-0.5720821327870794,-3.163778479840587,1,right
14.414000000000001,-1.0866948842776931,0.5418158693424936,0.24833224996564232,8.313696402245498,8.04262396635721,-0.9645450946636241,-1.1309825559062348,-0.5721421704128826,-3.1657025669802037,1,right
14.415,-1.1411299402561847,0.5149329883547895,0.26861502415936517,8.270170086812483,7.978203101811619,-0.9708501072035257,-1.1308691311327763,-0.5697046427645052,-3.1664097432596865,1,right
14.419,-1.1956348860535142,0.4907298713099531,0.2885695539335159,8.281645878066747,7.99321963720909,-0.9697800945395597,-1.1305628166925548,-0.5727201569293225,-3.1644542080462195,1,right
14.42,-1.24425841511143,0.47046711291007093,0.3120900978106169,8.290747575672848,8.009823216416004,-0.9675189418528783,-1.1312563472692965,-0.5708638087865631,-3.16687975142246,1,right
14.425,-1.284660998576613,0.4534914224398887,0.33601524519913395,8.272974904056346,7.980695786281935,-0.9709430042224759,-1.129998277261655,-0.5702093905504528,-3.164099578691766,1,right
14.425999999999998,-1.3150238184406144,0.4383917453611492,0.3601315736012132,8.29127899631467,8.00833529821496,-0.9681262057838376,-1.1320190635952465,-0.5740151804694651,-3.1674558185376678,1,right
14.431,-1.3357816680990076,0.42557573520237574,0.3889044858549846,8.275822485505865,7.98919085775541,-0.9692427772669371,-1.1293052059865447,-0.5675242260063156,-3.1635042454247655,1,right
14.432,-1.3493148584302048,0.4174191938797301,0.4092826083259651,8.288493468187124,7.998712298185633,-0.9701844230203542,-1.1320882881901824,-0.57474110263408,-3.1673309410048174,1,right
14.434000000000001,-1.3548034113385414,0.4163075356929337,0.409915501387071,8.27756715898893,7.996561702425875,-0.9675493261195928,-1.1305537412698623,-0.5703720913375245,-3.1653778929060583,1,right
14.435,-1.347546864925183,0.42085820520766004,0.40192480455126606,8.28629749607327,7.994445103448675,-0.9708087776763018,-1.1290023983597615,-0.567224992032872,-3.1628922252862623,1,right
14.44,-1.330055392062047,0.4239780923168511,0.3843293865313624,8.283206972514154,7.998622306863926,-0.9686231325069109,-1.1353704497399348,-0.582139832034392,-3.172291741054239,1,right
14.440999999999999,-1.3044377359384725,0.418282251210354,0.3476889418408393,8.274468542347119,7.993038439573956,-0.9676791367587273,-1.1236600030073904,-0.5542110871853372,-3.1552084041280835,1,right
14.444,-1.2697892997287865,0.40447055047839975,0.297019480081283,8.301508499757393,8.000534380773015,-0.97354520515221,-1.138661645814168,-0.5901689033961772,-3.1770206988277048,1,right
14.445,-1.2341691874124834,0.38732903480244174,0.24067352791059438,8.25400533395334,7.990631387816514,-0.962256114228164,-1.126151346736013,-0.5601106740272097,-3.1588596038800034,1,right
14.449000000000002,-1.1924350047106986,0.36278382986906677,0.18909428626370106,8.314055607788761,8.001912754741573,-0.9769006100967126,-1.1264698775339084,-0.5609821956779556,-3.159279694596651,1,right
14.450999999999999,-1.1537793923444124,0.3364269941448087,0.1488008993534558,8.264312147982693,7.993090250981716,-0.964610435902528,-1.1503786183797708,-0.6181418275087686,-3.1941016423312143,1,right
14.454,-1.116631589187342,0.3171407331769807,0.12546521063437055,8.265069065084038,7.992421822986671,-0.965043512329881,-1.091641251400965,-0.4775693724504308,-3.1086116082313024,1,right
14.455,-1.0570239839019058,0.2964161824351501,0.12589949820807161,8.361497484892437,8.01166759935963,-0.9882125652565393,-1.1890220706446604,-0.7106723205877097,-3.250327174406808,1,right
14.458,-1.0204867358341336,0.282113877638251,0.1325996293362565,8.125319724671634,7.965654610241506,-0.9311178232379415,-1.0605786038343146,-0.4032036690340286,-3.063410698551857,1,right
14.459000000000001,-0.9999661615624793,0.2770574946462382,0.13942474015123574,8.516629264755004,8.041489296384777,-1.0258433813649104,-0.5215210787595079,0.8875031140926577,-2.2790882743527896,1,right
14.46,-0.9623119355782667,0.26948037331827157,0.1517475064484861,8.000554194140314,7.9415863241466065,-0.9008733591606646,-0.39308212017819305,1.1949796677818312,-2.0921863804580725,1,right
14.464,-0.9411506755594956,0.2650125375279318,0.1575324277779614,5.834189629036738,7.521856873379531,-0.3764330535480308,-0.4904425024366764,0.9618408769020778,-2.2338358490640013,1,right
14.465,-0.8962423780033484,0.2544477237648871,0.16582070925804954,5.3179723341189264,7.421821895381761,-0.2514375362618029,-0.4317583920729864,1.1025067533373172,-2.1485180523361196,1,right
14.466,-0.8251069043381615,0.23541969383179503,0.17178441827866453,5.709442195797375,7.497769235900805,-0.3462125088532929,-0.45556969423353577,1.0451761804131567,-2.183024878500952,1,right
14.468,-0.7690223639841998,0.21983402352362758,0.16122003624570097,5.473300134938235,7.451917419911557,-0.28905093392301495,-0.45602197291836916,1.0445393151653604,-2.183877511467833,1,right
14.469000000000001,-0.7048824757354973,0.20067037090028852,0.1482421934722173,5.569265183184129,7.470469152725929,-0.31228789873557916,-0.443380675830952,1.074367692078724,-2.1652927737934045,1,right
14.474,-0.6399186457535231,0.18237691741793038,0.13110888534709533,5.571050543393078,7.471146885224636,-0.3126813507994475,-0.45843685889206853,1.0385056113071887,-2.1872814379846535,1,right
14.474,-0.5809475585187017,0.167656861574623,0.11086401894598857,5.519807322566837,7.4605120691860956,-0.3003627261591843,-0.4468438341896721,1.0666403015423438,-2.1705778662933293,1,right
14.479000000000001,-0.5211868559958346,0.15163008984830773,0.09609463555512665,5.5813825219409,7.473450988725498,-0.3151420578737346,-0.45284025739541467,1.051073522242591,-2.1787755103243,1,right
14.48,-0.4716668218667849,0.14308066163283928,0.08292752252962218,5.533162886879703,7.463105969458297,-0.3035970064084873,-0.451927262275115,1.0553405449970001,-2.1783542785834173,1,right
14.482999999999999,-0.4310757102455629,0.1415655038157263,0.07497548302188908,5.559028232003129,7.4685491665361186,-0.30980303537505904,-0.44961004150913264,1.0583363367548748,-2.173870067408947,1,right
14.482999999999999,-0.3974477978241292,0.14554696159090905,0.0738511306431193,5.554305340039218,7.468494752018358,-0.30854795881139785,-0.45301674490083355,1.0522137510014762,-2.179713509422504,1,right
14.488,-0.37072354467859014,0.15544703044483746,0.07920919982917461,5.5441645935534805,7.463759631951774,-0.3064532514515125,-0.4503091058199755,1.058715311440606,-2.175782141388929,1,right
14.49,-0.3468465787585578,0.16394097691374254,0.08802260909609423,5.5616861477098265,7.47192674492089,-0.31007370894618025,-0.4511709174261511,1.0528765277554322,-2.1753901221890493,1,right
14.493,-0.32490330682928326,0.1708417685162864,0.09561378443155039,5.543544817875671,7.462555750961972,-0.30644481827116177,-0.45256061664745173,1.0581760353355874,-2.1811729712529386,1,right
14.494000000000002,-0.3061630028728235,0.17368742816665494,0.10725922133517773,5.556624022223425,7.469758132556745,-0.3090027485961705,-0.44930450029606017,1.053102911751755,-2.170825291196215,1,right
14.497,-0.2960285626892892,0.17059106412110844,0.11962996597982223,5.553477075621117,7.469190681081421,-0.30823539490349106,-0.45320832513770115,1.057474437684693,-2.18248524723759,1,right
14.498,-0.3010238566052589,0.16676735046622654,0.12573838865048093,5.542784052980888,7.45845453043814,-0.3067762962520803,-0.4506626978002465,1.0556435272093103,-2.1753270260095636,1,right
14.503,-0.32101012904598836,0.16354133979356078,0.12448954892153244,5.568980813186611,7.483329850326432,-0.31053681917650494,-0.4493699370603832,1.0519045829074642,-2.170465704518218,1,right
14.503,-0.3560158553108629,0.1628356242850223,0.11407490911216592,5.530307297558563,7.446299906311824,-0.3050254656458736,-0.456690825015651,1.0642819210363255,-2.1941554840488315,1,right
14.507,-0.4053569642066702,0.16588005055714622,0.09903702263790284,5.570993444619287,7.485668838854032,-0.31076983809077585,-0.442721574946018,1.0422696304815422,-2.149653643540887,1,right
14.508,-0.461219059666914,0.17381669673003297,0.0803283917660029,5.5474767714619695,7.462921881938232,-0.3074485558258684,-0.46079975835014186,1.0701953837523885,-2.206999039577597,1,right
14.514000000000001,-0.5173081654128397,0.18616879830395672,0.05548449697120662,5.528414598947867,7.443541354493985,-0.30487912231064723,-0.4456484427503743,1.0470244156364825,-2.159042072146385,1,right
14.515,-0.573999246866566,0.2026899720894253,0.03034095373942849,5.613411896765388,7.528650776010128,-0.3165062457322412,-0.44614818931734623,1.0474319310495928,-2.160462915399414,1,right
14.517999999999999,-0.6227166830298441,0.2223350274886498,0.00799787188241059,5.45569958426235,7.3708038581816115,-0.2949227147032446,-0.47479951405064114,1.0921989038322923,-2.2515774629871093,1,right
14.519,-0.6564350901551148,0.2428986949901472,-0.01300355845016739,5.658116795227725,7.573463441729165,-0.3226150644316464,-0.4042499506871862,0.9824839997086284,-2.0274580974046605,1,right
14.522,-0.6834643373134542,0.268479978654022,-0.027925829150922267,5.489164394564691,7.404288061343749,-0.29950386172145027,-0.5212706363592872,1.1642778447164326,-2.399113871911178,1,right
14.523,-0.697445682808868,0.2864241707079853,-0.032218932760115185,5.493886820524732,7.408877436902078,-0.30016759287625344,-0.3669067709243943,0.924534269250055,-1.908892938089485,1,right
14.526,-0.6997668282708287,0.29250411484795374,-0.03223118629147102,5.815450397550974,7.731390127804816,-0.34408722760836874,0.28100861045505404,-0.08193361479135078,0.14890164563426,1,right
14.527000000000001,-0.7088859407209362,0.30922452341344486,-0.033560806561537565,5.024944097016505,6.938703406866292,-0.2360996192769196,0.4353689620537172,-0.32167355754522897,0.6390980930631587,1,right
14.529000000000002,-0.7182154634028322,0.33550009472163744,-0.0340832968805725,6.335665903737654,8.252990768871612,-0.4151574338513716,0.3183413937597906,-0.13990922205229595,0.2674532629602706,1,right
14.532,-0.7200529029566092,0.35087233025640735,-0.03274041595379554,4.606825102159824,6.51947994828818,-0.17897670233423743,0.38893024733928394,-0.24953501896143845,0.49163777692302923,1,right
14.533,-0.7219820987806977,0.355829885843839,-0.03227757903056401,-2.6492180471679503,-0.7570929462015008,0.812173458430173,0.36018829219388204,-0.20494179374435645,0.4003218136176478,1,right
14.534,-0.7254242943105897,0.3684657483297907,-0.034134967437315186,-4.378076260649994,-2.4905609977684646,1.0483633386707112,0.3598314265456606,-0.2042852220517935,0.3992584920244372,1,right
14.538,-0.7277780260081026,0.3844147339842729,-0.03437393017391499,-3.067359039062003,-1.1763244314440366,0.8693012995821197,0.3748196091945508,-0.2277133833444367,0.4467635719812047,1,right
14.538,-0.7295590716322774,0.3926833758133674,-0.03523188929078497,-3.8577752075927307,-1.9690127331145812,0.9772650465398808,0.3568517484704904,-0.19965630729165063,0.38979230919997443,1,right
14.542,-0.7291103048495335,0.3999914202333653,-0.03888995499289777,-3.5364451638933705,-1.6463795729369577,0.9334196766648983,0.3708701879247105,-0.22149353505578734,0.43427357288729074,1,right
14.543,-0.7218870498297336,0.40410827512274083,-0.03766872263941999,-3.531334531247103,-1.6420714640861216,0.9326238343352193,0.36323153401299085,-0.20976291690693866,0.40993795824251733,1,right
14.547,-0.7080532199525218,0.40501064712667123,-0.032938004136924784,-3.7007520528379536,-1.8108259015307484,0.9559022967750025,0.3651642089146926,-0.21233719787170463,0.4163213212392255,1,right
14.547,-0.6925814906952453,0.40566658996107363,-0.028254822949316864,-3.4979859626545924,-1.6086075539372113,0.9280710737928779,0.3668250714743505,-0.21565336146788827,0.4211740020712453,1,right
14.550999999999998,-0.6771751081308821,0.4051799692129069,-0.020609730760629625,-3.6556365766765504,-1.766223111109563,0.9496631177295347,0.3637757200769004,-0.2100129374924304,0.41200684544148336,1,right
14.552,-0.6578425951790547,0.4068699423654567,-0.011880507124718918,-3.5714279249911716,-1.6808292169120085,0.9382737090411192,0.3666962854186945,-0.2152701137133821,0.4208701878392398,1,right
14.556,-0.6395772166701736,0.4058240776827272,-0.004183236431946918,-3.5887909542908942,-1.7012885375665396,0.9402811830199029,0.3645077080903977,-0.21187765838022474,0.41391590269939516,1,right
14.559000000000001,-0.6257371106286085,0.40316744285713535,0.0019173679734247166,-3.614757786177905,-1.7220844926169572,0.9444550735694953,0.3660946964153697,-0.21300306170091227,0.4197198838866531,1,right
14.56,-0.6101015454357053,0.40440686688762684,0.005863461133433944,-3.5715716757872378,-1.6852078119852312,0.9377871444091811,0.3646490021880705,-0.2138185243927496,0.4133830149604695,1,right
14.562999999999999,-0.597352114277159,0.4038536803469914,0.008547772769221945,-3.6114811141002967,-1.7201046295767024,0.9438513961141717,0.3662833312147195,-0.21179061187691534,0.4211772153427442,1,right
14.564,-0.5884917341907507,0.4023044025824995,0.009750692415063735,-3.587037984873385,-1.6955467383220548,0.9405179072818124,0.36463844922455246,-0.21410359389250483,0.4131778218262645,1,right
14.569,-0.5797903338604458,0.402278582310163,0.010435153464289196,-3.5914405142060586,-1.7094697377668024,0.9399828089162288,0.36543508122874996,-0.21252847531256328,0.4173112109579498,1,right
14.57,-0.5740311102174458,0.4022559448316828,0.011996766514163074,-3.6058011931468656,-1.7021436819584084,0.944541614830236,0.36688328919474955,-0.21235271954401433,0.42329343975911715,1,right
14.574000000000002,-0.569469324493584,0.4032982681106305,0.012860401972358278,-3.578529336298195,-1.7072068241769291,0.93694183845594,0.36179191805517574,-0.21505686414761926,0.4010732911389552,1,right
14.575,-0.5669418361129073,0.4050921367706388,0.014483605970958387,-3.6086900137127653,-1.7029019746793663,0.9451920491362402,0.3710086672667956,-0.20969265050807628,0.4415646979664565,1,right
14.579,-0.5644146028205004,0.410004859471232,0.020870138610053796,-3.5895440829093466,-1.7036638388883478,0.9401901408707736,0.359224778161676,-0.21665909424158875,0.3897340063013348,1,right
14.58,-0.5591068761985836,0.41629559970111873,0.028792996504763073,-3.581557951788086,-1.7128671000718978,0.9370423430211433,0.3690415094212015,-0.21081116884802342,0.43293700370875643,1,right
14.583,-0.5555931495409445,0.42173474846201986,0.03481580647673821,-3.6304500428200672,-1.686579079287037,0.9527237321006612,0.36885559666884915,-0.2110917519624182,0.43202335414484183,1,right
14.584000000000001,-0.5498429912236733,0.42913496864617634,0.04089250055465636,-3.5372649436601424,-1.7328050964076103,0.9232986772712701,0.34987655592077294,-0.22184188231735613,0.34881110776437696,1,right
14.588,-0.5407001892230905,0.43771631769271546,0.04561696717403152,-3.657480834669639,-1.6740157655117676,0.9611589381036854,0.396429497687117,-0.1952747717237258,0.5530295671329277,1,right
14.589,-0.533749452106907,0.44744256867038956,0.049611811022833255,-3.5568943179513592,-1.7228657296332943,0.9295201661959185,0.31926857001511244,-0.23936211729311466,0.2145120694101978,1,right
14.592,-0.5301698557035457,0.45418997783144427,0.05345061473395184,-3.5604843569870432,-1.7224254823305838,0.9304961887422649,0.42103938196168333,-0.1812073053259554,0.6609984853735243,1,right
14.593,-0.5287401333489878,0.4570809430485513,0.05400260276948296,-3.749427337064666,-1.6263868744178607,0.9904321530519163,0.8483586850072302,0.06271151825486321,2.535597178156928,1,right
14.594000000000001,-0.5237635857070302,0.46582398253634405,0.05457986561863006,-3.284015521070785,-1.8613970890687632,0.8429760655998344,0.9501357071205248,0.12085279701285966,2.9820975255662234,1,right
14.597999999999999,-0.5171501216170951,0.48284133080613933,0.05417339546955771,-4.05593920748825,-1.4720099317323114,1.0875010766835462,0.8729680585973698,0.07678009089983434,2.6435649514121575,1,right
14.599,-0.5145793488766623,0.4945628046737468,0.05158005497001919,-3.037773392680666,-1.9855847217172435,0.764971226599702,0.9195184514980055,0.10335277949729849,2.8477776905425563,1,right
14.603,-0.5145213776346953,0.49776821847483577,0.05126893148516812,1.2348198036480769,-4.142584071393383,-0.588675837575537,0.9005616847121292,0.09255406120609885,2.7646154167132106,1,right
14.604000000000001,-0.5166374310162433,0.5115697316329684,0.04722755098618894,2.2528320674123776,-4.656257624065054,-0.9111909378032067,0.900327837682954,0.09237800848050678,2.7635942277876846,1,right
14.605,-0.5186807686161115,0.5321901286955935,0.03825389534590934,1.4810943984526257,-4.266770246946229,-0.666681605734925,0.9102133042024682,0.0980760686669343,2.8069514285160198,1,right
14.607999999999999,-0.5199795666247984,0.5452024596559808,0.02784554627839462,1.9464989656707385,-4.501716320148699,-0.8141447521700559,0.8983609600880289,0.09125884671306306,2.7549671654156507,1,right
14.609000000000002,-0.5208107362602915,0.5577207188720763,0.01296648747737404,1.7571501159069318,-4.406080609259968,-0.7541538124758355,0.9076072631457499,0.09655869748396545,2.795524867243663,1,right
14.613,-0.5190544310723167,0.5709479481184107,-0.0009360468798971862,1.7545303641526306,-4.404805846526839,-0.7532947135078065,0.9025746364674851,0.09372636008707028,2.7734365190111143,1,right
14.613,-0.5200791122481891,0.581948183325129,-0.011365748278339052,1.8536480179892016,-4.454826421088818,-0.7847669319206997,0.9038335459042197,0.09431496658081802,2.778994056674306,1,right
14.619000000000002,-0.5249530904595111,0.5960424031741908,-0.019916560232422692,1.7349918274991412,-4.394903778961539,-0.7470711605359122,0.9049563848201618,0.09517877942111747,2.783859277605507,1,right
14.62,-0.5281981677474181,0.6161210373083301,-0.022104656944999322,1.827323772766466,-4.441558681027361,-0.7764277725366941,0.9029111252281125,0.09373869117041742,2.7749616674319584,1,right
14.622,-0.5270855228478122,0.6341306256374868,-0.02304286535747555,1.7775075274419818,-4.416382380329688,-0.7605993013938289,0.9048647142256108,0.0950707755169035,2.783472082261217,1,right
14.623,-0.5204161578492181,0.6424448630501347,-0.03178062734612036,1.7891848225163856,-4.422242795988925,-0.7642108566399644,0.9034217278892614,0.09424891631335466,2.7771413364277087,1,right
14.627,-0.5158414426978318,0.6435756420065796,-0.049794293470943725,1.801565330671738,-4.428629252584946,-0.7684193874269827,0.9044165689218543,0.09441523504788055,2.781616808263026,1,right
14.627,-0.5192071954602785,0.6401192707045658,-0.07254793773000809,1.7801379240960606,-4.417565233714023,-0.7611368024540937,0.9035814938785071,0.09485603027030962,2.77769907941331,1,right
14.632,-0.5237869597464442,0.6358375752154388,-0.08969634464805405,1.7998044181867794,-4.427802629550449,-0.7679741724351037,0.9044826545504687,0.09400196817696405,2.7820319962803586,1,right
14.633,-0.5240166131720682,0.6331907359693734,-0.09936229832903065,1.786855309015352,-4.42101631482983,-0.7633877861510574,0.903586280046384,0.0949489129255416,2.777694842128892,1,right
14.636,-0.5223397988379457,0.6303715211304607,-0.10726342706939507,1.7931732271912122,-4.42420505330475,-0.7653853853735598,0.9040027530437195,0.09434402160695143,2.7797559956814073,1,right
14.637,-0.5187797431064471,0.6293835489337116,-0.10967359409266902,1.7904321613051635,-4.423282781644862,-0.7654142915617519,0.9048639687469735,0.09410890406562378,2.783735312880974,1,right
14.642000000000001,-0.5143195317513217,0.6321421821280119,-0.10947290777552354,1.7932303436980872,-4.423637582409213,-0.7642496859726009,0.901917138585907,0.09560639551908613,2.769925844205948,1,right
14.644,-0.513811981103054,0.6364573501466472,-0.1155099839727132,1.7882486612024917,-4.4227024478570005,-0.7657315755724213,0.9072334464823473,0.09274485035546254,2.7948842080013323,1,right
14.647,-0.5117364700963074,0.6416086675446578,-0.12293066072990776,1.7946293746152535,-4.42423870793767,-0.7644906827182638,0.9004406629010617,0.09643800922810783,2.7629833847134435,1,right
14.647,-0.5087955634400201,0.6482643477041192,-0.13020452975814029,1.790952897947959,-4.423356594146222,-0.7652111874341949,0.9060976520382145,0.09334734725709566,2.7895552865743785,1,right
14.652000000000001,-0.5079044641817416,0.6556280892465707,-0.13539019353409482,1.7854159198649184,-4.421400520647843,-0.7650813830067065,0.9059973348664798,0.09345992258090709,2.789065929626031,1,right
14.652999999999999,-0.5031254097198886,0.6627008460415074,-0.1353203131310878,1.8065859220503488,-4.428414196719056,-0.7646776518522798,0.8950383883368574,0.09925777738660244,2.737647429498944,1,right
14.657,-0.4971644489568755,0.6700709564989888,-0.13225068320701303,1.7674757195612898,-4.415483260599936,-0.765474478123217,0.9219109762843574,0.08497378421131171,2.863754309945908,1,right
14.658,-0.4897443542435829,0.678020880322694,-0.1195007181209347,1.817894618964032,-4.432187745461024,-0.7645138674951667,0.8773724110330218,0.10866535108224519,2.65473701073956,1,right
14.661,-0.48370298941191636,0.681673874253507,-0.1077662963719728,1.7757086676040954,-4.418194703936733,-0.7652871103573354,0.936115590428178,0.07741649622216228,2.9304195124615844,1,right
14.662,-0.4814128876257564,0.6827984466311918,-0.10557343658448853,1.7766108600258725,-4.418452621458497,-0.7651879318608915,1.1827832854296367,-0.05371809833828454,4.087974122553176,1,right
14.663,-0.47435904078490554,0.6876696804528087,-0.09397147383764033,1.85809110126757,-4.445659148631096,-0.7640487455466972,1.2415300756118564,-0.08496180519612387,4.363677070370101,1,right
14.665999999999999,-0.46785658375865663,0.6919726956888557,-0.07960071781090455,1.6579924467614182,-4.3788742968013,-0.7669070193627698,1.1969876057525592,-0.06127581391171638,4.154637654515859,1,right
14.667,-0.46789715535321197,0.6954803688134412,-0.07822359454317285,1.9897964512171131,-4.489622618237953,-0.7621747824611951,1.2238587007034174,-0.07556190496635629,4.280736104918093,1,right
14.671,-0.4684324050795281,0.6984714317943376,-0.07979642304576753,1.552077543177354,-4.343510085029202,-0.7683963022351581,1.2129127276479963,-0.06974561685788067,4.229391017545953,1,right
14.672,-0.4693867954807631,0.7000043861121246,-0.08005242596934473,-0.2856513765378585,-3.7300031041350548,-0.7943121675774577,1.212784506313148,-0.06967273131282406,4.228743726742119,1,right
14.673,-0.47481078684354694,0.7050983460163263,-0.08712479113186952,-0.723459105748558,-3.5838459308471844,-0.8005029748791553,1.2184814964282187,-0.07270646361686998,4.2555420553260745,1,right
14.675999999999998,-0.48442159082462893,0.7091773560626453,-0.10027387957152073,-0.3915377621277095,-3.694652677208852,-0.7958195936095473,1.2116488901265496,-0.0690700230134108,4.223415781235191,1,right
14.677,-0.4978621158810814,0.7120813559632614,-0.11127436881062723,-0.5916751012925368,-3.6278503235445565,-0.798635155158244,1.2169823623940803,-0.07190704292444208,4.248471380238998,1,right
14.68,-0.5130872772526915,0.720195871304155,-0.12218052028424024,-0.5103585273156998,-3.654970593784058,-0.7974998550961698,1.2140697708588672,-0.07036096750078422,4.234855607067818,1,right
14.681,-0.5281017447080897,0.7291615215332858,-0.13490774583109366,-0.5090005639203924,-3.6554635092961707,-0.7974685479357446,1.2148207674782565,-0.07075279493606793,4.238211146944399,1,right
14.687000000000001,-0.5442645200761673,0.7365461350497271,-0.1431517287440589,-0.551922963980537,-3.6410939708070735,-0.7980834421022032,1.2154271110979304,-0.07108755080449877,4.2413469985491,1,right
14.687999999999999,-0.5586562242326758,0.7460902033436047,-0.1482075561908014,-0.5006670710441707,-3.6582227854421747,-0.7973567560005519,1.214297761786091,-0.0704722550061614,4.23569102284636,1,right
14.69,-0.5707733725959014,0.758216599636631,-0.15086777105518623,-0.5403309084447567,-3.6450169805349457,-0.797911061642482,1.2153845953950642,-0.07106172379869119,4.241075214816961,1,right
14.690999999999999,-0.584608620181956,0.7697560882272823,-0.15038008486427307,-0.5194360586002396,-3.6518777821800006,-0.7976327202762604,1.214551326539333,-0.07061900053102389,4.237167207009429,1,right
14.696,-0.5992441423756423,0.780761724279464,-0.15005670151767686,-0.5233236922237322,-3.6507779586407887,-0.7976602570259897,1.2152012600274338,-0.07094271072610754,4.239690981517138,1,right
14.697000000000001,-0.6087170726337228,0.7919539315561048,-0.1483545396499183,-0.5302750508223025,-3.648214044782466,-0.7977910757788527,1.214546227226681,-0.07064391130222213,4.237819873499286,1,right
14.7,-0.6132739716927031,0.801491639256078,-0.14532499527473597,-0.519415725125292,-3.652033374866053,-0.7976121168849212,1.2153245379012474,-0.07098429180867816,4.239677746273291,1,right
14.700999999999999,-0.6183770581012218,0.8101855145562655,-0.14077269194277026,-0.5286538479189546,-3.6489510835088197,-0.7977422229325519,1.2145318831297574,-0.07064072925475162,4.237871275307665,1,right
14.706,-0.6199832415666253,0.8171434413778309,-0.1359034288672242,-0.5243158050864825,-3.6500389077449014,-0.797728217374175,1.2149314368218638,-0.07080879900328782,4.238640362250614,1,right
14.707,-0.6159664434176699,0.8202941810526183,-0.13455025703535783,-0.5227754882127837,-3.6513767720510155,-0.7975989191521814,1.215565370498115,-0.07110567043787097,4.240663332897128,1,right
14.71,-0.6092456407406783,0.8213182853343801,-0.1303177476861223,-0.5291078592387459,-3.6480339825929144,-0.797848452642654,1.2132648117669267,-0.07005424218520215,4.234036384611346,1,right
14.710999999999999,-0.5993342743676815,0.821211236394447,-0.1230106487523177,-0.520880411886335,-3.6520905761139195,-0.7975618423756252,1.217445767160408,-0.07196043193947993,4.245923889500585,1,right
14.715,-0.5875119595430405,0.8171198314982796,-0.11923354597696634,-0.526625395319063,-3.6494158084161805,-0.7977411773460207,1.2120962828556807,-0.06952115737150377,4.230750480331784,1,right
14.716,-0.5752201804836167,0.8104010850401251,-0.1166176529194878,-0.5284963856441702,-3.648138636796059,-0.7978529565148975,1.2165547435721162,-0.0715562492991014,4.243380625082242,1,right
14.72,-0.5630482179281775,0.8079805973422856,-0.11333648819217783,-0.5146220404911477,-3.65562612887934,-0.7972850082497218,1.2164633546970292,-0.07151035601139671,4.243180794785174,1,right
14.720999999999998,-0.5533186264362384,0.8060102434697507,-0.10981970284299522,-0.5416972901965487,-3.6412915232590786,-0.7983566128292889,1.207865446032511,-0.06759413699330082,4.218633450400985,1,right
14.724,-0.545622386759753,0.8019581576181156,-0.1046897740108732,-0.506444112577469,-3.6598604327718207,-0.79697436495478,1.2289639555714775,-0.0772139368946375,4.278798938369478,1,right
14.725,-0.5337147865881495,0.8032348786034702,-0.09716694205506063,-0.5360849695295774,-3.644288285478533,-0.7981304300662087,1.193990012325712,-0.061260020744342426,4.179086936983042,1,right
14.73,-0.5239720089110285,0.8067439804308483,-0.09147324655814204,-0.5349554244236139,-3.64481873055041,-0.7980964601558135,1.2401202983415152,-0.08230933009316072,4.310601290983246,1,right
14.731,-0.5217717849946464,0.80784607481637,-0.08991546364555157,-0.4793030489297926,-3.6742230234436115,-0.7958997461761599,1.4337785552442832,-0.17049054389235785,4.862892978632269,1,right
14.731,-0.5146939046699459,0.8128560075551744,-0.08356553627205905,-0.6165710888231681,-3.6017907959973106,-0.8013017441679076,1.4799120830297057,-0.19153471067619643,4.994427528457525,1,right
14.734000000000002,-0.5078061606094499,0.824278777934685,-0.07047982300462009,-0.3887814165854038,-3.721950678827781,-0.7923455447595625,1.4449365993876828,-0.1756111002476563,4.894685705006869,1,right
14.735,-0.507867418547131,0.8304437624063639,-0.06302580329206744,-0.6893212236147077,-3.5634321045031996,-0.8041562396091316,1.4660268078416991,-0.18514538016155435,4.954871117797685,1,right
14.741,-0.5081020435024044,0.8336910853207645,-0.06035772530980116,-1.9504605115463114,-2.8981736351653,-0.8537461551084664,1.4574548968779557,-0.1813913754768163,4.930338043982932,1,right
14.742,-0.5122882193054799,0.8486257301120055,-0.05175738435825497,-2.251073968421936,-2.7396317615410233,-0.8655483372038918,1.4573171662878055,-0.181117156216964,4.9300686212166696,1,right
14.743,-0.5195177616935149,0.8671011536863242,-0.043995987006757414,-2.023137821598545,-2.8598385329307807,-0.8566050046923671,1.461834389267389,-0.18338298867824968,4.9428296812082735,1,right
14.744000000000002,-0.5250060093876892,0.8881767615936202,-0.04602707526799998,-2.160612127757434,-2.787339101071063,-0.8619975536907862,1.4564359859721594,-0.18083464759892232,4.927487018877077,1,right
14.745,-0.5286008671267145,0.9192659914509724,-0.05465067653779844,-2.1047363557003242,-2.8168180894042694,-0.8597969900505293,1.4606202296950563,-0.18256375714860076,4.939519768475025,1,right
14.748,-0.5273276687716719,0.9510224258692112,-0.06957173859022422,-2.103761650187467,-2.8172935815963087,-0.85978914172762,1.4584027381598579,-0.18212245779291367,4.932871759283007,1,right
14.749,-0.5215189930407338,0.9813353556832479,-0.0914060131737058,-2.13344136256944,-2.801715548723026,-0.8608934714904745,1.458839728174361,-0.18134246467047277,4.934676300772475,1,right
14.754000000000001,-0.5137602839070194,1.0145183829986095,-0.11082444884207485,-2.0978236417931946,-2.8203960907810344,-0.8595805822582495,1.459538520780878,-0.18286157870812197,4.935984273413901,1,right
14.755,-0.5037283678707853,1.0529503732365668,-0.11633167711261044,-2.1256612936745385,-2.8058168989511683,-0.860589127596687,1.4584212172371807,-0.18139569419315565,4.933343843887774,1,right
14.758,-0.49303119781756183,1.0948129772756223,-0.10952452943021244,-2.110705642707993,-2.8136611357257135,-0.8600379690275016,1.4593947145831745,-0.1818303613039336,4.936124493259914,1,right
14.759,-0.48422298785754975,1.1306666291748022,-0.10299696468235356,-2.1136611013272297,-2.812013416992718,-0.8602270011842231,1.458887944010761,-0.18337543846681092,4.933667807273185,1,right
14.764000000000001,-0.47247221737495565,1.1559064816507347,-0.10102191197744234,-2.118899187513798,-2.8095351109945783,-0.8601986792479239,1.4588394769903386,-0.1792954668898752,4.935841586372918,1,right
14.765,-0.4549125139785434,1.1720877776903724,-0.09521323310082513,-2.1098478594260297,-2.813819964523108,-0.8602460577088619,1.4593366312605982,-0.1855750928875946,4.933810028204854,1,right
14.767999999999999,-0.4351777733740813,1.182821855452624,-0.07929265544126982,-2.1189970913179432,-2.809594038000887,-0.8601111336367151,1.4586513379925763,-0.178810695381592,4.9355330859674105,1,right
14.769,-0.4188302138900115,1.1896949211921888,-0.05566436765006627,-2.1125095246540946,-2.8125380990561695,-0.8602503971668567,1.4591512116305778,-0.18276558617070937,4.934833251622118,1,right
14.776,-0.40614634201270006,1.1907401145578684,-0.02880879374542117,-2.1143510673507535,-2.811561986898779,-0.8603260289095074,1.459259085202381,-0.1860304649577481,4.933310689456659,1,right
14.777000000000001,-0.3918774770904009,1.18408228788178,-3.24219124731278e-06,-2.118485402194534,-2.8102689962772205,-0.859757678633932,1.4581913160632456,-0.17147642034568103,4.938279405568198,1,right
14.777999999999999,-0.37373209034330435,1.1669396875015994,0.026516392139813938,-2.108014209913738,-2.813764457510723,-0.8610167481988326,1.4603118063521048,-0.19852847778102217,4.929463387848675,1,right
14.777999999999999,-0.34336551563261153,1.14028920148986,0.046771870222702475,-2.1233968339521994,-2.80867490550606,-0.8591287074240658,1.4575390587892594,-0.16377197377148955,4.940642740603764,1,right
14.783,-0.30735710779798675,1.1104269667769697,0.06360244223188596,-2.1073147378762234,-2.813934613070618,-0.861154284882686,1.4598739673334151,-0.1927941551737128,4.9313646644530635,1,right
14.784,-0.2630092295458344,1.079924021615663,0.07161979154727707,-2.1166098298572793,-2.8108926237090435,-0.8599832059864889,1.4597808901888845,-0.19200279228699405,4.931535767789249,1,right
14.788,-0.2045208744489484,1.0509527408627295,0.06771964945474693,-2.1239238562785685,-2.8086432382918005,-0.8589488182907041,1.4554091322085285,-0.136681600353164,4.949444307899009,1,right
14.789000000000001,-0.14846411365431028,1.0256219399876894,0.05635705995865243,-2.091011157020567,-2.8189732776608594,-0.863445696874779,1.466195506244664,-0.2726568650302118,4.905533805966545,1,right
14.792,-0.06402374663372652,1.000410472573919,0.036461216284722986,-2.1520918164768372,-2.7997891098228394,-0.8551056355800963,1.448298641138095,-0.04721104847283894,4.978312341083965,1,right
14.793,0.01014869490926067,0.9839694183174769,0.022941119121270274,-2.0737206059877886,-2.824395224437467,-0.8658193469355655,1.4719048372016208,-0.34455833029997196,4.882308829096923,1,right
14.798,0.02868323833083664,0.9808853395882535,0.018919932221101055,-2.139120546078323,-2.8038616542899657,-0.8568703325464304,1.5709995419765814,-1.592754099155558,4.479410855828661,1,right
14.799000000000001,0.10846625407817681,0.9707621611672416,0.010572302829896855,-2.137280906549773,-2.8044685047488658,-0.8571183371953706,1.5945907987431687,-1.8900570005722717,4.383338825893087,1,right
14.8,0.2335957585118998,0.9536952253854636,0.005115341598955935,-2.0128804544366083,-2.8434262173250904,-0.8741734005721898,1.5767139836698711,-1.6646790547891341,4.456215047810207,1,right
14.802999999999999,0.33147975539520297,0.9431014434968052,0.006209971445679353,-2.3186891894010286,-2.7476198946443438,-0.8322395548029999,1.5874927384178519,-1.8006022582078298,4.412249308855616,1,right
14.802999999999999,0.47489122053471705,0.9307799829778701,0.016188642307422445,-1.811655320586452,-2.906484106752263,-0.9017792586537912,1.5830957463525714,-1.7452667686248733,4.430083948164242,1,right
14.809000000000001,0.5770026416823646,0.9207610097453214,0.0262523313634259,-2.480408021246911,-2.696940648443725,-0.8100475301110677,1.583075924452924,-1.74460302465645,4.430528968401887,1,right
14.81,0.6007087431410723,0.916964288802367,0.030701355076002794,-5.287399629570746,-1.8178542271916274,-0.42525212207100793,1.585290618490065,-1.773364679834217,4.4207661482311345,1,right
14.811,0.701868613813025,0.905437918099059,0.051332090798833524,-5.956127061503677,-1.6083395451365678,-0.33352862566933283,1.582656544502817,-1.7389644742766408,4.432543134195194,1,right
14.812999999999999,0.8371317271337471,0.8910484049192902,0.07793697780747505,-5.449123613339413,-1.7671176993408584,-0.40302769025999885,1.5846819783726798,-1.7656829028847683,4.423255811511799,1,right
14.814,0.9342006681042794,0.8804953769896717,0.09664623499269756,-5.754931831415297,-1.6714940772045987,-0.3612028548076134,1.583576294690026,-1.7512374374903206,4.428203177713144,1,right
14.818,1.0270683767797935,0.8698382378945932,0.11379788860480397,-5.630463194527924,-1.7101539976240905,-0.3780557433589797,1.5839459162811378,-1.7548656531351092,4.42759545259011,1,right
14.818,1.0890052173757014,0.8605899195222098,0.12026770423469738,-5.62878529656666,-1.7111336484420143,-0.3785839505463632,1.5839155549670285,-1.7577897406974852,4.424839121926713,1,right
14.822000000000001,1.1175298517794232,0.8544363529026203,0.11712433848851808,-5.693941294325894,-1.6902800723661464,-0.36935711867672927,1.583965083351059,-1.75272011202751,4.429595748995262,1,right
14.823,1.1160845496879501,0.8555182277494078,0.10869480347409366,-5.615828039481752,-1.7149368963996958,-0.3801926709166932,1.583750876311679,-1.7570068591301458,4.424384592784358,1,right
14.829,1.0755790355212227,0.8629412163299166,0.09272588317951445,-5.676769459992196,-1.6962284238749628,-0.37208750819435676,1.5839848530593363,-1.7543860053374163,4.4282813536965,1,right
14.829,1.0104354465979055,0.875693229571338,0.07601672016812823,-5.6436996358300275,-1.7053683801428043,-0.3758173610703882,1.584136037530441,-1.7562420053964891,4.427708894552201,1,right
14.832,0.9198753703930617,0.8955323862583645,0.059710469082582075,-5.6516305325479195,-1.7049801183340425,-0.3761141937983753,1.583081426719096,-1.7532859822488458,4.423004283483767,1,right
14.833,0.8138588692026822,0.9177872357629584,0.04385560622223518,-5.659799922270801,-1.6998511192327184,-0.37329633495478676,1.5854112691920998,-1.7590286314136332,4.4340831701080585,1,right
14.835999999999999,0.7062460458140616,0.9440880414855363,0.03369554969796318,-5.645165947227483,-1.7064828790561855,-0.3766557952384335,1.5819167174063073,-1.750225793382629,4.417631120957738,1,right
14.837,0.6003338455676807,0.9717240165371887,0.02766079157187005,-5.65929475287879,-1.7020762309050936,-0.37473099379800057,1.5856669764006235,-1.7599227103557034,4.435068999058828,1,right
14.842,0.5038412354702908,0.9929158426592198,0.022026249761753464,-5.6490406264430675,-1.7014871438893584,-0.37362589640468713,1.5834999869195028,-1.7543220684302692,4.424991409514815,1,right
14.843,0.4190240160658216,1.0119087517064287,0.014204400653372008,-5.654978830280719,-1.7083121048531749,-0.37854945043891786,1.5815781325078322,-1.7488051015739254,4.41653081666024,1,right
14.847000000000001,0.34275291090872195,1.0249093752307405,0.004084367056691339,-5.652282562738559,-1.6962011429530632,-0.3703599656811758,1.5899202651901634,-1.7720607581942884,4.4538539544637334,1,right
14.847000000000001,0.2762661402682628,1.02895392985713,-0.006039645240973996,-5.652900206986424,-1.7098176198128152,-0.3793989859138391,1.5744522430831942,-1.7289743845104408,4.384620879632163,1,right
14.853,0.22044448685853793,1.035496531724665,-0.016075029384341896,-5.654059026537038,-1.7014765967375873,-0.37396928294520576,1.5943195269742372,-1.7843600698730473,4.473503640376757,1,right
14.854000000000001,0.1684381411810369,1.040122382359494,-0.025818644965742387,-5.650345324246622,-1.6957585163729763,-0.36993225668806873,1.5777296700193206,-1.738090207798496,4.399304190866054,1,right
14.857000000000001,0.12813716539036474,1.0492972646261212,-0.0334889375628659,-5.657900724259775,-1.7234992682786505,-0.3887871255927222,1.5781767067749342,-1.7392815974002067,4.401346025011785,1,right
14.857000000000001,0.1029324887740454,1.0708333973851474,-0.039708450164256816,-5.645948906627366,-1.6714121764771943,-0.35354050353769756,1.6098256081862692,-1.827790607593323,4.542704574236803,1,right
14.863,0.0905890195431275,1.104612371364762,-0.044154764232648705,-5.660546193540961,-1.7385258011166145,-0.3988993594143184,1.5320335385762838,-1.610278469312165,4.195225496262562,1,right
14.863,0.11246577273913715,1.1744590842333498,-0.04009392322151034,-5.648687940646834,-1.6823981959153183,-0.36098981390868135,1.6610216743368564,-1.970944342573751,4.77137278463625,1,right
14.866,0.14237138368467128,1.2319514913303848,-0.030450372737788858,-5.648490235913669,-1.6840682852655977,-0.36207940995146004,1.4908818659837897,-1.4951983281787529,4.011433608892189,1,right
14.867,0.1554975434012661,1.2488724005552316,-0.024792151258555037,-5.6724712130148705,-1.7906909512583384,-0.43419567412652665,0.7768184652295391,0.5015913796888647,0.8219630691517882,1,right
14.868,0.20649543016972272,1.310028755050813,-0.012023350284183476,-5.614300917971862,-1.5284070623324242,-0.2568522572060487,0.6066805191690722,0.9773534347039201,0.06204444044352517,1,right
14.870999999999999,0.2949332139433063,1.400958728045346,0.01941981294668432,-5.710429311883846,-1.96336841063125,-0.550928029636653,0.7356535885087683,0.6166982203823981,0.6381254529171745,1,right
14.870999999999999,0.3442975888494336,1.441918839488162,0.04272635544763066,-5.5837902881228345,-1.389626215249765,-0.16303419785865672,0.6579069814916535,0.8341045321954654,0.2907939297409032,1,right
14.876,0.3561565361940239,1.4534317048320755,0.05090428755147515,-5.0511779498627565,1.018525305200115,1.4651357910218303,0.6894672610204688,0.7458576538979073,0.4319045905777476,1,right
14.877,0.3834317255681886,1.4751451251741021,0.08560165647835312,-4.924653433620737,1.5922743327508055,1.853026214689766,0.6900413092885812,0.7442389145006731,0.4342649199929903,1,right
14.878,0.4109323700683229,1.4814472180874976,0.13978526925425538,-5.0206023032417955,1.1572881593994855,1.5589465035986754,0.6733203180358969,0.7910120998189192,0.3597808389279261,1,right
14.88,0.4311704081145053,1.4491209023618352,0.1762231904734444,-4.962581948485155,1.4196309854059037,1.7363183344725552,0.6932545128925683,0.7352618684639467,0.4487321558961319,1,right
14.880999999999998,0.46903051777502697,1.4050930514892996,0.19616549686753074,-4.9865676219010515,1.312905538755074,1.6641341521033663,0.6778758546264632,0.7782517740728716,0.37986852121438053,1,right
14.887,0.523002501823701,1.3724781735878064,0.20465521608092774,-4.98608840876458,1.3113715506250885,1.6631534884148826,0.685888090625337,0.7558938731902622,0.4162133465230644,1,right
14.888,0.6084066319979908,1.361559288147955,0.2027608537355316,-4.974851070389434,1.367372101670465,1.7009366315048895,0.6845602217883906,0.7595248931019016,0.4093223891239606,1,right
14.890999999999998,0.7325501626234427,1.3824942321347842,0.19154938461796062,-4.988558642762041,1.300299949109597,1.6556664425273149,0.6816358678420351,0.7678039339259473,0.3974382473166009,1,right
14.892000000000001,0.8783468806713284,1.4386906619710254,0.16957206623827548,-4.977494723850299,1.3525270759385393,1.6909438918930562,0.6860329808468124,0.7554266720903449,0.416139519046978,1,right
14.895999999999999,1.0396033894528727,1.5331201932277696,0.1447823275482576,-4.984652789787312,1.324386804815678,1.6718536945787081,0.6824450189790412,0.7654596785031322,0.4001051253251662,1,right
14.897,1.2078712007933117,1.6594650058904166,0.1319106369938267,-4.9802210603916635,1.3307657887783768,1.6763749125829037,0.6838017067451265,0.7618160573283617,0.4079071781544303,1,right
14.901,1.3727053820043331,1.808264092015374,0.1547045570235231,-4.9837513516279035,1.3383234748387065,1.681125813027422,0.6851514242954222,0.7576975185678818,0.40995424958810844,1,right
14.902000000000001,1.5103074212177319,1.9658433934637147,0.21819312536755592,-4.980253921928913,1.3252908605641212,1.6727547231160997,0.681570670933288,0.7682250078029687,0.39990027859403066,1,right
14.905999999999999,1.5791766851477695,2.094514998586221,0.27834038517262477,-4.982638355106832,1.3375003593138983,1.6806584298193232,0.6859613054077192,0.7553978572506783,0.41317949763313566,1,right
14.907,1.5396137673767134,2.1697574046755843,0.2920386151975526,-4.984477585489275,1.329377672714233,1.67516426026935,0.6830398405845763,0.7638863137704172,0.40378910399254064,1,right
14.91,1.3579894439739966,2.19085989098153,0.2633811412894089,-4.9743036981801225,1.3327634515112454,1.678103078195885,0.6817171062375892,0.7678552794495654,0.40103482671002105,1,right
14.911,1.0383404662488778,2.1720561945803,0.19878410612031083,-4.995762888640414,1.3331331706963958,1.676867158635337,0.6897118237849869,0.7443067246303563,0.42294134640589465,1,right
14.915,0.6225029878813471,2.1394737857585056,0.0860650425204324,-4.964178647709852,1.33063919644112,1.6773985467651449,0.6743643831576607,0.7894393782405431,0.37998767103942604,1,right
14.915,0.16518266537389695,2.0830691251651734,-0.07022314279198613,-4.997768565258391,1.333660707254765,1.6770763169916016,0.694259093303331,0.7309573103125907,0.43598132263848643,1,right
14.92,-0.25751170878354407,2.0120185131889716,-0.246947505178334,-4.978485297878581,1.331341503248756,1.6768767709467673,0.6775705840596775,0.7800093470710626,0.3888803461083766,1,right
14.922,-0.5968543571992857,1.914504163275801,-0.380031588243403,-4.961241947527729,1.3321782204434847,1.6786160219968405,0.6781447360475703,0.7783248419462527,0.39070207147759606,1,right
14.925,-0.8310706786775219,1.7819868540598187,-0.44021190806580324,-5.035692631634422,1.3331618450658382,1.6741322481160597,0.7096406757817098,0.6857377681011859,0.47905962903872146,1,right
14.925,-0.965425380256506,1.6515316186587894,-0.441352486546948,-4.897804304783563,1.3304955215651568,1.6818833608122308,0.632050332447212,0.9138301045582218,0.2610963418669431,1,right
14.929,-1.0576535630839294,1.4679459550922318,-0.35287547883838577,-5.074821743867257,1.3341132694821298,1.6720564752454803,0.7607656469477995,0.535433142843063,0.6227884838714703,1,right
14.93,-1.1067205812749854,1.3376311736745805,-0.2725460220314711,-4.927050131333566,1.3310073894187193,1.6802103432710442,0.5909663239028982,1.034627552558358,0.14560920497366445,1,right
14.934000000000001,-1.116072747696708,1.3019796166756512,-0.2499152371325082,-4.93099826735158,1.3314051746958826,1.6801837051956312,-0.12166580491815673,3.1294593741263217,-1.8569070697112342,1,right
14.936,-1.1535204373334902,1.1590928835467753,-0.1519679963812395,-5.212949214151461,1.336318087593098,1.6639967554310582,-0.29146996837311145,3.628704655239359,-2.334107381120309,1,right
14.936,-1.2056063045089243,0.9726676550818992,-0.019561515073190094,-4.519998216258656,1.3238541271034436,1.70355607099085,-0.16273526410494438,3.250213074594508,-1.9723292700126323,1,right
14.939,-1.2344834693812308,0.7946083411019009,0.06957007994202989,-5.6689427266005,1.3446428398586483,1.6380203020021291,-0.24037374509399834,3.4784246691008534,-2.1905078056282115,1,right
14.94,-1.246040837435713,0.6589694756638134,0.11962093809487566,-4.153472377401178,1.3171809803718233,1.7244613866880278,-0.20879183026484652,3.385731148460817,-2.101764133010689,1,right
14.945,-1.2447799604918661,0.6275635943603319,0.1264648761000033,2.207558937835665,1.202725830268108,2.0875286417810552,-0.20833362273846912,3.384082595873225,-2.100464807702146,1,right
14.946,-1.2260923567121682,0.5242914602765304,0.14062129823775876,3.7230724550825873,1.1752420884995096,2.174001758955521,-0.22491116673541497,3.433237666772232,-2.1470636569344377,1,right
14.947000000000001,-1.174826799773674,0.3952378687249176,0.15516020520785506,2.5740812655071,1.196054492042835,2.1084313350359345,-0.20505791057171346,3.374459910349578,-2.0912616332218406,1,right
14.95,-1.095772513128201,0.339728986311835,0.15213527307440103,3.26701440875097,1.1835994807473873,2.1479774619033516,-0.22051567692753937,3.420078704612207,-2.13470528515805,1,right
14.95,-1.0046414092541722,0.29199160978832384,0.14328372254936536,2.985218574927669,1.188433974680394,2.131905488316355,-0.21218993091883614,3.3959578623052535,-2.111314667877246,1,right
14.954,-0.909010086915322,0.2800968343712581,0.11191853174918533,2.9809368196394344,1.1890005642322734,2.1316314749759684,-0.2140707446648427,3.400348948057629,-2.11657951383782,1,right
14.955,-0.8151624563621529,0.2964276240156013,0.0628588919451846,3.129186673726643,1.185652592264978,2.140140020531397,-0.21631916318811878,3.4089170213629227,-2.122932891555971,1,right
14.959000000000001,-0.7239920475478421,0.329686156953366,-0.002004908546899404,2.9516931317559543,1.1895114891761276,2.129959960664145,-0.21244806768861874,3.395135127910007,-2.1120120597430407,1,right
14.959000000000001,-0.6400415718860599,0.39063870832130054,-0.07491313981907634,3.0897866543966592,1.1867409732496492,2.1378634420291487,-0.21607251001201236,3.4077043113805887,-2.1222309785287994,1,right
14.964,-0.5710372713013326,0.46570685347612695,-0.14275191550186983,3.0157453441450643,1.187517845544427,2.1336829880046073,-0.21366893172854376,3.4006556738470755,-2.1154765691547337,1,right
14.965,-0.523468413191102,0.5616753536558539,-0.20088720278685546,3.031670915795968,1.1890211280202312,2.1344452399120244,-0.2146500678018461,3.3999878494520326,-2.1181724291413264,1,right
14.97,-0.5074443920267073,0.6669177452672801,-0.24050233183742648,3.053224243990346,1.1855530871288091,2.1359290597057736,-0.21480673895071412,3.408565591689804,-2.1187529323201897,1,right
14.97,-0.5278075314438371,0.7716704443450393,-0.2700120975599215,3.016848952498072,1.1899848453190875,2.133540965440467,-0.2139985284598585,3.3940805086939845,-2.116272494768565,1,right
14.974,-0.5789244471978029,0.8707622284757253,-0.29703949642269295,3.050652991377004,1.1863660514323344,2.1357192893626187,-0.21496707272097224,3.4098362706782863,-2.1192174001588264,1,right
14.975,-0.6587838244205049,0.9514874436129582,-0.3354317097186499,3.029215509042441,1.1867269026757974,2.134498210494212,-0.21423843177557675,3.4002358124531247,-2.117040604371123,1,right
14.979000000000001,-0.7564347162639546,1.0136457193657737,-0.38863741935473284,3.0352656191143526,1.1921973980353189,2.1343803749335546,-0.2144475333356317,3.3944209742809512,-2.1175177973893122,1,right
14.98,-0.8536143515729326,1.058194036626149,-0.44103660991318444,3.0428470975075808,1.1793083431422937,2.1358713777616907,-0.21490283635684776,3.423897744930291,-2.119282429088995,1,right
14.984000000000002,-0.9443815562773425,1.0823348521661331,-0.4858605470059826,3.026411296500663,1.198630171582482,2.13335458065748,-0.2138110658935039,3.368505647515022,-2.115313895675472,1,right
14.985,-1.0143419351916283,1.0865245071923226,-0.4960473140396787,3.044884392642818,1.1780135811911416,2.1360917034308313,-0.21526855990358656,3.439795157362288,-2.1205666865829755,1,right
14.988,-1.0571337192149546,1.0708642680081346,-0.46977253571855476,3.0327071162136354,1.189956764041626,2.1344248579388143,-0.21402911180596862,3.380212608687673,-2.116116644205416,1,right
14.989,-1.0748111883837206,1.041489195731368,-0.40825907484408647,3.0296661115116827,1.2001052903918903,2.13341190828941,-0.21414929836118027,3.382079843148639,-2.1164830352711714,1,right
14.993,-1.072237158398658,1.009469129225465,-0.31447052386249563,3.0551727136473574,1.155444850396896,2.1385378703106053,-0.21622884137892326,3.494857709568773,-2.124164874497349,1,right
14.994000000000002,-1.062214759089489,0.9787783083573153,-0.21886225517970187,3.0056761767261513,1.2383182915740472,2.1289078517017654,-0.21101509842411476,3.217362560569332,-2.1049907286389544,1,right
14.998,-1.0323463114216325,0.9603941268774003,-0.09602626462154953,3.0697147001791487,1.1318853575418109,2.1412994444747997,-0.21968664522620662,3.6775411212540305,-2.1368621548440347,1,right
14.999,-1.0087594821439976,0.9542922020791524,-0.010799460028764453,3.0160701226449818,1.220760025434664,2.13094596095162,-0.2082459860042346,3.0705594479656204,-2.094810962961052,1,right
15.003,-1.0020564433731158,0.9548598923228845,0.009542984446646441,3.018248491947441,1.218304403603435,2.131262929619848,-0.16035134562221126,0.5231329113170442,-1.9186849173545428,1,right
15.004000000000001,-0.9669034043246794,0.9690114265426457,0.0881577564823081,3.1181168910452897,1.048970736567528,2.1508781046530983,-0.1489189619619664,-0.08382516693306866,-1.8766448140901586,1,right
15.004000000000001,-0.9202095043250211,0.9945914041374341,0.18843810907545933,2.8718330441368263,1.4652617871729112,2.10262917667738,-0.1575828772662642,0.3763321039841211,-1.9085138128159012,1,right
15.009,-0.8655501948271598,1.0354994385914553,0.26059452921371395,3.280350514232261,0.7749724062628923,2.1826304294344063,-0.15236104600122502,0.09881223285657936,-1.8893012080650862,1,right
15.011,-0.819858660949403,1.066198492436754,0.31169425303350395,2.7415660369289636,1.6855169732037505,2.0771192044316034,-0.15447994335238222,0.2117057294455564,-1.8970927226131575,1,right
15.014000000000001,-0.8077176944299574,1.0747588404503734,0.3218485342289341,0.48036979766285753,5.506854015252192,1.6341733657922166,-0.15452190392550433,0.2133448482223958,-1.8972698179990795,1,right
15.015,-0.7647836665258726,1.1082840881801248,0.3466624256709541,-0.0582085491167815,6.41749178030085,1.5286860083574658,-0.15338945203092672,0.1540728161832238,-1.8930538097390834,1,right
15.015,-0.6969469311847254,1.1534976227229325,0.37201659822734046,0.35008588844625393,5.727101564227373,1.6086614386693765,-0.15474685080157743,0.22507379609763373,-1.8981202420191656,1,right
15.017999999999999,-0.6405848897419515,1.1845074241794493,0.3641040124805539,0.1037172654693643,6.143354267631292,1.5604026868573087,-0.15368629028728642,0.16976779015411417,-1.8941454114619494,1,right
15.019,-0.5782933988020909,1.2199473836025214,0.35132786778176994,0.20432534819831413,5.974355070483243,1.580103524776188,-0.15425515071854684,0.19958082065658345,-1.8962698755605623,1,right
15.023,-0.5151967606215928,1.2503863708019267,0.3300114821274392,0.20491213318516546,5.971179790394553,1.5802361824488265,-0.1541459391435152,0.1928350317738849,-1.8959316617207227,1,right
15.024000000000001,-0.44606851793461044,1.270418002265628,0.3045189369122496,0.15354961392271602,6.06108630545611,1.5701469606776302,-0.15393881087334654,0.18475222951185416,-1.8949647497999011,1,right
15.027999999999999,-0.3657818921365775,1.2860384872365718,0.2808798782768549,0.21531562199499102,5.9536258629217755,1.5822754074149579,-0.15429594534449867,0.19873718900517123,-1.8966319562166072,1,right
15.029000000000002,-0.2839933951279552,1.2916830026939263,0.25644367211202024,0.1667997477490788,6.036942662528835,1.5727589249104756,-0.1539324423705149,0.18552686396655532,-1.894860822609911,1,right
15.032,-0.20009744853238104,1.2902278989361924,0.2324445626341095,0.19425752196462004,5.993164538771954,1.5781108685844507,-0.15419143740532784,0.19443129650005544,-1.8961595882686786,1,right
15.033,-0.11742098027301008,1.2807442326630936,0.2024708095811066,0.1849308034766072,6.000470852644958,1.576369995965579,-0.1541217089680587,0.19067460250966592,-1.8959062259845971,1,right
15.038,-0.046995974185425796,1.2574976063942775,0.16674034887791997,0.18358432783764542,6.017311301481597,1.5759573769862834,-0.1539412206632414,0.1901128634049049,-1.8945998868303495,1,right
15.04,0.004418851172036423,1.222715126283164,0.126127395536155,0.1887650482483786,5.990684522396311,1.5771552656333327,-0.154392340738003,0.19346361935734308,-1.89772741790626,1,right
15.043,0.0365385968534003,1.1757777660655915,0.08161023049880223,0.18292696894545946,6.014797985768988,1.5758655957925978,-0.15372851861120743,0.18894595926789293,-1.893095438813346,1,right
15.044,0.04678501999431164,1.1192603193384962,0.03885355648806124,0.1906019751633406,6.001951581177842,1.5773675908170492,-0.1544241036451423,0.1931239582158692,-1.8979887828099276,1,right
15.047,0.03801625820663311,1.0617078363985453,0.0008886345425608566,0.1769876122227788,5.9985301847009715,1.5749724016090227,-0.15402211857915948,0.19070371321399643,-1.8951613081015708,1,right
15.048,0.009849966374196476,1.00712046506513,-0.030653536298074296,0.2004916504737835,6.019212058266998,1.5789557306638364,-0.1537020683146335,0.19002922867234262,-1.8928207179653418,1,right
15.052,-0.03702487344216142,0.960617459393426,-0.054637996763826024,0.16724891006612572,5.985277526042532,1.5733700055919755,-0.15513691442603422,0.1948072256070938,-1.9031886276113112,1,right
15.052999999999999,-0.09514951969694684,0.9269365965470651,-0.0706351018699256,0.20234871615757347,6.02202667536681,1.5792584720589433,-0.15247437297574168,0.1858570000063304,-1.883955849646371,1,right
15.057,-0.16804929325104886,0.9080509618688088,-0.08081177807273067,0.1826014439989013,5.999885716427912,1.5759603250457568,-0.15589091107295916,0.19723067884789486,-1.9086427181020098,1,right
15.058,-0.24594657268734182,0.9036851907219143,-0.08902189177711275,0.1629314938784508,5.985291999765766,1.5725996139450595,-0.15303973202452498,0.1877910673155037,-1.8880377590391368,1,right
15.062000000000001,-0.33119222839484935,0.9129012374893809,-0.09618303646918186,0.24468720559805335,6.056516060493342,1.586461566821166,-0.15311945502583343,0.18819000057596003,-1.888603086588602,1,right
15.062000000000001,-0.42367300930291596,0.9302148716748504,-0.10193719221418004,0.0938476677313927,5.9231008884272,1.560905898611074,-0.15854472957541393,0.20556774405241046,-1.9278550748133043,1,right
15.065999999999999,-0.5045837500497452,0.9514984417126846,-0.10726931222867161,0.28736428408024595,6.094713595652965,1.5936883628546266,-0.14520844780625144,0.16275336877982832,-1.8313760941723844,1,right
15.067,-0.5923988778006157,0.9807423065971597,-0.11653066666179716,0.1258674422411295,5.951316782220314,1.566330604762396,-0.16732003469005174,0.23372279836827675,-1.9913378225596992,1,right
15.071,-0.6516048887256889,1.0001482864214322,-0.12482657519632591,0.12999033094441054,5.955673157588146,1.567025177705005,-0.13815600898036623,0.14015826049034363,-1.7803556732410575,1,right
15.072000000000001,-0.6646094227348167,1.004666986923278,-0.12744224218342623,0.4387690345544736,6.2275546304881315,1.6193482730495876,-0.015743538038022108,-0.25227680397341695,-0.8947412850625183,1,right
15.073,-0.7099134113314863,1.0213426804104588,-0.1381992209752445,-0.3199000318119087,5.558732538787119,1.4907921213204125,0.0134189160107362,-0.345775593545488,-0.6837693351749967,1,right
15.077,-0.7664995857190736,1.042131450573062,-0.15316216705222474,0.9379636296670457,6.667830247604915,1.7039395931075065,-0.008690450911696828,-0.27490485567602996,-0.843718118827072,1,right
15.078,-0.7823733345329167,1.0491635510433506,-0.15689196246255727,-0.721184746144659,5.204904895544381,1.4227885729109007,0.004644637410622069,-0.31764868080178715,-0.7472417050911413,1,right
15.081,-0.787680882192763,1.0518704588402399,-0.15804207677460835,-7.685383657143599,-0.9348117846405146,0.2427197893198316,-0.000782483950306224,-0.30023619652379646,-0.7865163534206667,1,right
15.083,-0.7926071351491419,1.0559243211315232,-0.16158184897682965,-9.344633541592675,-2.3977150053456855,-0.038458093439688576,-0.0008556988573169455,-0.3000464427061512,-0.7870236090829895,1,right
15.084000000000001,-0.78230776673064,1.0574610924245125,-0.16019098973086598,-8.086660027506788,-1.2886412435847237,0.17471843912334284,0.0019841197305727576,-0.30907850343844434,-0.7665093719136732,1,right
15.087,-0.7532665288798142,1.0523925568780266,-0.1511631471001069,-8.845287419014461,-1.957472433771473,0.046173350939832686,-0.0014185709525776614,-0.29824510730670295,-0.7910965833109656,1,right
15.088,-0.7083401857611615,1.043769917626098,-0.13385130252675081,-8.536872820943953,-1.6855115515317567,0.09840001970600297,0.0012332883626593328,-0.3067125334582346,-0.7719241077929427,1,right
15.091,-0.6484360003083212,1.0321992290659998,-0.11085743173786165,-8.53196638235987,-1.6813260468994915,0.09930205303819253,-0.00020260158744941827,-0.3020459329896851,-0.7823377236811409,1,right
15.091,-0.5761244840054773,1.015482807625784,-0.08772314921689053,-8.694586780493768,-1.8244778571493476,0.07164684970702875,0.00013947083726547228,-0.30335131110243746,-0.7797813142604446,1,right
15.095999999999998,-0.49685488659481597,1.0011523061723477,-0.06999549563052392,-8.499951205699436,-1.6531091334792918,0.10472549376162774,0.0004929193283059509,-0.30412271472085484,-0.7773646359585197,1,right
15.097000000000001,-0.4131654448693255,0.9913617458500299,-0.06479704308808044,-8.651273796415918,-1.7864190097734574,0.07904205465442357,-0.00013185430335231014,-0.3025646995809511,-0.781712497411845,1,right
15.102,-0.3261552482377715,0.9850085529233271,-0.07678328000402745,-8.570478387485572,-1.7149854867842877,0.0926496163634799,0.00045872003874125464,-0.3041028311282583,-0.7775771306982576,1,right
15.102,-0.23566413772019223,0.9833731049929832,-0.09938608309722335,-8.587053975674145,-1.7302540236129584,0.0901082690650552,4.5597302252235316e-05,-0.3027755774450348,-0.7805670225570148,1,right
15.106,-0.14397549475589422,0.9847044850736542,-0.12198341807998361,-8.612133507502673,-1.75123219152848,0.08539838121882407,0.00027336452067603994,-0.3041644333346917,-0.7786649484497289,1,right
15.107000000000001,-0.05243619009707599,0.9916977929493204,-0.14149608484900755,-8.570489104149033,-1.7159101288026624,0.09301934672572132,0.0001649107433482601,-0.30231088010602136,-0.780030828399687,1,right
15.11,0.04000633986766752,1.0005110693558588,-0.15650303359573184,-8.60895037542142,-1.7487068435070672,0.08605248094013093,0.0002279908036261258,-0.304759920611816,-0.7787071689033143,1,right
15.110999999999999,0.1301641730596892,1.004885121061061,-0.1663901172348834,-8.585490859483098,-1.7280150030411066,0.09002329190703004,0.00017916788592199485,-0.30220807751999934,-0.7799851728023832,1,right
