time,gFx,gFy,gFz,ax,ay,az,wx,wy,wz,subject_number,foot
17.135,0.3684007812625077,1.0101286007977226,0.12097145042890163,-3.725939700119394,-3.516016478028107,-0.15442991831673386,1.445346557094867,-0.6709740747164644,5.342148964516697,1,right
17.136,0.473496789687084,0.9609030628207511,0.1830954396299222,-4.0201807205863735,-3.1465104985395755,-0.15089757730910566,1.4453877970042575,-0.6709006701397784,5.341650583864294,1,right
17.137,0.6139104451871652,0.8914090817872772,0.25827243327421767,-3.7970772554383023,-3.426670389944813,-0.15358100321190415,1.4413340345906804,-0.6694675821171857,5.341669118016815,1,right
17.137,0.7185421427866405,0.8363768921444592,0.30225141504832825,-3.9316907847849865,-3.257587131949129,-0.15195335159538176,1.4462862271916692,-0.671341506730794,5.34233857012385,1,right
17.142,0.8224076854406555,0.7809944276180343,0.34504176213369325,-3.8768045391549504,-3.3266663308800615,-0.15263310864327218,1.4422816133135012,-0.669641453157073,5.340763560939651,1,right
17.142,0.9067660860100115,0.7308895259365984,0.37576493454519677,-3.876270254352107,-3.327025414055253,-0.15260762366132768,1.4446722064060231,-0.6709342038705006,5.343257532462156,1,right
17.148,0.9636712231636548,0.6892160742930824,0.38671240631246295,-3.904659763012881,-3.291816521952046,-0.15230705708117104,1.4437897662114771,-0.6700920216915041,5.340296879494939,1,right
17.149,1.0036691604137409,0.6546858233483284,0.3842760559507804,-3.8705777160005805,-3.334177165738085,-0.15267843255162997,1.4435747229290345,-0.6704302645464046,5.342612612437778,1,right
17.152,1.0181630448562657,0.6376878611400372,0.3554993032119701,-3.8972330286369843,-3.3008912155176096,-0.15237346669206323,1.4445199203741361,-0.670776679441041,5.342678747104925,1,right
17.152,1.0123633717813898,0.6387333192443516,0.3059231000042915,-3.882521211962312,-3.31975004764384,-0.1525842105575508,1.4430246159529185,-0.6694621486331002,5.338290878128056,1,right
17.156,0.982152344400032,0.6596315170716962,0.2408667098623254,-3.886674245574181,-3.313305301792809,-0.1524282583319188,1.445014481603243,-0.6719489040200602,5.3482500382591756,1,right
17.157,0.9267857976926965,0.7032671513277222,0.16330649528823316,-3.8890388716319424,-3.3124522724666905,-0.1525812077094424,1.4426704070731353,-0.6684651626763145,5.333422318526223,1,right
17.160999999999998,0.8475842675141564,0.7673018705682713,0.08185197124577061,-3.8842066652583918,-3.3159238209109376,-0.15241737617384693,1.4448943360365978,-0.6720798086367468,5.349216495296657,1,right
17.162,0.744560106651492,0.847950240662657,-0.0060910260128245585,-3.888993053487557,-3.3119826327852566,-0.1525364070471728,1.4437494237869477,-0.6700409968394168,5.340096009212313,1,right
17.167,0.6243442479829047,0.9380602365469844,-0.09776257498835289,-3.8848142679517212,-3.3172505768023512,-0.15258862406294058,1.4424678802332267,-0.6681800118296918,5.332224027918963,1,right
17.168,0.49136344974946944,1.0290223728830767,-0.1899446173244888,-3.889287578622857,-3.3077878969463064,-0.15220640501964378,1.4474546642422434,-0.6761061210884363,5.366654610083211,1,right
17.172,0.35323903953183255,1.1140965859127911,-0.283057460562513,-3.8832218264898306,-3.3241898221302346,-0.1530292076706662,1.4383875973399352,-0.6614697531022771,5.302807723962007,1,right
17.172,0.22203116587488922,1.1832381728205008,-0.3630612932917309,-3.8912761545925054,-3.3009719649972435,-0.15181413754960435,1.4499504231724547,-0.6802375700332386,5.384790139167521,1,right
17.177,0.10543796983053813,1.2354885220109182,-0.42699652434405966,-3.882873595708013,-3.32549009149137,-0.15310679592549323,1.440330224886074,-0.6645770122782046,5.3163432743615795,1,right
17.178,0.009159698965569337,1.2632842613073048,-0.46636690218624727,-3.8874394269507158,-3.3116904318897786,-0.15236401256536355,1.4405641556189948,-0.6650009457856938,5.3182071169495595,1,right
17.180999999999997,-0.06106198039233367,1.2632910939608917,-0.47466107159040566,-3.8928141409544503,-3.297975826913326,-0.15170445787641426,1.4589551998078159,-0.6948567945686502,5.448694215781771,1,right
17.182000000000002,-0.10325505780342381,1.2456427190433246,-0.4623996257634867,-3.8716415644571325,-3.355021463404794,-0.15455860287046275,1.4137986858086937,-0.6214715087558977,5.1279490938450465,1,right
17.187,-0.11141584482354436,1.200388245519537,-0.41380635306010327,-3.910488151383709,-3.249765290628802,-0.1492722934760438,1.4886504598563914,-0.7431567898158489,5.659779352093752,1,right
17.188,-0.10123337436773057,1.1651937806941586,-0.36874949321745143,-3.8606929054213848,-3.384801508486322,-0.15605747593383734,1.3899272534125569,-0.582638219929272,4.958274199023888,1,right
17.191,-0.0955800410847401,1.154836127247282,-0.3584291250525784,-3.9022410673526435,-3.2721109528643906,-0.15039557040180646,0.9755760112606121,0.0910237385642982,2.0138435596858875,1,right
17.192,-0.06781454989637084,1.1115645599216033,-0.31089256944372623,-3.9012296980633954,-3.274984096433398,-0.15054185961059152,0.8768421722394693,0.2515940474905777,1.3122745120366843,1,right
17.192999999999998,-0.017770725459315503,1.0576619496195019,-0.24540360795960262,-3.8216024257751653,-3.4904523017676503,-0.16135623332236837,0.9517060967475889,0.12982951327206071,1.8442044326597609,1,right
17.195999999999998,0.027783038606459393,1.022192747444377,-0.2061204184420384,-4.017213760153886,-2.961057375014288,-0.13478839200898635,0.906551667433283,0.20327594893428666,1.5233774557906508,1,right
17.197,0.08755610181267037,0.9927596612987412,-0.15037837764396356,-3.6928709801304294,-3.8387777351444408,-0.17883061616666224,0.9249092744019191,0.1734358276120071,1.6538581998542161,1,right
17.2,0.13076723602749923,0.9824684475666465,-0.11136137901140973,-4.120729923166883,-2.6810569332152787,-0.12074715787516696,0.9252183051913222,0.17286451047934048,1.655884665166956,1,right
17.201,0.1411095195054275,0.9838537050898015,-0.10220478059249745,-5.916234932476585,2.1785405855672324,0.12315121696134358,0.9154879001356242,0.1888272947986368,1.5870853775598726,1,right
17.201,0.18511080201201557,0.9958162715512788,-0.06591649759139143,-6.34420677434461,3.336313900491582,0.18122163472779998,0.9271636315206742,0.16964496258621894,1.6695677010492798,1,right
17.205,0.25401214587244725,1.0306911093050548,-0.025335320707394533,-6.0197418468544726,2.458536737567375,0.1371935237838759,0.9180419669653352,0.1846710789545996,1.6052284684154863,1,right
17.205,0.3164946143920968,1.0859160871554925,-0.004865085089376466,-6.215306718134029,2.9879100101147578,0.16376671624576244,0.9229453645139583,0.17661494335706696,1.6398672611090663,1,right
17.21,0.3890525389174647,1.1614893616837665,0.008222073651016425,-6.13608463812238,2.7726303611426335,0.15290557250399428,0.9219557286487293,0.17805879675149894,1.6324212098342854,1,right
17.21,0.4591630390734407,1.245127579478557,0.01067975313899044,-6.134201455144735,2.769351577554505,0.1528599354494109,0.9202946816235402,0.18129083763520365,1.6219443671797809,1,right
17.215,0.5139089586046979,1.3226841036078487,0.01562619572334581,-6.176999614075607,2.882623688376545,0.1583775097794379,0.9231659010823017,0.17570807624533102,1.6400639892831845,1,right
17.217,0.5549309046014139,1.387088477763756,0.038355005204785936,-6.125959640628634,2.747008425709859,0.15173607160807953,0.9202852945841902,0.18151309543576086,1.6223953737203023,1,right
17.221,0.5809132939691716,1.4266035959117553,0.0629541141833399,-6.165343288322733,2.852514328973897,0.1569603198812251,0.9223170763454944,0.17731600160625705,1.6346006256433054,1,right
17.222,0.5993565212947847,1.449245788450584,0.07363881582968214,-6.145239611013185,2.7959661937830353,0.1539828278277175,0.921711185768018,0.1782929015049935,1.630274940377776,1,right
17.226,0.6257634089474802,1.470942713883519,0.09437151060462873,-6.147171171352619,2.8080786729420266,0.15503986835226072,0.9205373471203323,0.1818598007330558,1.6260772071448788,1,right
17.227,0.683626430035843,1.494214453019958,0.13683657354412143,-6.157669661825869,2.8246385987563265,0.15509768147006617,0.9235561923166647,0.17316229796160534,1.6380602396764936,1,right
17.229,0.7922517518267371,1.5285369422821167,0.1798005737041928,-6.141986284050122,2.796733213780292,0.15464574407965764,0.9191308022990929,0.18600973824547884,1.6207392529813553,1,right
17.23,0.9452553958344594,1.5827775313337336,0.22264308939687988,-6.1558451697617045,2.8226511377435344,0.15519041535096398,0.923744663899472,0.17248333038337005,1.6384668599085264,1,right
17.234,1.1348130280413904,1.6583734566687003,0.27596768278937145,-6.149831290402092,2.8062742399702802,0.15436195022682234,0.9210776671915109,0.18029969102409588,1.6282160975857976,1,right
17.235,1.3380779164412495,1.7511487419022416,0.33830323849761806,-6.143532543843209,2.81072409376865,0.155987536923501,0.9190086002039975,0.18666676130503382,1.6210133593465348,1,right
17.239,1.5349678084775982,1.8455625999899574,0.396231546861601,-6.163971228018457,2.816910374249041,0.1530932458183125,0.9283614954165788,0.15832394209063289,1.6546504781816367,1,right
17.24,1.714682703109156,1.918235978785871,0.4191157758611773,-6.132032563115824,2.8037651204364513,0.15721458062625854,0.9110016505595735,0.2109072974590007,1.592165252961443,1,right
17.244,1.8169719991763014,1.940264881504898,0.38232655243226943,-6.166349875996486,2.818506416351532,0.15285752743188488,0.9332734881892801,0.14342147607567352,1.672263503069249,1,right
17.245,1.8352594319348137,1.9149112573779576,0.3222126997770317,-6.146094639555033,2.808839103715326,0.15531765783982734,0.914688475218618,0.1997437607930846,1.605455567615844,1,right
17.249000000000002,1.6860366790842125,1.8690803712519175,0.2870272541928584,-6.130746172524498,2.806205378729877,0.15772332276051065,0.9152158750507919,0.19818969487328553,1.6074350656360636,1,right
17.25,1.366462272750229,1.8175552019897652,0.2724676678666762,-6.201376805079832,2.8270579034183787,0.14766080126591402,0.9505501087872574,0.09093850074465476,1.734092585341286,1,right
17.255,1.007720867662599,1.7772452270827452,0.249214948629304,-6.0697658540424,2.7867072780205913,0.16623849007036284,0.863684249503099,0.35455974979098026,1.422655151991151,1,right
17.257,0.5065045309647275,1.7473589574901336,0.19288746052567993,-6.238903417012497,2.8388909671789273,0.14240151553457275,1.007710211705019,-0.08252069320005323,1.939018852106154,1,right
17.259,0.15661238067783056,1.7330770004202396,0.14922754363491664,-6.097637770375016,2.795182510460781,0.16229612639316487,0.8177465371178223,0.49396682212804544,1.257980995479731,1,right
17.259,0.06820025959152944,1.7299814016623312,0.13684146798419697,-6.101689613255623,2.7969287591830505,0.16178232724105468,0.020450832134343566,2.9139367084430576,-1.6001995184173654,1,right
17.26,-0.26292466354090804,1.7207018197188422,0.08847668206530396,-6.370314997235256,2.878403798141809,0.1237623523285121,-0.1695028920573145,3.490418659994954,-2.281169116162269,1,right
17.264,-0.658025695663505,1.7099623065119751,0.028675886130461042,-5.709789455225336,2.6775031417964015,0.21718534674109372,-0.02549438240530528,3.0533184663370077,-1.7649183157988866,1,right
17.266,-0.9191222438924265,1.6589984452672564,0.010028173644820115,-6.805051046724449,3.0107519456305387,0.06228847557703664,-0.11234065116201335,3.317033284004335,-2.07624552801993,1,right
17.268,-1.1055149780524118,1.60461361148597,0.008636293431380233,-5.360390966848925,2.571209056106208,0.2666006641447227,-0.0770195355956072,3.209573941124474,-1.9496281726399802,1,right
17.269000000000002,-1.1420201845896005,1.5868776501271031,0.012041789830246234,0.7029005130289774,0.7263693158593801,1.1240985262565668,-0.07649653133988654,3.2083420178428597,-1.9477527470123142,1,right
17.27,-1.2535485253629972,1.504949529285225,0.024404169266174933,2.1475198415163614,0.2868763290815018,1.328409255118976,-0.09504912465444168,3.264303063672801,-2.014258950428064,1,right
17.275,-1.3901060779669026,1.3670773231568984,0.035024533180552486,1.052347319623909,0.6201584523751568,1.1735320734246388,-0.0728421943472156,3.1970512439452126,-1.9346516742906112,1,right
17.277,-1.4246575371227124,1.2262130399321722,0.029815669839205604,1.7127303128006073,0.41892800362243776,1.2668915218166594,-0.09011344888454176,3.2497670792266895,-1.9965712638056259,1,right
17.28,-1.4563021382124461,1.0619633160578403,0.007787717940122405,1.444287126147322,0.5012197022493844,1.2289985528072647,-0.08084442135677886,3.2206854099191258,-1.9633277864753231,1,right
17.281,-1.4464537517278069,0.8945285648344256,-0.026229552004126522,1.440062686259206,0.5016347364451594,1.2282998317612903,-0.08288348745051877,3.228507089337077,-1.9706649418167366,1,right
17.283,-1.4084433655667585,0.7347905984264556,-0.06157808330967935,1.5814001292327875,0.45949396580474566,1.2483888513002925,-0.08546585017741176,3.2343425146937617,-1.9798880227422813,1,right
17.284000000000002,-1.345546694766333,0.5910191705821373,-0.08303048638122668,1.4124105033825318,0.5105425136854842,1.2244466367508378,-0.08110060951251759,3.222689125921435,-1.9642668793097067,1,right
17.289,-1.2371676031560994,0.4760499545299123,-0.09141189713348859,1.5435501473222502,0.4698907146873142,1.2429056714629012,-0.0851115722378169,3.2348772725661803,-1.9786460653238778,1,right
17.29,-1.1107508814406626,0.3868468421070298,-0.08836616225958947,1.4737313976698043,0.4935405704432716,1.233311561055112,-0.08258671518939736,3.2242535461833377,-1.969542492001801,1,right
17.294,-0.967499612236472,0.32624216597908867,-0.0744697039558245,1.488079862465912,0.485031389448832,1.2348587179229056,-0.08338798813866871,3.2334504403024873,-1.972534419151797,1,right
17.294,-0.8270126054045097,0.29024505270445494,-0.05640671435372369,1.5091411038384424,0.4837076258717582,1.2384288616676418,-0.08394247940247151,3.2250417957864466,-1.9743439842054156,1,right
17.301,-0.7020928076934048,0.2819366962217109,-0.04143649774730202,1.4748085807406581,0.4900998915373533,1.2331016934312102,-0.08271106781075846,3.232061713451742,-1.9701193753810098,1,right
17.302,-0.6017795029357988,0.3012107607410388,-0.05201563167319881,1.505304139873906,0.48078607161392245,1.2374105243661868,-0.0838519777916901,3.229309478478238,-1.9741000974044995,1,right
17.303,-0.5375153722556818,0.34092798871021257,-0.10382696842163719,1.4882031306714896,0.4935103714365164,1.2358669448690325,-0.08350038734275306,3.2228831414520362,-1.9727440924874526,1,right
17.304000000000002,-0.5074957601982901,0.401683004130621,-0.19299947274559676,1.489492344520305,0.47592743493251466,1.2340493140499929,-0.08257603260366751,3.243528402232795,-1.9698459499344214,1,right
17.307000000000002,-0.5156782200507519,0.4800728243548481,-0.30675611463815156,1.5008799635854615,0.49811090106824946,1.238643859616784,-0.08487223772089893,3.2070095066939865,-1.9773080611151987,1,right
17.308,-0.5553831712807478,0.5688455556627922,-0.4182530749445501,1.483866942383453,0.47594205679643,1.2330561341737278,-0.08171398075338429,3.2532632153211827,-1.9669730187552714,1,right
17.313,-0.6087306924170175,0.6584547808084515,-0.5153554939920562,1.4969694631781256,0.4877616292086561,1.2367485253296127,-0.08443942552922049,3.2149199056739706,-1.9759212034586433,1,right
17.314,-0.6776328664319089,0.749520571693219,-0.5815227342301031,1.498089476896122,0.5010272961664843,1.2384893737926137,-0.08422870158394928,3.2155371450938564,-1.9751839915349585,1,right
17.317999999999998,-0.7538440463586588,0.8351899470949924,-0.6091423429282383,1.4744110829116308,0.44864360238536904,1.2282084980194021,-0.07939602608605367,3.2897672175627006,-1.959436936416923,1,right
17.317999999999998,-0.8199526353968669,0.901774346754743,-0.6105600533830982,1.5227675438150396,0.5444540817266752,1.2479058333537723,-0.09147244912591454,3.107930584290682,-1.9988603246722874,1,right
17.324,-0.8842684136254386,0.9604619737196585,-0.568972114542861,1.4590612386978326,0.4219031247541529,1.2223824317829743,-0.07137404347347773,3.4091884096465264,-1.9332189580807257,1,right
17.325,-0.9221486467884183,0.9947320071150729,-0.5315599739905512,1.5129488810981842,0.5240257828213173,1.2437940569062282,-0.09791141334916682,3.011922414702798,-2.0199050443393523,1,right
17.328,-0.9296728182885918,1.0020749666428461,-0.5210166331216728,1.5103853907039344,0.5215404005103212,1.2430487915351374,-0.20918788854823184,1.343971714896715,-2.3832892005672184,1,right
17.329,-0.9571547155315943,1.0254430789975624,-0.48212194920001034,1.410554205337025,0.326061834597316,1.2026570123516747,-0.23573104357338176,0.9467353307286301,-2.470006473351934,1,right
17.329,-0.9846344955101942,1.0510539920845456,-0.43978377318728595,1.6575633988886445,0.8061426896713678,1.3021856370378795,-0.21561057874626868,1.2479131622635355,-2.4042747280001615,1,right
17.333,-0.9804385203391255,1.0608862556841567,-0.3887273473748419,1.2473420551474892,0.010261901097222359,1.1370535085734192,-0.22774058532806385,1.066234208952322,-2.44388589287935,1,right
17.334,-0.9749224317211508,1.0675117049120613,-0.34124486394365716,1.7887304063536156,1.0600197578932096,1.3549202195381138,-0.22281329660864302,1.1402203584803705,-2.427837186040522,1,right
17.337,-0.9698980582939003,1.0675323256326779,-0.3288018357503934,4.05921309171098,5.465950608231015,2.2689641055008316,-0.2227290672672496,1.1411284794662835,-2.4274727221560544,1,right
17.338,-0.9410956958287104,1.0694496197457417,-0.27000690602126454,4.600809897697141,6.515795468806039,2.4868849841441634,-0.2253348536389908,1.1025554070063017,-2.436107665406266,1,right
17.339000000000002,-0.8928282470980583,1.074467049595484,-0.16828690545535196,4.190242839817371,5.719857090811843,2.3216772444828466,-0.22221867106392526,1.1488039537560333,-2.425808242696352,1,right
17.343,-0.8302348386376618,1.0754811959069501,-0.05842193542189367,4.437591935265042,6.199772708204446,2.421243812785744,-0.22463985703508116,1.1127217353728116,-2.4337680689395658,1,right
17.343,-0.7510323144699311,1.0770980558044019,0.0767324621655622,4.337631288417432,6.0048732333941715,2.3809222580004317,-0.22334955539086787,1.1323703538964813,-2.4296570724380944,1,right
17.347,-0.6661063075261364,1.0800609037696822,0.20591579018144923,4.334760075365107,6.001320132484104,2.3799429386655273,-0.22360936979878543,1.1274322467492242,-2.4301740554197933,1,right
17.348,-0.5894486559388062,1.0892317490467516,0.31580000123836627,4.389558307726608,6.104830958354409,2.401756566154584,-0.22401893598697667,1.1230934788342508,-2.432082260715991,1,right
17.352,-0.5278791503223461,1.110351773679335,0.3974773096626425,4.324358948982232,5.981075951265476,2.3757498938898767,-0.22334293995595086,1.1310220333920173,-2.429174758020745,1,right
17.352999999999998,-0.4829614610651183,1.1444672377413379,0.44206263026914805,4.374448362789355,6.077074905931741,2.3958098053558667,-0.22396581221989648,1.1234405495431412,-2.4317666630937733,1,right
17.357,-0.457653092055446,1.192613971162502,0.46308638191598495,4.349543386110852,6.026487961239723,2.3855889436325697,-0.22359073863037207,1.1290724704838402,-2.430546630934529,1,right
17.358,-0.4481591162065649,1.2474170225973344,0.4614011969804893,4.350298669338649,6.035278141208197,2.3865257768345716,-0.22363942315602686,1.1251102336032066,-2.4296712682312736,1,right
17.362000000000002,-0.4400392073765258,1.297330412195652,0.45084052663145,4.366479865116851,6.054064119416153,2.3919502240353996,-0.22390287408440118,1.1285515208782462,-2.432895413208872,1,right
17.363,-0.4205898482634731,1.3339354062570112,0.4409574312940555,4.343086227540061,6.024137038455707,2.383868608320987,-0.2234202048687729,1.1247625078809123,-2.4277928764346957,1,right
17.369,-0.3843380726153809,1.3476124796299138,0.4223778295025614,4.3634489962408995,6.05132344679572,2.3910015801599056,-0.22395135586969256,1.1285510005344441,-2.4332864724410923,1,right
17.37,-0.3331666192496207,1.3339920638951015,0.40292188202738,4.355865944879742,6.036507227227466,2.387939841262875,-0.22361815005191593,1.1267576699232282,-2.430026433198918,1,right
17.371,-0.27463420630392066,1.29557432287828,0.38598323245493715,4.342649701702831,6.033701655321556,2.3845920303108454,-0.22346147350595708,1.1232526272707086,-2.4276424026524928,1,right
17.372,-0.21848981164036596,1.236584963095929,0.3594223302780597,4.380498205348584,6.0549433788297975,2.395320782309848,-0.2243607096101502,1.13538507584019,-2.4387730509046484,1,right
17.377,-0.17516859616659733,1.1662139200755404,0.32357335799450004,4.322203944757165,6.019702348754256,2.3785777367349974,-0.2226546694531486,1.1134645945600965,-2.4180059431750367,1,right
17.378,-0.15564114202713664,1.0930539782681081,0.28036184999760105,4.3846886213114695,6.057932110442232,2.3965644292825,-0.2248537422901143,1.1414811160021783,-2.444699284776628,1,right
17.382,-0.15355625515298604,1.023092542066184,0.23153503875589496,4.3480439429753535,6.03479705681482,2.3859529887905344,-0.22301466620863108,1.1181449456474049,-2.4224042105319232,1,right
17.383,-0.16970418100280255,0.9644521655570429,0.1766383279568628,4.3191318687471085,6.02003271110333,2.3778857905003705,-0.2230771629527729,1.1185730226025,-2.4230486633019686,1,right
17.386,-0.20256632236251487,0.9183101449755191,0.11829846453164336,4.450049327497025,6.093126990382638,2.4149625171953657,-0.22654150786967214,1.163736486926124,-2.4654236691958276,1,right
17.387999999999998,-0.23609246635777306,0.8858465080979236,0.06474003465392139,4.206466298338195,5.956040663204179,2.3458806595126194,-0.21801222615647028,1.0529716483015648,-2.3612253341271416,1,right
17.392,-0.28907995615438453,0.8739981401735286,0.008818593374696313,4.519422997255042,6.132412855364194,2.434661832812673,-0.23215709557957517,1.2365607022029212,-2.5339996711070585,1,right
17.393,-0.32770440642190163,0.8720846494862576,-0.025949539326899668,4.2580682791322,5.9850241199821905,2.360505840186274,-0.21350092697637224,0.9944153556077646,-2.306114773137927,1,right
17.397000000000002,-0.3387377920762924,0.8746865523908558,-0.03413585547543324,4.265443572257814,5.989559284522386,2.36264275054073,-0.1351979527948972,-0.022308944197834912,-1.3495812023123064,1,right
17.397000000000002,-0.3852983632321182,0.8875174725066266,-0.05752018387079581,4.762829083880421,6.268820552681245,2.503634479419481,-0.11654538324007122,-0.264474885999767,-1.1217092344511361,1,right
17.399,-0.44557898451097944,0.9058102510346141,-0.08411477005118978,3.5399389420230847,5.581776409917911,2.156924962719243,-0.13068635704018183,-0.08086355423163172,-1.2944695753213464,1,right
17.401,-0.5120630122792853,0.9343893180906888,-0.10048039190432531,5.56767080078639,6.721108679140096,2.731848195539497,-0.12215560032121234,-0.19161990106175988,-1.1902659428993099,1,right
17.402,-0.5662501339712431,0.9556953096003835,-0.1127391118119104,2.8930549622925175,5.218302295850845,1.9734950191984222,-0.12563284945201292,-0.1465303854438008,-1.2326873053163885,1,right
17.406,-0.5790979734807209,0.96139211471989,-0.11353301533536547,-8.33274309097092,-1.0887118499534196,-1.2091835330572285,-0.1256675729297161,-0.14594322200630683,-1.2332319841311417,1,right
17.407,-0.6268229050320164,0.9827847536461073,-0.11760963450381534,-11.00739706102247,-2.591487542453227,-1.9675736091756748,-0.12386832465845077,-0.16950747128706176,-1.2110799911463914,1,right
17.408,-0.6955066594896251,1.009953870955267,-0.12496480266431832,-8.97962396592162,-1.4521884732541155,-1.3926104477942622,-0.12602772908759324,-0.14126385432756836,-1.23763082163119,1,right
17.41,-0.7384453256677703,1.0274244944581827,-0.12607208327949687,-10.202498347773592,-2.1392452642169895,-1.7393047996590347,-0.12433882037863557,-0.1632822794911158,-1.2169252643078257,1,right
17.410999999999998,-0.7773882788361028,1.042498366923891,-0.12251059637290618,-9.705249828100385,-1.8598738111428543,-1.5984454599825426,-0.12527208503797915,-0.15134494103069046,-1.2281781514335333,1,right
17.416,-0.7992350224421162,1.0485691558973205,-0.10963273121590986,-9.697579874840624,-1.855575696880475,-1.596023671267028,-0.12500573267029558,-0.15422165345759226,-1.2254001200848927,1,right
17.417,-0.7979948003875381,1.046879737949723,-0.09217890713948407,-9.959356999475148,-2.002624571463474,-1.6705881426970042,-0.1248615371641055,-0.15709752469532556,-1.2228190943519186,1,right
17.422,-0.7793535383434522,1.0406089398994962,-0.07591574915493976,-9.645979767171047,-1.8265907832520223,-1.5814001834753975,-0.1251606887213242,-0.15198058816081766,-1.2274792286347491,1,right
17.423,-0.744729384009671,1.029992048256438,-0.06501778397728758,-9.889744071646783,-1.963531144567357,-1.6506576105533097,-0.12486303504027516,-0.15682854381730393,-1.223041379751712,1,right
17.425,-0.6973501903754719,1.01888027844198,-0.06325676660755764,-9.759188137819777,-1.8901461605382432,-1.6139300832429395,-0.12512800954340028,-0.15339705498988315,-1.2262709601137085,1,right
17.426,-0.6362526992074639,1.0099360640205655,-0.06607634184468575,-9.786936342982266,-1.905846751044578,-1.620872221086071,-0.12483364147006262,-0.1553933442622568,-1.2241632322822293,1,right
17.429000000000002,-0.5674565782178148,1.0068650719640204,-0.07571948450581076,-9.825586017125154,-1.9273687270479511,-1.6334222968138397,-0.12524278404383926,-0.15425361230002804,-1.2257604487844347,1,right
17.43,-0.4934839641939491,1.006336804700625,-0.09193373443647518,-9.76064113227983,-1.8911184976530608,-1.6130562972121099,-0.12469555181950456,-0.15513400350159884,-1.2241487692109638,1,right
17.435,-0.41202161726089903,1.0058351502156984,-0.11011328752483474,-9.820896155443183,-1.9247815261707033,-1.6316964134958727,-0.1252671362620153,-0.15434833524934632,-1.2257232510793783,1,right
17.436,-0.3206654117231481,1.0098189211068371,-0.13273670150162503,-9.783066585942667,-1.9035253320347418,-1.6209841712657842,-0.12495548326881248,-0.15456107791841828,-1.2250403292047394,1,right
17.439,-0.22489272616694986,1.0158267851682696,-0.15196476903831016,-9.79264082044732,-1.9092601943437248,-1.6208124287876826,-0.12459472846469077,-0.15593883964629057,-1.2233281598711725,1,right
17.44,-0.13196193128848016,1.0206975710026263,-0.16493431977842268,-9.808544424946362,-1.9173827509281405,-1.631918236849851,-0.12602274084863468,-0.15186438639021121,-1.2289824207115256,1,right
17.445999999999998,-0.04274222770313279,1.025319489933978,-0.18316037918059178,-9.775770861653108,-1.9001816084922842,-1.6127842433868942,-0.12340176710067928,-0.1590673637912701,-1.2188284981480462,1,right
17.447,0.037809761336140335,1.0281390432056416,-0.20071505900772318,-9.812392113314962,-1.9194648807720618,-1.6336599428708034,-0.1267610116693227,-0.14989789875068987,-1.2317920908240751,1,right
17.449,0.10884041840601404,1.0307857737248773,-0.20706507922649647,-9.788572504425417,-1.9068275897712161,-1.620841950434515,-0.12395918402003327,-0.15752049621845934,-1.2209996949033763,1,right
17.45,0.17429754597645877,1.0318527769180208,-0.20203844883188787,-9.781218496098091,-1.9033419089320467,-1.6135351305204249,-0.12402516757616361,-0.15743816750821016,-1.2211759077847153,1,right
17.457,0.23209738207406144,1.0291212441874915,-0.1889899100864148,-9.834972688934585,-1.930722623497315,-1.6516413242808565,-0.12939966039715378,-0.1424976259836694,-1.2421348589246066,1,right
17.458,0.2832364958792879,1.0257699368809958,-0.17426715645329105,-9.731394675077638,-1.8777561764156474,-1.5798647796079068,-0.1162017678353603,-0.17907260949481013,-1.1907570777320755,1,right
17.459,0.3253284306823093,1.0189450664453,-0.1540376392527404,-9.865263306837,-1.9462590544515246,-1.6722811088671268,-0.13808095779786045,-0.11846871158414116,-1.275908292711764,1,right
17.459,0.3458184961030339,1.0131395175520144,-0.13682837167348033,-9.753155633825283,-1.8888698856282338,-1.595021066361722,-0.10922336751050951,-0.1984000042285475,-1.1635974609869137,1,right
17.464000000000002,0.3487857413551079,1.0121418459499376,-0.1321377063547787,-9.757532882085108,-1.891187805152091,-1.597511064112641,0.011923509192532745,-0.5340966774123044,-0.6920067243315143,1,right
17.465999999999998,0.35457825374220653,1.0059195761775976,-0.12219031060012651,-9.966880910175918,-1.9981104968001269,-1.7435341795764898,0.0407804428658661,-0.6140380170991228,-0.5796826106724308,1,right
17.467,0.356080587721954,0.9977950516990043,-0.11015764499575859,-9.450759434683302,-1.734405279602397,-1.3841455825370805,0.018902861883821665,-0.553425982949676,-0.6648474681348576,1,right
17.47,0.33511407572492163,0.9924199020542726,-0.10905697481604451,-10.306901756271014,-2.171874824573431,-1.980166463245213,0.032097841895782846,-0.5899871482723517,-0.6134777299041767,1,right
17.47,0.3175616935341695,0.9872575554574692,-0.11008960621579006,-9.177644881905142,-1.5948337746199428,-1.193987243698142,0.026727554076434974,-0.5751026285630125,-0.6343837000065355,1,right
17.474,0.31146249142267346,0.9860967899000256,-0.11111633365030166,-4.439291025859969,0.8261616722601999,2.1051906446957327,0.026656906481070414,-0.5749130994045639,-0.6346703582214139,1,right
17.475,0.2859020579544368,0.9862418350282067,-0.11163474725138439,-3.3102400473093896,1.4031130998784187,2.891358938319546,0.029461911778040497,-0.5826787220073772,-0.6237224484137643,1,right
17.476,0.2538658246948232,0.9852806521323562,-0.10435958749941607,-4.166159588713388,0.9657405328209197,2.295349880599052,0.026103887040668,-0.5733801730222603,-0.6368373499605726,1,right
17.479,0.2299867003621559,0.9874745222986587,-0.09288169210446182,-3.6499534393666315,1.2294825850724926,2.654742967020095,0.02871619287466821,-0.5806140758826164,-0.6266247339511244,1,right
17.48,0.2040481991294224,0.9926687333870386,-0.08685503086988852,-3.8600402971353676,1.1222383405333223,2.5086806532990886,0.02730589403279837,-0.5767075515186144,-0.632133870306336,1,right
17.485,0.18210585920554423,0.9972050244283558,-0.0867315675347238,-3.8628277907085478,1.120612342842845,2.5062750045466737,0.027641862228312955,-0.577642564989644,-0.6308630497082227,1,right
17.485,0.16417099554588066,0.99879548593948,-0.08925708889882003,-3.75299955886306,1.1770093879656738,2.5834141004983993,0.027977904638215284,-0.578562443259572,-0.6294345015522259,1,right
17.489,0.1474547206053496,0.9985300951169037,-0.09717062863506162,-3.884598273575936,1.109494518279561,2.4911182177661515,0.027395837321371977,-0.5769681190837868,-0.6319083024495765,1,right
17.49,0.13688910808612773,0.9967206123147236,-0.11169308933193,-3.7819998156617323,1.1620345462750168,2.562842775279174,0.027922380968999044,-0.5784048326870714,-0.6296031661848815,1,right
17.494,0.1307315292755566,0.9920567890337817,-0.1312622160821554,-3.8377029161819536,1.1338056749214855,2.5246331911879833,0.027579903196096413,-0.5774734577123668,-0.6311400628554316,1,right
17.495,0.12425278212922276,0.9876250846259715,-0.15472226298857916,-3.8240704312170477,1.1400239444962406,2.532273125968171,0.027759335418418442,-0.5779708334861527,-0.6304433855104218,1,right
17.5,0.11948269247885684,0.9848418228573745,-0.17442599384791116,-3.8110691856499996,1.1479526211770454,2.5445171101823334,0.027635723691557288,-0.5775957741984963,-0.6305464882072573,1,right
17.500999999999998,0.11642378115877625,0.9794542046217771,-0.18951230989243217,-3.8344132909676274,1.1344482638232365,2.5243459023246357,0.02781978732307921,-0.5781800848179208,-0.6306940342720937,1,right
17.504,0.11100690813496805,0.9723575662712864,-0.20260906414089208,-3.8122253594246174,1.1470417818409149,2.5429181819810074,0.027522408075775058,-0.5772452539060614,-0.630562661341519,1,right
17.504,0.10569284869559802,0.9669516207595182,-0.20863145823223173,-3.8282222649066213,1.138879071217496,2.531807504008899,0.027869673644693272,-0.5783257212157109,-0.630584842481905,1,right
17.507,0.0980491374584915,0.9625033504178316,-0.21377892268862816,-3.818154735784222,1.141692661431363,2.5330213273313684,0.027669437347540807,-0.5777023386327913,-0.6305706376886202,1,right
17.508,0.08488693681101796,0.9576771330988291,-0.22027011803514293,-3.8252150036036787,1.1434111523317296,2.5413518216472433,0.02742933158767409,-0.5769787295722926,-0.6308204120301435,1,right
17.512999999999998,0.07005965056965241,0.9515209919781968,-0.22274419888985206,-3.8185001796051257,1.13889652356004,2.5262650843380214,0.02839254613271822,-0.5799044907290405,-0.6300667679071901,1,right
17.514,0.055077114376931094,0.9454773351401817,-0.22378851973038477,-3.8249485870546005,1.1440722448052294,2.542842854067023,0.0266108224097596,-0.5744906066218382,-0.6314472684072134,1,right
17.517,0.039814635135758225,0.9402548536713061,-0.2215890812514248,-3.8223445813481995,1.1405076702208712,2.532482007565381,0.028903984963754927,-0.5814577994489263,-0.6296531991138518,1,right
17.518,0.024972796607996322,0.9357658986264591,-0.21842149634926,-3.8145387885038757,1.140279036990918,2.527425842580233,0.026987337076676363,-0.5756340954221131,-0.6311604989338863,1,right
17.522000000000002,0.010531175044932029,0.9321553560218268,-0.21468478289537907,-3.839600439105616,1.1459349719954444,2.5558969330066477,0.027031361787697016,-0.5757724017758907,-0.6311480582098491,1,right
17.524,-0.00457181523212162,0.9265141211546555,-0.20572741060365596,-3.7947634497200604,1.1346056521901495,2.501952196063343,0.030718056658495856,-0.5869599444058127,-0.6281545448263474,1,right
17.528,-0.01933049598684862,0.9213730140677672,-0.19524182561891956,-3.8519714654224484,1.1493418960980315,2.5714768827275067,0.02166355101858864,-0.559476631317163,-0.635489695220802,1,right
17.529,-0.03552954424680796,0.9191314911095718,-0.18526925476575262,-3.8043548320334604,1.1369623022152702,2.5133297829401906,0.036675642976029606,-0.6050470442865727,-0.6233269795457478,1,right
17.534000000000002,-0.04733006089212886,0.917153618625631,-0.18023558227188566,-3.805084507126582,1.1375920558495811,2.51530379406115,0.016874279860810373,-0.5449347739106206,-0.6393748608459426,1,right
17.535,-0.0495711917116326,0.9162515408891232,-0.1784550734664938,-3.8977259886007527,1.160232117947797,2.6248666022289178,-0.06627421794822261,-0.29256736436760833,-0.706823142075993,1,right
17.535999999999998,-0.057387209873096326,0.9150046924089346,-0.173285455509409,-3.6706727031641315,1.1042371032275464,2.355102387873141,-0.08607607363151318,-0.232447411447744,-0.7228785818372847,1,right
17.537,-0.06794158293810024,0.9145140661531606,-0.16924994492512657,-4.046981759585565,1.1971705403618351,2.8025061537490905,-0.0710621389220435,-0.2780297644763204,-0.7107025906907224,1,right
17.537,-0.06871462359356437,0.9163401384395486,-0.16728961665580228,-3.55063160664947,1.0745832893434821,2.212372677188374,-0.0801210813015619,-0.250536762082489,-0.7180526870209032,1,right
17.543,-0.06789253777521571,0.9169238744180721,-0.16551340126484476,-1.466790203539558,0.5605048724385071,-0.2640887151388338,-0.07642658959983435,-0.26172322571900225,-0.7150490755611618,1,right
17.543,-0.0672607476885094,0.9196608757377027,-0.16052927223076643,-0.9703811982001362,0.4379575660706542,-0.8541690343879229,-0.07639295092437356,-0.2618815526513981,-0.715033493559488,1,right
17.544,-0.0644713441278088,0.9247570289367231,-0.1530190274546654,-1.346703924497512,0.5308392443641201,-0.4068300794004256,-0.07829982328408926,-0.25601497269768014,-0.7165652080473514,1,right
17.547,-0.060560079995722674,0.9290878070722279,-0.15124692043061772,-1.119851973967161,0.4748580463387471,-0.6765903173880639,-0.07601000447930657,-0.2630425622183566,-0.7147219551424153,1,right
17.548,-0.053620724934578326,0.9348975975309395,-0.15203243979318612,-1.211917096458146,0.4975790940075061,-0.5668900269970633,-0.07780215327881301,-0.2575697456994636,-0.716169865881122,1,right
17.552,-0.04598239092557975,0.9380361308176227,-0.1532489937008051,-1.2136429416547652,0.49799292963575253,-0.5652474288340344,-0.0768087197877925,-0.2605193928289532,-0.715352022144977,1,right
17.553,-0.03724935946033233,0.9400466134753688,-0.15469290145616765,-1.1647933025585284,0.4859562776538696,-0.6228908458806052,-0.0770991244259144,-0.2598491479279334,-0.7156255081717405,1,right
17.555,-0.024872330301016328,0.9464900553081368,-0.15390570817460436,-1.2229851870118968,0.5003093541973662,-0.5539033259646382,-0.07723939688040493,-0.25905985237815965,-0.7156743732532014,1,right
17.56,-0.01144302084970413,0.9516740177671574,-0.15451994417189463,-1.178176677253853,0.48922274128669185,-0.607550170495383,-0.07693737140943827,-0.2604224636724208,-0.715508814486292,1,right
17.56,0.0004652165864381301,0.955495227301801,-0.1527344841887804,-1.201349647838347,0.49502941114243687,-0.5787701529937574,-0.07724102299710353,-0.2591454182228863,-0.7156918992663599,1,right
17.564,0.00784948368229725,0.959779554030625,-0.15289409109928281,-1.1978320445307782,0.4940084838744085,-0.5850835467699034,-0.07695957030055837,-0.25999658816242377,-0.7154630025090314,1,right
17.564,0.012955977262551217,0.9627450611199266,-0.1571968390210125,-1.1888588098659745,0.49198320535666545,-0.5931293419055423,-0.07729504654778915,-0.2596375126828593,-0.7158524092266383,1,right
17.569000000000003,0.020235939708287583,0.965949254790286,-0.1528886456731448,-1.2020410776679316,0.495084875751507,-0.5795507493072791,-0.07680825613392253,-0.259608585915338,-0.7151896065427756,1,right
17.570999999999998,0.023395579599078873,0.9672584549988119,-0.14644637285843076,-1.1915755217491475,0.49250011908698904,-0.5920102813812592,-0.07746742939989387,-0.25985522633562624,-0.7161239693333564,1,right
17.574,0.019909663419993465,0.9673865004025329,-0.139848937994887,-1.1948774686645516,0.4935995650194082,-0.5842000099418376,-0.07677720781949539,-0.25955439428417204,-0.7151380531081637,1,right
17.575,0.014674974872011453,0.9693622880547208,-0.12640926632822105,-1.200316807518961,0.4942916348158129,-0.5866142542771962,-0.07715634250482853,-0.2597880567687133,-0.7156917636180085,1,right
17.579,0.005948319285809783,0.9713631167653038,-0.11621290200786555,-1.1876288032934235,0.49213084997615253,-0.5884479488117793,-0.07758068010581592,-0.25969308931474616,-0.7162481228143438,1,right
17.58,-0.005385665111537319,0.9718540358519409,-0.11212235917707027,-1.2028281911738192,0.49484708994771875,-0.5845043979552385,-0.07588314086075373,-0.25962355497138334,-0.7139425655359093,1,right
17.584,-0.016175995208843434,0.9714819629136676,-0.11051513897469731,-1.1929237784998121,0.49300073664712485,-0.588116717006776,-0.07900250648541232,-0.25984007372724977,-0.7181949724050318,1,right
17.585,-0.030514384679670464,0.9721202181666717,-0.1106468915730211,-1.1878745391098824,0.49227036801974045,-0.5870835435672741,-0.07500344937655246,-0.25954240705185283,-0.7127397888846145,1,right
17.588,-0.045016254999195496,0.9738591332445385,-0.10972950744358584,-1.2164087446893603,0.4970555333765215,-0.5839545087944531,-0.07833960801153286,-0.2597988630230723,-0.7172921319633455,1,right
17.589000000000002,-0.05767444693519155,0.9770570978203158,-0.10480272997906397,-1.161970930299732,0.4878060808094445,-0.5915648799666381,-0.07825897558212029,-0.2597614237935404,-0.7171765784012751,1,right
17.594,-0.07120972480947736,0.9812455736392515,-0.09583047640330655,-1.2324200229890445,0.49981810788917497,-0.5811413169464206,-0.07186552906573238,-0.25937248431530974,-0.7084705934417965,1,right
17.596,-0.08342715071411785,0.98263669583547,-0.0842641425187467,-1.1733737459475737,0.489732638140904,-0.5901187974396641,-0.08756880096175212,-0.26036436478179387,-0.7298602555293963,1,right
17.601,-0.10432763872452991,0.9826769910910159,-0.07086342553070857,-1.1753294129643153,0.49009394356833086,-0.5894512539612815,-0.06153445375581369,-0.2587105507928861,-0.6943968605356838,1,right
17.602,-0.12164310342286849,0.9841299837624096,-0.06379498871925901,-1.2869681760869627,0.5090899906513315,-0.5734622369827237,-0.09587413330739303,-0.26089261841817135,-0.7411736549271639,1,right
17.602999999999998,-0.12414295361138118,0.9844427937388469,-0.062464246770473485,-1.0120561924967004,0.46227213233185754,-0.613375540249097,-0.2400249266021663,-0.27000857461937855,-0.9375253246989075,1,right
17.604,-0.1392196978567591,0.9833894812023296,-0.0596950412829987,-1.4680690005900834,0.5399468186383467,-0.5469652123686418,-0.27436783584980506,-0.27218681835710473,-0.9843056672108287,1,right
17.604,-0.15385100234951432,0.982391122662246,-0.059818281552306556,-0.8665177129564253,0.4374762141531354,-0.634645155922395,-0.24832905900026214,-0.27053710286673827,-0.9488372281424531,1,right
17.608,-0.155541088012646,0.9822048532015556,-0.06046752443138833,1.6582145249209357,0.007424678892283876,-1.0023526497155437,-0.2640343148325342,-0.2715306939059591,-0.9702296991870614,1,right
17.608,-0.16775743888856987,0.983919507852097,-0.0574498972245438,2.259786687077581,-0.09505148134234104,-1.090051348197703,-0.2576456293841456,-0.27112774838923637,-0.9615276470979833,1,right
17.609,-0.17999872181086304,0.9853533271162364,-0.05181862111524892,1.8037038693654297,-0.017358800302414937,-1.0235685204040315,-0.2575501900598094,-0.2711202561229667,-0.961397751856547,1,right
17.613,-0.1855248328055783,0.9858537210890841,-0.04776981172314758,2.0787752428871857,-0.06421681930154681,-1.0636590293149086,-0.2609112319728111,-0.2713339253834443,-0.9659753654333264,1,right
17.614,-0.19034554682871763,0.9875744495471213,-0.05028597331479953,1.9668650897043685,-0.04515320291621874,-1.0473560845049836,-0.25688283288104996,-0.27107867652164086,-0.9604891374177732,1,right
17.618,-0.19028311040511517,0.9894595025659302,-0.05077855425519998,1.9652619987187232,-0.044878820448773386,-1.0471093068962745,-0.26002333362720353,-0.2712772434301457,-0.9647658596235169,1,right
17.618,-0.19080525737337337,0.9904408542850556,-0.04984028189651435,2.023987978783592,-0.05488646506967933,-1.055687402137129,-0.2583314622683968,-0.27117047638417674,-0.9624617966584608,1,right
17.624000000000002,-0.18944457759805378,0.9919272237187984,-0.05642399039609167,1.9536264691201954,-0.04289347146505412,-1.045406843045292,-0.2587039483794415,-0.2711940556710916,-0.9629700540742745,1,right
17.625,-0.18479181348892804,0.9926323813764076,-0.06202423932445067,2.0084561346907495,-0.05224327825141694,-1.0534284813374368,-0.25919149355521925,-0.2712242462296745,-0.9636312169144198,1,right
17.628,-0.18252705234198105,0.9910963654459135,-0.061780315923274216,1.9788567163736865,-0.047191602570888155,-1.0490868072047044,-0.2583479805989273,-0.2711722874850101,-0.9624873429989454,1,right
17.628,-0.17791817141654026,0.9917515041658872,-0.060595548457886436,1.98563413970473,-0.04835010067607902,-1.0500849517638056,-0.2591595991465986,-0.27122176526404895,-0.9635865962991377,1,right
17.633,-0.1738073558760779,0.9947657929614709,-0.05933363948223158,1.9935277087323793,-0.04970309216854973,-1.0512616474579426,-0.25860458401562325,-0.2711882018822538,-0.9628355992469285,1,right
17.634,-0.1738632170302061,0.9967282110110472,-0.0610343598983591,1.97976929347579,-0.04733286240037391,-1.0491767614735226,-0.2588167614988386,-0.2712016128904355,-0.9631246698804053,1,right
17.637999999999998,-0.1729422863625172,0.99925608419556,-0.06739265723744929,1.992842592456142,-0.04960543502459025,-1.0512176308999106,-0.2589433525761776,-0.2712067526232287,-0.9632877774742076,1,right
17.639,-0.17165268814045814,1.000421117062423,-0.07211282969338703,1.9838748023944401,-0.0480219228587406,-1.0497451054419482,-0.2585369894113209,-0.27118765541858136,-0.9627555482220631,1,right
17.643,-0.16981398380278237,1.0004923759949271,-0.07431135714411861,1.987961000482425,-0.04876251577575559,-1.0504722589046898,-0.25911605391159864,-0.27121440384737205,-0.9635125694863699,1,right
17.643,-0.16948073908579608,1.0034328804626518,-0.07675563996275955,1.9879466745252417,-0.04876050220121833,-1.0504717176232576,-0.2585347975692635,-0.27118816822196956,-0.9627546271310907,1,right
17.647000000000002,-0.17222433596406186,1.0059037145119327,-0.07630037091594966,1.985270183372019,-0.04822188563327563,-1.0498366214145451,-0.25887108186806973,-0.27120338218077755,-0.9631932149239222,1,right
17.648,-0.17365271450424896,1.0057784712748346,-0.07387629024151818,1.9893160018540497,-0.049099995842531656,-1.0509856616722164,-0.2590808242704076,-0.27121132471280474,-0.9634619421230686,1,right
17.652,-0.17605704904661015,1.0050408096780044,-0.07116824063952437,1.984985703104987,-0.04808052817031387,-1.0495202687935024,-0.2580590224052367,-0.27116978368638556,-0.9621439992265242,1,right
17.652,-0.17780523019759786,1.0042252517484371,-0.06872489683612923,1.9886051058376084,-0.048997493994940286,-1.0509370338329491,-0.2599592452110026,-0.27124724590166194,-0.9645954920358477,1,right
17.657,-0.1765113451135685,1.003429274665791,-0.06955690196678013,1.986832313272154,-0.04852193389223351,-1.050164902661948,-0.257525767944358,-0.27114809485975655,-0.9614563462886677,1,right
17.658,-0.17639995890276894,1.003196994467062,-0.0717051252119088,1.985436950739972,-0.04813459734268777,-1.049518532777722,-0.2595545384875604,-0.27123084641152917,-0.9640734758713747,1,right
17.662,-0.17330278785173198,1.0039855231794141,-0.07525305658987591,1.991160997492966,-0.049764524506769485,-1.0522912991986613,-0.2594907190470689,-0.2712276723452537,-0.9639899040305526,1,right
17.663,-0.1685174866337168,1.004743300115266,-0.0815984479806566,1.9809117745262692,-0.0468041999173351,-1.0472026164855215,-0.25565936803408734,-0.27107313906334113,-0.9590515812777665,1,right
17.667,-0.16427383533250287,1.005590849339504,-0.08463028308113833,1.9938189093072909,-0.05056218388298053,-1.0536997517416107,-0.2650836781444311,-0.2714541421562646,-0.9712005061630701,1,right
17.668,-0.15145713630262553,1.0056333936777855,-0.08306215739221684,1.983154166662863,-0.04744383985575716,-1.0482918304745024,-0.2494577339796976,-0.27082194001730103,-0.9510562422321681,1,right
17.672,-0.13909614646754576,1.004280933519372,-0.08310898497186509,1.9834577851443804,-0.04753036474917932,-1.0484402165306737,-0.270066675203168,-0.2716560742341399,-0.9776248354283177,1,right
17.673,-0.1362543787588203,1.0044390729144528,-0.0823857877107455,2.00356051800058,-0.05343798859763499,-1.0587185698970485,-0.3565342710136784,-0.27514401385834264,-1.0890764996027278,1,right
17.674,-0.1267651461563548,1.003060750105759,-0.07873869771424256,1.9542122179408663,-0.03892879228326028,-1.0334648545837868,-0.37713931284632857,-0.2759775012422796,-1.115639131814631,1,right
17.676,-0.10872917360329995,1.0003633970708945,-0.07988974883001326,2.035967061258608,-0.06297460544555612,-1.0753269793271247,-0.3615214220104086,-0.27534762169674015,-1.095508775767453,1,right
17.677,-0.09976103822696711,1.0014127114921743,-0.08319211481265512,1.9281826184676625,-0.031265173637293045,-1.0201178108624847,-0.37093375500656156,-0.2757231430900703,-1.1076337354090295,1,right
17.678,-0.09689019018631803,1.0016337720771407,-0.0839578620451463,1.475907891261354,0.10186359554342986,-0.7883818449549904,-0.36711640948808544,-0.2755781381879153,-1.1027284829431583,1,right
17.682000000000002,-0.08641898517253377,0.9997443981915856,-0.08777664803197796,1.368157852704508,0.13358076754807507,-0.7331732681617549,-0.36704116120450625,-0.2755623789828442,-1.1026101412631042,1,right
17.683,-0.07355287727522342,0.9989044041847885,-0.09152884196556342,1.4498580015306561,0.10951466857887446,-0.77503704523834,-0.3690713421667656,-0.27565683712661126,-1.1052479932022596,1,right
17.687,-0.06298067806201753,0.9980888523924026,-0.0907921304729442,1.4005574279595534,0.12406287057521827,-0.7497749663327482,-0.3666551675136549,-0.275553945458774,-1.1021245995944007,1,right
17.688,-0.05100840810314653,0.9984842890173673,-0.09097564473441636,1.4206560559453294,0.1180960444539502,-0.7600721839050889,-0.3685131854224439,-0.2756183206490288,-1.1045017248258453,1,right
17.691,-0.038419265901131316,1.0012819565294175,-0.09426987068076266,1.4208832722406948,0.11807879419907216,-0.7601911640057861,-0.3675565743332965,-0.2756138664895039,-1.103325956609446,1,right
17.692,-0.02452533025376996,1.0046997461948681,-0.09796649442928475,1.4103963226926723,0.12114432999363065,-0.7548164536537769,-0.36769402918303984,-0.2755606191803719,-1.1034045593797026,1,right
17.695999999999998,-0.007952370818050739,1.0090923024754623,-0.10031729260461442,1.4230411477026366,0.1173808337819996,-0.7612916950670265,-0.36807669298956325,-0.27564818088226617,-1.1040186778823844,1,right
17.695999999999998,0.010239815779351721,1.0176037629703791,-0.10318133939347668,1.4130634730159009,0.12045141049791225,-0.7561917103458544,-0.36752153252029773,-0.27556829411407885,-1.1032067988468872,1,right
17.701,0.030581794881550953,1.0250601886575414,-0.10832115376509499,1.4186477914390245,0.11857767406855195,-0.7590310739609878,-0.3679557794392093,-0.2755853167213558,-1.103765574172678,1,right
17.703,0.053857058577757536,1.0273883056541153,-0.1118126296938508,1.4170748076967394,0.11932273426214807,-0.7582524416177305,-0.36783360718969893,-0.2756870041708867,-1.1037869637211077,1,right
17.707,0.07728830563718149,1.0314275687856718,-0.11597251361112704,1.4159641934734595,0.11942480154562021,-0.7576614483984583,-0.36757401563775915,-0.27543286788676935,-1.103043795445803,1,right
17.708,0.10033201418150221,1.0339600030735343,-0.12264011667361815,1.4183931837370447,0.11870806986445827,-0.7589056715807362,-0.3681509770614886,-0.27581965299618555,-1.1043968205993828,1,right
17.71,0.1226194706545338,1.031979385055772,-0.12048934209822536,1.4155754135816037,0.11995394448849105,-0.7575032892045439,-0.3674665708712541,-0.2754045271132657,-1.1028652707014206,1,right
17.711,0.14004821050879984,1.0312808117650512,-0.11296201573152606,1.4183392102022094,0.11818833150112862,-0.7588249231121774,-0.36790844940775685,-0.2756462742255055,-1.1038097138766765,1,right
17.715999999999998,0.15334433675356585,1.0283893665382056,-0.11296169247950937,1.4158246808353794,0.12034909110591921,-0.7576774133314835,-0.36814499500906783,-0.27584879327624845,-1.1044388002110366,1,right
17.717,0.16403949478329455,1.0223452900878574,-0.11844082343113488,1.4177961537580308,0.1182540495471432,-0.7585375152334151,-0.3668435440308515,-0.27495163499358133,-1.1013446584110043,1,right
17.722,0.1726639268803253,1.016281151545026,-0.1288841339801861,1.4170201043757356,0.11935831723170663,-0.7582262353011502,-0.36931983053880135,-0.2766179938521903,-1.1071627257567316,1,right
17.722,0.18137049996851745,1.0122900244625725,-0.14091802795916267,1.4155848710620424,0.12053377763026052,-0.7575664434452936,-0.3661177838893077,-0.27447736590714256,-1.0996641072160396,1,right
17.725,0.1910479318893828,1.0134404339941303,-0.1452280694207328,1.4202488020594253,0.11586130661831412,-0.7596276948082759,-0.3688000839337696,-0.27626489402117244,-1.10593469811515,1,right
17.726,0.1998714100923929,1.0141739660620581,-0.14465888721924464,1.4120721729894967,0.12438902337249687,-0.7560463103102502,-0.3687139142595511,-0.27621582455997196,-1.1057505495093696,1,right
17.730999999999998,0.20400488489629615,1.014098353077175,-0.14506436939021616,1.422359433532751,0.11349972704287081,-0.7605373423329691,-0.36363573186117837,-0.27280917440492625,-1.093833400060567,1,right
17.732,0.20526854160192234,1.0185936277042635,-0.14845574411955254,1.4138657763815865,0.12256520979783846,-0.7568351267885097,-0.37613618797649373,-0.2811833486553923,-1.1231424593473778,1,right
17.735,0.20376366982139338,1.0225359431369607,-0.15241628076853944,1.414005541347763,0.12234083822357682,-0.7568923182847808,-0.3554036849348787,-0.2672981221469035,-1.074543447216173,1,right
17.736,0.1996737138016073,1.0230048487967958,-0.15211206775558328,1.4303750122357386,0.10501672256199068,-0.7640332370463804,-0.3827507678914582,-0.2856129231375203,-1.138641872019756,1,right
17.74,0.19878655061565137,1.0240903836146191,-0.15133219062015474,1.3903062124058843,0.1475601152999321,-0.7465598753903229,-0.4975501810684678,-0.36248699590379074,-1.4077618077779772,1,right
17.74,0.19524595552713542,1.0246775734827467,-0.15359550409615152,1.456653999179597,0.07703783286368802,-0.7754916921246806,-0.5248945996503946,-0.3808020722506679,-1.4718489061747777,1,right
17.741,0.18992246216444433,1.0232025326396426,-0.1552620742169885,1.3691988291794455,0.1700500750975516,-0.737354068857806,-0.5041632661494171,-0.36691647966937535,-1.4232599419341267,1,right
17.745,0.1896661184588705,1.0232324806308053,-0.15453543409864018,1.0019793343450458,0.5604487445883841,-0.5772390627139257,-0.5166708866192325,-0.37529078202056526,-1.4525814775890653,1,right
17.746,0.18301533085809538,1.0239771359683054,-0.15556889269138274,0.9146056891479275,0.6534643864965684,-0.5391276546103227,-0.5115706323758031,-0.37188462239904324,-1.4406075663930713,1,right
17.746,0.1684464676326265,1.0284092894769525,-0.15885974043560064,0.9808145317258825,0.5829401742762818,-0.5680125956035625,-0.5115235957988303,-0.37183416500996935,-1.4405347835767215,1,right
17.75,0.15463671462647177,1.041732438527446,-0.1610742535684203,0.940891906215091,0.6254759749824825,-0.5505940188782017,-0.5141564778340375,-0.3736239493201037,-1.4466543165211323,1,right
17.750999999999998,0.14268234259136112,1.0548256516267887,-0.16369143412890402,0.9571834471087558,0.6081768282333015,-0.5576938369407076,-0.5109952836498239,-0.3714807421804839,-1.4392953555236585,1,right
17.755,0.13610943928938612,1.061859475023008,-0.16631667530534866,0.9572433629885756,0.6079072618585243,-0.5577491511350735,-0.5134694627215703,-0.37314883134098575,-1.4450731527502534,1,right
17.756,0.13780342243389546,1.0676629066616516,-0.17211272619859566,0.9490623662309474,0.6170307176811071,-0.5541219307557248,-0.5120971703354422,-0.37225246514693944,-1.4418130248128238,1,right
17.759,0.14584488128282447,1.0741733388764545,-0.1825911726125291,0.958790742651653,0.606092217347524,-0.558447969868888,-0.5125003932068833,-0.37244998508225025,-1.4428975563773032,1,right
17.76,0.15579628631506834,1.0813551962532095,-0.18874748903378813,0.9513149393838799,0.6146253390080436,-0.5551054844758438,-0.5126900075900256,-0.3727017354296305,-1.4431022359921206,1,right
17.764,0.16631216531105722,1.092337096294546,-0.18875121144091467,0.9553995724583677,0.6100315766128621,-0.5569219801675395,-0.512278097073978,-0.37227285726112164,-1.4424307814366695,1,right
17.765,0.1743825746810086,1.1095460056128048,-0.18795375828998673,0.9540081948598875,0.6110162405073092,-0.5563857924365859,-0.5126932379813021,-0.37267281144138076,-1.443169487248926,1,right
17.77,0.1756991804542246,1.129024460760105,-0.18738533168336852,0.9541910479750976,0.6124135992885967,-0.5562389756327091,-0.5123045906878123,-0.3724137154694219,-1.4422564749941884,1,right
17.771,0.17451715946815197,1.1509093585397148,-0.18439960333606575,0.9538871289197632,0.6099968070320008,-0.5564963670018719,-0.5127755147378421,-0.37250261359778203,-1.4437950126155277,1,right
17.775,0.16862347222824675,1.178382299063697,-0.17991071751366683,0.9548278904283967,0.6123572426550118,-0.5564283429199217,-0.512085709971521,-0.3725580688489728,-1.441184610557209,1,right
17.775,0.15453406999220842,1.2069974315631968,-0.17075637742671132,0.9538440546000997,0.6107245564383588,-0.5563804808595264,-0.5130222474370894,-0.3724134790204846,-1.4448620822623972,1,right
17.779,0.1392126607996878,1.2326356296194059,-0.15537083099725246,0.9532827629737598,0.6112984278368809,-0.55613919746809,-0.5120410882284088,-0.37257902021257794,-1.4409820040869135,1,right
17.78,0.12257411436347174,1.2550404204565186,-0.144561208894245,0.9574068836469509,0.6118807513349077,-0.5572302203031111,-0.5125808287709828,-0.3724653745623857,-1.4431605091754822,1,right
17.784000000000002,0.10626069585277384,1.2769541266354647,-0.1367572154476595,0.9482798447384021,0.6102321936136306,-0.5548665984060817,-0.5131807794275633,-0.37245696885675383,-1.4453531964138941,1,right
17.785,0.09198957951080552,1.2987864577306236,-0.13135721117772048,0.9619651646140932,0.6126186254402154,-0.5584230844862508,-0.5107754989224091,-0.3726400159660296,-1.436271603091642,1,right
17.789,0.07334427932365005,1.3213691268367507,-0.13915944647372247,0.9472841474681113,0.6101714450542324,-0.5545914749925823,-0.5151964086940634,-0.37227450933462003,-1.4530212372942364,1,right
17.79,0.051783460064816524,1.3507907720246,-0.1564986407311581,0.9557665703132995,0.6115879762278158,-0.5568054555155781,-0.5095285562266558,-0.3727492069789161,-1.4315337500728904,1,right
17.795,0.027746371607211943,1.3847775440597916,-0.17852197321117944,0.9632799435653091,0.6125877001859085,-0.5588011558776605,-0.5142569279984757,-0.37235136697767135,-1.4494656782562267,1,right
17.796,0.012526738474743119,1.4269613870373443,-0.2080317344489406,0.9306566358784749,0.6079220314199745,-0.5501786089792025,-0.5141424030652086,-0.37236941473290697,-1.449009225364429,1,right
17.799,0.00927610640318725,1.4748123119165115,-0.24278965730980792,0.9911458120243696,0.6165927042983486,-0.5661649116964046,-0.5050818159313764,-0.37310228613287344,-1.4147185030881277,1,right
17.799,0.01973797263991698,1.525512754612814,-0.2778707825950602,0.9134557201018266,0.6054728130326597,-0.5456288848909638,-0.5273361637245721,-0.3712942232915084,-1.4989701406415472,1,right
17.803,0.06927671181104313,1.592847094202051,-0.30531168311676116,0.9783263233142833,0.6147546080567756,-0.5627789928235758,-0.4904409290666927,-0.37429149398271466,-1.359280803324149,1,right
17.804000000000002,0.1198533946417614,1.6403044456435374,-0.3105647612340722,0.9765838444490816,0.6144649758410631,-0.5623187415225477,-0.5391060494677995,-0.3703417283843642,-1.5435365335987439,1,right
17.809,0.140606553356567,1.6539457328430083,-0.3074085445719126,0.8528171030599897,0.5969019124144208,-0.5295903149296946,-0.7433928014199648,-0.3537551613435196,-2.3169571145529,1,right
17.809,0.20770700354767874,1.6988711595304706,-0.30453183687666074,1.157019977759914,0.6401172048820039,-0.6100361423073131,-0.7920618450301093,-0.34981645212731477,-2.5012352144528673,1,right
17.811,0.341227718519035,1.7754672905103046,-0.26999348614196855,0.6526257158604183,0.5684457194624224,-0.4766456018754748,-0.7551613320812706,-0.35279701138220065,-2.3615129120277727,1,right
17.814,0.42559675542730613,1.81641783566015,-0.23754526541799004,1.3179322629813164,0.6629897177108937,-0.6525946159049592,-0.777417726656546,-0.3510012205091826,-2.44578638205705,1,right
17.815,0.4521472419881126,1.8296724220657101,-0.2275427892545352,4.110366063443324,1.0593139296059038,-1.3910047899807458,-0.7683636716325803,-0.3517390926696703,-2.411511955160879,1,right
17.816,0.5410534876290913,1.8715059588227723,-0.18151705265017212,4.7756720917412565,1.1538319707754985,-1.5669516314967447,-0.7682300495847562,-0.35172321250181854,-2.4109776932813443,1,right
17.819000000000003,0.6615159206080721,1.9198217746154334,-0.12511739772682845,4.271304683789911,1.0822520821440302,-1.4335816435243536,-0.7729898399244993,-0.3513925675601566,-2.4290554089672036,1,right
17.82,0.7521035310947966,1.9489261573579837,-0.0953349386941801,4.575414642816359,1.1252530913440766,-1.5139638931061263,-0.7672856580294047,-0.3517771818724128,-2.407379995010305,1,right
17.823,0.8355468409016347,1.9798078019656624,-0.06557890504539138,4.451838034352601,1.1080606570690863,-1.4813605844885425,-0.7717316086364516,-0.3514935747831933,-2.424290110970013,1,right
17.825,0.8928818887631129,2.0108428850517956,-0.02768139769540585,4.449814724316335,1.1072834065542951,-1.4807199210335256,-0.7693359435960022,-0.3516548208639146,-2.4151869392382954,1,right
17.828,0.923547261268421,2.044580774414878,0.021989640184691274,4.514985293638637,1.117016287919359,-1.498057613455658,-0.7698677955157016,-0.35154606849088954,-2.4171344118703306,1,right
17.828,0.9382702198739943,2.083350383592891,0.07968705843174617,4.437124764664558,1.1057570587213916,-1.4774235889760259,-0.7705459454762573,-0.35170214432663915,-2.4199140738882767,1,right
17.833,0.9285647456130522,2.1254332998429764,0.13597694328845905,4.4974492974941445,1.1139124724008913,-1.4932872837664022,-0.7693725508054678,-0.3514338768068733,-2.4151065630808612,1,right
17.834,0.8946688588793246,2.174127882294358,0.19178588544865638,4.465521173501402,1.1106922721542962,-1.4851288370872575,-0.7704957595177481,-0.35178865523593006,-2.419806678377386,1,right
17.838,0.8312144374629412,2.219817042361205,0.250083388291776,4.471739371635618,1.1093166422287262,-1.4862832035925893,-0.7697307212354081,-0.35149524737648746,-2.416553493708145,1,right
17.839000000000002,0.7469068437528907,2.2633788761908145,0.29990118590083004,4.48191737377398,1.1135311052279917,-1.4895757322891836,-0.7700316074578788,-0.3514678257558912,-2.417689494108936,1,right
17.843,0.6511865818503241,2.3045896953912632,0.3198811899769875,4.465724820446938,1.1090254032133837,-1.484814626380961,-0.7701710898184394,-0.3521156781791327,-2.4188793377550537,1,right
17.844,0.5468044849021377,2.3409817222339586,0.31522961408475325,4.479764439373769,1.110998247679479,-1.4885232064181657,-0.7696864219305104,-0.3506483579843198,-2.4155320765152486,1,right
17.847,0.4511768916121338,2.3729378218443262,0.29426659103822594,4.472599494888421,1.1140767256480497,-1.4875169832245843,-0.7703709806709432,-0.352840659923256,-2.4203799143048212,1,right
17.848,0.371827574904124,2.3886163148516433,0.2612475858498659,4.471571263673283,1.1045725128179091,-1.4852143177414807,-0.7696922919521142,-0.3504992232694366,-2.4154053084700173,1,right
17.852,0.30226129197711094,2.3914146625648414,0.2214293921662667,4.479233600096189,1.119619927637467,-1.4902703570640816,-0.7700850660678845,-0.3518525008085489,-2.4182821253481706,1,right
17.852999999999998,0.24361751882383506,2.3780098277512938,0.16772383618626469,4.4688231922352255,1.1032620632870396,-1.4842872197165002,-0.7703100328552861,-0.3530268606189677,-2.420331481041284,1,right
17.857,0.19862455042762533,2.3391742409943337,0.10955630465982134,4.476341371987438,1.1129249679230622,-1.4881423991645342,-0.7691781914063631,-0.34789628705949815,-2.410804130933247,1,right
17.858,0.15787558287191242,2.2859903963049817,0.06923560928740953,4.478149137750602,1.1205974971913042,-1.4902278099115733,-0.7712847168485875,-0.3574116066765207,-2.428501471062665,1,right
17.862000000000002,0.10739119634265286,2.218123624154687,0.05234148924662856,4.461616833042253,1.0858083318598615,-1.4788170380695913,-0.7685890261038484,-0.34519149717548286,-2.4058116837079657,1,right
17.863,0.04708278805511071,2.145328422654849,0.03763231929350787,4.494312027900813,1.1506087255566282,-1.5005185784520392,-0.7708355509323153,-0.3553955918109566,-2.4247397194871088,1,right
17.868,-0.03866733533461548,2.0647278910138493,0.018415134991011557,4.451597308381931,1.0673030929092504,-1.4724573155596719,-0.770762097817485,-0.35511620223844576,-2.4241783201003173,1,right
17.869,-0.1419797613756767,1.9874807257793574,-0.013268474831290835,4.487565245613602,1.1368872039674085,-1.4959680213435607,-0.7665310256244644,-0.3356649176931213,-2.3882883893090225,1,right
17.872,-0.24777825687107558,1.9186027239914987,-0.05642422935874349,4.486119612850258,1.1349528461705043,-1.4952013818146803,-0.7769409813580007,-0.38348149462750714,-2.476543617802812,1,right
17.873,-0.36787283774468277,1.8204372281595305,-0.06967457523517004,4.4187938508660976,1.002411250288754,-1.4507164678538014,-0.7596805455955327,-0.3041929585587448,-2.330209617659526,1,right
17.88,-0.4361083069270052,1.758222999637618,-0.06763242550029758,4.584950764630806,1.3282439315484318,-1.5602461028354764,-0.7824452323929112,-0.4087808163861628,-2.523218693706062,1,right
17.881,-0.4640814146338663,1.725766031081392,-0.04439481453142195,4.30920548424033,0.7879932879579968,-1.3785646731063848,-0.877955326615999,-0.8477156908408585,-3.3331824123760603,1,right
17.881,-0.5127938131414421,1.6674922264946253,-0.0024180709390852553,4.6729925062163336,1.5005545448836852,-1.6182358796892764,-0.9007177226868786,-0.9523148091239095,-3.5261860607601903,1,right
17.882,-0.5408626428804254,1.6351991869000975,0.021915526169256842,6.199618617811328,4.49148033370289,-2.6241553787810616,-0.8834619728259469,-0.8730139110188149,-3.379866293138304,1,right
17.883,-0.5855403737384741,1.565583548415637,0.103533239454938,6.563375137548217,5.203910783950951,-2.8638628939076174,-0.8938650522219025,-0.9208264882285688,-3.468094143278363,1,right
17.883,-0.6566601595770578,1.4554686476206848,0.22500989707171926,6.287639518628162,4.663885341226597,-2.682105488114444,-0.8896418783739289,-0.9014143092699184,-3.4322457806589823,1,right
17.887,-0.7135742427809828,1.3739566797520548,0.30647871822540285,6.453891654909796,4.989475464720125,-2.7917501483010314,-0.8895621999250536,-0.901049906098724,-3.4316357260837504,1,right
17.889,-0.775017147369141,1.283627355255212,0.3621337501832852,6.386285988588727,4.857075440517958,-2.74712760465446,-0.8918090285884899,-0.9113765919345803,-3.4506008703314066,1,right
17.892,-0.8252653133060005,1.196265777548303,0.3778169136389149,6.385328747690864,4.8552446819322705,-2.746478092645035,-0.8891238055970317,-0.8990335340807981,-3.4279149198078005,1,right
17.893,-0.8661303737252442,1.1158809294838106,0.3694672978776542,6.420687579648485,4.924353419459287,-2.76996417484965,-0.8912058132060974,-0.9086035250423954,-3.445534856264091,1,right
17.896,-0.9062063060123463,1.0289906415974528,0.3760169741275591,6.3784655601331295,4.841929439634791,-2.741748411714821,-0.8901110726631896,-0.9035747923916546,-3.436178761462944,1,right
17.897000000000002,-0.9403259447358665,0.950773339228233,0.39379312711186787,6.411159539749974,4.905591189118141,-2.76384906568811,-0.8902958128356593,-0.9044146673759981,-3.437976725755913,1,right
17.902,-0.9844506670928305,0.8734592441730744,0.40862070563358965,6.3937171340643975,4.871792202956316,-2.751804891437449,-0.8907128954558596,-0.9063479242727202,-3.4411162635119776,1,right
17.903,-1.038631436497154,0.802398819336607,0.39675800330067296,6.397618610872121,4.879280691915971,-2.754612814741895,-0.8900521540501527,-0.9032908345261155,-3.4360001846991954,1,right
17.907,-1.0965451380089137,0.7419816487077222,0.35714038011815286,6.402005153377637,4.887554862377932,-2.7579711276910355,-0.8906510477603904,-0.9060594736835452,-3.4406905711642164,1,right
17.908,-1.1512824911230686,0.6851222638850376,0.2986545934664304,6.394932248837611,4.874712052938406,-2.751803525964667,-0.8903298429514461,-0.904583977765627,-3.437963862631583,1,right
17.912,-1.1990748471034225,0.6297777673967204,0.2155063397011857,6.4006901843408635,4.88425355974865,-2.7581928717489195,-0.8902516193649879,-0.9041928331898016,-3.4380193472045217,1,right
17.914,-1.2378031559185918,0.5729288506317696,0.11510984835411717,6.397902067351053,4.880921106741264,-2.7531717948545147,-0.8907520323297999,-0.9065640207165343,-3.4406191403261994,1,right
17.915,-1.2643908660188479,0.5110458475235358,0.0290596110033257,6.3982727878851335,4.879951338366449,-2.7559539632071655,-0.8899283671427429,-0.9026729021162868,-3.4360874829312666,1,right
17.916,-1.2800801677700147,0.446921629286934,-0.012294197958201776,6.398245765773696,4.879882358210413,-2.7559585280163073,-0.8908209504173685,-0.9068866857642979,-3.4410403685528026,1,right
17.923,-1.2822142153597065,0.38310799249745375,-0.0018849974186793067,6.400523034929742,4.887491472589367,-2.7527509928343266,-0.8902822001316752,-0.9043480708284577,-3.437985670065709,1,right
17.925,-1.2773410470844972,0.3186929586630065,0.050123432562915335,6.3940663266275894,4.867650664059296,-2.7592559622986093,-0.8899311434062733,-0.9026747043122743,-3.4363065705389877,1,right
17.925,-1.2707526306189707,0.2608685944051091,0.11414903304257942,6.404729904650394,4.899268984063323,-2.7502312748665902,-0.8916536240668194,-0.9108408243374502,-3.445218142668693,1,right
17.926,-1.2610392356490063,0.21157650313721565,0.1684343471348105,6.392759504116674,4.864382840019218,-2.7594545513556135,-0.8884251066446036,-0.895544861150619,-3.428408066581196,1,right
17.930999999999997,-1.2530907881843378,0.17458141835311775,0.22206533797428252,6.3998686377680905,4.884917106248304,-2.7542523038105995,-0.8925791207014283,-0.9152193297615583,-3.4500584977307227,1,right
17.933,-1.2472048428575766,0.1547188819518902,0.2773934957206995,6.406077128567212,4.902775904443416,-2.7498206465607344,-0.8891066783648273,-0.8987809169555134,-3.4319545901932553,1,right
17.936,-1.2476973984505557,0.15323611265302375,0.33272830486185156,6.378674083163529,4.82416487797745,-2.76906287041796,-0.8892155380002151,-0.8992774659946328,-3.43255060194608,1,right
17.937,-1.2536608301857415,0.16291940440460412,0.3848879709096829,6.429715210432487,4.970383487157311,-2.733524044687175,-0.8957910318647421,-0.9304515155420511,-3.4667307028477685,1,right
17.94,-1.25303121177115,0.17893384449526847,0.4352466159391386,6.364021241106654,4.782330389864093,-2.77905637395483,-0.8796087484859727,-0.8537700223097736,-3.3825880336453236,1,right
17.941,-1.2519372148790968,0.22775666167219571,0.49450432990924537,6.418936788132363,4.939461448059577,-2.741088499359396,-0.9064488268165135,-0.9809250953457427,-3.5221437525835952,1,right
17.945,-1.252550511402176,0.2725825223141626,0.5271935673499144,6.417446828179649,4.935213758757103,-2.7421202215499063,-0.8710402806631545,-0.8132096698331486,-3.338052716990032,1,right
17.945999999999998,-1.252037616151024,0.28624854331632577,0.5303162681044761,6.31262975261313,4.635357057495074,-2.8144299215096837,-0.7224638462814061,-0.10928641881669174,-2.5655546832901797,1,right
17.947,-1.2538563038891675,0.33278761814952273,0.5451783085547581,6.57030894900628,5.372454815843964,-2.6367284905594888,-0.6870402607269657,0.058415742824573846,-2.3814354850002273,1,right
17.951,-1.243039006765984,0.3838112793724327,0.5460372142657177,6.1430347547062425,4.15024514052495,-2.9313399230755506,-0.713904557817115,-0.06872186248336018,-2.5210412526670685,1,right
17.952,-1.2293367557190453,0.39574247131462037,0.5315392353627013,6.706586737908559,5.762339625462799,-2.5427623714097765,-0.6977003142282048,0.007954047962245171,-2.4368408246787583,1,right
17.952,-1.2252871876822826,0.39835697983830076,0.5297287499552125,9.070506609172579,12.527551024057955,-0.9115469941641994,-0.7042798648646835,-0.023244842418752538,-2.47106281933117,1,right
17.955,-1.204501360136066,0.38477377941083274,0.521633069992482,9.633657584722842,14.139252499840623,-0.5229271827784117,-0.7044187648475175,-0.023672736971933894,-2.4716642028882854,1,right
17.956,-1.1743229476237649,0.3482825363614631,0.49709690480430674,9.207268328685545,12.917922085041194,-0.8176386319097788,-0.7008722108160413,-0.007344935504415453,-2.4534761231534175,1,right
17.96,-1.1570488849133773,0.3021460969031039,0.44948546590043803,9.463514817450545,13.65357330266699,-0.6397622779782377,-0.7051387985447273,-0.026894050092807167,-2.4753058957808185,1,right
17.961,-1.1478404894157779,0.2613441973261439,0.3893907174242385,9.360552440411169,13.355621739668415,-0.7123167860961196,-0.7017897019362035,-0.011680417524655182,-2.458241043513598,1,right
17.965,-1.141365427286185,0.23471382723380615,0.3549238089294773,9.357272325800562,13.349489884117496,-0.7130866340222126,-0.7035814404683143,-0.019889099579563325,-2.46740738957628,1,right
17.965999999999998,-1.1301495456528792,0.2157929111458644,0.35622892511449744,9.412992935903592,13.507549183746189,-0.6752821936109994,-0.7032927189424649,-0.0179666739061379,-2.4656107893622465,1,right
17.97,-1.1129510018734188,0.20422668930832416,0.3743224027014723,9.348697640978397,13.320786596320552,-0.7209166130426299,-0.7024845463196527,-0.015920745468234673,-2.4623594054739666,1,right
17.971,-1.089802973164375,0.19500972762834468,0.38121010448989434,9.395049535970976,13.462335751863414,-0.6848419875196778,-0.7038797893789236,-0.019462411905435153,-2.467977440801868,1,right
17.974,-1.050745563395187,0.1858857481596985,0.3667458578972386,9.375859477509575,13.392092512797358,-0.70512957423989,-0.7023984911688141,-0.016207896030177193,-2.4622826221172587,1,right
17.975,-0.9900157025319468,0.17447289271545102,0.3354224038808401,9.371808619319804,13.399299962415519,-0.6992799713824015,-0.703484269737202,-0.01835286222878521,-2.466328598210027,1,right
17.98,-0.9055178215565256,0.1505044875471926,0.2950326523193003,9.387397969072577,13.428929140307808,-0.695413849944349,-0.703270375258766,-0.017312235103766303,-2.4652017947062586,1,right
17.980999999999998,-0.8009492341438396,0.12120474839959912,0.2632570544545351,9.37479147164222,13.392717384654798,-0.704173726669705,-0.7021863902107681,-0.01774181655920999,-2.4625339684983105,1,right
17.984,-0.689072278726033,0.09002017946004051,0.23890732480534393,9.37135601244664,13.410688739721998,-0.6937596664434436,-0.7047837690484384,-0.017330862246008542,-2.46925654617544,1,right
17.984,-0.5815436750621301,0.05352172003366586,0.21187141664456527,9.398415805537017,13.424594675645316,-0.7043040554013574,-0.7009373304866106,-0.018077199236221357,-2.4593743472526977,1,right
17.989,-0.489875081722119,0.019306311721448578,0.18546507148551544,9.349642622478168,13.379792631415649,-0.6943737870845313,-0.705000130913276,-0.017104871969775406,-2.4697146339669676,1,right
17.99,-0.4165761131394463,-0.01047875481542233,0.16497791268911885,9.405337227368886,13.438150215392834,-0.7024047191871705,-0.702652888360183,-0.017665763441248594,-2.4637395494528924,1,right
17.995,-0.3500506031271604,-0.03666992939859598,0.1575566076006267,9.371268757328878,13.399019335753483,-0.6990688925227689,-0.7007099905137865,-0.01853686565016976,-2.4590126854084375,1,right
17.996,-0.28834897150302574,-0.061277733653660085,0.1630072963294101,9.345875014566186,13.376686631853708,-0.6934462041676348,-0.7093155966162465,-0.015223828649591365,-2.480244274943495,1,right
17.999000000000002,-0.23132713114614264,-0.08585494554971118,0.17925420282788213,9.46539885364295,13.498487239702026,-0.7122548297949097,-0.6933528535906146,-0.02134538362878177,-2.4408468210324656,1,right
18.0,-0.17806089956457952,-0.10988402469603697,0.20549994583410672,9.241296799385728,13.265589747773495,-0.6790648553673952,-0.7138412316864744,-0.013449977465101456,-2.491395243136687,1,right
18.003,-0.13637164887544018,-0.1355093030766814,0.23374599804602572,9.530136342602866,13.567759188162002,-0.7209317814069647,-0.6967421358466156,-0.02006007939678112,-2.449217304720184,1,right
18.004,-0.10867182210565929,-0.16020637010100203,0.2623396824785976,9.288541591847626,13.314152977542411,-0.6863006708260306,-0.6972078324912664,-0.019913288779515526,-2.4503896911144274,1,right
18.008,-0.09764828627613127,-0.18279692802748287,0.287133246469946,9.295465946737963,13.322192024231462,-0.6869585533025817,-0.7297892345398014,-0.007155383130546224,-2.5306564598096344,1,right
18.009,-0.10016085449436338,-0.20426292183438216,0.3002625881209762,9.755433356193722,13.803579069909349,-0.7535118840089724,-0.6497132872845715,-0.03849976952164539,-2.3333653905191465,1,right
18.012999999999998,-0.12123051415230893,-0.22613965794391577,0.2998010725677259,8.62420409410682,12.618275754667405,-0.5904334575922195,-0.7824733475544889,0.013487373367419902,-2.6604577602116786,1,right
18.014,-0.1529289480028262,-0.24233653604185532,0.2910087526200114,10.500149822503397,14.584588837243288,-0.8605840154724962,-0.6073745194780676,-0.0551071209832288,-2.229057499061368,1,right
18.015,-0.15472635009771657,-0.2425396619081289,0.2913012201712817,8.025650686902768,11.990505093772466,-0.5043763233000044,0.12767994613408884,-0.3429816654642628,-0.41812680017677617,1,right
18.019000000000002,-0.15436485853100393,-0.24302131219905412,0.29050934714790655,-2.361251896638394,1.1019873092040662,0.9907927218326829,0.30276098097776843,-0.411613890015865,0.01322114930824217,1,right
18.02,-0.1934828340905178,-0.2536020215921009,0.2631869418706626,-4.835761795315669,-1.4924724421991946,1.3469309320367728,0.17002177930081852,-0.3595783107604742,-0.31380626493699654,1,right
18.02,-0.23988570996756575,-0.2564399560357209,0.22086042404712325,-2.9597390846779166,0.4746005562119122,1.0769304904233432,0.2500993546329189,-0.3909341430392075,-0.11652327268872636,1,right
18.024,-0.284163520562953,-0.24812438140193568,0.172266225372784,-4.0911953451497975,-0.7117987246512052,1.2397720636585643,0.2174658329864005,-0.3782560420155277,-0.19691675235929385,1,right
18.025,-0.3312930498554571,-0.23055949167137044,0.11533852858100117,-3.6307894496463917,-0.2291826996394859,1.1735166121021008,0.21712012006874598,-0.3779003941077461,-0.19777573247929794,1,right
18.028,-0.3723933273863162,-0.19877673508716248,0.06314548215656222,-3.6244898233634397,-0.22206543309858348,1.1725833897929703,0.2340409051231074,-0.3848396967583402,-0.1560797983639895,1,right
18.029,-0.416997572146531,-0.15856188632270696,0.020329070739839125,-3.8654440001639663,-0.4757290393265335,1.2073165993037849,0.21373793017650444,-0.3765793231405151,-0.20610746802052304,1,right
18.033,-0.4608278646009297,-0.11494605984475738,-0.011335831361156262,-3.5769236535292235,-0.1717799563137831,1.1657135739834228,0.2296061105326657,-0.38292734902950043,-0.16701043433789586,1,right
18.035,-0.5022974378252475,-0.06839107857908328,-0.02846769809517149,-3.8014796879819857,-0.4086438074613262,1.1981108646869738,0.2208748585660116,-0.37976872725633604,-0.1885147029698561,1,right
18.039,-0.5506143481734884,-0.02270635082549309,-0.03433236145641401,-3.6803184532361386,-0.28100157744937176,1.1806397115562532,0.2232802310727578,-0.37986891965140157,-0.1826092868861048,1,right
18.039,-0.5981363905522818,0.02139057027766043,-0.030201334510068727,-3.7086409336378225,-0.30947225436206094,1.184645031588214,0.22479783963816213,-0.38191336065161885,-0.17883528114534408,1,right
18.043,-0.6437810234123178,0.061298931850572086,-0.025056633220007563,-3.738995335570675,-0.3452264429147155,1.189239664806086,0.22178800049895103,-0.37895552972588176,-0.1862933972215375,1,right
18.044,-0.6884217478245376,0.09669003872200968,-0.027370473013538475,-3.686442830050572,-0.2833650904071371,1.1812871698848901,0.22474300723421484,-0.3815309496964663,-0.17897915965121589,1,right
18.047,-0.7256932342595024,0.1310491029280943,-0.03407021960018622,-3.734828697014291,-0.34239069599270455,1.188728508860017,0.2222572702522964,-0.38056979814325315,-0.18510286159719824,1,right
18.048,-0.7566926417111748,0.1596308073249023,-0.039330368263841536,-3.7028856399669707,-0.30228814486711875,1.1837503405761765,0.22472122932588554,-0.3789044300992166,-0.17909567564066659,1,right
18.052,-0.7813351663118718,0.18398805707451849,-0.03675739488907956,-3.718243995648998,-0.31833125120977823,1.1859573924069202,0.22156442471526128,-0.38367941887903023,-0.18672866154009357,1,right
18.053,-0.7968943970540043,0.20887200363740477,-0.03050799736095777,-3.7124347811850793,-0.3245095744860597,1.1858283232382116,0.22568124123109168,-0.37632388604311773,-0.17680146702689808,1,right
18.057000000000002,-0.8037517472557598,0.2301446922416212,-0.027428630162547922,-3.717278778000649,-0.301550809652011,1.1849094083109002,0.22140300315766354,-0.38420824794760566,-0.18711215539459003,1,right
18.058,-0.8042913898599746,0.24777339730984313,-0.02300576349570388,-3.7080928411201777,-0.3337465516106175,1.1859986767913362,0.22370068183834652,-0.3795844229469465,-0.18158402695345865,1,right
18.062,-0.8006095365880499,0.2668803018046001,-0.015696060766721004,-3.7204851130220344,-0.30215085173874234,1.1852111248163482,0.2265445939372483,-0.3759366482891734,-0.17469185260183334,1,right
18.062,-0.7942197407339409,0.2877712122748921,-0.008655053837907946,-3.713351174605657,-0.3204350173922007,1.1856708372485076,0.21551134764330898,-0.39245439576449825,-0.20137390903983074,1,right
18.067,-0.7847317442999333,0.30812409871365554,-6.524930923892881e-05,-3.7014422803794345,-0.3301561482780403,1.1852355565878436,0.23571755042062592,-0.3617221725584673,-0.15252025006910297,1,right
18.069000000000003,-0.7705493386632434,0.3293449743693141,0.008383390098820187,-3.746109491444194,-0.2797950144397284,1.1860623803370656,0.20982903664159122,-0.4012064151188087,-0.21510948255062884,1,right
18.072,-0.7559974186724094,0.35003966401010816,0.012895226644711589,-3.663640532121912,-0.37357655736241724,1.1845842327492746,0.23141889840127328,-0.36823339801633637,-0.16291456093933582,1,right
18.072,-0.7419764187161991,0.3721969910643451,0.01649956949161411,-3.7700172190280004,-0.25366047483895565,1.1865492731853533,0.2309233434945004,-0.3691624618149916,-0.16410651121861589,1,right
18.077,-0.7259002124733074,0.3926372119137181,0.019089275081638712,-3.6809842438141884,-0.35354012628708453,1.184880016697021,0.1894644549238238,-0.4319158885880784,-0.2643553013724094,1,right
18.078,-0.7147692403703507,0.4090553356790336,0.021979057420811215,-3.6828032397621238,-0.350210044658666,1.1848319212826568,0.2912606879983932,-0.27763275965501055,-0.018216140624021007,1,right
18.082,-0.7114323918883212,0.43208816881353684,0.029127722990091063,-3.855120282654031,-0.1624496949082954,1.1884014782339634,0.12250493496054547,-0.533449980589674,-0.42626096270506075,1,right
18.083,-0.7100935401518107,0.4472999597725701,0.03429745926701311,-3.4320141228860015,-0.6244050850903797,1.1797062464643449,0.3450904819822833,-0.19603557635918611,0.1119498358872972,1,right
18.084,-0.7106310920781288,0.4527801773257939,0.03371649046558131,-4.133610787136048,0.14147859072794153,1.1941203526303703,1.2795066402024997,1.219952226523906,2.3716277850720013,1,right
18.087,-0.7115210316587334,0.4630662408936437,0.03205575989349631,-3.20803892589369,-0.8685518415372045,1.1750966062835324,1.5021007413570735,1.5572971984599604,2.909924744521483,1,right
18.088,-0.7114453126457956,0.46915727454924205,0.031569623383362375,0.6783675412056049,-5.106616318511312,1.0949069715750896,1.3333388138130677,1.3016262131677736,2.5017230587782553,1,right
18.089000000000002,-0.7157297965055323,0.4812728114836283,0.02981886621783506,1.6041939115287882,-6.116401383191185,1.0758681068042768,1.4351206156663796,1.455686023401399,2.748052191333384,1,right
18.092,-0.7207349417053981,0.5004048205901092,0.026277872249417994,0.9022095360542123,-5.3509009581231695,1.0903147368448798,1.3937149214959739,1.3932027092195542,2.6476478819554865,1,right
18.093,-0.7243723233576763,0.5125855051510645,0.024519301273834254,1.3256089095395072,-5.812540139662497,1.081568463335295,1.3931199397329435,1.392039380153532,2.6464800814909135,1,right
18.096,-0.7290000649072907,0.5234691261157702,0.020727296816485462,1.1533848741163695,-5.624759241232107,1.0852018146726516,1.414840328523292,1.4250705497153056,2.6988889348687417,1,right
18.097,-0.7296588215721197,0.531331731732914,0.012556702167002247,1.150817680024399,-5.62204794330272,1.0850953250383695,1.3888368640356257,1.38587530077988,2.635776214749831,1,right
18.101,-0.7285823291476266,0.5373400161645648,0.006511662642351449,1.2413622338162509,-5.7205803615034565,1.0834466497414095,1.4090647628299116,1.4158386790967668,2.6854322247598805,1,right
18.102,-0.726270528070553,0.5448041301137907,-0.0004724177580501625,1.1329321801944199,-5.602580485162682,1.0854700730057432,1.3981945186595817,1.4005569797158821,2.6578714125683423,1,right
18.105999999999998,-0.719003185827315,0.5494750613338804,-0.009342185102215711,1.217305080613076,-5.694468069718509,1.083820253648431,1.4006239712212305,1.4027766787635023,2.6653090017679104,1,right
18.107,-0.7112388598381703,0.5548405342716759,-0.01493654728796013,1.1720554062297242,-5.644920553270582,1.084934485683363,1.4035729717405991,1.4084111759841662,2.6711949873916105,1,right
18.111,-0.7044928840698396,0.5611576097567266,-0.02286659087529517,1.1818053717564259,-5.656251031135721,1.0841540397003155,1.3985621266034036,1.4008268935610368,2.65906652731423,1,right
18.112000000000002,-0.6948955777393193,0.5661250164517935,-0.034211084465908925,1.1949496707398264,-5.669361086903764,1.0848788979644117,1.4031632717076832,1.405640653885273,2.6725035685500167,1,right
18.115,-0.681715693286564,0.5723923974709965,-0.045766366319364434,1.1727494457171388,-5.6466645819722965,1.0841158664929356,1.4002405060547827,1.4061461873799597,2.660155836968091,1,right
18.117,-0.6680327139409163,0.5767340861949315,-0.0583394441387774,1.1933864075019893,-5.667958278727912,1.0846629996849042,1.4012784441209671,1.4003571406432935,2.6705422377783887,1,right
18.12,-0.6531173996755333,0.5775483415100728,-0.06866655159669083,1.180286247467461,-5.653664541933065,1.0849419808813927,1.4016354404860785,1.4087461149422773,2.6630091560576146,1,right
18.122,-0.6368753910437677,0.577083063792672,-0.07349365307322742,1.1840161668384073,-5.6599768276508104,1.083060340110237,1.4006821160574763,1.4027668950921566,2.6655552269152216,1,right
18.125999999999998,-0.6228289097980546,0.5734891305843508,-0.07272123133939262,1.1885764216741475,-5.659814012927061,1.0870901422992094,1.4014333367479526,1.3999965221464383,2.67155381661384,1,right
18.127,-0.6120565961447008,0.5707828083483946,-0.06923193627582153,1.1786386097561574,-5.656641585203942,1.0811433217818776,1.4014662055544767,1.4171530200278002,2.65333091915452,1,right
18.131,-0.6016512993797449,0.5725637636321771,-0.06050588242550134,1.1898171123928525,-5.660659408820625,1.0874705431987408,1.400437147957426,1.3838692131243313,2.6847843991972296,1,right
18.132,-0.5857000557319137,0.5751218699602598,-0.04623631192161621,1.1824356622032317,-5.657332555668555,1.0838337857926001,1.4021880992154663,1.4272580219949247,2.6454353893846445,1,right
18.135,-0.5660063225710932,0.5724865282040197,-0.040213248479380084,1.1806397978138605,-5.659444406357461,1.0806044905437042,1.4005426946533752,1.3907569489958216,2.6778419878689053,1,right
18.136,-0.5480200434333908,0.5612172317331565,-0.04471397929425317,1.1959765771695543,-5.6583537631032,1.0945828596848688,1.4007461057953674,1.391984964312162,2.677348708601964,1,right
18.14,-0.5367457830280695,0.5483225332877881,-0.051521405560629216,1.1661834558383175,-5.658903987367023,1.068687854358663,1.4035892633623925,1.4611407969059158,2.6148450034457915,1,right
18.141,-0.5281276481576677,0.5365557003832486,-0.057201776630594704,1.2047441054285712,-5.65852946738238,1.1019319038524542,1.3963163399833047,1.2907341478454095,2.7677834893719764,1,right
18.147000000000002,-0.5104117649606204,0.52560896473193,-0.056540488934350416,1.1724261272313443,-5.658705342418246,1.074180811052792,1.4085111897681948,1.5734810448351975,2.514532799420607,1,right
18.148,-0.495796022895913,0.5217704827760378,-0.05389789952958182,1.1737778072276446,-5.659220535683463,1.0749219201743812,1.392359988333299,1.2004402469853583,2.8484096989783168,1,right
18.15,-0.4910092362906322,0.5203686864041839,-0.05402736226824375,1.2338434255096844,-5.657186078390855,1.1278702027254335,1.324547935032638,-0.36542901504470415,4.249808729333854,1,right
18.151,-0.4752681569653014,0.518799394032216,-0.05068589528908363,1.0856412318439301,-5.661567214429095,0.997741900796992,1.308362226435554,-0.7385193146018754,4.583604819102886,1,right
18.152,-0.445322850693936,0.520561898151537,-0.04761489328730471,1.331521694330042,-5.654471244811032,1.213497095183,1.3206347915566612,-0.4556590066456489,4.330537942281671,1,right
18.157,-0.42557613773640746,0.5196741547037977,-0.049025879761920056,1.0071819673193327,-5.663804234603679,0.9289178640386513,1.3132330373784973,-0.6262572886443717,4.483168291896684,1,right
18.158,-0.4201425088496449,0.5194169554375232,-0.05046554249453206,-0.35349019910377205,-5.703786411980925,-0.2656177307063937,1.3162472247917132,-0.5568420461386898,4.4210783794317905,1,right
18.159000000000002,-0.4045186818535438,0.5259448985127029,-0.05429914819423247,-0.6778075564201151,-5.7131451576541465,-0.5501972918889648,1.316279632452763,-0.5558802030520157,4.4201649517310475,1,right
18.16,-0.38404517417975437,0.5350916523148519,-0.06080955236591644,-0.43193312416050444,-5.706040461963058,-0.3344421787775742,1.3147217060607232,-0.5922333940377604,4.4527975404879765,1,right
18.16,-0.3711556626348563,0.545585472435002,-0.06428703413362355,-0.580208889525002,-5.71034320499359,-0.46456879223753844,1.3165825260851562,-0.5486998799075806,4.413693645207041,1,right
18.166,-0.355188712898976,0.5575359214803495,-0.06331494039064453,-0.5199302914175894,-5.708540947086389,-0.411624895100466,1.3151403008813594,-0.5825882599095369,4.444168356344273,1,right
18.167,-0.3401978927946273,0.5702191479088571,-0.05679065581682363,-0.5189482127618068,-5.708649906942092,-0.4108764886694457,1.315921585219681,-0.5643068747673328,4.427746493265861,1,right
18.17,-0.3281722501676835,0.5840806730381172,-0.043691966526301,-0.5508072354959619,-5.709333480394006,-0.43863633219605236,1.3157119299845093,-0.5685516450062442,4.431404291856355,1,right
18.171,-0.31251124879625564,0.5982281077212067,-0.027733335215568894,-0.5126149469413023,-5.70854678339019,-0.40538570753682013,1.3155908996718855,-0.573210785258133,4.436018478894237,1,right
18.175,-0.2953090712089038,0.6105981375365221,-0.012139883208939594,-0.5424137801668885,-5.70910143280981,-0.4312795781542462,1.3158011966775294,-0.5651453061265445,4.428035164618441,1,right
18.176,-0.2781443299986798,0.623394079996586,0.0018107381648703837,-0.5263812674981752,-5.708764354353557,-0.41731600752483705,1.3156485350509515,-0.5726146085419308,4.435659528536862,1,right
18.18,-0.2636258101114043,0.6371269881303121,0.009430876902502031,-0.5297655887429418,-5.70913621678052,-0.4205133769774042,1.3157268202541599,-0.5676598507464974,4.430475743065424,1,right
18.180999999999997,-0.2534945874055417,0.6479431856424837,0.008006452206540927,-0.5347805389039817,-5.708417228333174,-0.42419620717995277,1.3156251425218162,-0.5699742056099306,4.432539314111661,1,right
18.185,-0.24778415777705112,0.6594501416676568,0.0010722918486599266,-0.5261129924778245,-5.70964882842644,-0.4178219308831002,1.3159058875725265,-0.5693554163221526,4.4333805047824,1,right
18.186,-0.24893524403809134,0.6722572475616087,-0.008249379351878758,-0.5346363683784443,-5.708079008594112,-0.42379209606621066,1.3153194211524086,-0.5694984305816478,4.430320983063205,1,right
18.192,-0.2557602745033791,0.6824837887621902,-0.01669635642823831,-0.5287115682944554,-5.709354417818153,-0.4197951134563631,1.3162072334151387,-0.568989447426062,4.434620972859051,1,right
18.192999999999998,-0.26551807819976325,0.6918455515148008,-0.021721447061825383,-0.5307073413729357,-5.709426665700674,-0.42155863339043553,1.3152436846798745,-0.5699242378762857,4.430387684713437,1,right
18.195,-0.28003158859230104,0.7011671787527467,-0.022993111756156696,-0.533175609603568,-5.706809620045749,-0.4214904208979924,1.3158004215108734,-0.5693877538000557,4.432837344914056,1,right
18.195999999999998,-0.3005924165412651,0.7120447205688564,-0.01948681970014194,-0.5264319239910407,-5.712756161928173,-0.42067632203723415,1.316317514919719,-0.5680579478839952,4.43417187293517,1,right
18.2,-0.3230105390703749,0.7248582117004427,-0.01589509860087765,-0.5362346402789547,-5.703878541337611,-0.4216657370431268,1.314102131687246,-0.5727564143466524,4.427325525943247,1,right
18.201,-0.3479686902060096,0.7396965201471124,-0.016200548912177648,-0.5261259587572383,-5.713351487876142,-0.4209096427256266,1.3182086499230627,-0.5640974686103162,4.440071951938343,1,right
18.203,-0.38012563039223835,0.7574887561456072,-0.017111957281772207,-0.5319696226834403,-5.707878914954832,-0.421350131755815,1.3129320505169866,-0.5752896239316105,4.423769642422339,1,right
18.204,-0.41289436936369694,0.7771312824740884,-0.020057473125669974,-0.5362540067501766,-5.703137159665842,-0.42106566375510807,1.3173393822899067,-0.5659107121626641,4.437349903554917,1,right
18.208,-0.4435670580610635,0.8027538127598592,-0.028006463102371232,-0.5165305869791291,-5.7238560378060885,-0.4214497623532112,1.3172223449274363,-0.5660785069513268,4.436901347495578,1,right
18.208,-0.47306540853518064,0.8278637636770656,-0.03698809365394551,-0.5531545554843231,-5.685436024566655,-0.4207812598683999,1.3088056319775379,-0.5843393071209636,4.411353451429907,1,right
18.213,-0.5023031679004262,0.8496513917077845,-0.04697005830968908,-0.5061920437932625,-5.734769232535943,-0.42169351521837284,1.3294933474803499,-0.5395149159947208,4.474207415971302,1,right
18.214000000000002,-0.5369305531706896,0.877954361158588,-0.06228229165294039,-0.5453676197642456,-5.693585071517649,-0.42090850554686554,1.295189249945519,-0.6138505975407433,4.369999754119661,1,right
18.219,-0.5601256759928761,0.8952864599475807,-0.07441902483588358,-0.5442336060778552,-5.694691801301557,-0.420856243388511,1.340439789010411,-0.5157719962373113,4.507428315228745,1,right
18.22,-0.5679200249282477,0.8993244008925994,-0.07907293346764988,-0.4698587322297929,-5.773245120978727,-0.4226595893397791,1.5303584268758168,-0.10394118444774755,5.084080154557361,1,right
18.22,-0.5905601885498697,0.9190311806374575,-0.09374597249836861,-0.652711571679131,-5.580183901932219,-0.41828767408122086,1.5756148620721568,-0.005816442024575076,5.221478107941005,1,right
18.223,-0.629182612453367,0.9486335135414086,-0.11874022469395246,-0.3495477718166064,-5.900279697620297,-0.42553570596714113,1.5413036504240911,-0.08021898879505945,5.117318721591058,1,right
18.224,-0.6514988077248769,0.9624638847758199,-0.13079963369568198,-0.74939136995159,-5.478083107838659,-0.4159647155754516,1.5619915426833209,-0.035353570046020695,5.180131584187587,1,right
18.225,-0.6601647383993724,0.9670951223866783,-0.13595860195664167,-2.4276207577574462,-3.7058127526438933,-0.3755389713671793,1.553590623953203,-0.05357250047926211,5.154584541587395,1,right
18.227999999999998,-0.6863405242269567,0.984919480874841,-0.15282131545962868,-2.8274220957781893,-3.2836293642744367,-0.3659532398991201,1.5534360183058729,-0.05391304026539786,5.15420810510698,1,right
18.229,-0.7203152272299647,1.009030628463059,-0.17031823304989924,-2.5243187393257482,-3.6037113075091174,-0.373230141463993,1.5579000856840524,-0.04422026892150914,5.167625749489676,1,right
18.234,-0.7489937679962433,1.0277129399629157,-0.180605423225971,-2.7071368274173135,-3.410643130934564,-0.36881852633830753,1.552563403978238,-0.055807630267445785,5.151559337561188,1,right
18.235,-0.7793354338413234,1.0482288318076276,-0.18742172133589405,-2.6327177808235405,-3.4892469732559928,-0.37066331852686085,1.5567025050853176,-0.04682464153201617,5.164066619665086,1,right
18.238,-0.8063159531953118,1.070434472574667,-0.1889226527361234,-2.631750623594156,-3.490247097928795,-0.3705849121187643,1.554523371801547,-0.051537500826506974,5.157334226213635,1,right
18.239,-0.82811669200887,1.0883633626677436,-0.18509873636869642,-2.6706294648821434,-3.4492141050799336,-0.3697869217411469,1.5548972997145447,-0.05076988721011458,5.158846173390126,1,right
18.243,-0.8413900217854244,1.1004389016311802,-0.1763108495546119,-2.6240342612796823,-3.498398882099373,-0.3707751436729078,1.555715698466177,-0.04891929800033869,5.160681070263328,1,right
18.245,-0.8453915157888456,1.1117766454908011,-0.16572880278177837,-2.6603663643380147,-3.460039012371924,-0.3699567925360363,1.5544151189342463,-0.051833558532380225,5.1575303796894465,1,right
18.247,-0.8373107129159458,1.1217690120401425,-0.16011221976642,-2.640634883890537,-3.4808943407621022,-0.37054542876875574,1.5555953831265847,-0.04919875121188888,5.1604772294195165,1,right
18.248,-0.8127871181510185,1.1232857734990622,-0.16252947902445988,-2.645473952898714,-3.4757285082840452,-0.370066161331289,1.5549568516306067,-0.05058333594949939,5.158533473556927,1,right
18.253,-0.7796353924603143,1.1212418845825418,-0.16939103607427264,-2.6500617634050574,-3.4709778587828257,-0.3705788838247436,1.5548202799687356,-0.05101833829359867,5.159298904065147,1,right
18.253,-0.7351942520571361,1.1207996639261415,-0.17317802892893372,-2.641812950623099,-3.479574145317493,-0.3700138052123094,1.5557715153871963,-0.048637110716899204,5.1594890717553,1,right
18.258,-0.6771007582691762,1.1246349879352244,-0.16300719612631537,-2.649657047155218,-3.471381519769566,-0.37043327103808754,1.5541994510071198,-0.0525221017704976,5.1587416724308115,1,right
18.259,-0.6113080111561338,1.1373885561163455,-0.13643458547052706,-2.643991054028949,-3.4773662045552554,-0.37057533871960413,1.5559036804236954,-0.04831816267956636,5.159623711033786,1,right
18.262,-0.5419698725574189,1.1538194669073278,-0.10816569155072084,-2.647582123231141,-3.473404503685531,-0.36936004325220834,1.5548741709787761,-0.05084581232074552,5.158979391346047,1,right
18.262999999999998,-0.46583748707624245,1.1640431609543356,-0.08265452574587158,-2.6450246786038774,-3.47649159994843,-0.3720007618192219,1.5542090682303866,-0.052538042254802714,5.159094881529973,1,right
18.268,-0.3871786359057391,1.1680241109909681,-0.05335997825859311,-2.6474865494335553,-3.47331597564423,-0.36809425326920997,1.557483510529371,-0.04433403709913124,5.159684632110226,1,right
18.269000000000002,-0.31683078879129667,1.1702573370117837,-0.019889473017251278,-2.6451148278243735,-3.476433884622171,-0.3722522668683666,1.5513457433971174,-0.05969394157398689,5.158396409373847,1,right
18.273,-0.24475789610861526,1.169667137956916,0.0167528729748464,-2.6460859517017656,-3.4750547476433575,-0.369859776175865,1.5592411131785329,-0.03993644147894344,5.16008994636935,1,right
18.274,-0.17650370611245458,1.1664220302512167,0.049459914352871184,-2.648898359535204,-3.47177764246345,-0.36774870036122026,1.5526445635640322,-0.0564477364673922,5.158665957633257,1,right
18.277,-0.10203966271626097,1.1588622771461177,0.07614802966025361,-2.6398251795805856,-3.4826983992222473,-0.37690743290969436,1.5528440310204021,-0.05594229252952186,5.158755611776439,1,right
18.278,-0.015537297001119301,1.146912873407811,0.09929850583664686,-2.6560654085998756,-3.4630666882981656,-0.3599376081304859,1.5653518722064614,-0.024642911325877363,5.161286717316994,1,right
18.281,0.07563733742540406,1.1302666410462194,0.11938676273735267,-2.6353465950764283,-3.488130807362575,-0.3817234682541764,1.5345862126779197,-0.10164931746684677,5.155021109050436,1,right
18.282,0.20763976180795302,1.105970188526507,0.1415303168455831,-2.65258521867376,-3.4672706717429076,-0.3635383556782661,1.5856009071942374,0.026059345584315954,5.165402333875736,1,right
18.287,0.3108800062468205,1.08971620296588,0.15728449413500212,-2.6523344932615625,-3.467600649825378,-0.364022162982346,1.5183153985836968,-0.14240242294924751,5.151736683596084,1,right
18.289,0.3440112239695767,1.0842661288274553,0.16372121792754737,-2.6187671288767262,-3.5081285324455385,-0.39872194124502935,1.23588208975377,-0.8492924107946787,5.094145620333644,1,right
18.289,0.4459619411435106,1.0711446620755103,0.18566214940298092,-2.7010063564675635,-3.408809577256527,-0.3134470108607541,1.1686046493075741,-1.0177707757702257,5.0805368170111365,1,right
18.292,0.6257328134088658,1.0506072898820578,0.2313668152245315,-2.5647313807290417,-3.5733887090846905,-0.4548298551605538,1.219610616408728,-0.890044155813679,5.090856540016619,1,right
18.293,0.7274974642375138,1.0369804244152676,0.26262338044238176,-2.7444526215589815,-3.3563461293433043,-0.2683521358453926,1.1888416304688463,-0.967043734896438,5.084567529434144,1,right
18.294,0.7606254261627706,1.031929553500612,0.27098384775731826,-3.4993498258019358,-2.444645926070922,0.5144546969979567,1.2013784405249934,-0.9358039115967954,5.087302672643599,1,right
18.298,0.8623204520507517,1.0163094731191782,0.299902204979562,-3.679063205156557,-2.227628867951763,0.7009241881387309,1.2015155866653258,-0.9351703182470469,5.086953328198463,1,right
18.299,0.9868498252222434,0.9901045072063652,0.3351100606535693,-3.5427967326570666,-2.39218038660487,0.5595502489513637,1.1950083860743281,-0.9518653559409064,5.086158762977593,1,right
18.302,1.0598121582822606,0.9657902146307021,0.3457933025258545,-3.625039203563381,-2.2928509310257352,0.6448285553787338,1.2028147917416474,-0.9319248833944771,5.087225539728497,1,right
18.303,1.1186554607282577,0.938040669300081,0.3519111222593959,-3.59144360806004,-2.3334704043190255,0.6100992674106707,1.1967153945107807,-0.9473637427819512,5.086207726022669,1,right
18.307000000000002,1.1526779440667438,0.9084775446762541,0.35681447512506886,-3.5912536139029356,-2.3336033114119,0.6096789674253857,1.2000662692826944,-0.939316845107801,5.087335743832476,1,right
18.308,1.1585152996024433,0.8823333516248959,0.3561220075983941,-3.6084051704657965,-2.3130257372777425,0.6277730126138061,1.1991550218498683,-0.9405029662089397,5.085717432328828,1,right
18.311,1.1470709133577903,0.8620299685913597,0.3518724842775083,-3.5877730459550925,-2.3378084819825267,0.6060778500681643,1.1985495927710006,-0.9439026749776295,5.088060464841628,1,right
18.313,1.1104844368063507,0.8495235011751694,0.33106686637977534,-3.603975891806779,-2.3182981827583973,0.6230085155140586,1.1997334088105283,-0.938628487585905,5.08527633796716,1,right
18.317999999999998,1.0548870125528165,0.8466426700422365,0.28794568482536376,-3.5948282213052956,-2.3294605500612304,0.6137719575223872,1.1985761839506064,-0.9433667516554161,5.087451685666753,1,right
18.319000000000003,0.9799779123946052,0.858289246258165,0.22231694209039438,-3.5978804982997374,-2.325405135688262,0.6161338295623167,1.199531252442168,-0.9409930836332407,5.087668123610875,1,right
18.322,0.889441448118109,0.8812102877286584,0.1355392035255536,-3.5984383659903094,-2.325367066215427,0.6180941317925419,1.1986245358513083,-0.9398447385699864,5.083009194146349,1,right
18.322,0.7826129787670804,0.9132045424671642,0.04045345517708452,-3.5965737622611345,-2.326839140482851,0.6144665812561456,1.1997457945526295,-0.9448478796961677,5.093461498882688,1,right
18.326,0.6592748849390879,0.9536122211934948,-0.05413652880243971,-3.598631409864206,-2.324975667870506,0.6179500903782703,1.1983009357752996,-0.9368147085482157,5.077915764791885,1,right
18.327,0.5297580913565303,0.9944235272911536,-0.14344354620281022,-3.5960701902412864,-2.328074428002636,0.6153058060836658,1.1997985570994785,-0.9454838351034283,5.094478212580224,1,right
18.332,0.4013645312038995,1.031976432320321,-0.21748446871700272,-3.600411784381715,-2.3216777883360753,0.6173056093748723,1.199000590141937,-0.9403079832197038,5.0849236727509854,1,right
18.333,0.28204276237615844,1.0636072575583673,-0.2673816643369424,-3.5930309109522565,-2.3332271708419556,0.615370309942139,1.1979797819829365,-0.9366741865237913,5.076614928962983,1,right
18.336,0.174259499534119,1.0845188195898539,-0.29008219996136303,-3.6034330641407797,-2.31673287940282,0.6176263527613772,1.2019017632830378,-0.9539314111453986,5.1128568802898755,1,right
18.337,0.08279366659596227,1.094029832365965,-0.2917720145634527,-3.5924576489195097,-2.334178986975989,0.6153389077076077,1.1947274948497562,-0.9216845397017788,5.045670164988911,1,right
18.340999999999998,0.015390457308229813,1.0941847017147206,-0.2803238860335918,-3.598620237303232,-2.324314897881125,0.6164749861583851,1.2039165364673083,-0.9631440683978916,5.131932396863924,1,right
18.342,-0.031241694313303585,1.0880765904494503,-0.25895857006868506,-3.604818958447754,-2.314741112219405,0.6183736496292519,1.1962555545193083,-0.9285122761649479,5.0599244527732115,1,right
18.345,-0.05425693872295645,1.0704619423033417,-0.22675059758895771,-3.579141358699119,-2.3548876961646927,0.6115690519837266,1.1964250879562994,-0.9295282913080591,5.061852093103514,1,right
18.347,-0.057682375016408244,1.0458501238192708,-0.1930013775076697,-3.626499103697191,-2.2807519656064725,0.6239166020085696,1.211153880604002,-0.9953000337337496,5.19921406255979,1,right
18.351,-0.04647383816280953,1.023642969251772,-0.16726013733902256,-3.5657472937354084,-2.3758748309369517,0.6081227613226796,1.1749999749063558,-0.8335542721293272,4.86163252506347,1,right
18.352,-0.01318487519370037,0.9920395953783822,-0.14030203931811377,-3.616444744587771,-2.296490046474215,0.6212833920909766,1.2349288046204387,-1.1017515615440046,5.421333883774901,1,right
18.355,0.012604265259930008,0.9671305069045503,-0.12289187837583743,-3.615155433047767,-2.298529465878154,0.6210223871967144,1.155889454895879,-0.7480092236341099,4.683113017156476,1,right
18.355,0.020767873334359775,0.9596666715637713,-0.11745362701640008,-3.5182104369619354,-2.4502588590259355,0.5956155691903686,0.8240089506896527,0.7368179049313212,1.5841759568960985,1,right
18.355999999999998,0.05315685410207484,0.9369374802371291,-0.0984085532677379,-3.7563913636788744,-2.077455600350617,0.6579502976232816,0.744974722892342,1.0905323546230898,0.8459905103505001,1,right
18.36,0.10019406058051526,0.907107130691708,-0.07751393432527569,-3.361510816344966,-2.6955455615361057,0.5546246910349699,0.8048980111805508,0.8223652386761904,1.4056535475043566,1,right
18.361,0.12159051857579505,0.8954962907251316,-0.07124974820185973,-3.8823208033577585,-1.8802959796495125,0.6909107617717534,0.768741997260985,0.9841224752507148,1.0680574325965186,1,right
18.362000000000002,0.12902298972280063,0.8921091454541434,-0.06826378447605472,-6.067440902552056,1.5417013298312872,1.263180959272087,0.7834891730739999,0.918250647202941,1.205546525029625,1,right
18.365,0.1456137910124245,0.888770854977865,-0.06132635089707361,-6.587984409012629,2.3569235555425045,1.3994983363281626,0.7836191536315328,0.9174499799752014,1.2072006475054624,1,right
18.366,0.15092508516457048,0.8960896205932685,-0.05264485519003566,-6.193696594999924,1.7389085467660028,1.2961178483967473,0.7760148818290087,0.951773006142764,1.1355848698917532,1,right
18.371,0.12281781127123291,0.9269525385964692,-0.04790827238235803,-6.4309089155796695,2.1115624141120035,1.3585141124130822,0.7851474527988592,0.9106209450731145,1.2214565890805194,1,right
18.372,0.06384081386185869,0.9808022218194619,-0.03986901817221135,-6.335230500514726,1.9600660359360216,1.3330662286673909,0.7779975488771012,0.9427351479564087,1.1544383666747577,1,right
18.375,-0.01970476342519717,1.0500182002761356,-0.021471750023911162,-6.332701019881075,1.9577465089094939,1.33279108952638,0.7819680257047906,0.9252139018239539,1.191015669879604,1,right
18.375,-0.10237912695730149,1.1267286212237333,-0.009686657613617148,-6.383987718373501,2.037355778245992,1.3460540399655114,0.7807910062043213,0.9296981920390394,1.18162668988628,1,right
18.38,-0.14832990765265933,1.201104151969544,-0.024250814221418115,-6.324134117544254,1.9422306169462022,1.330055822225019,0.7802621943798016,0.9334086041680875,1.1739334277618438,1,right
18.381,-0.14791536777620895,1.2633479338881237,-0.057019438845865425,-6.3683468981544324,2.015956517364997,1.3426818637330942,0.7814294986555645,0.926537943546387,1.1882116366637387,1,right
18.385,-0.11372010066534537,1.3202559636439521,-0.0690219690929624,-6.348251438776739,1.9767584934758358,1.3356142741719497,0.7802479788900873,0.9331372852000457,1.174486984629954,1,right
18.386,-0.04614024849973978,1.3966035738539861,-0.025605752523938454,-6.3473996127664805,1.98490530639927,1.3376056825342273,0.7813715974719555,0.9281213790819342,1.1849555723269616,1,right
18.391,0.0631339035967039,1.505892164289949,0.07141025573074668,-6.359503752469848,1.996303383216275,1.3390103319814957,0.779976163207275,0.9319305037598828,1.176917071422563,1,right
18.392,0.21307427511749827,1.6480332887000047,0.1925955207564881,-6.347830656866727,1.97795713074951,1.3359381816206022,0.7820480902908835,0.9282233821839002,1.1848568556434702,1,right
18.395,0.3984016064197488,1.815625226969265,0.30029746346989317,-6.348932598503561,1.9937005676068515,1.3395000862386501,0.7792247130301799,0.932556687437609,1.1755103043693065,1,right
18.396,0.6021230959895267,1.9892557857699251,0.3604058621825906,-6.364170084300389,1.9855267123147464,1.3360096638508039,0.7821846635833265,0.9281603414910251,1.1850086994661218,1,right
18.399,0.8212438979553484,2.1413713153698377,0.34278176982972475,-6.333668975269721,1.9855542366626378,1.3391819920986516,0.7805530372451333,0.930348241710909,1.1802551434449813,1,right
18.4,1.0455254956575089,2.232866326270683,0.2302937136442552,-6.369606078340678,1.9908833066307643,1.3366966674118244,0.7787570000227981,0.9339789321045018,1.172518502880953,1,right
18.404,1.2436316791392035,2.248191619141718,0.0726012477744543,-6.347094648066401,1.9850702047021573,1.3376748646491596,0.7859797578407917,0.920945478276713,1.2004213902287275,1,right
18.405,1.3796549255525976,2.2084817825854435,-0.04161278151566056,-6.331367969078487,1.9858140610733064,1.3394823751001872,0.7727000675578926,0.9446002126560347,1.1497500652253057,1,right
18.409000000000002,1.4102638921221686,2.1316163780502846,-0.08295849705015276,-6.40796068722114,1.9947067992887817,1.3336074589277807,0.7897261763792645,0.9143427356145664,1.2145736568894132,1,right
18.409000000000002,1.3459657048357003,2.040320564802797,-0.07065617988207187,-6.2636549995786,1.9746750467932168,1.3439087883778977,0.7755221057878543,0.9395552271631868,1.1605527394750168,1,right
18.414,1.16640506800579,1.9422187264208663,-0.04897745208966678,-6.44995493372566,2.0019647413503527,1.330945339589122,0.7758671452821815,0.9390550943914655,1.1616417630967173,1,right
18.415,0.9145772465427899,1.8497557397508264,-0.041506026640755506,-6.293993277122439,1.9785171371825123,1.3416541709598078,0.8030813400720525,0.8903842015059427,1.2658742459280559,1,right
18.419,0.6472576033851023,1.778519969585349,-0.056585794916834686,-6.298585832794316,1.9797161854153502,1.3414644445996489,0.7362380841702366,1.0097944956341163,1.0101219473987775,1,right
18.419,0.31288510756953336,1.7094385243006478,-0.12667922843851395,-6.595285752822894,2.023389448023261,1.3208579560128104,0.8470559962726091,0.8118647728534782,1.4340593490519096,1,right
18.424,0.10580675332127928,1.6701741136692236,-0.19007431069643294,-5.865368359854276,1.9150392848722062,1.37132588201982,0.7008879868174754,1.0729262206527557,0.8748952250440948,1,right
18.425,0.030246090565762888,1.6521155895058068,-0.2094171855862947,-7.075922293660602,2.0951574351545847,1.2877358245998725,0.08731355479689,2.1690664144995164,-1.4726804124032873,1,right
18.426,-0.10120129599377556,1.6206813620612524,-0.2406387514143121,-5.479053157473847,1.8573731375051257,1.3979447360705692,-0.05885878892041235,2.430153859164834,-2.0318909174165274,1,right
18.428,-0.17483657491001198,1.6026329056734738,-0.25762686323058087,1.2238340366985656,0.8590320986185929,1.8605639094885635,0.051961055857746366,2.23218558303988,-1.6079087033585857,1,right
18.429000000000002,-0.27071453998898676,1.5604569737404659,-0.2441524825063003,2.8207859996258478,0.6212070604165263,1.970738028976363,-0.014870652175362813,2.351622110338006,-1.8636228999421722,1,right
18.43,-0.40256689164497655,1.484676713641032,-0.20432839117603233,1.6100469961599102,0.8014759740480546,1.8872169179211655,0.012307857331215599,2.3029683807529455,-1.7595960771035666,1,right
18.434,-0.4346210573212926,1.4078467645176582,-0.1327990720111451,2.3402684166567225,0.692764694005353,1.9375882819038637,0.012716230050011004,2.302380455484784,-1.758090741041153,1,right
18.435,-0.45640807648710535,1.3113056968247119,-0.07207995404518847,2.0431687022754224,0.7370707876769224,1.917085516825315,-0.0015678807922935882,2.327759545492021,-1.8126875972368615,1,right
18.439,-0.457935760939603,1.203798911793119,-0.03241743539442563,2.038970691333975,0.737428653164264,1.9168253250157101,0.015524482772167681,2.297285305872059,-1.74731668266667,1,right
18.44,-0.42320820847217216,1.0915325834945704,-0.010663518764052067,2.194739453751912,0.7147704946330562,1.9275129316022896,0.002241178377508016,2.3211280240458945,-1.7981755300270224,1,right
18.447,-0.39038179766067915,0.9744189810112691,-0.006446183829212951,2.0081659615553074,0.7417944371079914,1.9147233249239861,0.009349497456347729,2.3080630608001496,-1.7708547071653296,1,right
18.448,-0.3454606154271491,0.8677062417625621,0.0006466004894015945,2.1534543128076136,0.7209111399490884,1.9246660836334555,0.007823099564499423,2.3114208180672464,-1.7769091644989414,1,right
18.448,-0.3098673710284573,0.7749042333653997,0.020460996848971055,2.0751042848646626,0.7322582776455437,1.9192952615145042,0.005783077696141369,2.3142915678207228,-1.7844517309836343,1,right
18.449,-0.2849364639910439,0.698758202991739,0.060441655957961755,2.0930641239989685,0.7289262468639204,1.920603045546637,0.009184539104784601,2.308831425880686,-1.7716467767367354,1,right
18.453,-0.2685312320629196,0.6393681931427302,0.11637390693318139,2.113674011167081,0.7279607454234022,1.9218040490687323,0.006098357586263213,2.3143501700861124,-1.7834557735418053,1,right
18.453,-0.27191029444818876,0.5972989050899413,0.16795908347659597,2.0780028063685307,0.729652337379247,1.919723273679914,0.007962592141368382,2.309876943336649,-1.7759378689878869,1,right
18.458,-0.2965372833141924,0.5703922705562351,0.1978830479815925,2.1113828103483288,0.7291230191092564,1.9215598101076516,0.007526014730770605,2.313268217057325,-1.7784890994910558,1,right
18.459,-0.34452501745039454,0.5552998042722056,0.19327918437079722,2.089051885654346,0.7289085791313592,1.9203909344904773,0.006830638541387804,2.310615384118405,-1.7798356444547427,1,right
18.463,-0.4137120379993888,0.5538683766618739,0.14597653843936048,2.098946861883603,0.727401146114218,1.921076802101469,0.008064739511296094,2.3125622298795525,-1.776514461325818,1,right
18.464000000000002,-0.49703362407619833,0.5618755578196448,0.059228319738272965,2.0983855198755004,0.7340597713216617,1.9203486115950767,0.007021189055578673,2.312028908931956,-1.7796981072760698,1,right
18.469,-0.592477542863125,0.5746991617205257,-0.05188325083348952,2.0942292009487318,0.7196560988557456,1.921637645027194,0.007149102396468569,2.30973010154319,-1.7785108719747635,1,right
18.47,-0.6977623890662926,0.5936553232796176,-0.16540751013587973,2.099163369000604,0.7413304706796335,1.9196271358311274,0.008484942217959937,2.316396739404836,-1.7764528239343933,1,right
18.473,-0.797813608344559,0.6212396745670112,-0.25958126778407,2.0955832704494,0.7179771323162754,1.9218864629477257,0.005559652848643461,2.304836868830142,-1.781984006574839,1,right
18.473,-0.8870710354307507,0.6623124315011467,-0.3271064332709894,2.097665501054932,0.7314648801490995,1.9205816193174843,0.009477432409296993,2.319388466757961,-1.7742629051606458,1,right
18.479,-0.9642124982142787,0.7133005775351602,-0.37016721200973535,2.0957540840715123,0.7436556483960821,1.9192022127110275,0.0061382206212605515,2.307367050730771,-1.780971696747746,1,right
18.48,-1.0262518590289504,0.7734421299444686,-0.390885668338581,2.0993323135083455,0.6910411698558636,1.924911204955106,0.006334302357995692,2.3074927569095642,-1.780383602683077,1,right
18.483,-1.0736376056308499,0.8397445442259373,-0.39521763089699147,2.0929239112553004,0.7885708942196414,1.9143385411349019,0.012420514224354747,2.330943112582352,-1.7686713502186509,1,right
18.484,-1.1075277399516075,0.9026101764851836,-0.3916672366652841,2.1014734623338587,0.6633007324650873,1.927937497798277,-0.0026918776445731337,2.2736007087259713,-1.7980491632601243,1,right
18.488,-1.1428235441697239,0.9734428835888805,-0.3899906895347854,2.094176657204696,0.7678902945481907,1.9165718840035506,0.02242346497231311,2.368556194877483,-1.7491130627515963,1,right
18.489,-1.1649003626710668,1.022145291465086,-0.389687948183965,2.0940272501010995,0.7651489542791017,1.916859275138226,-0.010725325078661255,2.2433660743829265,-1.8137461478027546,1,right
18.492,-1.1676978591402032,1.0344008948022734,-0.3896464381137681,2.1095014744292544,0.5653926198906295,1.9386298275178837,-0.14977388148346055,1.717523839237081,-2.084649129564764,1,right
18.493,-1.1818311874768972,1.0715986542132088,-0.3928825858962911,2.0716779375544254,1.0562646838899619,1.8851278365512205,-0.18292794700378484,1.5923709922011176,-2.1493078184899037,1,right
18.493,-1.1849419613370986,1.1196916105180645,-0.3892416193861834,2.1344779873745434,0.24241270114540803,1.9738473603707059,-0.1577947358137441,1.6872644233761194,-2.1002974855392296,1,right
18.497,-1.1738391660349832,1.1342366189156248,-0.3839060382101674,2.0515048243399985,1.315862867318265,1.8568134814929653,-0.17294803095028372,1.6299836412283624,-2.129829575811962,1,right
18.498,-1.1700398601473128,1.1389679820152476,-0.38101999772870465,1.7034340421855776,5.822728523286022,1.3656889169235908,-0.16679195067828181,1.653409107280324,-2.1178694343780524,1,right
18.499000000000002,-1.1445838038960048,1.1500750506917194,-0.36074395700180495,1.620352530170024,6.896234928271891,1.2486515972475414,-0.16668687497416892,1.6534823727027361,-2.1175877126187013,1,right
18.502,-1.0984846832233284,1.1561961694410972,-0.31942354844732623,1.683196181566266,6.082194622232233,1.3373558260678187,-0.1699430985142263,1.6416210059019838,-2.1240389607075834,1,right
18.503,-1.0478550252414998,1.153604924975989,-0.2583159933403635,1.6456780115354919,6.573495069662938,1.2839226122599536,-0.16604863117354585,1.655907230545853,-2.1163473187548343,1,right
18.508,-0.993029834231594,1.153162618496518,-0.17589807295819498,1.6602257555467044,6.37300970642075,1.3055419440654052,-0.16907402912161656,1.6446586969581243,-2.122287320152184,1,right
18.508,-0.937825559113512,1.1553191575759185,-0.07623421110810258,1.661710624681192,6.371215090652112,1.306061930924767,-0.1674643192742174,1.651099663656764,-2.1192326706706472,1,right
18.514,-0.876347510239323,1.1568237619147994,0.03735048555527909,1.652358139003796,6.47494512138087,1.294437097551032,-0.16778189550740774,1.6487475265049722,-2.119584750423039,1,right
18.515,-0.8120555428411593,1.16139641346965,0.14947435890627256,1.6625955752000037,6.349908973640422,1.3082014073296548,-0.16830578554830528,1.648749076883719,-2.121064764713785,1,right
18.517,-0.7428405647605695,1.1668892785535077,0.24359927065883435,1.65612575871794,6.448492573662481,1.2977296743612066,-0.16744611237611418,1.649569024415818,-2.1188268095146974,1,right
18.517,-0.6659792368554645,1.1734996595360996,0.3087920091986801,1.6567180134418265,6.3930160911560225,1.3028997127470898,-0.16823642228096142,1.6485175674158334,-2.1208151814354186,1,right
18.521,-0.584911553068443,1.1789853084283353,0.3405107324916809,1.6617815582953221,6.4098481686832045,1.3025734831820888,-0.16776797392237713,1.6503046164594917,-2.119906023112123,1,right
18.522000000000002,-0.4914581709671754,1.1798067283425988,0.3464919697712898,1.6533468049019298,6.4179377374564215,1.2998417130979234,-0.16780602349411886,1.6465731776727748,-2.1191497879505397,1,right
18.526,-0.3877504312627409,1.1763501934382372,0.3302349505010047,1.661078781209354,6.398449094888431,1.3034403899140967,-0.16818724915226158,1.653331112235285,-2.1217903690898843,1,right
18.528,-0.27817101460111815,1.1656500585694123,0.29737291026680657,1.6593785197619302,6.421166341563863,1.3009775190513944,-0.16750645731761354,1.643673388715098,-2.1176328641608446,1,right
18.531,-0.16516930145183872,1.1504645606947017,0.2617862684994103,1.6496717565814112,6.397277164951918,1.3008453969200504,-0.16825302992584928,1.6538897730926938,-2.122105278464686,1,right
18.532,-0.053999726701284674,1.1346293065882727,0.2281260167666224,1.6740257987806624,6.423784977781518,1.3042084478384925,-0.16778869926392265,1.6481112334824768,-2.1194570459019753,1,right
18.535999999999998,0.05378845774824804,1.1140708919927451,0.19562991263345603,1.636928626960071,6.394131379625579,1.2981132215607811,-0.16755180363519434,1.6425132763321475,-2.117492217202807,1,right
18.537,0.15456268902706885,1.090111296793252,0.16391189777437692,1.676755639580962,6.422123320900821,1.305005549151454,-0.16885593851214836,1.666003291056525,-2.1266114101303257,1,right
18.54,0.2509241719499533,1.0667448932959678,0.13378730767048688,1.6535547285768903,6.408376226683414,1.3007582466404626,-0.16638918149958748,1.6226227485170757,-2.1096062172826318,1,right
18.541,0.33730146361151025,1.0435612033738353,0.10431420954542328,1.6341419643262207,6.388981659311163,1.2979206457820016,-0.16956740997704323,1.678285059141324,-2.1314623219011493,1,right
18.545,0.4102447186061763,1.0217450521720612,0.07017651573997608,1.720185451234689,6.459943317387223,1.3118592363015156,-0.16690972294368797,1.6318311501600307,-2.113207885114881,1,right
18.547,0.4669410801232282,1.0015796617258421,0.028809112964787793,1.5603593554276514,6.331632256457233,1.285650412842429,-0.16699839898095376,1.6330268959831367,-2.113733264310986,1,right
18.551,0.4977192239691495,0.9845154797783666,-0.017603551404689305,1.7656788431663477,6.495205564752779,1.319434097964081,-0.17201106467586164,1.7218089318308072,-2.148436757297938,1,right
18.552,0.5151875131381105,0.9700062876165833,-0.06289784598912165,1.5942243956855546,6.359145665322641,1.2911736613147586,-0.1596708964741975,1.5036644821716718,-2.06310423920317,1,right
