time,gFx,gFy,gFz,ax,ay,az,wx,wy,wz,subject_number,foot
15.415,0.6982821047941807,1.6515038981122159,-0.41938890148956154,0.1174504683556847,-6.598417703314058,0.05085878129240699,1.8368971644411856,-0.8064085243460837,-5.647717946354705,4,left
15.419,0.7171525172035349,1.6456131965844532,-0.4304106589880323,2.0941407631566413,-5.285537653851765,0.7700459678373773,1.837097639525386,-0.8055441321188392,-5.647702367243726,4,left
15.42,0.7832566527665357,1.6219195168785454,-0.46412216724341715,2.565067688853245,-4.973074719160877,0.9413487174145596,1.831724298439191,-0.8401119346928626,-5.652800468208344,4,left
15.42,0.8668190160280707,1.5862984271075655,-0.4929985313920162,2.208023995385502,-5.209976716794409,0.811473975294986,1.8381864558313588,-0.7987373563890947,-5.646752566319651,4,left
15.424000000000001,0.9110180153588459,1.5621100121574603,-0.48617735675953133,2.42339605224785,-5.066958571992867,0.8898198425262281,1.8331180823575728,-0.8309148766782404,-5.651382085663293,4,left
15.425,0.9515815720634614,1.543389467754352,-0.4803285536536069,2.335690495892098,-5.1255116586978335,0.857902610218833,1.8358324809656315,-0.8135402614751562,-5.648844050052746,4,left
15.429,0.9648935628636794,1.5275622126122737,-0.4713014480557951,2.334620884667715,-5.12554434153412,0.8575408674361336,1.835373247817373,-0.8177128076594287,-5.6497856063207905,4,left
15.43,0.9449463377380001,1.5118350189005725,-0.4595752147431515,2.380328473298706,-5.096149415294013,0.8741294311663361,1.8342086351105682,-0.8217586600220294,-5.649458382544629,4,left
15.434000000000001,0.8933437988684612,1.491609460048222,-0.444121508608113,2.3255267896682508,-5.131597483762686,0.8542320439541423,1.8362200363034473,-0.8147509598193003,-5.6500153353705915,4,left
15.434000000000001,0.8069173854805329,1.4683843530440233,-0.4117174358671669,2.3682904476034556,-5.103609028891105,0.8697715663925892,1.834102442794041,-0.8210346972524738,-5.648974481546133,4,left
15.437999999999999,0.7012433027026813,1.4394501702136617,-0.3627409892683259,2.3449689107195377,-5.119879714068624,0.861257467673709,1.8356461616374573,-0.816978844956529,-5.649951151275227,4,left
15.439,0.5800016824898813,1.4062784530832997,-0.29414650592199504,2.350913528507236,-5.113394891737317,0.8635192889851344,1.835319805085061,-0.8191920240406,-5.650308575997511,4,left
15.443,0.4535219587404912,1.3704607905693393,-0.2124173158503226,2.3558997303395635,-5.114454598803418,0.8651618191741788,1.833870786975934,-0.8173592409005926,-5.647047172820246,4,left
15.444,0.3326780377385724,1.3301986293610193,-0.11858005198011067,2.3466948292421046,-5.115205511963454,0.8620234845005019,1.837365281222958,-0.8203356837921596,-5.654311349688091,4,left
15.448,0.21976754160821696,1.2834670251645492,0.004408339015531237,2.3555271062076804,-5.113613886859113,0.8650689521812602,1.8321950094803978,-0.8156130529392562,-5.643432145757609,4,left
15.449000000000002,0.10989493006003992,1.227135669665786,0.14929332907226434,2.348849089585567,-5.118085027750303,0.8626382211655881,1.837649765961579,-0.8210220117336011,-5.655085919080252,4,left
15.453,0.0008837980569769872,1.1627831458121936,0.28794962721045947,2.3538359844904253,-5.106850020604464,0.8647627772776745,1.8344979425915002,-0.8178993795770091,-5.648355525778143,4,left
15.454,-0.10028566116649282,1.097396922115494,0.41403285594658834,2.3490938276113313,-5.1281071813687085,0.8623283058283009,1.8319046984713114,-0.8143828791583148,-5.642417611331311,4,left
15.459000000000001,-0.20118038070952088,1.04019537950047,0.5443158024213041,2.354574578019002,-5.097453883643158,0.8653801989419103,1.8434127308577555,-0.828708528156168,-5.668222029060248,4,left
15.46,-0.3128751164486168,0.9997755329224295,0.6742960762111487,2.3490286854350266,-5.1299333838231185,0.8622349726558667,1.8220643810877255,-0.8021911346386557,-5.620382711059085,4,left
15.464,-0.4316158736495976,0.9822506020361707,0.7726623898145337,2.3517645895273986,-5.111478470478275,0.8638814833366324,1.849464843002413,-0.8363132397112415,-5.6818144595522035,4,left
15.464,-0.5500179507092477,0.9872649299960915,0.8300484167776491,2.3564441046759423,-5.09402706855146,0.866146294244994,1.8265964332634606,-0.8077895823039205,-5.630533422724131,4,left
15.47,-0.6477918934639579,1.0070489371507274,0.8232688788029546,2.339763315738162,-5.167876371653731,0.8576187792892475,1.8272236908769215,-0.8084872272433062,-5.631884583162956,4,left
15.470999999999998,-0.7124024348042621,1.0295229576922098,0.7581363294635626,2.3700126929334546,-5.031378961790853,0.8731828186392023,1.8707846201265954,-0.8632173302672459,-5.729780677853759,4,left
15.472000000000001,-0.7418577641050439,1.0537365038657542,0.6650968819838645,2.331324268148166,-5.206544734561183,0.853254608396729,1.7637171143087336,-0.728737590532567,-5.489221550033861,4,left
15.472999999999999,-0.7292178943756553,1.0871834471860926,0.5165073207590704,2.363561968447102,-5.060350856784309,0.8698678577523841,1.9412314557428907,-0.9517370625258453,-5.888044671786227,4,left
15.479000000000001,-0.7029411995549145,1.1117814938627524,0.4008925660431763,2.3629261213695374,-5.064145003486718,0.8695077873875636,1.707101658545304,-0.6575611656636305,-5.3620318233894295,4,left
15.48,-0.6894317270372865,1.1206095924667454,0.36740245317094866,2.3006766481590906,-5.343437707330141,0.837538069423123,0.7242932213192277,0.5772423154948672,-3.153650891697675,4,left
15.48,-0.6474276592808832,1.1476085722611595,0.2550924325020128,2.4534013433842428,-4.657165754716012,0.9160079441815656,0.49018041968887704,0.8714823898849554,-2.6276930090558515,4,left
15.482999999999999,-0.548688858944881,1.1958617751938379,0.07197675690950225,2.2002457420603974,-5.794981496605689,0.7859317341533201,0.6676739314541489,0.6483973255677573,-3.0264591636798497,4,left
15.484000000000002,-0.4801595619415463,1.2235171458775618,-0.01968872906067419,2.534154716099903,-4.294218318738843,0.9574954867982388,0.5606080801845257,0.7829078830861256,-2.7858685548860365,4,left
15.487,-0.4596784999460357,1.2319030029083544,-0.04875619050476414,3.9360339532199498,2.005514843002111,1.6778031801250837,0.6042121755674321,0.728290127902068,-2.8839801866022996,4,left
15.488,-0.37535745876896687,1.2608124256338984,-0.11801659790472904,4.269979326929972,3.5062891848665116,1.8493712147911798,0.6047346449108948,0.7272719353428044,-2.884879798935928,4,left
15.489,-0.25404316633263774,1.3008522431359228,-0.17525985795447813,4.016784341237648,2.3684613714216196,1.719290373726599,0.5820260165934994,0.7563182969139336,-2.834236417066177,4,left
15.492,-0.1590186150835976,1.332252489689552,-0.1760510338721744,4.169494066403246,3.0547287047629537,1.7977584799775985,0.6092554571715116,0.721596860587955,-2.895045402852751,4,left
15.493,-0.0643404175678213,1.3614405778622727,-0.1604642505568159,4.1073752102809244,2.7754761194127715,1.7658041430255038,0.5880030220471961,0.7485192414864402,-2.847452123310277,4,left
15.498,0.01988222494404737,1.382914878668001,-0.125436500036345,4.106458312939033,2.7715956876781314,1.7654109874169568,0.5996069354474185,0.7343709186941381,-2.8738435591103237,4,left
15.499,0.08925251939899238,1.389447930743866,-0.0696459218344534,4.139098991180676,2.917913252685263,1.782071667136176,0.596617139313703,0.7367359182732498,-2.8661045716998435,4,left
15.502,0.14650807324777632,1.379260884609091,0.001496229597803659,4.100009273360206,2.7426243482173076,1.762096235097014,0.5941983671254716,0.7421720113443092,-2.862426487886167,4,left
15.503,0.18375781642178812,1.357535645936639,0.08448731261399568,4.1304318216806415,2.8791748221895204,1.7776806331630355,0.5987006399494784,0.7335741599694935,-2.870388474167689,4,left
15.507,0.20515694347763772,1.3273826962509514,0.1604045960612807,4.114095580296807,2.805431403349388,1.7691937064031933,0.5943686565176738,0.7413613800669043,-2.8623716528263152,4,left
15.508,0.20663837428377393,1.2872101624189325,0.23147364006514554,4.117665131558917,2.8225419804562586,1.7713278374634185,0.5976889823582158,0.7372102941721572,-2.869847502152771,4,left
15.512,0.1936855959542407,1.2451900485116654,0.29353612802402584,4.122313595517541,2.841584002822364,1.773199477508939,0.5951009379581562,0.7361128657650948,-2.8608472784351484,4,left
15.513,0.17707781583944965,1.2008667573590062,0.3447882433049259,4.114420464068615,2.8083841282447954,1.7697780008697377,0.5977072358015941,0.7427772481662875,-2.873982005472959,4,left
15.517000000000001,0.16096352907447758,1.149256740529696,0.39536777097901643,4.121772618752917,2.8396115106162334,1.7730500745751916,0.5946115309709175,0.7318397535906418,-2.8561679802177222,4,left
15.517000000000001,0.15359123741772962,1.0902792394344765,0.43607959331478574,4.117046972968771,2.8183600016038852,1.770617702351485,0.5977638785517689,0.7436846204201781,-2.8748261782558266,4,left
15.522,0.1609520869894115,1.0223252456798777,0.4636191321914943,4.118561417631112,2.8285284298720246,1.7723333470095053,0.596175785594587,0.7365481047694621,-2.864569519344859,4,left
15.523,0.1845339855790077,0.948488208686993,0.47017992149035504,4.119819404820946,2.8264938055853355,1.7708368660887275,0.5936516131409628,0.731845810229978,-2.853133263908834,4,left
15.526,0.22078661939331934,0.871151873514703,0.45578620930720554,4.116812214953351,2.8244513199121473,1.7724887834924927,0.6028072131856872,0.7547976320363359,-2.8989357295562614,4,left
15.527000000000001,0.2606012259776891,0.7975778660739732,0.4362073102300362,4.120228755307355,2.827573508667984,1.7708357630555447,0.586169943999267,0.7118054615350674,-2.8147620530215685,4,left
15.530999999999999,0.3118485151597805,0.7302617422054367,0.3975695358799835,4.117921894553771,2.8242775602665287,1.7716205046703242,0.6074555989511199,0.7671049809322721,-2.9226720351977513,4,left
15.532,0.3724864252707343,0.6627766987353597,0.3553785934102589,4.117580829299004,2.8288295290083205,1.7731415419367011,0.589717610105094,0.7209002186928992,-2.832654743202951,4,left
15.536,0.4342098480083859,0.6075613402506719,0.30191604863803007,4.121770847355901,2.8210070579303057,1.7678666298358392,0.5900756585519518,0.722297920968917,-2.8348201878911237,4,left
15.536,0.5027216959939234,0.5741208451983397,0.2272138360235707,4.1135129631483665,2.833332799517732,1.7774002325602551,0.6242961881938638,0.8099166047171257,-3.0073507775453345,4,left
15.540999999999999,0.5618057688660615,0.5533828894469153,0.14693940876770817,4.12422667424687,2.8179917375852472,1.7652135528224937,0.540332538528111,0.5943890304007051,-2.583614025010812,4,left
15.542,0.619250602669993,0.5350031509149413,-0.009532907671514754,4.115236623517959,2.8306074574741036,1.7753665968142576,0.679507884572179,0.9517858990619497,-3.28610268016881,4,left
15.546,0.6476374335164146,0.5306858882446004,-0.1430191788363847,4.11565296986409,2.8310119238929,1.775174911077407,0.4959422313626956,0.4803801055884022,-2.359533946388484,4,left
15.546,0.6446706909109963,0.5358496519635632,-0.180093381593675,4.1322306759232115,2.8044950738000667,1.7555389004277797,-0.27483725337993314,-1.4981859124580073,1.53022302661039,4,left
15.546,0.6507253996652191,0.5416802825268475,-0.3171411232161097,4.091277897542241,2.868804863435667,1.80370724136365,-0.4584216103365188,-1.9695745629495829,2.4568300098390297,4,left
15.550999999999998,0.5644856377299587,0.5985507569349824,-0.5000261989756414,4.159236290693249,2.7623830634549495,1.7238622559110888,-0.3192139311153055,-1.6121895015636774,1.7542858314883873,4,left
15.552,0.46201284570794354,0.656746023135149,-0.5659918406992672,4.069590083621138,2.9027594157452152,1.8291814814701126,-0.40321273201414654,-1.8277480044609336,2.178056928139326,4,left
15.556,0.4270196472004962,0.677311444274044,-0.5830171426655313,3.693606189373723,3.4927981353779463,2.2713118867395403,-0.36897099311497805,-1.7400185773648456,2.0055603590094426,4,left
15.557,0.2493790586002666,0.7794808529835517,-0.5887927848817563,3.6039719498649108,3.633310855455928,2.3766524163752463,-0.3685995662456548,-1.7388262718652805,2.0032527364537422,4,left
15.557,-0.0529647532617397,0.9633302330905074,-0.5467716576520831,3.6719174181981993,3.526741500041758,2.296784382043753,-0.3864039833044528,-1.7847628620876432,2.093529107489992,4,left
15.561,-0.3870163886200636,1.1895219292702404,-0.4624480367932692,3.6309596327033278,3.5909952262515175,2.3449439538750436,-0.3649931648168296,-1.72969750337256,1.985292155810505,4,left
15.561,-0.7805192878825609,1.484829644080754,-0.36829228401490577,3.6475804590335654,3.5649676781215307,2.325384406321124,-0.3817940280157912,-1.7726496996788084,2.069735008252193,4,left
15.565999999999999,-1.1491556751357923,1.81048196580344,-0.28387692939042564,3.647904140398944,3.5643192798331933,2.3250282042649326,-0.37249339021241346,-1.749356100576298,2.023918154999111,4,left
15.567,-1.4537304424632569,2.1425243767061826,-0.23070908235653195,3.639046861396318,3.578444649923183,2.335417128326039,-0.37505034383982555,-1.7549172948767333,2.03489296950519,4,left
15.57,-1.665315201945114,2.4598315149520906,-0.21256200576829243,3.649628473303525,3.5616002216853038,2.3229955649520386,-0.3768285866247816,-1.760711313123343,2.046232992624466,4,left
15.571,-1.7489080323843749,2.7108744753049385,-0.20572066912197745,3.641427376230765,3.5745747675338633,2.332630508769481,-0.37318093629350213,-1.7503680746997854,2.0259390598072473,4,left
15.575,-1.7501689708692239,2.868667367216177,-0.2272003187113683,3.645731316133256,3.568042956244266,2.3275573097800755,-0.3770628971217136,-1.7603264721775826,2.04551464023555,4,left
15.575999999999999,-1.6847193564491652,2.9319980725965564,-0.30644426631749494,3.645024114658919,3.5684368423178556,2.328428600930841,-0.3735624978815955,-1.7531512704721104,2.03134233339045,4,left
15.581,-1.5355494997651047,2.916198290906629,-0.42661895483110107,3.643347646398488,3.57230573289455,2.330332866427038,-0.376758985115602,-1.7572176617694082,2.0394902450166357,4,left
15.581,-1.3119635065691972,2.8291438461257457,-0.5398117076089403,3.645991042067326,3.5666345620625743,2.3273059264346063,-0.3736819246202504,-1.755494004943563,2.0358718641982296,4,left
15.587,-1.0492215961074147,2.6743441077521712,-0.6021927958572124,3.6435994861762255,3.5716030227572215,2.330053173366479,-0.3763432233182328,-1.7557422598906007,2.036605354107934,4,left
15.588,-0.768869366523094,2.465675777542599,-0.595886298527048,3.6448646958597655,3.5696298295070465,2.3285665123488464,-0.3752203413851919,-1.7566647289719892,2.0382758943101393,4,left
15.59,-0.49112337514818466,2.226558322438438,-0.5092569488822416,3.6452327040001458,3.5667901969260516,2.328249380006212,-0.3729628451003265,-1.7541457861239849,2.033204747947803,4,left
15.59,-0.24511585644094216,1.9923895734175818,-0.3473097351191764,3.6431238969626314,3.5752683340101696,2.3304624726710204,-0.3804637800316072,-1.7590554401342184,2.0433862150586988,4,left
15.595,-0.03395926052672761,1.7862176960513731,-0.14768683340408073,3.646574678956085,3.5621423895428075,2.326804352848818,-0.36711502246025784,-1.7513954940805907,2.0273423279887797,4,left
15.595,0.13792122466848636,1.607453962656311,0.0664432227922811,3.64283740875472,3.576226087571401,2.3307705231296794,-0.3840534312620788,-1.7607097838407548,2.046921312855919,4,left
15.599,0.27501130253182265,1.464897846521715,0.2921540404877017,3.645089935416538,3.5679447990765185,2.328373811382286,-0.3699970386450304,-1.7531551601649853,2.0310066577835726,4,left
15.599,0.3727132860550033,1.3529133540890137,0.5186982931415891,3.6465773806710597,3.5615106210506617,2.326827733509031,-0.37024790008052466,-1.753017217142272,2.0307745851319434,4,left
15.605,0.42025827410739197,1.2648555521428813,0.728086741061414,3.6393182106475046,3.590828480383626,2.3344455200996723,-0.3973959312013464,-1.7683322766037082,2.0628845386144965,4,left
15.605,0.42079827867322084,1.203500730057398,0.9003122060108589,3.6529218804673014,3.5362431576386513,2.320164237786276,-0.3308554483996798,-1.7311869884869187,1.9849189066765511,4,left
15.609000000000002,0.3558674102942503,1.135720479172933,1.0157733796334152,3.6354138755097845,3.6063896026815714,2.3385371414436706,-0.44111423337259037,-1.7925851877205674,2.113830984831907,4,left
15.609000000000002,0.2989429873375088,1.0906826625109172,1.0676116123143466,3.650058421966656,3.5477941912236703,2.3231836711558134,-0.2957059009642121,-1.7116738680720962,1.943923448617212,4,left
15.614,0.2815089935226113,1.0769578937784916,1.074741412408158,3.649579082045684,3.549486403559599,2.3236548372000905,0.3147042661179094,-1.3717224154368215,1.2302775192967204,4,left
15.614,0.21478140800840934,1.0261767399508006,1.0859974655329463,3.6218939681319515,3.6608984129637476,2.3527502882334907,0.4601144251415127,-1.2908318267280108,1.0603841589885863,4,left
15.615,0.13393728363969426,0.9673221658571756,1.0968982810048438,3.6900700258513686,3.3869066162641968,2.281169918339711,0.34986894073671704,-1.3521683836657457,1.1892038058865166,4,left
15.618,0.07159150238916177,0.9202641267453527,1.0398798645714777,3.576959657073409,3.8412727975259093,2.399872942823904,0.41635456090478073,-1.3151534575884498,1.1115054091228074,4,left
15.619000000000002,0.028517758516842205,0.8838743818443453,0.9801750251095838,3.7262106809279683,3.241910405579337,2.243299678925256,0.38932464034459957,-1.330256577083834,1.1431032810398825,4,left
15.625,0.019545629431198554,0.878431247737766,0.9564461815249037,4.351960841629183,0.7268151823850872,1.5862000263623042,0.3888941746224737,-1.330383356898913,1.143596927364503,4,left
15.625,-0.017688274358352733,0.8657195167163014,0.8495329039813071,4.501303343567589,0.12737059020167174,1.429627711406018,0.4031484174625195,-1.3226023253423485,1.1269428393968568,4,left
15.626,-0.06399344783484855,0.8564753544784123,0.6864363629532096,4.388094019556219,0.5818257084538011,1.5483296994035154,0.3860875192539544,-1.3319507705941027,1.1468820426810158,4,left
15.628,-0.07623504297603026,0.8638263000452692,0.5266703685271451,4.456232370637043,0.3078677305560098,1.4767489737137147,0.3993507330421713,-1.3246313224780726,1.1313811349376497,4,left
15.629000000000001,-0.07524068241895583,0.8611476109478039,0.33333354856859826,4.428875692229354,0.41898474594408663,1.505847758872184,0.39227387745210174,-1.32869310079233,1.139643984385975,4,left
15.636,-0.06252730082056135,0.8570960046694723,0.1364141101796813,4.427689770352699,0.421311683180889,1.5063117033553592,0.39371392030596,-1.3274971887577904,1.1379846362161945,4,left
15.637,-0.049271439005092524,0.8444566609686259,-0.04196442777835382,4.44334734110496,0.3618061985757373,1.4909686255650159,0.3959338426090382,-1.326939493977304,1.1353483028206874,4,left
15.638,-0.039119283693556495,0.8099733582047086,-0.2022319894656821,4.424830663867815,0.4328588945849192,1.5093311326952237,0.39225699869444863,-1.3281551854537545,1.1396980498516485,4,left
15.639000000000001,-0.03207755967086308,0.7566572071295208,-0.3328277215975012,4.438869392741897,0.377882526395561,1.4950544249911029,0.3956494417189096,-1.326928909115183,1.1356908668289125,4,left
15.644,-0.02712645291824643,0.6901288080627719,-0.45083704936491104,4.432476760152398,0.40642221182367755,1.502680934822562,0.3935937505982726,-1.3280787445725875,1.1380925302247076,4,left
15.645999999999999,-0.00719538796332435,0.6242510258646266,-0.5613782781925745,4.43117350220602,0.4024948045513011,1.5011064053684748,0.3938978591853599,-1.3266825280307128,1.1378181305807378,4,left
15.648,0.025706489477625945,0.5736658280773916,-0.6648241460974367,4.438234155378152,0.3898942134161129,1.4987589165217632,0.39525725438921483,-1.328729937772959,1.1360443574168377,4,left
15.649000000000001,0.07784500186822352,0.5535170206313971,-0.7711761912266588,4.428596503839593,0.40927881190296556,1.5026644658832031,0.39273720285617064,-1.3259493967117342,1.1392657316802008,4,left
15.652999999999999,0.15507943852932407,0.5719326963756817,-0.8580947388236988,4.436750763095667,0.39192668513139556,1.4990549929616976,0.39551530174260807,-1.3288626988477485,1.1357245157426639,4,left
15.652999999999999,0.24367328365575178,0.6271419602853754,-0.9138815476362182,4.43468523438812,0.4003672707251317,1.5012677891304316,0.39376538176992093,-1.3272594004766367,1.1379395520200024,4,left
15.658,0.346134873592967,0.7058965310275209,-0.9514627741342743,4.426321704281437,0.4053700635647003,1.5008620563839903,0.3929737504642508,-1.3254802266762482,1.1390121868951084,4,left
15.659,0.4646224564787404,0.786541648959606,-0.9611673231102472,4.447538912423054,0.3854741169481356,1.4995791994938803,0.3976117162926359,-1.3326175025196263,1.1329483593606848,4,left
15.663,0.5924178996608586,0.8565215223697867,-0.9471195075877152,4.415384192241012,0.4171805819711742,1.5020213465746122,0.3887987411440591,-1.3194976878044038,1.1444406476597253,4,left
15.664000000000001,0.7237589972050389,0.9117515707986116,-0.9281079865750381,4.449753417610086,0.38300584551405836,1.4993209392785158,0.4001626054918291,-1.3363192438908715,1.1296290633137467,4,left
15.668,0.8513716747102423,0.9513969316371778,-0.9136581904576292,4.429750095313175,0.4033442835329102,1.5010343462920357,0.3906561587617922,-1.322284244329672,1.1420160868739857,4,left
15.669,0.9616048071076835,0.9736697186965975,-0.8999962736256824,4.413230861899001,0.4179349312017202,1.5017479595980965,0.39098746705118925,-1.3226281962061013,1.1415966923365604,4,left
15.672,1.0441952001573704,0.9788355198842232,-0.8796464853607473,4.486706698541732,0.3492705112526995,1.4973792853121097,0.4088717528734461,-1.3495126636883936,1.1182550080840485,4,left
15.673,1.1029094174777234,0.967953101719216,-0.8473046252002685,4.350237817871567,0.4774708269759237,1.505701569921031,0.364826996159399,-1.2834716190003395,1.175723228560277,4,left
15.679,1.125324266588981,0.9396670046571343,-0.7872875329664738,4.525509203862367,0.31267090163613476,1.494971799814254,0.4378779620665324,-1.3929669034981562,1.0804156623735024,4,left
15.679,1.1254336760065606,0.9179485236803335,-0.7457742554544616,4.379179233944315,0.45031635574175277,1.503938726993902,0.3415219304537346,-1.2485343234966286,1.2061239398813848,4,left
15.682,1.1223418702502626,0.9132153199505367,-0.7331159023586198,4.383179947824813,0.4463269435043142,1.5036440334878658,-0.06282441150090728,-0.6422743869505559,1.7336821598981214,4,left
15.683,1.0995181637611084,0.8935726780381331,-0.685565448825867,4.662040441321008,0.1847641061394877,1.4867393896755123,-0.15917265081415646,-0.4978110765269016,1.859369807184897,4,left
15.684000000000001,1.061188037447454,0.8690374026068804,-0.6266313236751658,3.9766152986585,0.8279337604274116,1.5283294129603644,-0.08612932212430037,-0.6073518683805015,1.7640891778792547,4,left
15.687999999999999,0.9976946446361916,0.8707724917985946,-0.5734686159159661,5.113057967998568,-0.23851052577969928,1.459382852660142,-0.1301800960572389,-0.5412800472664265,1.8215495364202285,4,left
15.687999999999999,0.9464063454131368,0.8784014099494439,-0.535846804192915,3.614129416496344,1.1680911548862412,1.5502978542713373,-0.11226205004404882,-0.5681437449757274,1.798167522182993,4,left
15.692,0.9317819631138132,0.8806824185711772,-0.5282274868049565,-2.678529809111794,7.073017992358594,1.9326032494259022,-0.11199950983941193,-0.5685921898745521,1.7978574228585549,4,left
15.693,0.8747125813654426,0.900580183269986,-0.49708251308295376,-4.177486034275373,8.479622965646243,2.0235374562351884,-0.12141045654140982,-0.5543594869882441,1.810069708767279,4,left
15.693,0.7917431929915884,0.9371720937177062,-0.452914774291477,-3.0408843715555163,7.413029371975628,1.9544686467543233,-0.11013781857577151,-0.5714377261013994,1.795454649658308,4,left
15.697000000000001,0.7281486060017006,0.9737006469464924,-0.4128559506343182,-3.726755233302417,8.056713904232925,1.9964101781079717,-0.11891862126601355,-0.5580960829069146,1.8068203142139083,4,left
15.697000000000001,0.6582080815791149,1.0090213459921344,-0.3558454810152842,-3.447051687515094,7.794098619539471,1.9788334989690308,-0.11418574993548496,-0.56526889625875,1.8006841115032552,4,left
15.702,0.5828039020679152,1.0455705131747166,-0.2999867100293377,-3.4442353476025973,7.791662688185914,1.9794897682852863,-0.11525459627933068,-0.5638155504806812,1.8021556896543944,4,left
15.703,0.5014301193909679,1.0819042469298354,-0.24367403508403238,-3.5893711973767433,7.927649993780289,1.9874895146675682,-0.11654304126219203,-0.5614009142922288,1.8035892182122526,4,left
15.707,0.41042915334696484,1.1149789137970363,-0.1826244151074409,-3.4146593241573715,7.763790220809148,1.9772278312959435,-0.11431411167438962,-0.5655752715711035,1.8011070255862225,4,left
15.707,0.31055016369759214,1.1437579451257907,-0.12657569713466227,-3.5520558929893227,7.892905208752753,1.9862673836236886,-0.1164219907152338,-0.561393086623659,1.8033348748722224,4,left
15.712,0.20609380320703435,1.1698938216219534,-0.07361955147060337,-3.4754056971767855,7.820391116573034,1.9793786159588986,-0.11499988491847599,-0.5643400164485965,1.801895676818543,4,left
15.713,0.10531985951219536,1.1905722659251392,-0.02853443825759958,-3.497515884675728,7.8421486150155575,1.9845661343946976,-0.11559607084528381,-0.5634530500908284,1.8026772929715214,4,left
15.716,0.00703233760225648,1.2044358661237244,0.00444106681300349,-3.510516890361097,7.853109735526767,1.9806396048857728,-0.11570141813406784,-0.5617841520420779,1.8020424244997368,4,left
15.717,-0.08118823890792905,1.212972138465207,0.028616928610285447,-3.481946821491278,7.8272874178537695,1.982663617863093,-0.1151326419246671,-0.5660904204894053,1.8030651255413854,4,left
15.72,-0.1591304560910179,1.2115377551118218,0.04972878642044607,-3.5136534611464896,7.8570502894457475,1.9846221473164805,-0.11590476201310704,-0.5597804545869728,1.8014399072474192,4,left
15.724,-0.22672380411549692,1.199691926726197,0.06835870552359327,-3.4828190520007394,7.826280351020776,1.9757763682152192,-0.11518293013567656,-0.5663554704539578,1.803304404909993,4,left
15.725,-0.28073820175590014,1.1819626772637855,0.08390116214543782,-3.5140708975647414,7.859799771379289,1.993610780602445,-0.11560100349704698,-0.562554501732715,1.802228601197391,4,left
15.728,-0.3242098821995887,1.1570067367119874,0.10397723485381127,-3.481258295866878,7.82275412977772,1.967842965137327,-0.1157372295855249,-0.5596153888817892,1.801008170980606,4,left
15.729000000000001,-0.35601430045596266,1.123665744107448,0.12924165885892747,-3.5111849599779577,7.857503855021021,1.9950062580690986,-0.11485104812754551,-0.5729158976340338,1.8059697269591648,4,left
15.732999999999999,-0.3800970230064353,1.0830687171145672,0.1473087811189616,-3.4972795021156546,7.840604372025951,1.9795148937504456,-0.11650872398849951,-0.5482274887201785,1.7967875919575405,4,left
15.734000000000002,-0.3897300170397039,1.0406372125342727,0.1499066134862071,-3.4747651375826853,7.816153246571738,1.9655282435441628,-0.11439899060733902,-0.5799015316063043,1.808601911676904,4,left
15.738,-0.3921247827573159,1.001854707457492,0.14376384965659017,-3.5538785356509695,7.904930092665774,2.025574892943644,-0.1161515560647311,-0.5534699360971655,1.7987280687304443,4,left
15.739,-0.3834902756017819,0.9679498644717733,0.13031593341802528,-3.4117472925925956,7.744599143083568,1.9144905225116713,-0.11608112377892787,-0.5542236417682432,1.7989635970548372,4,left
15.743,-0.3495652092502174,0.941115212624056,0.10688074287025878,-3.5926026920348773,7.948921696616277,2.057033984808201,-0.11283856711982175,-0.6044654387239663,1.8179246072522055,4,left
15.744000000000002,-0.30996381539975204,0.9224217787335098,0.08372469836208246,-3.4423043911470765,7.778994824007719,1.9380647818817598,-0.12082502912878908,-0.480944562965096,1.7713459764376016,4,left
15.748,-0.22862703992961317,0.9163390169040373,0.05936665100191453,-3.445319312648265,7.7825933425359874,1.941241122378229,-0.10758573648733882,-0.6857497309561273,1.8485762575917042,4,left
15.749,-0.1579184204800289,0.916399354092363,0.043742364781690336,-3.7347155613436547,8.109274485049426,2.16821342935822,-0.12504170211064233,-0.41561673244516806,1.746703954001573,4,left
15.753,-0.1476864371720542,0.9158303423046561,0.04173484933986321,-3.024923907231198,7.307773570476469,1.6103940176877567,-0.19826105504951244,0.7181176971692851,1.318998310923981,4,left
15.753,-0.0632183039844039,0.9260887735227921,0.023636168731341577,-4.201240387016941,8.636162842376045,2.535281678573708,-0.21570718259363636,0.988246126497178,1.2171174516613217,4,left
15.753,0.02345384270730869,0.9366248507837978,0.005914046616842384,-2.6498603425465967,6.884208114844826,1.3153388657289704,-0.20248290883493858,0.7834524586636662,1.294362697196013,4,left
15.758,0.034679709713689374,0.9398429699888335,0.0023636119715040515,3.8624427813346327,-0.4702016133535629,-3.8050210461347116,-0.21045792378833972,0.906951991003603,1.247767370189603,4,left
15.758,0.10703632701520886,0.9512980656371346,-0.0146474488476405,5.413851280709249,-2.222150990387976,-5.02501940584898,-0.20721200455232422,0.8567416733628365,1.2667393538691956,4,left
15.758,0.20110328742347483,0.9663822997319003,-0.03720823940364767,4.237628716299932,-0.8938845229781774,-4.100079218082964,-0.20717014882472196,0.8559522215689446,1.2669791156940897,4,left
15.763,0.2637799583092032,0.9785124383490151,-0.06010920202928173,4.946966964611425,-1.6949731668903822,-4.657848955190234,-0.20886465444385455,0.8824094608847401,1.257076909539966,4,left
15.764000000000001,0.332375486071155,0.9899384507095286,-0.08520698247142208,4.658583437860352,-1.3691272970865072,-4.43113128572063,-0.2068340807844683,0.8507418717483484,1.2689473209379374,4,left
15.767999999999999,0.38961186007138554,0.9990554226520458,-0.09860728802477332,4.653997853428642,-1.3643024245072786,-4.427443995490702,-0.20841796299715656,0.8753680890867788,1.2596892680905623,4,left
15.769,0.4413124273879962,1.0025935833663775,-0.10549064894245759,4.806061126029091,-1.535530619084979,-4.547116226100101,-0.2075551451675084,0.8621989325519955,1.264721827552178,4,left
15.772,0.486055264818833,0.9998621232096976,-0.11100876348358782,4.624056540754488,-1.330483081228372,-4.40390963127332,-0.2077732361146579,0.8649504153836023,1.2634776774009562,4,left
15.773,0.51666693625332,0.9943782900610378,-0.11118550804676297,4.765553940820457,-1.4900667828934056,-4.515211541858443,-0.2079610663190396,0.8689410100759702,1.2623263822478332,4,left
15.777000000000001,0.54083258032339,0.9829374839205453,-0.10991280853701348,4.690030446193059,-1.4043551291286924,-4.455892377929008,-0.20761648904276925,0.8622751900902687,1.2644070671246688,4,left
15.777999999999999,0.5505018699873453,0.9650074591027973,-0.10541889258594547,4.705459038527614,-1.4231346957637485,-4.467807496569472,-0.20794643183463896,0.8684456084031889,1.26242499378289,4,left
15.782,0.5454096287972034,0.943668466684516,-0.09402206098502716,4.729031144859449,-1.4474207851342826,-4.486713831903968,-0.2076991727925407,0.8646258766334947,1.263869140015806,4,left
15.783,0.5316851984143056,0.91817710523355,-0.08171143381414703,4.689941318309966,-1.4061396472865109,-4.455523459308875,-0.20787859942851486,0.8654349425133232,1.2629225597634965,4,left
15.788,0.509648667077867,0.8899828933616059,-0.06667450466007573,4.726024700009299,-1.4446065861259294,-4.48425689837636,-0.2077149168671008,0.8674017898237429,1.2636460197077715,4,left
15.788,0.48036905407988784,0.8622540099155465,-0.04972732937896024,4.704091143523922,-1.4198164211221322,-4.467012909371459,-0.20790012168592373,0.8635538267573913,1.2629116321046325,4,left
15.792,0.445956095351143,0.8395814064926738,-0.03882573400200234,4.707542599523936,-1.42794923602003,-4.469061229837708,-0.20771366711473901,0.8678259075069713,1.2636302322944104,4,left
15.793,0.40581190223935526,0.8231633893504385,-0.02829304597907175,4.721573383958929,-1.434116057549701,-4.481614599780785,-0.20780402981655993,0.8650888295745149,1.2633164807151607,4,left
15.797,0.3606644058742589,0.8142535930062396,-0.01384301201784724,4.695391909479003,-1.4189874339892636,-4.458759712045541,-0.20796797220833885,0.8640605551780439,1.2625435986057014,4,left
15.797,0.31269551681366126,0.8147114482961142,0.00445102762125714,4.724280131986376,-1.4362193690936993,-4.483892027979042,-0.2073913477208832,0.8707394726929538,1.2651036322800384,4,left
15.802,0.26401639948533173,0.8249284900941947,0.02322918145749047,4.706043861997444,-1.4245187620826623,-4.4681566772895795,-0.20843525223206635,0.8579603193441874,1.2605045323651956,4,left
15.802,0.2147961658081306,0.8458970599894375,0.03239183449021285,4.697973431050032,-1.4230701356464595,-4.460605781490134,-0.2071005798268864,0.8744573291154161,1.2663766067100832,4,left
15.807,0.16868165893449727,0.8725854555592752,0.034947326425023614,4.745816028302345,-1.443549196435877,-4.503494859822737,-0.20821244122548027,0.8606494761170986,1.2614879153542904,4,left
15.808,0.1238916232945536,0.9046252638898591,0.03530346739187014,4.6548301533784535,-1.4030179849393494,-4.422180327973452,-0.20819139195793632,0.8611593949274268,1.2615682425373507,4,left
15.812999999999999,0.07833506291693089,0.9377531034960166,0.03133617834227681,4.772169407975509,-1.455635627134468,-4.526990561517032,-0.20604179369040548,0.8870405456009776,1.2710603092810384,4,left
15.814,0.04005195622210112,0.9663681003852486,0.028606818637210332,4.67400047047207,-1.4114743784487,-4.4393285324590295,-0.21131441512811516,0.8232682154403679,1.2477914752516401,4,left
15.815999999999999,-0.0018348908539426766,0.997209969360407,0.026423850388526356,4.677452022834925,-1.4135626242020585,-4.442320127220745,-0.20257517699757666,0.9290457393747227,1.286356106785738,4,left
15.817,-0.030342503484143947,1.014410638948858,0.023826689269576307,4.8620402101489795,-1.4948429720023644,-4.60744321334713,-0.2141016129810187,0.7895241285076192,1.2354913025808836,4,left
15.821,-0.035614292650830985,1.0172766072317199,0.024133239824649926,4.407403111588247,-1.294010673276183,-4.200862034049487,-0.2624983030436101,0.20406948564839517,1.0219103384735329,4,left
15.822000000000001,-0.061674065342943625,1.0311843573549861,0.019677086913717792,5.161461897162283,-1.6272752887885946,-4.875179570780535,-0.2740249045448589,0.06456874922008524,0.9710404251174699,4,left
15.823,-0.08551730152484714,1.041129711087915,0.014514928366194706,4.166832625293909,-1.1876741831656588,-3.9857439505772954,-0.2652859522904356,0.1703220814765954,1.0096098590266696,4,left
15.825999999999999,-0.08652836814619688,1.040171921407924,0.012398196859687198,-0.00685714867582865,0.6562055835450317,-0.2532321037584777,-0.27055685873687024,0.10654685329374279,0.9863456967336124,4,left
15.827,-0.10006603111463382,1.0422708488649879,0.0029604722655416794,-1.0014076447712525,1.0957058201395788,0.6361265922863352,-0.2684112496867221,0.13249118585822123,0.9958141304105853,4,left
15.828,-0.11310717505696956,1.0375985323730137,-0.007864741006329525,-0.24743407082924557,0.7625503255125553,-0.0381077170934767,-0.2683838853467676,0.13285732185571375,0.9959417683583482,4,left
15.832,-0.1151636182786619,1.0251702067464303,-0.018362196969130492,-0.7021036509942764,0.9634241765437181,0.36850511442322464,-0.26950298524510913,0.11926190043392157,0.9909880762328698,4,left
15.832,-0.11424551671888761,1.0114022587327252,-0.03178149367881031,-0.5172326113171257,0.8817817287366398,0.20310596022096528,-0.2681633733229847,0.13553953270293506,0.9969213385704353,4,left
15.835999999999999,-0.1047946314233833,0.9952229033695924,-0.03757149731395713,-0.514389560477127,0.8804725240072631,0.20070836264643274,-0.26920519635304446,0.12286959606506573,0.9923024097199467,4,left
15.837,-0.0893080906344241,0.979180154014657,-0.03884898952718259,-0.6116861031624028,0.9235168362647981,0.2875187187722226,-0.26864252121994486,0.12970334574588543,0.9947947551087688,4,left
15.841,-0.06982283066688702,0.9636953742551887,-0.04410071560744956,-0.49521548068838034,0.8720113667940981,0.18355657559506738,-0.26877822860042266,0.12811860046921164,0.9942138616626843,4,left
15.842,-0.04788737933940946,0.9494232616438862,-0.04755725959619388,-0.5858267260195832,0.9120628130861272,0.2645051686966776,-0.268907762411591,0.12637310403196583,0.9935840942565202,4,left
15.847999999999999,-0.023113590393983904,0.9374969377882618,-0.045885033604076586,-0.5372378345653303,0.8906284475574898,0.220887833186167,-0.26868329883561315,0.12939348596746486,0.9946748240822407,4,left
15.847999999999999,0.006080932840820829,0.9292193227953183,-0.04525995419266829,-0.5477116135455901,0.895153909820618,0.2307846588053579,-0.2688837766074548,0.1265953789168436,0.9936672053559547,4,left
15.85,0.03704596882072191,0.9258304115528105,-0.0482196161497597,-0.5618071965481973,0.9015532648646458,0.24247786812771616,-0.2687548207923652,0.12845203987591058,0.9943342636493867,4,left
15.850999999999999,0.06815033221249982,0.9240826763144194,-0.052183870925821725,-0.5380002287996862,0.890827013219152,0.22230627926485827,-0.26882656612846734,0.1275870380183377,0.9940185087357831,4,left
15.855,0.09683230671918895,0.9246874469198456,-0.05649369435077412,-0.5601312894970213,0.9007694138988575,0.24120622733817892,-0.26876262686873625,0.12781002811737702,0.994118936856193,4,left
15.857000000000001,0.12389407632577965,0.9264153318852086,-0.05670567692203847,-0.546063009326732,0.8945554022300697,0.22861763169855612,-0.26886943353548654,0.1277753657817302,0.9940629228450644,4,left
15.860999999999999,0.15147532048100104,0.9249793584523553,-0.05506313829959399,-0.5501312636979293,0.8960490786940813,0.2339085904620356,-0.2687009850711043,0.12793767850187207,0.9941867069258011,4,left
15.862,0.1763735935719994,0.9236167612803909,-0.056609520017025905,-0.5548823190982498,0.8988412719508554,0.23437985067909156,-0.2688926554227382,0.12761805488746958,0.9940013305332726,4,left
15.866,0.1979316825411963,0.9223391442160923,-0.05354017041643917,-0.5444304070967824,0.8931903242998174,0.2306686266323777,-0.26878204281488616,0.1278012312826617,0.9941078811528501,4,left
15.867,0.21573228067038402,0.9202045328617966,-0.04976954082992227,-0.5561989559117291,0.8994905519398257,0.23518468583551316,-0.26865982798643734,0.12828387859134896,0.9943181790602662,4,left
15.87,0.22803350626396068,0.9198832981023719,-0.04957269522797385,-0.5484086692554045,0.8954132643997752,0.23169064359406133,-0.26915991111814086,0.12659184260870282,0.9935511092224563,4,left
15.870999999999999,0.23733959451897751,0.9201922748174653,-0.045188779444162996,-0.546598456625273,0.8940643921969512,0.23306190906114882,-0.26823423986202016,0.12970895476367697,0.9949660756922342,4,left
15.875,0.24280661460191613,0.9217545776166645,-0.03960465926569934,-0.5625510128662343,0.90351247869684,0.23423475155489965,-0.2694250678912165,0.1256793676056183,0.9931392891512957,4,left
15.876,0.24536333203312632,0.9236922790873758,-0.03154832642825607,-0.5315161184163824,0.8853513241221307,0.23076528754369857,-0.2684298978126976,0.1290558919683759,0.9946689768557562,4,left
15.88,0.24719430405504367,0.9223687637545595,-0.022642795423939592,-0.5716939776771622,0.9088145298160415,0.23551021454301205,-0.2684539935998848,0.12899834765313947,0.9946397545147175,4,left
15.880999999999998,0.245618071950896,0.9220372447652205,-0.02198471158252137,-0.5380158974302901,0.8891681948696208,0.23143202449431965,-0.2703636694841033,0.12241499474333435,0.9916704674437767,4,left
15.886,0.24235818674978982,0.9234179112748238,-0.023676184460232168,-0.5394417252456789,0.8899230348325626,0.23199210862665748,-0.2656720871240593,0.1385708514058252,0.9989597304515145,4,left
15.886,0.2389481406341589,0.9213653552507355,-0.02432170544330363,-0.6019801175536604,0.9266526983009775,0.23829146398575685,-0.27345113528462456,0.11178072262794297,0.986872498000103,4,left
15.890999999999998,0.23668109605015328,0.9197748801570627,-0.02597910373418476,-0.4476545091806406,0.8361128573789147,0.22228007617566875,-0.26318992931367924,0.14712552443723037,1.002818853524733,4,left
15.890999999999998,0.2346250672318386,0.9197171301625406,-0.026285242879062053,-0.7037011479353814,0.9862997702788023,0.24896202108640697,-0.220110376247592,0.2955708130355302,1.0697798238843599,4,left
15.892000000000001,0.23059828934262167,0.9181184190386238,-0.026795477686176093,-0.36595027661125235,0.7881986351948014,0.21376062899674464,-0.20984803290801157,0.33092888475119886,1.0857308341008558,4,left
15.895,0.22883090011301718,0.9179233999880368,-0.027182376982787547,1.0508620842036565,-0.04300717162156731,0.06662048084219163,-0.2176290063776353,0.30411768972452746,1.0736367550291606,4,left
15.895999999999999,0.2283527641881443,0.9175831388419765,-0.022779678344723338,1.3885750204977578,-0.24108087909736015,0.03147977552636203,-0.21293543121589625,0.32029184959674284,1.0809305156555842,4,left
15.895999999999999,0.228763854517193,0.9147268873178184,-0.01511703636357954,1.132569442017386,-0.09092366262570543,0.05809604692981413,-0.2148460984329374,0.3137071297578329,1.0779647127505614,4,left
15.9,0.230795438708422,0.912172398693574,-0.009817470705606623,1.286910600005118,-0.18147471349849922,0.042059737868844066,-0.21487145048892298,0.31361979717423794,1.0779191612278738,4,left
15.901,0.23112920471120907,0.9110056619352169,-0.008244945621191274,1.2242361880806425,-0.14464677309197488,0.04857678551127603,-0.21387176563987909,0.31706523620685745,1.0794793334131891,4,left
15.905,0.23255900117852607,0.9108448535158373,-0.012258045268221992,1.223103106689099,-0.14410349339356432,0.04866840725734292,-0.2150704790360134,0.31293429107063214,1.0776133567988007,4,left
15.905999999999999,0.235872335202616,0.9118745161784453,-0.022504537185575137,1.256361381476757,-0.16344640976294084,0.04526195322134902,-0.21413511076895153,0.3161559251584258,1.0790616384570035,4,left
15.91,0.23913811970749257,0.9145336577632047,-0.03475692320956002,1.21660164389593,-0.14028545068476433,0.049337901379912744,-0.2146429274621851,0.3144108505447898,1.0782904173591144,4,left
15.911,0.24253819592653783,0.9174349505013888,-0.047046158605434124,1.2474559723517373,-0.15831599638919325,0.046157219264646776,-0.21452075303788012,0.31482338383564556,1.078449056438084,4,left
15.914000000000001,0.24418603496865976,0.9185197414277168,-0.05891135613929263,1.2311447255176184,-0.14860881663781045,0.04790422237530233,-0.21439590685078613,0.3152641466968512,1.0786815280030606,4,left
15.915,0.24669286353523734,0.919495475271935,-0.06903784850023242,1.2341109903108747,-0.15079307246577422,0.04742544403301339,-0.21462008443695624,0.31448318212977605,1.078302431226834,4,left
15.919,0.2542123641055409,0.920423610229373,-0.07424186279914892,1.2399090044877048,-0.1534305207567648,0.04711939570927473,-0.21440325708107516,0.31523017797263564,1.0786391697346789,4,left
15.919,0.2614286905264583,0.9184355180044959,-0.07412218559286515,1.2305858409599453,-0.14889780213456189,0.047722678343446456,-0.21456133505569736,0.31470156818272244,1.0784504053151072,4,left
15.924000000000001,0.2664554401624658,0.9157947485326288,-0.07227371197705883,1.2390876252523435,-0.15313891158895265,0.04713136929253367,-0.21446857713376088,0.3149844544497521,1.078464452718362,4,left
15.925,0.27543259146055254,0.9129233135515192,-0.06629247654290049,1.2343204533154706,-0.150335753156487,0.04762937315343661,-0.2145123835561824,0.31488829460992973,1.0785904947073237,4,left
15.929,0.2846439094218869,0.9075890336760821,-0.05695191839800246,1.2338682254443982,-0.15145469670533446,0.04713302494647143,-0.21450030793434666,0.3148715513766091,1.078402323992199,4,left
15.93,0.28957316044769577,0.9046636556550818,-0.05199896201528991,1.2396703924146943,-0.15169510217023946,0.04777227323492246,-0.21448404761329654,0.31496116572748867,1.0785471401965925,4,left
15.935,0.29413466220871753,0.9081374653283827,-0.04997375942567815,1.2298728660172302,-0.15066667727035543,0.04693688521044683,-0.21454227465431874,0.3147899310512695,1.0785597827594464,4,left
15.936,0.29663885288249825,0.9135865197941282,-0.04821149406586808,1.2405297417146857,-0.15188756794170705,0.047805524877980024,-0.21442076006735628,0.31508088889067154,1.0782974385344999,4,left
15.939,0.29529710168737544,0.9171951333648956,-0.050938167296305875,1.2340360362359606,-0.15098521561896203,0.04733860767389981,-0.21461456687428349,0.31464961960127336,1.0788329055211467,4,left
15.94,0.29454886538990316,0.9240689111024531,-0.05621008548860282,1.2301035720645004,-0.15118328262379682,0.046762620348766326,-0.21437714325848606,0.3151643676688758,1.078127649574376,4,left
15.943,0.2930488392497804,0.9357717428673242,-0.060305549988381855,1.2500399381353664,-0.15191361928651764,0.048999361151130884,-0.21457041884228262,0.3147510847461084,1.0787239850761818,4,left
15.944,0.29008971567174185,0.9480589619878941,-0.063639934788185,1.2125753389130427,-0.15027115956934778,0.04490274686910249,-0.2145729122489701,0.31473695878719,1.0786961218734306,4,left
15.949000000000002,0.29002515150755265,0.9596212344896998,-0.06865074969673685,1.260792861626312,-0.15244451975761436,0.050151150011690154,-0.21418391928868258,0.31559235434240906,1.077590141431835,4,left
15.95,0.2888511332747852,0.9694489293902668,-0.0763921815325079,1.2204924241619795,-0.15060435620757429,0.045774807592769425,-0.21512864393703215,0.31352644486660863,1.0803256080154093,4,left
15.954,0.28552784303849366,0.9810319666958053,-0.07759853122906973,1.221757922914259,-0.15075363991660062,0.04587388181112817,-0.21356680703306707,0.3169381062879254,1.0757834278123313,4,left
15.955,0.2853659389329359,0.9893455156064214,-0.07430464408703234,1.2980324431032566,-0.15393514699069172,0.05428092846557799,-0.21562486421271626,0.31244301208899883,1.0817772078768146,4,left
15.958,0.28577890003863193,0.9913524575493163,-0.0757138299088092,1.1103503873353768,-0.1459990945908714,0.03364156982391786,-0.2242754338219275,0.29355700923873346,1.1069225533997131,4,left
15.959000000000001,0.2850000531141196,0.9982449232351137,-0.07192352447954567,1.4215929073238964,-0.15918631152052937,0.06785477828487864,-0.22633234222380652,0.28906250664234356,1.112917398159445,4,left
15.959000000000001,0.2841399691283803,1.0028862594542538,-0.06594530888900632,1.0110563676320168,-0.14179168946556053,0.02273055624111167,-0.22477260169920377,0.2924705838096999,1.108372737767102,4,left
15.964,0.2840680219706724,1.002601106794182,-0.06349596134761096,-0.7118601642316008,-0.068903565842756,-0.16673110454844534,-0.2257147760241807,0.29041485925210153,1.1111124709627478,4,left
15.964,0.2866894638433616,1.007391930828542,-0.05362948742052835,-1.1223845047744443,-0.05152418688452818,-0.21185356761905524,-0.22532789252828747,0.29125087892223467,1.1100006123293247,4,left
15.965,0.2921986341557237,1.0109287107367082,-0.04410138876243573,-0.8111551959235024,-0.06469490709926828,-0.1776422514033552,-0.22533001069335828,0.291264079954754,1.109978917119172,4,left
15.969000000000001,0.3022339868702412,1.0112692652520883,-0.04143044603578903,-0.9988422274413247,-0.056752598845769615,-0.19828237227711318,-0.2255204909266204,0.2908231145743679,1.110571596669262,4,left
15.97,0.3149575898655472,1.0100106694136604,-0.03717926336667396,-0.922524016969648,-0.059988777329609604,-0.18986893366610436,-0.22529001458068343,0.29135106541343847,1.1098635013791598,4,left
15.972999999999999,0.32739045378314247,1.0065451669413767,-0.03122008534780703,-0.9213525840960425,-0.06002040581969024,-0.18978355961877802,-0.22547309197762555,0.29094077121261175,1.1104122264161966,4,left
15.974,0.34053265133750754,1.0039139461958753,-0.027155134332381745,-0.961518101563441,-0.05834895421689748,-0.19414030115031852,-0.22536342755608052,0.2911589334784609,1.1101245936733672,4,left
15.977,0.3540921889725289,1.000605718011769,-0.02738772500177481,-0.9134349917359847,-0.06035428973509175,-0.18891136346446463,-0.22541413201051003,0.2911164619167073,1.1101709970645937,4,left
15.978,0.3697917103924475,0.9970661265672854,-0.03107530365667443,-0.9508414815166968,-0.058784371853245504,-0.19299967706825927,-0.22539343268192757,0.291044238248646,1.1102847225911425,4,left
15.982999999999999,0.3852664724895418,0.9941182426268682,-0.03552636225131753,-0.9307899533838705,-0.05965889579638819,-0.19074599452056287,-0.2254052856099405,0.2911623589021418,1.1101059464464282,4,left
15.984000000000002,0.39720251980166094,0.9894911953895901,-0.03983361251679181,-0.9350938331706977,-0.05939232833740839,-0.19137616616348455,-0.2254024021767443,0.29105393335491053,1.1102674722967283,4,left
15.987,0.4105915869978987,0.9847542864829548,-0.042923481456693856,-0.9409473205184032,-0.05929065549992983,-0.19174994275930557,-0.22537280420367053,0.29111739626505273,1.1101828931030933,4,left
15.988,0.4233928520131188,0.9847925686792635,-0.04572148233296318,-0.9310764220660739,-0.05952881103185578,-0.19099537506292855,-0.22547165568838407,0.2911147481888889,1.1101552969465533,4,left
15.992,0.4320036335972762,0.9855164213172833,-0.05080870096450975,-0.9402469276761791,-0.05928402026818052,-0.1917401702656365,-0.22527491369582459,0.2910573754210003,1.110303101329045,4,left
15.993,0.4407300425492786,0.982207981932188,-0.05551053707211887,-0.9344400976159757,-0.059531063433711645,-0.191099307086073,-0.22556139455420388,0.29115810862172953,1.1100622682573331,4,left
15.997,0.4475248784949517,0.9815790700707249,-0.057711331459440504,-0.9360537894434058,-0.059196582175624235,-0.19176562399923175,-0.22525735960582863,0.29104798496505047,1.1103228545703865,4,left
15.998,0.45070728555411393,0.9802324474435482,-0.062303946753448206,-0.9381649522572556,-0.05971560994217086,-0.19088065032257123,-0.22543088270725237,0.29111591665434366,1.1101661837137626,4,left
16.003,0.4523751636806407,0.9758421069534312,-0.06849018389567682,-0.9336268474883604,-0.05900005464202323,-0.1920480805844898,-0.2255909199552803,0.29115286473112245,1.1100611195556125,4,left
16.004,0.44956245257719507,0.9746641018871876,-0.07376094856501328,-0.9387229850074579,-0.05975187438646183,-0.19083207900569227,-0.22490778225432273,0.29095603876815745,1.1105702233667074,4,left
16.008,0.44431731566265686,0.9731540034707906,-0.07786070132403616,-0.9353701362619677,-0.05933490224071978,-0.19148969034365182,-0.2261713993799534,0.2913271253537233,1.109616969596496,4,left
16.008,0.43804893620442187,0.9718411535276407,-0.07736911804997715,-0.9345029306564369,-0.05888931462059293,-0.192279279466612,-0.22454979279966517,0.2908496369054523,1.110843339183201,4,left
16.014,0.4291053511391586,0.97133460481295,-0.07598650833089268,-0.941609320121444,-0.06069820603403964,-0.1891883268105538,-0.22590292929177114,0.2912481651461455,1.1098181409552588,4,left
16.015,0.41760101111550574,0.9695498177524984,-0.07494749161513817,-0.9278331325359775,-0.05736931518100501,-0.19485459900214103,-0.22586824944346054,0.2912367173040581,1.1098502583943504,4,left
16.017,0.4031169414208335,0.9705358303770566,-0.07257942959867236,-0.9456561113223951,-0.061637689029635914,-0.1875937627782452,-0.22328250643930153,0.29048040334774894,1.111791942696236,4,left
16.017,0.39158658089007414,0.9736170663071185,-0.07202856503357397,-0.9307228716386446,-0.058077122357460806,-0.19364924820421295,-0.22963489346754778,0.29233873931653753,1.107013251513774,4,left
16.022000000000002,0.3757839095545856,0.975859473016266,-0.07039242015382244,-0.9313341538421058,-0.0581633576657134,-0.19350880357171588,-0.2191040447584883,0.2892593289725458,1.1149394997087554,4,left
16.024,0.3603151573483979,0.976076322742994,-0.06985375800904359,-0.9591281983306896,-0.06498464388934785,-0.1818857879118077,-0.2329927662726894,0.2933186054992656,1.104482695334061,4,left
16.027,0.3585202025012274,0.9766350877528062,-0.06903367132281399,-0.8905710700183382,-0.0482319878135826,-0.21042556544521585,-0.2913079117616789,0.3103827862580284,1.0606182590342335,4,left
16.028,0.3459207303774349,0.9795276271780567,-0.06330119304823746,-1.004302848229465,-0.07600349583764435,-0.16311329511027245,-0.30519445518815136,0.3144375919540439,1.050158389043814,4,left
16.028,0.33101243888111614,0.9806490344931175,-0.062495979092810745,-0.854289029878674,-0.039376362019179385,-0.22551610085985857,-0.2946659627670929,0.31136301827042545,1.0580879529768799,4,left
16.032,0.3286783793861908,0.981191023000027,-0.06268926519412268,-0.22490067911046768,0.11437878630400124,-0.48748413440604843,-0.30101924698676297,0.3132231956783657,1.0533105270213647,4,left
16.033,0.3126259594380192,0.9844048600010221,-0.057927870447505546,-0.07492108857841158,0.15099650669436215,-0.5498855122954349,-0.2984256851926271,0.3124508329133016,1.055241201483827,4,left
16.033,0.2926192904021331,0.9893199660100264,-0.05650586346122391,-0.1886106227359627,0.1232424334815656,-0.502577784351298,-0.2984078271790994,0.31247391372133315,1.0552970028112,4,left
16.035999999999998,0.27455825907312004,0.9935611818738481,-0.05503128116054598,-0.12005787015756182,0.13997328315153307,-0.5311075321039226,-0.29973684559759356,0.3128229367960486,1.0542378508336714,4,left
16.037,0.24870396541476594,0.9973504330985407,-0.04859338522256038,-0.14793669664341746,0.13317115477801583,-0.5195012805874281,-0.29813925430578003,0.31239474277315193,1.0554980260965192,4,left
16.041,0.22670182555713814,1.0048091044072667,-0.03920154132499685,-0.14834013456531758,0.1330790678245009,-0.5193393889943609,-0.2993925116558274,0.31274456416275354,1.0545301954094697,4,left
16.042,0.2036526978694713,1.0129310588102665,-0.03370753613569251,-0.13372525799706048,0.13661970650075347,-0.5254139169498603,-0.2986887462674481,0.31250539827693535,1.0550102477521848,4,left
16.046,0.17612736028125808,1.0223516817100193,-0.03772698246691192,-0.15120578431026435,0.132406551433015,-0.5181487439357043,-0.2989152215336022,0.3126787172739253,1.05499872826244,4,left
16.047,0.1497682807017115,1.0370854052045924,-0.047197126715848844,-0.13762458357613877,0.13564592171865458,-0.5237897260088219,-0.2989742745412737,0.3125116862393167,1.0546808977040623,4,left
16.051,0.1210861549112981,1.0509751846397766,-0.05866911196715172,-0.1449162161729874,0.13394099965234577,-0.5207650878550726,-0.2988107173696102,0.3126899100342124,1.05513924435863,4,left
16.052,0.09144414201500226,1.0637981338327211,-0.06545646029122237,-0.1432650921243057,0.13431208693772548,-0.5214487273034043,-0.2989852111255559,0.31256077477748057,1.0547407815822103,4,left
16.057000000000002,0.06543042335644095,1.0753787625089428,-0.06594483915484026,-0.14136921589612156,0.13470962347290527,-0.5222277854750381,-0.2987874514463158,0.3125013165347885,1.0548871021011645,4,left
16.058,0.043384281926069336,1.0827330638438495,-0.06907216008766207,-0.14456449650856068,0.13413855414815393,-0.5209276075045257,-0.2990941665569171,0.31292532841311305,1.0551522064671435,4,left
16.061,0.022636002964512902,1.0884788768490599,-0.07338773521674109,-0.14171025421676503,0.13447573314440275,-0.5220652871731721,-0.2985895668952528,0.31201379850321737,1.0543988529411212,4,left
16.062,0.0032692672990500783,1.0902246282849148,-0.07346789103816603,-0.14344889733048577,0.13449242369149134,-0.5214029347203216,-0.29929527993719174,0.31335985012049294,1.055557965960361,4,left
16.066,-0.013957870922740263,1.0897857060698146,-0.07536359046066729,-0.1428265093199494,0.1342927605442564,-0.5216133093057,-0.2985517878249295,0.3119275292090493,1.0543158801740735,4,left
16.067,-0.03110441623034627,1.0898573762204629,-0.08310343240301889,-0.14283330754469886,0.13428784870071575,-0.5216098387399636,-0.29896745993569296,0.31275102751713424,1.0550437346666577,4,left
16.07,-0.04815708268942652,1.0869128458505308,-0.09148129495456683,-0.1427661070396195,0.13495700648663062,-0.5217285480006044,-0.2993945449642148,0.3134810897039323,1.0556203329045415,4,left
16.070999999999998,-0.06237813694706676,1.0838957025136153,-0.10049747716655655,-0.143436251401305,0.13330181981364403,-0.5212425713835156,-0.29763811355462444,0.3103191132933739,1.0530139921394461,4,left
16.076,-0.07427795141248679,1.083650670419743,-0.10915383264084264,-0.14201125936568065,0.13587482929002193,-0.5221444169123397,-0.30087495370534145,0.3161769726702338,1.0578620963132304,4,left
16.076,-0.08566505963920062,1.084506547171252,-0.11399361069279743,-0.14377887773224143,0.13307129912257276,-0.5210796541928191,-0.2967234682915088,0.30865665314867863,1.0516340543078302,4,left
16.081,-0.0930315345847213,1.086776805788566,-0.11608763228637618,-0.14267810381164697,0.1347105374272352,-0.5217278915308721,-0.30018717018080043,0.31493427718224565,1.0568341160077968,4,left
16.082,-0.09637506704785805,1.0935508422269429,-0.11612603757714493,-0.14169621232980706,0.13613175622394824,-0.522300522724217,-0.30010119518927014,0.3147668107805074,1.056689842538051,4,left
16.085,-0.10107203387783822,1.101152641073997,-0.11729258634819562,-0.14608913020355524,0.12988870898261412,-0.5197548465729434,-0.2934717998577413,0.302788987781728,1.046787646771857,4,left
16.086,-0.10727467925640419,1.1088100764385012,-0.12066784805971578,-0.13785092032995672,0.14148866415784217,-0.5245137249279626,-0.309756172265075,0.3322257535333123,1.0711284440515139,4,left
16.090999999999998,-0.10944066982121756,1.124586642541897,-0.12776177274110434,-0.14849287381685308,0.12657853884872167,-0.5183769374565635,-0.2827594436832872,0.28341959394337213,1.0307720320996487,4,left
16.090999999999998,-0.10943080710512794,1.1360046147014642,-0.13423958503606026,-0.13957945497765686,0.139032520634512,-0.5235114293084844,-0.3183661076888169,0.34779373468615193,1.0839978448231053,4,left
16.095,-0.10942533294246119,1.1384676807782457,-0.13566041958338318,-0.13982130951547522,0.13869779578560038,-0.5233749110667734,-0.4678351236774886,0.6180069321810612,1.3074060633082096,4,left
16.096,-0.10464481023187709,1.147855384101105,-0.13791450423467466,-0.1568629324236388,0.11493225057443394,-0.5135577402495621,-0.5034369463090506,0.6823784919497364,1.3606171560481268,4,left
16.096,-0.09652891793460747,1.1597846964448482,-0.13725293468376065,-0.11495636315724835,0.17334707457613202,-0.5376924778606491,-0.4764494059849349,0.6335770814498476,1.3202863277352774,4,left
16.1,-0.08153819145309582,1.1683783120609892,-0.13606624134393847,-0.1844526984137012,0.07648763469822388,-0.49766844898371426,-0.49272177888295204,0.6630079787858447,1.3445989748802076,4,left
16.102,-0.06776809709183365,1.1728080718258909,-0.13828889664799313,-0.09279202273663668,0.20425303211957285,-0.5504684169940961,-0.48610385356528657,0.6510351807527244,1.3347144722452402,4,left
16.102999999999998,-0.06345215128659289,1.1741300748244305,-0.14058968155051965,0.29142316969646676,0.740735815677827,-0.7722239617686897,-0.48601247009110427,0.6508664478021247,1.3345792433124715,4,left
16.105,-0.04935488708708578,1.1789698606892127,-0.14839138488575793,0.38294975631445655,0.8685483216208744,-0.8250557512404035,-0.4894684975786825,0.6571382453748686,1.3397286155672878,4,left
16.105999999999998,-0.029127012806082465,1.1844079121972964,-0.1544587570020147,0.3137502792848542,0.7715875914293073,-0.7849645624383256,-0.48534392810959903,0.6496332746475706,1.3335981708947307,4,left
16.11,-0.014615531274960406,1.1901595904449072,-0.15183964372485417,0.35517440622569907,0.8301612726002722,-0.8092021405823162,-0.4885333608520637,0.6554667817283844,1.3383166542537612,4,left
16.11,0.0003387113303099684,1.196031370206366,-0.14610741827113005,0.3387599120965715,0.8061973298337383,-0.7992601615798427,-0.48683629909433246,0.652332481033317,1.3358281614802214,4,left
16.114,0.015685943371204908,1.2019262465756886,-0.13855375323727168,0.33790914783406056,0.8060439974833269,-0.799232511617236,-0.4872140241697159,0.6530436721111916,1.3363720257905443,4,left
16.115,0.03293859856920675,1.2125177300406436,-0.1322809314135845,0.3471028382155878,0.81843443180839,-0.8043387410380676,-0.4876342153387386,0.6538597973430831,1.336959399790692,4,left
16.12,0.05124119589839242,1.224841225773627,-0.1290102406217505,0.33692218979780153,0.80334210995306,-0.7980704279906345,-0.4869706629644179,0.6524788684517027,1.3360987166560978,4,left
16.121,0.06870069901919884,1.2392532516054793,-0.12704298315407048,0.34358654676528144,0.8154764992646399,-0.8031825455690174,-0.48748500055411226,0.6537207225187298,1.3366416905165168,4,left
16.125,0.0874043477029686,1.25735064879136,-0.1236846632733958,0.34196523147292635,0.808339629351538,-0.8000666532592884,-0.48727241834650314,0.6529537529754732,1.33660094778081,4,left
16.125999999999998,0.10589139776854818,1.277815576750478,-0.11839941096518873,0.33946914490731195,0.810833114503686,-0.8013007593014136,-0.4872606726148353,0.6532374740368048,1.336362600867319,4,left
16.13,0.12244968148483895,1.3043449815817199,-0.11738263978095051,0.34346787979573257,0.8116508086753256,-0.8014765983691017,-0.4872575309399357,0.6532345329906797,1.3363559645433551,4,left
16.13,0.13694600606093205,1.335398230565736,-0.11580633687574735,0.3414317127126033,0.8087655247917662,-0.8002826607140636,-0.4875697126054328,0.6532330961696111,1.3372321387573376,4,left
16.135,0.14903592012847353,1.3682206887260475,-0.10562615198970468,0.33815585337810633,0.8130328960565854,-0.8023470277205571,-0.4867337915316529,0.6530148541403791,1.3350467269870854,4,left
16.136,0.15490127454672892,1.4050145084827306,-0.09716932759453331,0.34876445109624027,0.8076406297608569,-0.7994313339636174,-0.4880817385664163,0.6535228930808341,1.3384577803873856,4,left
16.139,0.15104377559123697,1.4453029281362126,-0.09158647404761516,0.33157217260204613,0.8137768234775085,-0.8029924479194417,-0.4865858206114775,0.6528746599783877,1.334733382212023,4,left
16.14,0.14052312457239402,1.487803293363036,-0.07995926454823096,0.3505011278667254,0.8080764443468451,-0.7995436485495133,-0.4874689975075655,0.6532832821636495,1.3369134838019345,4,left
16.144000000000002,0.12379648876880749,1.5300988621423985,-0.06687660064273203,0.3392570655082341,0.8109400492218364,-0.8013589199643342,-0.4882382155729653,0.6536497629011216,1.3388046036745789,4,left
16.146,0.09922942208917357,1.5695603443433774,-0.04936625217445889,0.3302104437217376,0.8143153224112838,-0.8032974912053001,-0.4848491863236134,0.6520049633358642,1.3304944824630767,4,left
16.148,0.07082193308530389,1.6057392046633887,-0.02055805906725866,0.37116639563976206,0.8014576428343778,-0.7956023952032931,-0.49115579789478053,0.6550944256908195,1.3459379689626478,4,left
16.149,0.035362291244753846,1.6375948073904536,0.009731378900414622,0.294815909247233,0.8247433957259374,-0.8096428758672474,-0.48304285828875293,0.651100276742201,1.326085498825564,4,left
16.154,-0.003789705889742501,1.664635183446864,0.031041826077011354,0.39302951789709056,0.7950929655691896,-0.7917165362929688,-0.4898223973523621,0.6544467098772938,1.3426688593267357,4,left
16.155,-0.04150004685235806,1.6895828583259604,0.04474799809988035,0.3109614612804368,0.8197370596111422,-0.8066382553345413,-0.48964008161564637,0.6543575136948223,1.342222112696485,4,left
16.158,-0.08561368783056142,1.712620044033594,0.056478438191378426,0.3132457958790174,0.8191704565112392,-0.8062731919401247,-0.47669825449953823,0.6479522810332283,1.3105781873863487,4,left
16.159000000000002,-0.12656532379900717,1.730521259702471,0.06771583771166376,0.46961733218055834,0.7719887538005509,-0.7777480496611634,-0.5085109578448341,0.6637023988214332,1.3883595560837265,4,left
16.164,-0.16602135539310525,1.7523983614463488,0.08132722428712466,0.08516307394351175,0.8877722715224594,-0.8477893972778625,-0.45575995348181353,0.6375810522201625,1.2593882098498619,4,left
16.164,-0.20138967797092627,1.774192730997971,0.09411274302744269,0.7226574325173774,0.6958932452274075,-0.731691951954955,-0.5253421491856722,0.6720393038304031,1.4295077057996317,4,left
16.165,-0.20423264686012194,1.775035736192276,0.094598205954997,-0.11821637260838974,0.9489210737984081,-0.8848056984669455,-0.8174553190052598,0.8166615822433156,2.1436861756171033,4,left
16.168,-0.20229172778924473,1.774977581486496,0.09425827715933531,-3.647784620018281,2.01100230312061,-1.5274982055521402,-0.887047937401827,0.8511154220516215,2.3138311883978324,4,left
16.169,-0.22477951966769655,1.798509974307398,0.10337541272296787,-4.488656374005554,2.263938942772497,-1.6805961321011589,-0.8342754454216492,0.8250058303142581,2.1848060929636937,4,left
16.17,-0.2462537336557317,1.830149973260049,0.1014324862550553,-3.8511591607078084,2.07223034824938,-1.564530425471421,-0.8661200273630009,0.8407330344845989,2.262669556199133,4,left
16.174,-0.2669617024968401,1.8630175490830911,0.08712526328369387,-4.235632235154522,2.1877971739881934,-1.6345264895043348,-0.8531410431541824,0.8343629501124179,2.2309263145928475,4,left
16.174,-0.2993615113098095,1.9044241659804833,0.07921889529131862,-4.0792162853268685,2.1408122944809955,-1.6060513484992918,-0.8529888635061388,0.8342321856110948,2.230565732839917,4,left
16.178,-0.3348316012500262,1.9477017388688713,0.08113621829015769,-4.077002761539751,2.1401723277432048,-1.6056500343782214,-0.859765073043579,0.8376109542817227,2.247127647470008,4,left
16.178,-0.37385350948641605,1.9830349634486142,0.09765726581397637,-4.1589891009733195,2.1646412894416027,-1.6205666197078,-0.8516056369531826,0.8336186584347145,2.227169008658174,4,left
16.183,-0.4187031238166762,2.0135139091001113,0.13296399482201823,-4.060832128551473,2.1355154135444847,-1.6027167270995464,-0.8580248075448977,0.8366440945524187,2.2428951041724643,4,left
16.184,-0.46499862621462684,2.0409039259717527,0.17775231851019208,-4.1372040960236856,2.1579245757712098,-1.6165917575547601,-0.8544625755503141,0.835143378351022,2.23413052591708,4,left
16.187,-0.513510248178884,2.059990000028177,0.21421997497993966,-4.096093735544914,2.146114842835008,-1.6091362433775065,-0.8554230514400788,0.8352963824729643,2.2365468507950688,4,left
16.188,-0.5623197583044397,2.0717860752496358,0.22782825440974397,-4.105455687306522,2.1486920590617755,-1.6108281694450004,-0.8561848697477835,0.8359304750325578,2.2383549994634855,4,left
16.192,-0.6053631987832272,2.0760104755367026,0.22655355622403475,-4.1162599107386715,2.1514675279828097,-1.6127702929547205,-0.8546167486391911,0.8351568378878482,2.234520881500516,4,left
16.194000000000003,-0.6350726467672874,2.0700763759365906,0.22428714862656057,-4.097760587575529,2.147429001657561,-1.6094824635121419,-0.856352737443389,0.8355385690990329,2.238865624570642,4,left
16.198,-0.6484764372538253,2.0555844686229348,0.2217281964965269,-4.114775427185439,2.1499195525607577,-1.612442092717842,-0.8547592565005533,0.835840625881803,2.2347397407343372,4,left
16.199,-0.6512287730118258,2.0338901278389367,0.21619050462862746,-4.103784197943652,2.14983671149926,-1.6106104920605944,-0.8560976765798718,0.8348763855678697,2.238355496385916,4,left
16.203,-0.6401257735698804,2.0075079690251565,0.1972815837769303,-4.108265506379771,2.1486154654067686,-1.6112912569037512,-0.8551285305773435,0.8361300282884497,2.2356195001430015,4,left
16.204,-0.6185350943625632,1.9813160925816864,0.14643671290068191,-4.1082339895821205,2.148583072550628,-1.6112843241738868,-0.8554547578584981,0.8352913838074735,2.2366295341197913,4,left
16.207,-0.5908570587677731,1.954034147308081,0.057270973909246674,-4.106777068717308,2.1529118209220885,-1.6112697627044317,-0.8562283624805302,0.8348077108894157,2.2387019958078804,4,left
16.208,-0.5471413113454673,1.9248770985250165,-0.04732594223635748,-4.1072127931852656,2.1421491277232434,-1.6107761767772417,-0.8538821001113241,0.8374295867858377,2.232168821475895,4,left
16.214000000000002,-0.48960799225530394,1.8992574569093392,-0.12727252668236322,-4.108946210014672,2.1589219520823244,-1.6119464682795828,-0.8579300848492823,0.832421144505799,2.2435452036850405,4,left
16.215,-0.4218374440863843,1.874312764692779,-0.15805020951450774,-4.105705187675339,2.1406228174784867,-1.6104452584063786,-0.8528670874232247,0.8389150417100448,2.2292651976430387,4,left
16.218,-0.3509522912705581,1.8498327406896689,-0.13632654274712264,-4.108022915828478,2.1513298132105247,-1.611393696390236,-0.8570357852458588,0.8334705968158483,2.241047307357581,4,left
16.218,-0.26834238076203953,1.8136554513397094,-0.07009226785065706,-4.110206868594523,2.160615739126259,-1.6122451280748575,-0.8569743266775942,0.8336300113300933,2.2408479655177125,4,left
16.222,-0.1747398396099008,1.7633049400518366,0.014408758622409047,-4.1001146892499865,2.119816161244546,-1.6084215520396279,-0.8489293757503789,0.8439959788519934,2.2181614269548113,4,left
16.224,-0.09431558114761757,1.7147553174659298,0.08069415083703778,-4.119341968984434,2.1956327113562653,-1.6156055743798068,-0.8686103836161176,0.818498991147226,2.273708250441165,4,left
16.227,-0.003944459029554991,1.6516897941556283,0.11224710747614396,-4.094299813884042,2.098174924748954,-1.606316387280446,-0.8360235494607017,0.8607759761922191,2.1817102489192983,4,left
16.227999999999998,0.055469941852298574,1.6107517113896894,0.11949607628623306,-4.1153593141293,2.1795821685481145,-1.6140998891930451,-0.8789819808583528,0.8050219245909132,2.303007186848842,4,left
16.232,0.06819898394967992,1.5997003038124227,0.12035156929602978,-4.114815667727209,2.1773908562585484,-1.6138922516744518,-1.0593219987803102,0.5707692999066529,2.812097669605154,4,left
16.233,0.11884475494193004,1.5570605946030298,0.11993379181953918,-4.074318474337729,2.022049291571427,-1.5989936966010396,-1.1022646707159605,0.5150419668644788,2.9333717330228453,4,left
16.233,0.1809108688478137,1.5052415393166547,0.12165880691048749,-4.173935465632879,2.403878681628294,-1.6356290808655483,-1.0697081565091289,0.5572966104787018,2.841430920431434,4,left
16.236,0.24181287113302502,1.4424586735595506,0.13568785262593483,-4.0086688679362705,1.7707567467816723,-1.5748696220384768,-1.089348649211072,0.5317653702064775,2.896872252382762,4,left
16.237000000000002,0.2954488518302804,1.3895906638788431,0.14827182591376453,-4.226744243761617,2.6058823154131527,-1.6550204133301816,-1.0813440350429273,0.5422751762250353,2.874340507005939,4,left
16.238,0.30853039985780206,1.3744089822612255,0.15063280325825756,-5.14300245205133,6.112072859979012,-1.9913835274362512,-1.0812605178946209,0.5421571364357018,2.8739663604825987,4,left
16.242,0.35839863648839243,1.3156078133975933,0.15902193281869512,-5.36129636996619,6.947386735637058,-2.0715160160983555,-1.085409020426244,0.5370848600149298,2.885872409873934,4,left
16.243,0.4360782057134529,1.227792838252098,0.16695560920214267,-5.195582337296829,6.3138634356289085,-2.010801528510769,-1.0804308615978677,0.5432401861104481,2.871627231462058,4,left
16.246,0.4952116692657138,1.149967231747938,0.16559816221384047,-5.295856720991105,6.69631534759881,-2.0473552946810925,-1.0843220482292617,0.5383183536613433,2.882694745071661,4,left
16.247,0.5639963222772587,1.0605945824384637,0.16072334969556534,-5.254603171434983,6.5402064534646245,-2.032574845171819,-1.0821798726973464,0.5413680086136718,2.8768087148045565,4,left
16.250999999999998,0.6285031059905772,0.9780236161505645,0.14983076214509441,-5.254657662863454,6.53870205484172,-2.0322358689265876,-1.0827725289437777,0.5397421254830674,2.877961409762959,4,left
16.252,0.6856074180373689,0.9008581628296926,0.1307404388158967,-5.2756835795995265,6.619896247859277,-2.0401093902863963,-1.0831399896295575,0.5407376745176711,2.8798948123288635,4,left
16.257,0.7456804311035246,0.8234201729188708,0.10539528091622254,-5.249645604544377,6.521686549376273,-2.030853328980368,-1.0824076680808739,0.5398825377449966,2.8767283069866902,4,left
16.258,0.8028127636965395,0.7549235981918841,0.07640311838133465,-5.271213821669189,6.599617694641161,-2.0377951077690994,-1.0831276507762446,0.5403869127527123,2.8796369399939774,4,left
16.261,0.8575942391256668,0.6953526469889695,0.0414410917283813,-5.257572846377334,6.55533898292045,-2.034468295778039,-1.0825181764957355,0.5411917282799574,2.877923898427689,4,left
16.262,0.9084712850665253,0.6465594067441116,0.005307315882060813,-5.263611832971481,6.568735536009625,-2.0346231888057265,-1.0831307870009277,0.5377242570836906,2.8780287164346268,4,left
16.267,0.9524603570093204,0.6072877904714249,-0.01793690782489169,-5.263588878688276,6.576389198584487,-2.0362585935374375,-1.082337204818608,0.5448601692257313,2.8795013659433666,4,left
16.267,0.9868034478547185,0.5791088821708084,-0.029800767713953645,-5.258651199927982,6.557556665732978,-2.0344596727403994,-1.0833760453020167,0.5344033858139774,2.876894832720962,4,left
16.271,1.0173856129226944,0.5598755623757696,-0.03457419059792542,-5.268565483559176,6.58115262638052,-2.0350518323313924,-1.0822953329305818,0.5455155719741589,2.8797490500991194,4,left
16.271,1.0469562255791112,0.5435344829962822,-0.033072279799673636,-5.253350649430054,6.555716159781047,-2.036431884655621,-1.082877638177206,0.539150034330333,2.8779805729871226,4,left
16.276,1.0713916530576106,0.5282658775936827,-0.030486076147682905,-5.272792736699866,6.581198300643198,-2.0331770460291727,-1.0835893817167586,0.5333892209798313,2.877049575161356,4,left
16.277,1.0933297355232499,0.5125426447638421,-0.02476698184702627,-5.253499264970973,6.559522375346656,-2.0371735811429357,-1.080816947254403,0.5581541196077878,2.882093499710798,4,left
16.282,1.1121291835784128,0.4951965034714321,-0.013028197786508313,-5.263919750100133,6.569248555680103,-2.0345955310901154,-1.0858975885670967,0.51230736652502,2.872566629377382,4,left
16.283,1.1209937260277922,0.4737822518927742,0.006230460196938228,-5.274428033624761,6.583519457872906,-2.032939205462931,-1.0793861569117287,0.5711599001730514,2.8848355256095957,4,left
16.285999999999998,1.1235302849490771,0.4520461295998501,0.033682130482228845,-5.231659592420051,6.533489838136098,-2.0413828928139126,-1.0848190064362893,0.5220322858645,2.874582201464856,4,left
16.287,1.1186392887907144,0.42766674179736636,0.059195335493885226,-5.310039390451188,6.622651617708893,-2.0253757375205677,-1.084688031804099,0.5233383193297452,2.874908744168871,4,left
16.291,1.1043499446350884,0.39761399977949874,0.07682714230662263,-5.20980255317375,6.5097613900528275,-2.0460840911918243,-1.074270892465048,0.6170965468817922,2.894287870155794,4,left
16.292,1.0898041622449233,0.3714461789596135,0.09133378853966492,-5.29332679986314,6.603339685816327,-2.0287300110985838,-1.099860850517329,0.3866742814503319,2.84660919331371,4,left
16.296,1.0592377836764402,0.33814146000174616,0.09916688148870567,-5.291171592635982,6.60135428431367,-2.0292560267064204,-1.0574293546495923,0.7687234478934473,2.9256620564332296,4,left
16.296,1.0328612230186955,0.3130126353475765,0.09993160520058611,-5.131739749613876,6.42193191491228,-2.0622429620817027,-1.1134046202929455,0.26479599537530957,2.8214096273098384,4,left
16.3,1.0294518213341552,0.3091333062379932,0.10066164524476057,-5.523426140716649,6.861959949485702,-1.9810643846176392,-1.34828989942856,-1.8503909474890716,2.3836779403769026,4,left
16.3,0.9959748663912514,0.2834081718122326,0.09692614216581211,-4.8740485257252875,6.132809362822371,-2.1157098050620147,-1.404282769584344,-2.354334614786925,2.2794654480354843,4,left
16.302,0.9617715901840316,0.2579920233391958,0.09249864335545244,-5.7305868020134465,7.09438095384647,-1.9380905901478969,-1.3618322293043967,-1.9722679106430292,2.358475107985533,4,left
16.305,0.9575851176442164,0.25515517607391247,0.09094089992690402,-9.324980593529906,11.129610902661376,-1.1925117853929916,-1.387414934293181,-2.2026834838558464,2.310779976816338,4,left
16.305999999999997,0.9269266587102403,0.2365134271920677,0.08246535999078015,-10.181614279062448,12.09117295572409,-1.0148815135178904,-1.377060993769575,-2.1089834902609077,2.330302473458841,4,left
16.305999999999997,0.8807225948542251,0.21461909182971334,0.0766818556333114,-9.53217505323816,11.362191907000621,-1.1495541756976904,-1.376794051261792,-2.1075521866136535,2.3303205646240555,4,left
16.309,0.8386363105706999,0.20042470806710955,0.07844536773519882,-9.923674779810927,11.801659909378715,-1.0683260300054527,-1.382421841238897,-2.156859390903617,2.3205094745577104,4,left
16.31,0.7882498826327875,0.18585018266727366,0.07907935009539599,-9.764889237893666,11.62336596508785,-1.1013848533615043,-1.3757163019317833,-2.097828050646476,2.3323380264697375,4,left
16.314,0.7386330349155736,0.17588023976137476,0.08532622053887645,-9.761546445895162,11.619729327241659,-1.1018307272956438,-1.3808806741559219,-2.143751904338381,2.3230011035743496,4,left
16.315,0.6900446622394363,0.164683675311516,0.09642313662130593,-9.846610918136037,11.71505333496453,-1.0845318828557136,-1.3782749750847565,-2.1191406668688617,2.328423279041928,4,left
16.319000000000003,0.6467827353648299,0.15364141219227412,0.10927692401047331,-9.745043342687651,11.601201422269089,-1.1052597645727686,-1.3784497091599148,-2.1244066981715912,2.3262740412954686,4,left
16.32,0.6181702981835427,0.14123841463385972,0.12832820001955403,-9.823620376307023,11.689335960475635,-1.0891057887400517,-1.379957252165302,-2.1316246505894467,2.3266045224450878,4,left
16.325,0.6058967501527169,0.12335766242638858,0.14506371675181945,-9.782863208583722,11.643455159453293,-1.097851587486626,-1.3777410964101775,-2.1194664603709263,2.3268829195077876,4,left
16.325,0.6100142443093968,0.10327422503733669,0.15141236636909672,-9.788386968403033,11.650078793488452,-1.0957707097887077,-1.3796850843703392,-2.1307569855021438,2.326329763423829,4,left
16.329,0.6308104271552422,0.08229517264400357,0.14908237379320477,-9.806547482682383,11.669735204323835,-1.0936126585437327,-1.3788997592635437,-2.123628925108589,2.3278211522246863,4,left
16.329,0.6649865214356063,0.060065345641392646,0.13951543815414338,-9.778656509207204,11.639321274642942,-1.0974247084331439,-1.3778322175139641,-2.1255482245442234,2.3241144342791356,4,left
16.334,0.7016836225098044,0.03405804026541829,0.12163172868747478,-9.803605501277243,11.66661460629535,-1.0938222542039093,-1.3810621040440338,-2.1282807310439633,2.3311112215081327,4,left
16.335,0.7372494880164021,0.007280021741560621,0.0963425469703618,-9.79154314935205,11.653067610661104,-1.096338587502059,-1.376054660949419,-2.1224998600284866,2.3210268439130726,4,left
16.339000000000002,0.770456679815237,-0.019906939246173143,0.06588040470495254,-9.784115468297653,11.646052089074832,-1.0949608505633406,-1.381427573521821,-2.1289791147576027,2.3317104167771205,4,left
16.339000000000002,0.7973701093535674,-0.04873408024479809,0.03170493624637319,-9.813187364847932,11.675665537731193,-1.0955995349448142,-1.3782680493125223,-2.1247352769956227,2.325642671802632,4,left
16.344,0.8238762749632829,-0.07444202954156467,-0.0022312535923942377,-9.76692039816506,11.62823445807615,-1.095247887611754,-1.3758183652109754,-2.12355683918972,2.319893590152708,4,left
16.344,0.8535975731231824,-0.09913579709571085,-0.03394772792669639,-9.816781047642301,11.679403782291491,-1.0955107410142602,-1.3869867363731312,-2.1327713770942096,2.344203381653657,4,left
16.348,0.8817444888527259,-0.12168023554197023,-0.061529136538847694,-9.78711977319022,11.648879210903251,-1.0955357665384722,-1.3661951276301791,-2.114952809735561,2.2992764683080917,4,left
16.349,0.9112289577052102,-0.13667891028690382,-0.08388634853273413,-9.765771528992383,11.627312525425044,-1.094681275009583,-1.3929091303822063,-2.137993642086056,2.3569268231874654,4,left
16.352999999999998,0.9435563207493944,-0.14938394496406576,-0.10243259715544012,-9.866109182010526,11.729470772239868,-1.096986778434317,-1.3706020521695663,-2.1186967999801842,2.3088169405489896,4,left
16.354,0.9778561536931895,-0.16145044470971676,-0.11892344015166514,-9.678785905797113,11.538610895978962,-1.0929702185254349,-1.371228446775318,-2.1194622178957774,2.3100529965011014,4,left
16.359,1.0127133610020564,-0.167912810807306,-0.13649252228639747,-9.919597090515207,11.784004907272763,-1.0980693320609904,-1.413684217862066,-2.155448592169808,2.401994077002144,4,left
16.36,1.0442478275586882,-0.17100652220426898,-0.15301451733707955,-9.718443604490778,11.57900093991283,-1.0938362679375575,-1.3093113796374016,-2.0667227814302063,2.1761032004174723,4,left
16.364,1.0812465646584695,-0.1725216776226463,-0.16943768794452746,-9.724320789511918,11.585059827306086,-1.0938597114802322,-1.4823660403418804,-2.2138923804059445,2.550604281014248,4,left
16.364,1.104160738283563,-0.17258419759852567,-0.18005087551827306,-10.106458609990923,11.974307741514583,-1.1022294047481642,-1.2541160796153246,-2.0197899468626668,2.0566608495157572,4,left
16.369,1.1070845338945692,-0.1725652882709098,-0.1813999529612168,-9.166702664391686,11.016962859005236,-1.0817659606238514,-0.2959782506102431,-1.2051899930775853,-0.01696920345580033,4,left
16.37,1.1320876988936919,-0.16857553250003565,-0.19219999501905527,-10.72498963117581,12.60447015603787,-1.1156662926400212,-0.06774650398775485,-1.011152001295341,-0.5108857981030006,4,left
16.37,1.1545168751370367,-0.1642290952392908,-0.20395674704429143,-8.66960988131295,10.510501438238247,-1.0709559169486704,-0.24078145696442974,-1.1582518785841898,-0.13641375457486862,4,left
16.373,1.156675958859514,-0.16356377362194138,-0.205043188160209,-0.042772219038040404,1.722011808842889,-0.8831462440738037,-0.13640112821262432,-1.0694995501845987,-0.3623156695638146,4,left
16.373,1.1749268636091164,-0.15735632078984163,-0.21285703815885806,2.01254979915935,-0.37201215936130283,-0.8384294817702262,-0.17892225828123937,-1.105717198597386,-0.2702782847793773,4,left
16.374000000000002,1.190895069779942,-0.14575738777902736,-0.2229267646294092,0.4543263204369503,1.2156115353966124,-0.8723342458967105,-0.17940801871584378,-1.105985001659077,-0.2692494461390338,4,left
16.378,1.1972490122123558,-0.1354505002679924,-0.22995359313543717,1.394102387504811,0.2580888374865995,-0.8518822061899936,-0.1573025862280763,-1.0874016377571663,-0.3170622160052373,4,left
16.378,1.2038441038415977,-0.12408808687971219,-0.24003753534251282,1.0117648685337266,0.6475519178092775,-0.8602108854248247,-0.18381578585011119,-1.1097319953726474,-0.25970772992909097,4,left
16.383,1.1967677955998728,-0.10953886518721428,-0.24972510987859578,1.006322365889571,0.6534240639996359,-0.8603104882194006,-0.16311083121159206,-1.0922199834808153,-0.30450696931761956,4,left
16.384,1.1870937957698047,-0.09466772848369123,-0.26016887649232967,1.2068485977071062,0.4484666967658403,-0.8559779049874923,-0.17445160840189794,-1.1020446172007419,-0.27994313956580474,4,left
16.387999999999998,1.1760073450558877,-0.08087753863633074,-0.27081377276672725,0.9666670337651629,0.6940905547227025,-0.8611640296428393,-0.17144651251530774,-1.098900898298944,-0.2865105958507712,4,left
16.387999999999998,1.1547833909495102,-0.06526409613208012,-0.2775759510721777,1.153709342882213,0.5026184877603059,-0.8571323764036465,-0.1692440110198298,-1.09804331795854,-0.29116822056199615,4,left
16.393,1.131013880468867,-0.0499501053437159,-0.279214359039911,1.0528524515375715,0.6057615297912284,-0.8593114289405258,-0.17344239035391876,-1.1003667904998484,-0.28221524683989907,4,left
16.394000000000002,1.1038010874880473,-0.036131959941391824,-0.27656938920861435,1.0759101600426086,0.5830561666887804,-0.8587752762312728,-0.16937138115676673,-1.0978991021594413,-0.29091986563145894,4,left
16.398,1.0748189079038637,-0.02096976748617666,-0.27010229793164153,1.1026050376403895,0.5533392736382133,-0.8583023052039469,-0.17260952251566586,-1.1006611521352785,-0.28391087810857046,4,left
16.398,1.0458880317579369,-0.007020245678341588,-0.2566665104876709,1.0564071093307996,0.6047428951521334,-0.859122694381842,-0.1698044139230563,-1.096432019266598,-0.2901778447435289,4,left
16.403,1.0131465372683277,0.0065423102819457115,-0.2393091514585035,1.0997208113636088,0.5552947778451829,-0.8584066472029552,-0.17299017087961122,-1.1033551393741492,-0.2828352626188897,4,left
16.404,0.9788599117187865,0.01987420278318753,-0.2234825408174967,1.0706989283368253,0.5891025427220985,-0.8588577472444495,-0.16900981775425777,-1.0936836114387982,-0.29211758825928835,4,left
16.408,0.9406512424452365,0.03191754656634292,-0.2075654145975494,1.0834320104226036,0.5761686007073734,-0.8585790438956495,-0.17310931286168812,-1.103871438390939,-0.2825335163141125,4,left
16.409000000000002,0.8981486072691862,0.047398599038248244,-0.19132664934995613,1.0832312447186028,0.5685035823340542,-0.8589182162351441,-0.17096743918860238,-1.0981780720836447,-0.2875800844148899,4,left
16.413,0.852588038859798,0.06479534595243468,-0.17245539390122,1.0766879367616589,0.5931530246835709,-0.858295425917879,-0.16799697095244465,-1.092313387374958,-0.2943638198285172,4,left
16.414,0.8022469715853111,0.0786682503873513,-0.148606562674868,1.0848217633355035,0.558039146289002,-0.8592601029302654,-0.17915762546048408,-1.1164137446202815,-0.2686574911303397,4,left
16.417,0.7532689083993758,0.0886454322449036,-0.12571849340066138,1.0783098514368756,0.5932714654961111,-0.858184448916482,-0.15879155491805624,-1.0720021499330517,-0.3156121526892881,4,left
16.418,0.705695550461165,0.09542298496361254,-0.10137859240722197,1.082095348939471,0.5728912747024971,-0.8588060526790382,-0.1848689445905334,-1.1289652844767382,-0.25548002631614497,4,left
16.422,0.6597139570834815,0.09717675287051064,-0.07469476050197923,1.0805716804947676,0.5601987344386855,-0.8594441839950222,-0.16312705820226203,-1.0814354404846611,-0.3056181409521027,4,left
16.423,0.6175182581435128,0.09670425875247968,-0.04941728798744077,1.0810435790791229,0.6220577305517154,-0.8567823048589023,-0.16360285796048,-1.0826231012886347,-0.3045067618366925,4,left
16.427,0.5802608131797116,0.09806476593093072,-0.02351490639656916,1.0804762526302127,0.5070269890708878,-0.8617137745427317,-0.20543283016166747,-1.1735768367594241,-0.20809284345543144,4,left
16.428,0.5467905311061629,0.10042355768072678,-0.0024875529596948866,1.0816021599130785,0.6543263180809377,-0.8553711288999637,-0.10274975294627672,-0.9501403520759255,-0.4447815655128572,4,left
16.433,0.5049190931550143,0.1053832246321802,0.016140039608524018,1.0804809266372977,0.5315393072328243,-0.8606729128897177,-0.2729731990710852,-1.3205778818203633,-0.05240840721345594,4,left
16.434,0.47471927059200486,0.11028807984475139,0.030444854348541397,1.0800084044678218,0.5353725210113813,-0.86053394158724,-0.04844599653616681,-0.8319754647388573,-0.5699503584105496,4,left
16.438,0.46665143388956376,0.11229086719778608,0.03592011802318758,1.0842930179806767,0.767321733750727,-0.8503934962909834,0.894137056891851,1.2190717625388297,-2.7426327753410686,4,left
16.439,0.4424826568424557,0.11822972372535659,0.05045296068390334,1.0741415707840485,0.1968371615496306,-0.8753216084702455,1.1186946584972017,1.707685987286875,-3.260231582371312,4,left
16.44,0.4040071221139705,0.130314106320542,0.07044198271050905,1.0910117345082972,1.142683881233672,-0.8339804962537599,0.9484308252535213,1.337236063473628,-2.8677849835763896,4,left
16.442,0.3851809382015412,0.13811547774321103,0.07748533811686079,1.068634975135402,-0.10475295500936632,-0.8885182243717056,1.0511279490807763,1.5606663396783569,-3.104492552676011,4,left
16.442999999999998,0.37887123949542995,0.1410622461260846,0.08032957133444811,0.9733193083187104,-5.339502207754373,-1.1172810780963522,1.009352328579125,1.4697577629954814,-3.008195595450373,4,left
16.442999999999998,0.35765899172724824,0.15341247381591572,0.09116562128957839,0.9507423957950636,-6.586737119741155,-1.1718162426760723,1.0087230096207014,1.4684747963313194,-3.0067743792605137,4,left
16.448,0.32944543906758866,0.17155678090291993,0.10489180829648181,0.9679440516007024,-5.641219109092097,-1.1304993317325547,1.0307142944454635,1.5161398012236187,-3.057403318806836,4,left
16.45,0.30947989237618534,0.186734193265451,0.11853572944013521,0.9574678481212481,-6.211396298747267,-1.15535260132528,1.0043519767123983,1.459043933838931,-2.996724245542043,4,left
16.452,0.29209754022069917,0.20556218062989184,0.13638167174356874,0.9618734474822807,-5.979527400374874,-1.1453594258509807,1.0249089186018034,1.5035093476128758,-3.044022963066039,4,left
16.452,0.2810833243759483,0.22875313650696488,0.1543663821500313,0.961701325897547,-5.976059172525516,-1.1450081161552323,1.0138364004773979,1.479530925780846,-3.018537299758231,4,left
16.457,0.2758803704645989,0.2521020095246963,0.168189523083119,0.9597004508610253,-6.097892292675597,-1.1505306618137419,1.016253679170597,1.485016509636408,-3.024181862876901,4,left
16.457,0.2724042817259549,0.2768923067896869,0.1792787573065911,0.9622630757741382,-5.952080693226038,-1.1440727176333698,1.0195015671897403,1.4913553136292,-3.031434408338215,4,left
16.461,0.274226569616923,0.30474032517242,0.18841118136605772,0.9600344410602002,-6.065470684707179,-1.1488598221645745,1.0138824405299403,1.4803836210816375,-3.018884914267298,4,left
16.462,0.2755207216012512,0.33222868405344097,0.19594737929004735,0.9616723183772077,-6.004635775634796,-1.14674423430136,1.0193166648069099,1.4906677661053938,-3.0309169264813596,4,left
16.467,0.2748247090842437,0.3570793179419092,0.19924673000045065,0.9605208545553208,-6.017988840615493,-1.14639211367339,1.0155861037967702,1.4837784561697147,-3.0227116036768726,4,left
16.468,0.2765653557813577,0.3810336580322617,0.19790963281040214,0.9613217525156669,-6.034983455681212,-1.1482830904103212,1.0169725169103052,1.4868057069322898,-3.025910904619029,4,left
16.471,0.280203625804609,0.4017609634666839,0.1958601621309154,0.9609606920758283,-6.006292314479211,-1.1461136017006308,1.01798867331572,1.4867389122228247,-3.0275225395721206,4,left
16.473,0.2859486993857884,0.4178939177662111,0.19008770216175658,0.9604747549272424,-6.0326273297297295,-1.1472570186658926,1.014901130138383,1.4852269826734945,-3.02207518770014,4,left
16.477,0.2914141072550076,0.4301420670331418,0.1777038428399792,0.9624076284418932,-6.01610243137036,-1.1482321807690947,1.0193294714807148,1.4870952750357938,-3.0297921743266434,4,left
16.477999999999998,0.29497091701217026,0.4391062178899221,0.16408719659502985,0.9585840570550995,-6.0212435452304405,-1.1445768122249318,1.0148446399862587,1.485617439714281,-3.022109203407857,4,left
16.482,0.29871721905416165,0.4459609885852178,0.15173547449828292,0.9640787375197065,-6.025062498861491,-1.1505329056400557,1.0174384025934233,1.4864757253109078,-3.0265543366056344,4,left
16.483,0.30152150420094204,0.4502879012668023,0.13802669240643894,0.9582976229059708,-6.016787344149439,-1.1439988501075944,1.019151562061529,1.486080927503803,-3.0291802701735357,4,left
16.486,0.3010975449313536,0.4544856694773305,0.12433313698503684,0.9615878834728493,-6.02438864686216,-1.1478991640985878,1.0109775439365603,1.4863427174484207,-3.0161266918201104,4,left
16.487000000000002,0.297051832597656,0.4585968272721764,0.11415967913321329,0.964578936222126,-6.022172937744595,-1.1508727946414843,1.0261697033033457,1.4859273812750557,-3.0404124668749715,4,left
16.493,0.292596280737518,0.46128900773715964,0.10564524969047323,0.9517735405081063,-6.01569324637248,-1.1371405981270981,1.0067059433726424,1.486558307976135,-3.0093282118037026,4,left
16.494,0.28778716277032984,0.46401322484238505,0.09958841228149876,0.975455424563366,-6.031532884519002,-1.1627788167019606,1.0229350047729586,1.4859836915671907,-3.035233557769404,4,left
16.496,0.27879383722743933,0.4688681450993647,0.09799336020471655,0.9450680957901109,-6.009814515069552,-1.1297931770766916,1.0224418649675702,1.4858911410344482,-3.034405004409644,4,left
16.497,0.27023503383787506,0.475156736165104,0.09898368547610123,0.9704319668290896,-6.028531870006997,-1.157363645451345,0.9917282448023317,1.4874691338020622,-2.985551160302954,4,left
16.500999999999998,0.26505980896627185,0.4793751991831462,0.09956852098610822,0.9697485563984243,-6.027119160529622,-1.156561980239705,1.0672579657932442,1.4836587311028824,-3.1057249496653543,4,left
16.502,0.26030885476825294,0.4861184593387695,0.09530537476663799,0.9213732014478866,-5.9938367622063105,-1.104133832541982,0.9420318665278925,1.4900005971212875,-2.906480117387633,4,left
16.506,0.2577397343660791,0.493506018403492,0.09090297346289336,1.0402769677373433,-6.076956676310688,-1.2330853436344618,1.1071897002690685,1.481594727038622,-3.1692521961795146,4,left
16.507,0.2565358176039083,0.49713167447607126,0.0889014665455698,0.843117797311366,-5.938636164119054,-1.0192315236288247,1.8003161558971927,1.4463173108587681,-4.271861539504446,4,left
16.508,0.2550214061221514,0.5008219521124754,0.08572448987418099,1.103186869979373,-6.1212725180756875,-1.3013365162168418,1.9654531838498128,1.4378761865244365,-4.534582284044746,4,left
16.511,0.2536143588624137,0.5042607598553417,0.08361485026822729,2.194602459451688,-6.887017369285028,-2.485150182390805,1.8402584848922676,1.4442409560900509,-4.335425145538821,4,left
16.512,0.2497580120908964,0.5139238664535181,0.08024257548560945,2.4547053835722377,-7.069709464838741,-2.76729892178671,1.9157652794713056,1.4404990382490368,-4.455506170329113,4,left
16.512,0.24393693912025063,0.5306491822532031,0.07750936976693709,2.257511493135222,-6.931224923055748,-2.553393235330396,1.8850419049054956,1.4418392264643112,-4.406702885055045,4,left
16.516,0.23853685473466849,0.5476186166570725,0.07661285514506574,2.3763945820480585,-7.014689281775114,-2.6823428089287296,1.8846131208022259,1.442184001459281,-4.405922404288706,4,left
16.517,0.23578382233654635,0.567921493321905,0.07235876818785589,2.328154626873001,-6.980849539687968,-2.630038545566063,1.900715187044907,1.4410418641647944,-4.431633239979153,4,left
16.522000000000002,0.23813060138244538,0.5905264641967636,0.0697411467597987,2.327189180305364,-6.980130041522811,-2.6289482032131013,1.8814212617084998,1.4421635894365306,-4.400899548789267,4,left
16.523,0.24490104069132942,0.6125239345654244,0.06776509922800796,2.3529499934032003,-6.99825856822916,-2.656950289017698,1.8964595916069926,1.4416745058857938,-4.424742744253152,4,left
16.525,0.2548327609166723,0.6366375533622446,0.06374931619930191,2.322176687086879,-6.976620546814308,-2.6235127233756375,1.8883253486723008,1.4411968260647987,-4.412059421088588,4,left
16.526,0.27016220877371155,0.662083501168834,0.061441141873463334,2.3460078548884207,-6.993365141365874,-2.649387025126031,1.8902296796034737,1.4426368944836343,-4.414647466294294,4,left
16.53,0.29250605726241596,0.6861250465512028,0.05670236358310962,2.3335736700825542,-6.984651336855678,-2.6359482321975163,1.8923128128465758,1.4406443570243086,-4.418502365264238,4,left
16.531,0.31759091031475617,0.7097116451075556,0.05123322109640503,2.3354373657685503,-6.985907496267377,-2.6378138600209753,1.888647054819989,1.4423350107020527,-4.412239783054519,4,left
16.537,0.34250597987906656,0.7329390583436113,0.046547659235805984,2.3406312681620953,-6.989641293851219,-2.643715772906532,1.8921350680835498,1.44217090972752,-4.417784766292414,4,left
16.538,0.36634079930177976,0.7558946065778203,0.04079367970596409,2.332555160222876,-6.983866613488393,-2.6346270509340233,1.8897003779801476,1.439503561646224,-4.414710946644491,4,left
16.54,0.3877468076112738,0.7801000277719863,0.03984378135719757,2.3398178830429543,-6.989047793508989,-2.642766576073407,1.890944975795379,1.4458191044242445,-4.414864302801259,4,left
16.541,0.4070306925583925,0.8036837322811343,0.04329576941149994,2.3361519813901737,-6.986474802663004,-2.6387928374797003,1.8906093083637736,1.4363200593353587,-4.417055133337234,4,left
16.544,0.4227500581350452,0.825835187869506,0.04930064369325787,2.3344782255823358,-6.985149271541189,-2.6364912484227734,1.890410659285447,1.446474356800271,-4.413834453488173,4,left
16.545,0.4348720539403991,0.8461612405290895,0.05625590904645797,2.34197733747311,-6.9907567863585545,-2.6457356324586367,1.8908984896294259,1.4405887338824166,-4.416288844358994,4,left
16.55,0.4430443120836055,0.8647237804911717,0.0596673591301072,2.3299098422183047,-6.981774674203107,-2.6309905294405698,1.8901590921816875,1.4355724879339964,-4.416559197915387,4,left
16.551,0.44587130539948594,0.8832856159666188,0.06236714262861116,2.3429383425150325,-6.9914639052005185,-2.646886655863887,1.891255336906989,1.4576312630122046,-4.411971811510873,4,left
16.554000000000002,0.4465921049150582,0.8970633766163421,0.0672199173072696,2.335150823207483,-6.985684797110394,-2.637421342931863,1.8897276265248701,1.4166988172325472,-4.421283090162513,4,left
16.555,0.4474664106872025,0.9066701803183056,0.06788562012741058,2.3297224988063796,-6.981600374267355,-2.6306520672617753,1.891507520897112,1.4692658686102678,-4.4090376878572375,4,left
16.561,0.44494771733075555,0.9171414121324218,0.0635263565579637,2.3555835336167594,-7.000942925775298,-2.662552663105407,1.8900978287201813,1.4253784894693062,-4.419382262845561,4,left
16.562,0.4388844363067478,0.9257299123820999,0.06017631606639348,2.3072429033599287,-6.964808677184779,-2.6029823253897426,1.8900190277956348,1.4265675544909466,-4.418915728053973,4,left
16.564,0.4344871783750323,0.9339361284755264,0.05354352950055954,2.3694019274748133,-7.011264014297671,-2.67956536081447,1.8930186571342236,1.510247371329812,-4.399687622011346,4,left
16.564,0.4318212645938829,0.9430683405904865,0.04233191489405369,2.3174707525653515,-6.972459954102002,-2.615593125441843,1.885813960481015,1.304573978233658,-4.447216259543923,4,left
16.57,0.43319073413937015,0.9527476061443076,0.02528110148793043,2.3190157917222236,-6.973595638685399,-2.6174669414059872,1.89769784784145,1.6455849990124913,-4.3683124260374395,4,left
16.570999999999998,0.43525583576601046,0.9579976809005132,0.013393447558453508,2.417587752016533,-7.0472999516199835,-2.738981396862636,1.8820432386679626,1.1958011318989423,-4.4724192373611675,4,left
16.573,0.43543347702690227,0.9591853177725645,0.012612529993680784,2.1751383020230906,-6.866050315916315,-2.4401468705231286,1.8162588344037935,-0.6922074385094494,-4.909283305346776,4,left
16.574,0.4461296587908807,0.9714984210846528,-0.009333772692405373,2.5771848337844814,-7.166584906992158,-2.935670142595741,1.8005997314328646,-1.1419687474881959,-5.013385687535889,4,left
16.575,0.4558649088642837,0.9825547913143335,-0.03296092306333545,2.0468661919055973,-6.770196254967721,-2.282075660569895,1.812478821008618,-0.8009923846952214,-4.93446996903797,4,left
16.579,0.4590737254283662,0.9843568704497121,-0.038064630267508684,-0.17895475122388826,-5.1064852663589,0.46118210842985075,1.8053101887453842,-1.0066387490948352,-4.982059499629559,4,left
16.581,0.4753505164730828,0.9973457311418266,-0.068268553147636,-0.7093199253205462,-4.710164638253109,1.1147554394364563,1.8082231522925076,-0.92295283271333,-4.962693718267221,4,left
16.581,0.49930961803636503,1.0167994509524276,-0.11585133029004843,-0.30717943054767505,-5.01058699757216,0.6192570033043072,1.808283700378585,-0.921826902625229,-4.962442053549643,4,left
16.584,0.5236110656359292,1.0351715608944998,-0.16084869509651084,-0.5497642292298781,-4.829446213912627,0.9180933194123604,1.8067119369130602,-0.9655837182907312,-4.972543682014887,4,left
16.585,0.5509410159971887,1.0563745437415972,-0.210898921690656,-0.4510407596303796,-4.9031125416890955,0.7965172088268345,1.8086060972263285,-0.9131966984979131,-4.960458847406839,4,left
16.588,0.5820023219861152,1.0782709146266751,-0.2580747558631731,-0.4496089247634404,-4.904141482451181,0.7947855738399279,1.807116586990778,-0.9539585775319364,-4.969851916747428,4,left
16.589000000000002,0.6167439984559366,1.0985296099944302,-0.30252644892794456,-0.5015481554932784,-4.86564137251375,0.8585463266144391,1.8079130850287384,-0.9319592505615313,-4.964778547214195,4,left
16.594,0.6517020746675748,1.1132433775841362,-0.34139370616387155,-0.43916828766141186,-4.911605534200019,0.7821834074566996,1.8077923707532517,-0.93715220297699,-4.966015504298786,4,left
16.595,0.6891037251697036,1.1265432595976774,-0.3713346083461086,-0.48799944173265664,-4.876033292412743,0.8416410824431894,1.8074111339683157,-0.9425243577402569,-4.967144416443551,4,left
16.599,0.7225470055572385,1.1389900634479193,-0.3941979144538753,-0.4614172740118661,-4.894990914739854,0.8095922271327447,1.808069842475063,-0.9332220975543293,-4.965189267333308,4,left
16.6,0.747735152065456,1.1444089270179858,-0.4041532559982772,-0.46760186006781396,-4.890758763696592,0.8169091969584479,1.8073632924126035,-0.9417104986222625,-4.966910863457686,4,left
16.602999999999998,0.7709093599786581,1.1480561569998184,-0.4015119445470605,-0.47497552374385527,-4.886021808540194,0.8253910181588255,1.8078846302534726,-0.9361485476248081,-4.965817258090286,4,left
16.604,0.7878294684758638,1.1525511843534786,-0.38904279489970583,-0.4615109939818091,-4.8935959785836065,0.8107441230342545,1.8077903199580314,-0.9389422937409537,-4.966465980313527,4,left
16.608,0.7951884030772437,1.1546308459852024,-0.36662691488653937,-0.4753355546431891,-4.88754849087902,0.8244302072037778,1.8072346397746775,-0.9374336493841171,-4.965756356001956,4,left
16.609,0.7952193053411623,1.155322262551131,-0.33434668549460633,-0.4646088109328842,-4.8903094528077915,0.8153215200741872,1.8085578319888582,-0.9393486574141142,-4.967022621016898,4,left
16.613,0.7920607365855953,1.1570787270035927,-0.2956637518274623,-0.4704598471610689,-4.890126091819985,0.819255527246584,1.8065963384464818,-0.9361357528073424,-4.965051796082231,4,left
16.614,0.7867429772275489,1.1612635551262578,-0.24979935678437246,-0.4704665499003791,-4.890157443622174,0.819235197110139,1.808670741681297,-0.9400331989941116,-4.967261219648362,4,left
16.617,0.777639194404552,1.1660670699246598,-0.19565501396575136,-0.46393648889606454,-4.8872671391508815,0.8172656698066334,1.8074722637640845,-0.9377862386800664,-4.965987314387528,4,left
16.618,0.7660620308752598,1.1704065549598703,-0.1448106424678341,-0.4770350754216246,-4.895237227474782,0.819517325617061,1.8064746901398843,-0.9348018912491831,-4.9646418502194365,4,left
16.622,0.7492502324046574,1.1756356148858291,-0.10092095644646731,-0.45899692878622467,-4.8822231802299605,0.8180107280273659,1.8108858119088604,-0.9465070819654051,-4.970206157300598,4,left
16.623,0.7255702441230026,1.183293977216577,-0.06292281450580271,-0.4773482141275336,-4.896753921487623,0.8185341118844733,1.8027038099748656,-0.9248669113084018,-4.9599069430782095,4,left
16.628,0.6951725674017268,1.193205116858737,-0.03345695051962763,-0.46702387463627393,-4.888146803263528,0.8185773245843797,1.8132060599404545,-0.9527411089936273,-4.973147532672824,4,left
16.629,0.6596965591944965,1.201282701186721,-0.009186571279705702,-0.4582466966405495,-4.880644278051106,0.8187601254205583,1.8044408348305558,-0.929430333510217,-4.962090664024098,4,left
16.632,0.6079458776425111,1.2067179109303132,0.014145849002471816,-0.4963340440794788,-4.913740527292421,0.8175469306939369,1.8046791375087614,-0.9299520824610373,-4.962350052716328,4,left
16.633,0.5447587372627337,1.2113105326978442,0.03764223799344299,-0.4260185101592754,-4.852118042434697,0.8201934170524576,1.8213829517738458,-0.9748686818792347,-4.983576536866898,4,left
16.637,0.47821900046432997,1.213932157131764,0.06421300148569546,-0.5160887950756587,-4.931415350398211,0.8165210814258896,1.7803297366260433,-0.8645506363110678,-4.931452859442839,4,left
16.639,0.38290515336866005,1.2149373574975995,0.1001305148067122,-0.4409834528450921,-4.865134733960648,0.8197054943187777,1.848393299948356,-1.0474724561391664,-5.017856050756881,4,left
16.642,0.30874056563647123,1.2148060681490271,0.1265304105134461,-0.44304836868861924,-4.866933893480034,0.8196399171678803,1.7586230140863983,-0.8061714972138214,-4.903906779703078,4,left
16.642,0.28730809389257295,1.215014551092425,0.134452457866307,-0.586007460018475,-4.993434338786312,0.8133040983292041,1.3817744144289357,0.20695994569159365,-4.4252841491722394,4,left
16.643,0.2229386604700185,1.216508235349813,0.16082561069624993,-0.23464980452145753,-4.682441784257485,0.8289358195904236,1.2920125488470928,0.44830259294143,-4.3113629597803325,4,left
16.649,0.10506329791492477,1.215443907497768,0.20583371223005903,-0.8171814523742527,-5.198145756266137,0.8029496752399563,1.360066290439665,0.26531524310807947,-4.397740490910512,4,left
16.65,0.03780497314923626,1.2133916930277364,0.22840408600661533,-0.0488526781939215,-4.517885953054851,0.8372775156209105,1.319012130681148,0.375688483374514,-4.345588531452932,4,left
16.651,0.016279486507488193,1.2134178759392857,0.23476725509790208,3.175465633270208,-1.6628214727489299,0.9817079923003462,1.3357409685102226,0.3307723439069118,-4.366950280634445,4,left
16.651,-0.05119715882474188,1.2126181173181703,0.255500398247456,3.9437303636119894,-0.9825458615355513,1.016093850467262,1.3359219587108,0.33014995977062095,-4.366941667019882,4,left
16.652,-0.14168745667656474,1.211887002332098,0.2770416854782439,3.36136803070095,-1.4982310465562891,0.9899938095403161,1.327241687174399,0.35368480568243355,-4.356250614614618,4,left
16.657,-0.21054699036842178,1.2142882183534232,0.28564193938510785,3.712397753521879,-1.1873721212078385,1.0057827430644841,1.3376558695536875,0.3254878225136528,-4.369149967967992,4,left
16.659000000000002,-0.27804105490968467,1.2194364108252063,0.29122442023594286,3.5699392112279007,-1.3135537536509037,0.9992818174921054,1.32951831406509,0.34745234094240063,-4.358955203292065,4,left
16.662,-0.33541174332657103,1.226757952257448,0.2853996098227898,3.5672852515620117,-1.3158637966894542,0.999322080475574,1.3339902045814167,0.3355978602039702,-4.364911131369473,4,left
16.662,-0.38421540824966977,1.2377089151477314,0.2685836355362653,3.6428444991157116,-1.2489908456327323,1.0025544256043144,1.3327713223145563,0.3383294791548458,-4.362473760322313,4,left
16.666,-0.43133138751930333,1.2513778181690327,0.25531037389337663,3.5528102058346573,-1.3287029205021135,0.9985849196977508,1.3319686741564496,0.34142832119599703,-4.3629849815560835,4,left
16.667,-0.4672407763707871,1.2659847819431786,0.24248779926127942,3.6222040163777485,-1.2672265613770168,1.0018228566206147,1.33354189447357,0.33604329340618166,-4.363105821416307,4,left
16.672,-0.49957192519736326,1.285475760929049,0.22722060051243637,3.5861738889155164,-1.2992175936977866,0.9997974083264831,1.3320029679632817,0.34110243400397455,-4.362647465346479,4,left
16.673,-0.5278171919869309,1.3074775580254223,0.21486382302155257,3.591916447837513,-1.293986534046609,1.0007604498459346,1.3332769920393086,0.3376842871101048,-4.364278533463921,4,left
16.676,-0.5482629882910923,1.3248398708785065,0.2062705556870878,3.605430323688606,-1.2821973590090319,1.0005015530904786,1.3320585508850824,0.3392522124934941,-4.359956352517645,4,left
16.677,-0.5637159510524804,1.3413513106047046,0.20206447520002932,3.585330162705466,-1.2998558442412427,1.0002891329627888,1.3335749228525633,0.33908042556181306,-4.368223456905101,4,left
16.680999999999997,-0.5729368284662786,1.3563834273091389,0.20472960749062713,3.6015277003505917,-1.2855102878936777,1.0010217317121546,1.3316163389424314,0.3385190465083636,-4.3562758251492255,4,left
16.682000000000002,-0.5750674321887008,1.3617440079414274,0.21356697230026234,3.5958595039920684,-1.2907919933865457,0.9994899827892482,1.3336479228123994,0.33927053669900054,-4.368940995237553,4,left
16.687,-0.5721017559597553,1.3587429419681563,0.23061557735766763,3.588721590192262,-1.2965155256997112,1.002088597558839,1.3325629526826237,0.3385946728120869,-4.36173535694188,4,left
16.688,-0.5674023711440744,1.3488962211924296,0.2566438325123419,3.6064444638616826,-1.2817104533642225,0.9985302109538694,1.33118659284804,0.3392063256210891,-4.354965689134913,4,left
16.692,-0.5627979988721665,1.3344107491770425,0.28726252234374017,3.5849645875452403,-1.2997861770453851,1.0022062103453828,1.336488881951417,0.3384864149704683,-4.38368091734583,4,left
16.692999999999998,-0.5589968172700484,1.3208238895328688,0.3219242896762672,3.599107927598252,-1.2878041051696394,1.0001620030102578,1.3267851782628695,0.33946603444915946,-4.330590974109295,4,left
16.695999999999998,-0.5492259588536387,1.3037607085191738,0.3548534127249504,3.6059139507468942,-1.2822568386181294,0.9981518935741273,1.3392172092183916,0.3382910225907948,-4.398727229155931,4,left
16.695999999999998,-0.5328419745970039,1.2836503434963245,0.38226597598612455,3.5661946870134384,-1.315355964513869,1.0064899902579252,1.3288481642265424,0.3392340048187261,-4.341853469717863,4,left
16.7,-0.5061095928273052,1.2621064383794038,0.4077986442052911,3.642196426215473,-1.2518886975824706,0.9911376709293933,1.329088139716634,0.3393453670610888,-4.34334772333955,4,left
16.701,-0.4649651256060385,1.2372717688363188,0.4264416352039685,3.543769290646941,-1.3341356385020333,1.010807611782261,1.3489973462857865,0.3371101885482125,-4.451953131271009,4,left
16.705,-0.42367628160848525,1.2122165871778647,0.4381765075880272,3.626283943939976,-1.2651531590042204,0.9944096276770437,1.300107185115643,0.34243186697720396,-4.1850578957219415,4,left
16.707,-0.36330878584604676,1.18022468808458,0.44158556961198847,3.6235336633591757,-1.267512381016377,0.9948118883060068,1.3811618269564878,0.3336640795599635,-4.627581310291679,4,left
16.712,-0.31613881376284814,1.159766807713274,0.43949148833353385,3.4675802347004687,-1.3977399987202577,1.0261851331586203,1.274247435991101,0.345211826869515,-4.043884122537843,4,left
16.712,-0.3090673731407827,1.1575469478434295,0.4395490651254151,3.8516197767808222,-1.0769427625467196,0.9491443724176405,0.8255540094760229,0.3942822020626683,-1.5941172005991409,4,left
16.714000000000002,-0.2554325482967097,1.13614198127898,0.4273935307197918,3.2146228165055244,-1.6091114352839466,1.0768395672799438,0.7186390470780573,0.4058612030040222,-1.010426569735423,4,left
16.717,-0.1997785500705898,1.1157238988220461,0.41437661272491616,4.054860910688005,-0.9070806176189001,0.9084472053944461,0.7996761454819458,0.3970057593578583,-1.4528946882572833,4,left
16.718,-0.19284670087381545,1.1130295930054541,0.4097048561638888,7.581685230023855,2.0392744729368997,0.20142982309249574,0.7508505486371913,0.40250528635406446,-1.1861674870709598,4,left
16.719,-0.14851707402976258,1.095712681690789,0.38957705017832023,8.421770994714452,2.7413396573877202,0.033120800731400266,0.7706250835485039,0.39998910767871415,-1.2944444452954869,4,left
16.72,-0.08915178644904657,1.0757874905287963,0.36395864902270436,7.784957154099115,2.2090685627680635,0.16068325677436918,0.771066223405312,0.4004424191161402,-1.296410255099935,4,left
16.721,-0.04735395257606875,1.0648730371358517,0.34341819512949373,8.16899452795455,2.530082736387623,0.08375898936954534,0.7604796825687241,0.40110540238979125,-1.2390486391538507,4,left
16.726,-0.0014933778363570363,1.0531944709292467,0.3237649870540318,8.012628101637407,2.399502064963651,0.11512046848824666,0.7730396921616847,0.39994654366075383,-1.3074355443436012,4,left
16.727,0.03674126475952982,1.042059046698443,0.3090478063646225,8.010855759461602,2.397584223619255,0.11534036782617231,0.7634452980596919,0.4014069560184513,-1.2546741199946991,4,left
16.73,0.07242001768504426,1.0296949953958645,0.2945805254996675,8.09189672451751,2.4661886553859445,0.09937012629238615,0.7682585745640798,0.3995492545336655,-1.2821679220300657,4,left
16.730999999999998,0.10768346902745174,1.0156435576898564,0.2798332812356038,7.995026436231506,2.3839998970678753,0.11840642315270752,0.7678052354736284,0.4018924753020163,-1.2776017747956354,4,left
16.736,0.14167287916324361,0.9986824002163406,0.2650745573027885,8.070190440871517,2.4480330857899175,0.10371322396085585,0.7655001445298718,0.39933077962869773,-1.2675821241897531,4,left
16.737000000000002,0.17420999627125555,0.9809340399883715,0.2486184268087734,8.029516843122318,2.4135221248735332,0.11170662098274793,0.7686358570916102,0.4012307914092711,-1.2826570494944964,4,left
16.74,0.20281513968993492,0.96210330606247,0.23335667243280367,8.040054937836937,2.4212743856810697,0.10927789197870062,0.7663846021758366,0.4014957236990119,-1.2703477433671293,4,left
16.741,0.23520644452815181,0.9393458009033916,0.22064736198635032,8.047394581683433,2.4307872535720225,0.10882287169421159,0.7665454864118162,0.39732058157227856,-1.2750210244337326,4,left
16.745,0.27178497590569384,0.9147113724146849,0.20830345736276537,8.034660256186744,2.414329278657015,0.10962708970402085,0.7689742476952279,0.40655739057247503,-1.279608382890197,4,left
16.745,0.3172542765051329,0.8836077388016633,0.19278329442126446,8.044820752192086,2.429955070405658,0.10973440123736665,0.7643660473739874,0.39288495075134106,-1.2673881490578625,4,left
16.75,0.3694840834821351,0.8479597905844589,0.1722669710817776,8.038971436387408,2.4193799556052795,0.10919834386925276,0.7696390195408517,0.40742110421124733,-1.2823826722799474,4,left
16.750999999999998,0.4338142659343592,0.8070305513106456,0.1407000902536824,8.044230561036693,2.4237230896310042,0.10812895182469054,0.7663503527993389,0.39904762751817524,-1.272399439176338,4,left
16.755,0.5094062856567245,0.7671385946055334,0.09585279046100961,8.03298766232205,2.4248831245413736,0.11355200792947062,0.7642676735506242,0.39175044243179813,-1.2678958212635654,4,left
16.755,0.5876503655023633,0.737768222314529,0.032307225005481825,8.05581796332717,2.4198408937931415,0.1017329656151772,0.7747704920573695,0.42354112099459273,-1.2951738745581127,4,left
16.761,0.6762765613995345,0.7167331764009537,-0.05323030003061362,8.021094027091294,2.4268067446856763,0.11949794998290317,0.7549646020457399,0.36461833369932845,-1.242798247572984,4,left
16.762,0.7421910355606338,0.7246389712122754,-0.14785855277606244,8.058992998248659,2.420118648537306,0.10038336163647923,0.7805152066677907,0.44026759282762923,-1.310695827104341,4,left
16.764,0.7989042292145057,0.7424680700404099,-0.2597584722265489,8.03710431031331,2.4239906161722438,0.11142581774901716,0.7591331469201819,0.37711364643625384,-1.2537387059523495,4,left
16.765,0.8131576565848563,0.7788105804296523,-0.37589645003449146,8.016278995723905,2.425693968716466,0.12133701165321588,0.7597917168794781,0.37882312486652925,-1.2557013403776152,4,left
16.771,0.7605883801911705,0.842379018270799,-0.47197628056821894,8.104887680349169,2.4161242081347716,0.07846890204014004,0.8003514275897305,0.4992468323911312,-1.3631875978774985,4,left
16.772000000000002,0.6834474353099294,0.9009379489541693,-0.5398938497443497,7.9406874931935105,2.433976052667266,0.15794301897266935,0.7005434443819345,0.2032550418393827,-1.0983898485144952,4,left
16.774,0.45170131909963274,1.0339152695292473,-0.5373133546500883,8.151691891513355,2.4111894698623493,0.05586146207269864,0.8660761649947668,0.6940313990296533,-1.5376678001893098,4,left
16.775,0.26089862484730264,1.13792660959799,-0.5119359339699057,7.975458559705763,2.4301508534583194,0.14110022844451758,0.6477194899419909,0.046688370119783135,-0.9581770351397649,4,left
16.779,0.20237232792671894,1.1699681542702243,-0.4983581128872707,7.980029898282392,2.429465375405365,0.13883054854619642,-0.26871678934285226,-2.6703812873551915,1.4738745242356592,4,left
16.781,-0.06101500000263976,1.3207504141115427,-0.42899989590869303,8.316929594393258,2.3940454231542683,-0.023867589786498965,-0.4870841341412824,-3.3177468507593186,2.053384241699911,4,left
16.782,-0.42735787159407945,1.5251272314504143,-0.3332096432413646,7.489017573652929,2.4812319202980886,0.3759977312600067,-0.32153097513070483,-2.8269470871454434,1.6140372309752506,4,left
16.785,-0.8409007460120724,1.77613419057308,-0.24001975052856264,8.861746899970647,2.3366905781387577,-0.28699752747313517,-0.4213660721168596,-3.1229261534599093,1.8789991603037168,4,left
16.785999999999998,-1.156775363035457,1.976937132145323,-0.17625047195606358,7.051092782777484,2.5272850340033264,0.587485446830637,-0.3807797046167722,-3.002590434933036,1.7712263697775281,4,left
16.787,-1.2270472008287205,2.0257020452068013,-0.16452489103372347,-0.5489124087875605,3.3265531411628424,4.257738768545814,-0.3801351001832237,-3.0006963907191047,1.7696433860869454,4,left
16.789,-1.450531388806771,2.202323013006175,-0.16112564026353393,-2.359468528736487,3.5169971458627503,5.132115760326929,-0.40153187462016293,-3.0641111611692056,1.826245798676024,4,left
16.79,-1.698511941610356,2.434443232618053,-0.20786116000975413,-0.9870011086426228,3.37274264237909,4.469360906878739,-0.37592322578487525,-2.988206929533552,1.7584645652449153,4,left
16.795,-1.749195998018958,2.558836362812583,-0.29512555852189165,-1.8144013235339749,3.459551623822228,4.8688244669187295,-0.3958347369618688,-3.047230905087324,1.8112298482507128,4,left
16.796,-1.7688110585530605,2.6605769445780334,-0.3793021078552068,-1.4782882045675627,3.424497640192256,4.706664151444499,-0.3851960952599729,-3.0156795154084888,1.78283835266179,4,left
16.799,-1.6878253659885376,2.6928872299912547,-0.5100256208448997,-1.4727848665225576,3.423629938585648,4.703850667579813,-0.387396881611137,-3.0222408795989595,1.789185009987691,4,left
16.799,-1.502936635301265,2.670481402199731,-0.6675662612726405,-1.6497457233686912,3.442368067435935,4.7893780686667355,-0.39066338510518395,-3.0318623389438604,1.796982528097326,4,left
16.805999999999997,-1.2595595697144955,2.6138433243782737,-0.7944285124022579,-1.4387772188573016,3.4204090044142657,4.687622449307808,-0.38522501708687984,-3.0158156986588303,1.7836190633701616,4,left
16.807000000000002,-0.9593437095300711,2.487752074262949,-0.8448975789114863,-1.601550074558781,3.436779973947353,4.76581701472403,-0.3902528438543682,-3.0306608437923748,1.7961098203170824,4,left
16.808,-0.6601951662667582,2.3124062571335813,-0.7660584623807372,-1.5161635811988265,3.429089100233287,4.725293224591091,-0.38716527042050647,-3.0215070752037,1.7879080644644954,4,left
16.809,-0.38264130990442363,2.1019904537794405,-0.5760799911463146,-1.5322063207136951,3.429195074790458,4.732167691394888,-0.387745846365243,-3.023339434357827,1.791031263666341,4,left
16.813,-0.15167114320285777,1.888296508032238,-0.3454264420685689,-1.5591572457427891,3.4332899827916163,4.745878825378105,-0.3895038613678602,-3.0282969310279704,1.7920804944131938,4,left
16.814,0.03288361396086192,1.6884507709509695,-0.11629852951070821,-1.5184228284486478,3.429015050182366,4.7262128954432505,-0.3861424260182518,-3.0187112526905833,1.78855472449074,4,left
16.817999999999998,0.18529312284254784,1.499320443869433,0.10068766871358509,-1.5503582407310552,3.4300418940898396,4.740345863392909,-0.3898633876454192,-3.029337291069972,1.7926782513752553,4,left
16.817999999999998,0.3085273919740526,1.331185390782791,0.29648977121999354,-1.5391341681275197,3.43419255975199,4.737872476410434,-0.3874960267904619,-3.0225539592462862,1.789719024621649,4,left
16.822,0.4030168983512006,1.1868047253887113,0.4560783890912613,-1.5288533302089367,3.4251572359063154,4.728511346591855,-0.38653202547150095,-3.019895795714599,1.7900248045260936,4,left
16.822,0.4600211216680852,1.0658807266810604,0.5906931604281276,-1.551718636640897,3.436042336406562,4.7442397751641705,-0.3925135124963304,-3.0367485929201967,1.793362487906303,4,left
16.827,0.482076435622725,0.9678271564811028,0.7398367565434696,-1.532426729515096,3.4291112713726335,4.732216032382027,-0.38110251673156675,-3.0045538105223333,1.7863288144916782,4,left
16.828,0.46658999843952415,0.8931757547928034,0.8828338087966517,-1.528604086981547,3.4244907478535467,4.728034885351331,-0.3958264287045342,-3.0461034133594995,1.795549746959465,4,left
16.833,0.4317298605729353,0.8398138389017198,1.0107691723310277,-1.572369255342291,3.447570584296801,4.759386550810563,-0.38350483284855447,-3.011332368011204,1.7877749211245388,4,left
16.834,0.3914366731126879,0.8069219321709017,1.1197926649652241,-1.483321251838785,3.4039335541299653,4.697438070125011,-0.38395023559799535,-3.012596822774069,1.7882796855627006,4,left
16.837,0.3484631340127641,0.7925417999655143,1.172604108080428,-1.601167943054115,3.4603400904611012,4.778674038982677,-0.4070788516502082,-3.0778327976813484,1.802139225895195,4,left
16.838,0.3209836770155734,0.7908631210749139,1.1979434858420501,-1.5012746931145178,3.413081739834918,4.710127560114771,-0.35009881377429,-2.9171142897964075,1.7677272772907742,4,left
16.843,0.26633208368863537,0.8058856304806963,1.1119196647584322,-1.5053064915717411,3.4145207411014002,4.712619449734732,-0.4446095817906659,-3.1836845376820406,1.8248733740393532,4,left
16.843,0.21431700873535842,0.8209637189403308,1.0039554470019099,-1.6933033971974711,3.5043235953197414,4.84213781031916,-0.3199460807449872,-2.8320800600580665,1.7494907288459491,4,left
16.848,0.2053165310225279,0.8258660526797421,0.9948123236653924,-1.2288408676697125,3.283307057226187,4.522653424543655,0.20314947606048922,-1.3566030886610276,1.433498017960611,4,left
