time,gFx,gFy,gFz,ax,ay,az,wx,wy,wz,subject_number,foot
0.718,0.10408965224443573,0.9857025583638535,0.043600167387840616,-0.14910005925956626,0.03619992621174261,-0.031500060221403794,0.005400038454634687,-0.009300059616912219,0.009499966189432238,2,left
0.722,0.10497825771492886,0.9859074112519116,0.04451336495441979,-0.14232115994406322,0.034243725070321605,-0.030421165747455896,0.005399878709345836,-0.009299812901924363,0.009500106556597146,2,left
0.723,0.10505187208751253,0.9861691596435621,0.045289660744609286,-0.011852390586125455,-0.0034103575365773964,-0.009658912089937025,0.005400207474089154,-0.009300319494489413,0.009499817779314619,2,left
0.723,0.10621501207173949,0.986180778944058,0.04794544829818971,0.010962410244796706,-0.00999462947214725,-0.006028138044366097,0.005399746825409543,-0.00929961071576561,0.009500222305018376,2,left
0.728,0.10713076836701771,0.9866313318327318,0.048473958099297484,-0.010361981273548506,-0.003840263167832007,-0.00942160293038351,0.005400199978788069,-0.009300306610504423,0.009499824485067187,2,left
0.728,0.10611024532348834,0.9869982363723054,0.04641520998165684,0.005188956573559643,-0.008328781825062252,-0.00694712831603811,0.005400005647099899,-0.009300010697574627,0.009499994857130914,2,left
0.733,0.10604188154759683,0.9851427266353915,0.043352104046193794,-0.0033005837483638,-0.005877732824228217,-0.008297606403889303,0.005399620670361115,-0.009299413733612961,0.0095003333528974,2,left
0.7340000000000001,0.10675020074051475,0.9839176559168878,0.04324917833554679,-0.0008243988854950207,-0.006593676161918934,-0.007904283786951918,0.005400858766540562,-0.009301323642322615,0.009499245650720864,2,left
0.736,0.10767433886453537,0.9847492993639901,0.04643997411790382,0.0005355151508941178,-0.006984868356959988,-0.007687153641412089,0.00539872746778281,-0.0092980415308693,0.00950111753787057,2,left
0.738,0.10800703441942026,0.9842460785308196,0.04526499492776141,-0.0024261750285516975,-0.006130662925840984,-0.008158775196572456,0.0054013419206575194,-0.009302061643433293,0.009498821856117662,2,left
0.741,0.10621750722074913,0.9833840691964287,0.04260701599324891,0.0004887729681436742,-0.006973020941326567,-0.007695509963977681,0.005399257694348954,-0.009298865860423618,0.009500651134063969,2,left
0.742,0.10739732248167991,0.9836836774847268,0.04368652435965821,-0.0015155878641763963,-0.006391043397164271,-0.00801251569731948,0.005399240322053812,-0.009298818443183341,0.009500668282606298,2,left
0.747,0.11003038836026273,0.9841280467076543,0.044625126510797516,-0.0006132266833944299,-0.00665751148721856,-0.007872293403632704,0.0054031043176145065,-0.00930479085704896,0.009497272579455018,2,left
0.747,0.11072707589856193,0.984197740355823,0.044174366857279976,-0.0006405981600734116,-0.006642199651441199,-0.007872507950245107,0.005394272077216081,-0.00929117692515425,0.009505030958644972,2,left
0.752,0.11256035427728683,0.9850302926404019,0.04449835031166491,-0.0011018574092185659,-0.006514986671959732,-0.007949211419490777,0.005407449726012165,-0.009311458694156099,0.009493458261370357,2,left
0.752,0.1130280803048086,0.98728166790813,0.043877402466114296,-0.0005107472568196087,-0.006685634356430069,-0.007855174449304121,0.005393400111936789,-0.00928987165090173,0.009505793359907035,2,left
0.7559999999999999,0.11265170086054899,0.9883932616252361,0.040783314219618914,-0.00099402206903049,-0.006535201943739273,-0.007925956379355326,0.0054015214567033,-0.009302287453532645,0.009498668808189682,2,left
0.7559999999999999,0.11346381608045529,0.9902036681708164,0.037118301138333476,-0.0007192634595573446,-0.006639541501433477,-0.007896227003065939,0.005408511232118536,-0.009313169143887221,0.009492519023851313,2,left
0.7609999999999999,0.11387756919069005,0.993161063274293,0.03473794565986221,-0.0007914913468908852,-0.006581334381524572,-0.007886845181321416,0.005377897502701347,-0.009265923328431756,0.009519415922134957,2,left
0.7609999999999999,0.11544691199023474,0.992611292897313,0.03621100426415902,-0.0008554173977924986,-0.006602716406587334,-0.007919270222685057,0.005434680703085792,-0.009353381900615534,0.009469542750339994,2,left
0.7659999999999999,0.11816082777830825,0.9925442483326549,0.03857805025830363,-0.0007402943998739882,-0.00661292156082317,-0.007888096138471756,0.005361758309841598,-0.00924124336410552,0.00953357483353994,2,left
0.7659999999999999,0.1193887392430417,0.9950189726273603,0.037568222214825656,-0.000831816285030718,-0.00656668129816125,-0.007891569661298854,0.0054226528336007995,-0.009334615271463988,0.009480128989504429,2,left
0.772,0.118725714999658,0.9952720489064167,0.037344026324177035,-0.0008124454766439983,-0.006659078018084191,-0.007937003839609037,0.005420968102793291,-0.009332676654750377,0.009481548656439269,2,left
0.772,0.11876035703596209,0.9950801884676512,0.03831465839948829,-0.0007454801777261101,-0.0065174071190919934,-0.00783638163382572,0.005304943965228067,-0.009153194639993395,0.009583524972991838,2,left
0.778,0.1180967757064619,0.9958422738084975,0.037427167679049855,-0.0008741874026246472,-0.006687004067013513,-0.007972374977846655,0.005590187679077601,-0.009593201262311515,0.009332931764318769,2,left
0.778,0.11687142530300462,0.9944444544486957,0.03624311340195312,-0.0007485441268033407,-0.006550646685887177,-0.007855958286515974,0.0051171932388249085,-0.008864414491957226,0.009748391727639154,2,left
0.782,0.11943034235352434,0.9929728732838603,0.03577728126024597,-0.0007712931307528139,-0.006548797564184323,-0.007862160870346808,0.005741106217428675,-0.009825102728635179,0.009200428659417224,2,left
0.782,0.12024294231487932,0.9940794926884545,0.036199724224336136,-0.0009683734433551288,-0.00682096561651414,-0.008077445041377558,0.008358896554142544,-0.013874852785361992,0.006899573402375755,2,left
0.7829999999999999,0.11875326188108669,0.9910473317314876,0.036841032606398275,-0.00045215746788911093,-0.0061610968926814795,-0.0075432988715092965,0.008982769964684757,-0.01483617359971239,0.00635158148370777,2,left
0.785,0.12140196026307355,0.9846970891240744,0.03678864575200054,-0.001322045756019995,-0.007251238785362582,-0.008431110456421594,0.008509955101095087,-0.014104518454713201,0.006767171795961249,2,left
0.785,0.12242502817983675,0.9833956521808109,0.03621394480207388,-0.00016845869067497318,-0.005815032799349807,-0.0072591684133836865,0.008794730666002285,-0.014552000444201216,0.0065162393215523725,2,left
0.7909999999999999,0.1227023474833702,0.9832256870017011,0.036061401124277206,0.004667953645019194,0.00021508313319687912,-0.002340854939454165,0.008679563224943083,-0.014358840840819748,0.006618836001459478,2,left
0.7909999999999999,0.12735936201580716,0.9809480939277656,0.03946041752913622,0.005823953949129429,0.0016509550854150398,-0.0011687454257344157,0.008676702395866934,-0.014375677174836198,0.006619404489624555,2,left
0.7909999999999999,0.13040087554887186,0.9759803431227132,0.044651991486776496,0.004947927619426604,0.0005619432434753504,-0.0020571505427298235,0.008738749044767692,-0.014450659401176298,0.0065667918790375,2,left
0.795,0.1327562349601836,0.9706160736652708,0.047082473191243285,0.005475643544820814,0.0012192268493153157,-0.0015216127680144653,0.00866534659129101,-0.014346178665262402,0.006630477863968233,2,left
0.795,0.1360463075585756,0.9703803850436608,0.048832237343300944,0.005261468597968808,0.0009514728311234539,-0.001739306905380855,0.008721097935884159,-0.014450117981075837,0.0065798559490227605,2,left
0.8,0.137633085185026,0.9692807662837029,0.05362406586913218,0.005258294540805875,0.0009475743254789566,-0.0017423356740916024,0.008693751371065449,-0.014350707157657856,0.006609119429330424,2,left
0.8009999999999999,0.14042788956156907,0.9667059952784948,0.06281996527562111,0.00536964709572945,0.0010891705518946801,-0.0016288591288528935,0.008695128277160277,-0.014451196000924208,0.006598906359174956,2,left
0.805,0.14518148087939467,0.9658518386199206,0.07166530013533683,0.005237962777410133,0.0009181067236428218,-0.0017639363292289002,0.008710132419454696,-0.01435374186511871,0.006596761852074534,2,left
0.805,0.15020691483430412,0.9631906142041408,0.07600933921173438,0.0053381674662790765,0.0010534470414389572,-0.0016599738801429506,0.008690597370748086,-0.014419702127101738,0.006605131805224243,2,left
0.81,0.15485256120317922,0.9605755855461762,0.08253239802064527,0.005286461587321984,0.0009783556578873806,-0.0017148023890209124,0.008703723401926461,-0.014440845818650103,0.006593512964959613,2,left
0.8109999999999999,0.16038508295358395,0.9587737365935992,0.09205173176108503,0.005297224966137224,0.0009964550122680282,-0.0017028224170719058,0.008705078552802087,-0.01426455414662512,0.006608655553677732,2,left
0.815,0.16693551935541562,0.9565236972117173,0.09911265774561073,0.005308014396286632,0.0010190667190758352,-0.001689868600392673,0.00868566306418777,-0.014642196763626998,0.006588402009816752,2,left
0.815,0.17254138447488823,0.9546697897828097,0.10536448265769374,0.005295773297940709,0.0009740529238741036,-0.00170886090496832,0.00872037591159993,-0.014087717063591635,0.006613556205918002,2,left
0.821,0.1762105881896493,0.9538141370879377,0.1099542543996827,0.005296404515456168,0.001026235873616205,-0.0016968493524147274,0.008681265398753663,-0.014675539994236134,0.006588602328003906,2,left
0.8220000000000001,0.17790316353556052,0.9540466551042718,0.11088727938235815,0.005309238589625112,0.0009790869668107733,-0.0016978065313494987,0.008705279375627917,-0.01433809401405925,0.006601759203218989,2,left
0.8240000000000001,0.1781982868804051,0.9555397716161371,0.1089432068552239,0.005293115242050962,0.0010093635449947144,-0.0017030100904547683,0.008721577262012932,-0.01404037801244926,0.00661702327626772,2,left
0.825,0.17552923393462116,0.9615188307826757,0.10584479932347216,0.005292882039757802,0.0010095093621505194,-0.0017031559828941472,0.008642122671673053,-0.015330707045335252,0.006557475422744883,2,left
0.83,0.16905100123764635,0.971491384632383,0.10432637919664267,0.005332210454119949,0.0009650467974791315,-0.0016839412845060446,0.00879139938238888,-0.012940782869562304,0.006666166709737622,2,left
0.8320000000000001,0.15863399762119923,0.9795253000792843,0.10109803870034015,0.005238342507318167,0.0010617172168591814,-0.001731885465501118,0.0085990154370524,-0.016008449188358427,0.0065272682201088904,2,left
0.835,0.14654442909523158,0.9863264099968838,0.09411088751882192,0.00538165911224906,0.0009215717026171941,-0.0016570399190624602,0.008759942903091497,-0.013447926434528495,0.006642882067639109,2,left
0.836,0.1320637340831028,0.9942465142237014,0.08441163349112733,0.005226963097162857,0.0010685903415229778,-0.0017387674829832164,0.00875508096725704,-0.013516383322657265,0.0066403550952201275,2,left
0.8390000000000001,0.11414195091691598,0.9979901762047099,0.07579583126779117,0.005316958871765077,0.0009844040559726245,-0.0016909265700730456,0.00844955604909845,-0.018400996736139364,0.006418355519653596,2,left
0.8390000000000001,0.09926463031271407,0.9977127368799608,0.07055450781880537,0.005394792624873999,0.0009121484192677579,-0.001649423950132925,0.009201264327814852,-0.006396530532427598,0.006963011889025886,2,left
0.8440000000000001,0.08285570976375828,0.9971837429726546,0.060619475821482235,0.005053420302315541,0.0012274534881710469,-0.0018317926311884024,0.007954564207330836,-0.026299867586272,0.006060481682090869,2,left
0.845,0.06954641760367106,0.9954138000349149,0.05205026847875517,0.005687200033351484,0.0006435972975572461,-0.0014928880954185597,0.009599133640620736,-4.784155579190454e-05,0.007250514461427158,2,left
0.85,0.06730638865845351,0.9947675780220793,0.05055208414129828,0.0048729139008026915,0.0013926794182204656,-0.00192852269334197,0.01650081791703874,0.1101479570041368,0.012249653936375681,2,left
0.851,0.05924003372414387,0.9950175040086238,0.042934937283515426,0.0055529216344813595,0.0007676044144182502,-0.0015646909484999755,0.018145554617755678,0.1363995941982742,0.013439135395363247,2,left
0.851,0.04955751580142859,0.9929891424389394,0.029949182353940465,0.005534580516585271,0.0007844611972439203,-0.0015742796815840644,0.01689862156832695,0.11649675796640736,0.012537247852548778,2,left
0.853,0.047458416674431986,0.9904385158678053,0.018566053865549176,0.0042373943860194736,0.001976076986773458,-0.0022691482636382244,0.017650445048987856,0.12850110036359863,0.013081967545752273,2,left
0.8540000000000001,0.04414796244581683,0.9893867158401748,0.0061553125475566515,0.007425793975371296,-0.0009525058378608448,-0.0005613927016117851,0.01734514103439987,0.1236156765666055,0.012858326504884061,2,left
0.8590000000000001,0.048068904623439976,0.9895397435023671,-0.0060587117926275075,0.0021391339041283595,0.003903123803313635,-0.0033932275817527037,0.01733955033621159,0.12354935420282392,0.012859556590335492,2,left
0.8590000000000001,0.055112966190345156,0.9894851894784854,-0.011612141629906994,0.009112429121675255,-0.0025016693060198854,0.00034292840206240046,0.01750172562263827,0.12610650353779035,0.01296960325122768,2,left
0.86,0.05631210747779282,0.9883288147509143,-0.01269153732901452,0.03838730309613499,-0.0293976311635889,0.016055304418056797,0.017307845639194384,0.12304258733581276,0.012836473763991479,2,left
0.863,0.0671527604630733,0.9855313062134758,-0.01714975413354483,0.045361726365521216,-0.035805416570304005,0.019798971069372076,0.017458238545079306,0.12543016752839975,0.012942257559575376,2,left
0.8640000000000001,0.08497812362299345,0.9818224562183845,-0.02428961830943553,0.040072651326813646,-0.030943226258039688,0.016950831643436436,0.017378984057015587,0.12413829081806028,0.012878719597932999,2,left
0.868,0.09970455203884561,0.979315414183047,-0.031730957141645984,0.04326481764817012,-0.033882348657895925,0.018684465105140817,0.017392771499545576,0.12444386980553382,0.012908495005868709,2,left
0.8690000000000001,0.11543012677449158,0.9777568990042135,-0.036563554726712647,0.04196295748550785,-0.03267720495087978,0.017956829847841017,0.0174221703652127,0.1247661339189838,0.012895706914858958,2,left
0.8740000000000001,0.12815983185163282,0.9757564563889077,-0.038957161871332635,0.04194884607826882,-0.03267324369821557,0.017977845765007168,0.017375326207717534,0.12419867795336037,0.01290359376237589,2,left
0.8740000000000001,0.13933967735783764,0.973147329174683,-0.04304702243707141,0.04262745435156759,-0.033292807808877764,0.01832973767049131,0.017417885648421654,0.12473432778217959,0.012901072002332568,2,left
0.878,0.15155114832051875,0.9713315708755422,-0.04832635143352143,0.041808734911450554,-0.032533002665725785,0.017866097299964537,0.017394669840042377,0.12436248598968196,0.012884010999110133,2,left
0.878,0.1587375410162466,0.9712002296163718,-0.054079980561427,0.042455247346348396,-0.03315158669201059,0.018291166249230217,0.017390343773613787,0.12456002634355884,0.012942621960583232,2,left
0.884,0.16406370699562534,0.9710748467134314,-0.057907728346686414,0.042092751445187974,-0.032776132775679076,0.017962154626397206,0.017423470258767348,0.12447950090096478,0.012825427912435806,2,left
0.884,0.16751178724071272,0.9704172704327401,-0.061023002558298144,0.04219573766932053,-0.032922815847143835,0.01818236061178872,0.017368480888534453,0.12451079076466162,0.012996290451722993,2,left
0.888,0.16697361166787528,0.9680486288737213,-0.06169793255237225,0.04226674909918057,-0.03294651797446009,0.018089040398306742,0.017428145373352633,0.1244939867749772,0.012814823792479306,2,left
0.888,0.1645037713753777,0.9643166832818151,-0.05471502764216958,0.04210947885005044,-0.0328017422004397,0.018003397854610727,0.017392019455955268,0.1244775559593469,0.012918618976437264,2,left
0.893,0.15598593535566735,0.9639702412523805,-0.049280357890188975,0.04229351852064332,-0.03304770307842895,0.018346162612961937,0.017369033112897485,0.12459284998295297,0.013013555585613686,2,left
0.894,0.1468896923249145,0.9646304115711598,-0.04771624822806858,0.042110951803399674,-0.03270413898014626,0.017690730544400277,0.01748300306178547,0.12430019254642401,0.012606822388811452,2,left
0.899,0.1395252450082493,0.9622423242106019,-0.04320427345085026,0.042279105100623326,-0.033121054895302905,0.0186124697220155,0.017269207874536945,0.12480465837094598,0.013359730812643893,2,left
0.899,0.12578086150361084,0.9593290605075135,-0.03821180336485149,0.042145838197956344,-0.03271872492703819,0.017654710934368812,0.01754430992347393,0.12416551393446086,0.012393003737671701,2,left
0.903,0.11349661805745223,0.956560562188459,-0.03531416536375321,0.04219919973499172,-0.03292971117544487,0.01819515728746709,0.017314363747152263,0.1246955788577652,0.013200415465307001,2,left
0.903,0.10137714772894477,0.9540714019148521,-0.032617002855144794,0.04229522122743716,-0.03315679106534482,0.01868869216419722,0.017321558741519815,0.12469467268661316,0.013178030746639716,2,left
0.907,0.0857052675366953,0.9518933300754238,-0.028218122627869775,0.041980571769499174,-0.0322584078147157,0.016587123952874427,0.0177569585512867,0.12363995587916747,0.011639161694690387,2,left
0.907,0.07353235379053069,0.9489357740211359,-0.022431341326692177,0.04253312231500862,-0.03389666632264231,0.02046717360599626,0.01668553159992716,0.1262163806686964,0.01542316473001704,2,left
0.912,0.05527646087478002,0.9467378608909355,-0.015306947071033,0.04183770406323341,-0.03180536387033041,0.015493251397123948,0.018462490193101505,0.12194879031298411,0.00914738254941275,2,left
0.9129999999999999,0.04200890862901479,0.9458975438042936,-0.009880647303434527,0.04241162346537907,-0.03354609560881065,0.01964116739679844,0.016118410023059804,0.12757718138925309,0.01742725870631345,2,left
0.917,0.03873873214799037,0.9454458840676647,-0.006887018166547345,0.04240311300977365,-0.03350333786590253,0.01953492679954647,0.006281746416297129,0.15122246332671552,0.05217115992871674,2,left
0.9179999999999999,0.02311707788514138,0.9450396442601696,-0.0027372224864438627,0.04129470502998146,-0.030176151162116038,0.011612798575337356,0.003937089964913352,0.15685192760980157,0.06045672124258751,2,left
0.9179999999999999,0.0020837870483240498,0.9459456881221042,0.0022398534389666894,0.044005855196274535,-0.03834622017490292,0.031072642241420378,0.00571500089406222,0.15258347994666943,0.05417208923763912,2,left
0.922,-0.020262743279995676,0.9486834972726728,0.004953370396648587,0.03951835612650023,-0.024803422640498746,-0.0011847180123153583,0.004642646330652244,0.15515838693907893,0.05796331227056731,2,left
0.9229999999999999,-0.037088429445162434,0.9496081778992213,0.003025257804136275,0.04543137237965686,-0.042664812526336235,0.04135507346793546,0.00507837917030202,0.15410974037900013,0.05642513898029518,2,left
0.9279999999999999,-0.0415112099129292,0.9510331307321387,0.002516925252426014,0.07027166758179401,-0.11763510746837513,0.2199496211409817,0.005086461801103875,0.1540972555183765,0.056388091206153346,2,left
0.9279999999999999,-0.05487955045877746,0.9569225505959058,0.003038111135381577,0.07617355018898,-0.1354966136699303,0.2624724070215989,0.004853958557155768,0.15464273521617436,0.057227068007139524,2,left
0.929,-0.07266767234870539,0.9630314118751052,-0.0008710074517998634,0.07170419815058368,-0.12195431781143616,0.23024202887859768,0.005133211306407495,0.15398972328233307,0.056215741010514686,2,left
0.934,-0.08524549960864329,0.9685666383439492,-0.0036057119599522684,0.07439831931261194,-0.1301221162509711,0.24967846849167058,0.0049146456995811695,0.1544974197561458,0.05701234677536039,2,left
0.934,-0.0966570959382472,0.9741323150276543,-0.006261523120395319,0.07329450594805725,-0.12679992936562307,0.2417579852282201,0.005031917125342604,0.1542230141837087,0.05658756315912241,2,left
0.937,-0.10242432349807505,0.9794327910586715,-0.013198563206309546,0.07330587319626033,-0.1267494750513777,0.2416900771251511,0.005010106562956676,0.15429042663572928,0.056643711191113874,2,left
0.937,-0.10703072055859927,0.9877541248205131,-0.022444765375201188,0.07382746247292266,-0.12849879152827065,0.24574950810841292,0.004965250785153684,0.1543503035434462,0.05686936174202657,2,left
0.941,-0.11200623351549732,0.9986125640933639,-0.02956472894970799,0.07321392036146696,-0.12640200101871174,0.24090557503560062,0.00504274650502363,0.15424642720369147,0.056479932709315235,2,left
0.9420000000000001,-0.11372964605577718,1.009151248412456,-0.03304253697044594,0.07367586622525361,-0.1280369450703573,0.24465176994713428,0.004962911638399079,0.1543373139319128,0.05690383267690133,2,left
0.946,-0.11527781056142974,1.0184726116873573,-0.03702212835339097,0.0734182828408011,-0.12715636652143225,0.24261777898941536,0.005020280566482705,0.15427992349591196,0.05658811208933595,2,left
0.9470000000000001,-0.11657439577978806,1.027898596495421,-0.03869214489225284,0.07354960042142437,-0.12734862043831696,0.24320190144841633,0.0050059497511917685,0.15431502245383713,0.05663767425830808,2,left
0.951,-0.11600488824711788,1.0373437021575906,-0.03755212344791316,0.07341775922284213,-0.12760681727473794,0.24341127673437463,0.004961206201678501,0.15427339643000934,0.0570056290624688,2,left
0.9520000000000001,-0.11298683411036853,1.0439109860001259,-0.04068662787645519,0.0736438610593068,-0.1271601509683318,0.24304561510376982,0.005071489253504883,0.15434931843445238,0.05613648467783772,2,left
0.956,-0.10746286688525625,1.0506093012465274,-0.04868082839491098,0.07332821935974684,-0.12759206453194227,0.2432178194576314,0.004908784914710873,0.15423159804032527,0.05742658239307309,2,left
0.9570000000000001,-0.10131233353454548,1.0596213147003861,-0.056633426708109114,0.07359547291634941,-0.12729553530130666,0.2431943793195749,0.005079817209678207,0.15436301934630686,0.056059943390650006,2,left
0.961,-0.09244018788899344,1.0675955316706136,-0.06020353019095063,0.07363554726509872,-0.12740595796718307,0.24346311901417594,0.004980884642118204,0.15428711269994028,0.05684980021626872,2,left
0.961,-0.08222601554673278,1.0766139101585819,-0.05965418933322682,0.07298350496075118,-0.12748608493698949,0.2423878724594848,0.004901326865035534,0.15420867678571168,0.05751100458454628,2,left
0.968,-0.07271344928783316,1.0873872209724729,-0.05135430292878345,0.07445285586667887,-0.12724182012996346,0.24470006259778915,0.005257132652389904,0.1545352084050588,0.05459149073617098,2,left
0.9690000000000001,-0.05836988586576681,1.0951740792629678,-0.033033923012977445,0.0722566449636132,-0.12759231837018703,0.24121707890993643,0.004596706611688674,0.1539303960980701,0.06000732956506924,2,left
0.972,-0.04354919217027976,1.0986140377986842,-0.015671593561044504,0.07460349295630517,-0.12723714474874898,0.24497463867533917,0.005444498048935921,0.1547081944761309,0.05305440089635138,2,left
0.972,-0.032611705709316735,1.1004474610954778,-0.0055730119096900465,0.07324850271536032,-0.12744306802749797,0.2428040582533501,0.004736601215583277,0.15405820430238448,0.05885880016266504,2,left
0.976,-0.023500211946482517,1.1038305909536938,-0.0018845165065063997,0.07206372185022161,-0.1275773953553651,0.24083371758811378,0.004757076790273002,0.15407476143131998,0.05869857284028426,2,left
0.977,-0.019705939074585396,1.1071736189944956,-0.0030875666957541677,0.07722478918102367,-0.12693233369961493,0.24932823571862447,0.006102691394350759,0.15531923261593808,0.04764199369123413,2,left
0.981,-0.018428413061858467,1.1077182197853221,-0.004804645987938337,0.06765703466857578,-0.12813266838795073,0.23358159717185142,0.002793357201516537,0.15226080502652561,0.0748215282784981,2,left
0.982,-0.018518850832134823,1.1082079941571426,-0.007521298539449557,0.07994105534930618,-0.12659345520647697,0.2538091347432274,0.008281595014855175,0.15733249527528254,0.02975491096553155,2,left
0.985,-0.021911649574909365,1.1102330094641153,-0.011058181497877972,0.06968900611039805,-0.1278789163320767,0.23691860920398378,0.0010413579129836073,0.1506419788166405,0.08919917380982936,2,left
0.985,-0.023163021309011256,1.1093844733540474,-0.012148555866567375,0.06995628207634921,-0.12783505729542244,0.23736497278175142,-0.02934039060526318,0.12255862034056428,0.3386994691715815,2,left
0.986,-0.024237778405563327,1.1072123046061002,-0.015245932625685143,0.08953205409229123,-0.12541385106806408,0.269617167841649,-0.036584111011344594,0.11586594634354593,0.3981486186654922,2,left
0.99,-0.02801079261096754,1.1077779062788116,-0.020971204534386646,0.04143603755645295,-0.13137768780916198,0.1903538920378713,-0.03109042801634347,0.12094100912812408,0.3530743624892172,2,left
0.991,-0.028287784778456858,1.1052867032536762,-0.02061463097360994,0.12116807586301903,-0.12148248608103993,0.32177618386402385,-0.03440426695751071,0.11787979195441617,0.3802602164735368,2,left
0.995,-0.026453097420437027,1.1013267796551163,-0.016557266844717054,0.01601511185915616,-0.1345404084774422,0.14842892536708782,-0.03305891156618829,0.119124101284058,0.3692040014087999,2,left
0.995,-0.025966273330343216,1.1005308402900709,-0.015542390851992776,-0.42552198481835557,-0.18925623124517335,-0.57922815439538,-0.033029699789977954,0.11914607149419146,0.36903151761102726,2,left
0.996,-0.02159242562357333,1.0964407748419154,-0.015594338173249392,-0.5306529296715321,-0.20232476675364464,-0.7525783221753632,-0.03375667055828167,0.11848426496598799,0.3748626759757736,2,left
1.0,-0.016703121996319882,1.0909163329007985,-0.01718868278758144,-0.4509444477876654,-0.1924188922135413,-0.621150953348063,-0.03288170595913546,0.11927889543516441,0.3678716262814431,2,left
1.001,-0.016507131763886927,1.0877433948675528,-0.020370486041190725,-0.4990504702770253,-0.1983754931134327,-0.7004198657867331,-0.03356904660575344,0.11865741347645788,0.3733252226372382,2,left
1.006,-0.01795748684856095,1.0839664770740787,-0.025370099133804988,-0.4793937255972621,-0.19599828994234475,-0.6681640233226209,-0.03320157195161874,0.11899116798224615,0.37038934040287647,2,left
1.006,-0.022475388761850873,1.0830257693327539,-0.03242083513273056,-0.4792993706197477,-0.1958637037264151,-0.6677160955099579,-0.033258504976579215,0.11892675458747806,0.3710188020040235,2,left
1.011,-0.029152101355676724,1.0842320050257257,-0.0385715836941298,-0.48930452861610346,-0.19727608593587848,-0.6846163995164491,-0.033430598876216314,0.11880552056720894,0.371911299180142,2,left
1.012,-0.037199572147459836,1.0855178152089757,-0.047287309824791346,-0.4772650580026227,-0.1956144372927307,-0.6643697113609268,-0.03313349289700676,0.11901504164951655,0.37036779067915204,2,left
1.016,-0.04940623901070319,1.090128423808915,-0.05809912178561698,-0.4867297117515128,-0.19686026250520214,-0.6801420941102889,-0.0334509008482146,0.11880149614358188,0.371874919508451,2,left
1.0170000000000001,-0.06272893570672405,1.0936702188134686,-0.06977625108194452,-0.4813530743543623,-0.19633724717099962,-0.6716237383339572,-0.03321727503906341,0.11895380267382158,0.37083274482890866,2,left
1.02,-0.0769712998158415,1.0958238794962079,-0.08253947697861877,-0.48322268022578857,-0.19610751840708762,-0.6736015708442665,-0.03326099642858227,0.11891284494149976,0.37119925373264584,2,left
1.021,-0.09211845831679075,1.0994350845457879,-0.09116623399575591,-0.4834031295615042,-0.19692421422072554,-0.6757985757502886,-0.03350398151916935,0.1188062604225671,0.37156960900072056,2,left
1.025,-0.10459665433217458,1.098548660631097,-0.1003293119749187,-0.482491960732024,-0.19583699955555361,-0.6719668267781445,-0.03292396312800198,0.11907266079414115,0.3705206531502368,2,left
1.026,-0.11666160937006254,1.0951963715049344,-0.11118143764472069,-0.4835522067151623,-0.19674493614228966,-0.6755713234202676,-0.03378356692905865,0.11868051782743248,0.37203848902539377,2,left
1.0290000000000001,-0.1272401885526449,1.0935556143857514,-0.11891114126430713,-0.48205287553543963,-0.19656589237266398,-0.6731166819785759,-0.0328747449163915,0.1190915457637443,0.37048281553581214,2,left
1.03,-0.13298004360012905,1.0885011669593216,-0.12653783361482707,-0.48485851359417165,-0.19547336109215746,-0.6742956493486083,-0.03340007047025821,0.11885393785303765,0.37138246781770373,2,left
1.034,-0.1366615209965925,1.0820999359307226,-0.13417169595349554,-0.4799327889838355,-0.1981543626892795,-0.6740503287669912,-0.03383564724663027,0.11866482935661835,0.37201915837174,2,left
1.035,-0.1388842438448728,1.0775714559342462,-0.14353378055048496,-0.48692522991640164,-0.19411064713083598,-0.6738299148795125,-0.03190667959437213,0.11951290577635677,0.36905267749220083,2,left
1.04,-0.13961331269634408,1.0725870025645765,-0.15166742999392233,-0.47953730586665716,-0.1984296061812659,-0.6741738546358722,-0.035485411253083715,0.11793902255538471,0.3745632870711225,2,left
1.041,-0.14102417964445024,1.0697801169991008,-0.14994523437911797,-0.4837016473212202,-0.19592098843694344,-0.6738030760069125,-0.030891176316544672,0.11995878973720522,0.36749854030413365,2,left
1.044,-0.14832470949659812,1.0703035368929628,-0.15286300015918303,-0.4878089792806671,-0.193823285909279,-0.6743365364236886,-0.03472659981168587,0.11827299623565016,0.3733918382896421,2,left
1.045,-0.15749457313631748,1.0776764591748933,-0.17385783052540982,-0.4706801485354008,-0.20311007558360078,-0.6733975420363638,-0.034619661850278274,0.11832069668315877,0.3732164920039616,2,left
1.0490000000000002,-0.16013178086338192,1.089337675386745,-0.20622349556156522,-0.5022933258082897,-0.18586822856898666,-0.6748877444692828,-0.02731716266481587,0.12152711151775955,0.36204440939460814,2,left
1.0490000000000002,-0.15657945629873826,1.09787247876629,-0.23755414129637398,-0.4617340525681138,-0.20801227963622626,-0.6730296254230579,-0.04526976649992194,0.11364406101962754,0.38951749278459336,2,left
1.054,-0.13828985577891129,1.112173510902001,-0.23935304698669319,-0.49558220076737436,-0.18952297361637427,-0.6745597737156453,-0.015501911623985717,0.12671495505450814,0.3439653142426559,2,left
1.055,-0.12130251458333516,1.1242060134853347,-0.22278682582430898,-0.49471673722725595,-0.19003148217057647,-0.6746021583264437,-0.05476644149548163,0.1094744966950033,0.40404604216940965,2,left
1.055,-0.1168050553681889,1.1262436449002031,-0.21504467560179935,-0.4300063850221773,-0.2252617148840208,-0.6714057107945206,-0.21953385374316645,0.03712529314979409,0.6561556274532501,2,left
1.0590000000000002,-0.09595097299722587,1.1341951842791727,-0.1842972144081126,-0.5889992322193149,-0.13865930100037283,-0.6791672428887998,-0.25879619921718183,0.019885962953239744,0.7162291458826778,2,left
1.06,-0.07625474138578509,1.1404958601116455,-0.14077324832474625,-0.32539346199404023,-0.282254521405245,-0.6663179063511818,-0.2290362202089892,0.03295361574004717,0.6706930005582771,2,left
1.064,-0.0755937560201313,1.1394056300715807,-0.12600237894168076,-0.6730920850117257,-0.09285018815512394,-0.6832719955076998,-0.24697019751730973,0.0250772582023117,0.6981398890777404,2,left
1.065,-0.07502648314909924,1.139144878924768,-0.12300555884683102,-2.1326019382194366,0.70214832784522,-0.7545188969790282,-0.2397001122808209,0.028272966636477614,0.6870020517284912,2,left
1.065,-0.0860654005952757,1.1379910197954088,-0.12333746422855364,-2.480321257370846,0.8915594622919941,-0.7715044209060011,-0.23955032338022353,0.02833384584967879,0.6867931859120847,2,left
1.069,-0.11237899204183302,1.1406628492349817,-0.1368501678027931,-2.2166864225088894,0.7479532036070227,-0.7586113625680941,-0.24342565655943657,0.026637048654380435,0.6927023884523662,2,left
1.07,-0.14436829686533462,1.1499761354389033,-0.1520953820156674,-2.375694388478443,0.8345658528738908,-0.7663943575534132,-0.23881857276487264,0.02865791532978297,0.685661970150599,2,left
1.074,-0.17961324183681504,1.1661862736947157,-0.16032984178908988,-2.31100958627409,0.799333157992406,-0.7632398107803223,-0.24235290935143938,0.02710186355678095,0.6910874942412657,2,left
1.074,-0.2070399026727118,1.1871440978168675,-0.1635703992311974,-2.310056596407451,0.7988119955044036,-0.7631446646292945,-0.2405500469748922,0.027906814512454706,0.6882719937415239,2,left
1.078,-0.22433136864661052,1.204980778544221,-0.16441802414487916,-2.344056302181479,0.8173338174273823,-0.7649099351377077,-0.2407773702903483,0.027784057959099002,0.6887180117110814,2,left
1.08,-0.2293540300855677,1.2207393581423034,-0.16538100706718523,-2.3033135528494277,0.7951394334448965,-0.7627703014729939,-0.2415491364547539,0.027473319680747905,0.6897783488730256,2,left
1.084,-0.21862812434434395,1.2353285884216874,-0.16686395413827576,-2.3350663560468,0.812436339713179,-0.7644699637489764,-0.2404572321170915,0.027930345427651646,0.6882037242091268,2,left
1.085,-0.19756098260789826,1.243971393625623,-0.17251892789398393,-2.3179557589528126,0.8031159410366056,-0.7635699463050125,-0.2412844592750948,0.027566897029849918,0.6894703800767785,2,left
1.088,-0.17068492188572387,1.2450100034389882,-0.18206963973189033,-2.3217646917198764,0.8051897401165695,-0.7636290492372821,-0.2411147508452332,0.027683062457635868,0.6890322108965174,2,left
1.089,-0.14939526879799453,1.2414696445138738,-0.1849264408372795,-2.326579223674594,0.8078145644742827,-0.7642735929972142,-0.2404757495097022,0.027868500479274867,0.688462305656396,2,left
1.093,-0.14063507290418747,1.2335477774195471,-0.18328952050902425,-2.3182489245665145,0.803273342786414,-0.7631612793435756,-0.24179062777189952,0.02743305681033186,0.6898658654797902,2,left
1.094,-0.13582486595959642,1.2210985670714396,-0.17948273054277702,-2.3262083675045555,0.8076132064460593,-0.7644157796305704,-0.24025664427062668,0.027955370612162238,0.6881671074399781,2,left
1.0979999999999999,-0.13289043201757245,1.2069930746793527,-0.16601308211035481,-2.320794840234566,0.8046610826315224,-0.7634611222329024,-0.2412316683999548,0.027614581501627267,0.6892845541133916,2,left
1.099,-0.1322527765160229,1.1893182824361332,-0.1454918976101958,-2.322944590644941,0.8058319531838796,-0.7635601539515013,-0.24179640958678136,0.02744206262351271,0.6898252441294952,2,left
1.103,-0.13124506226438043,1.170197870335582,-0.11939000726155327,-2.3238449802756325,0.8063287304329534,-0.7648845313718252,-0.23881614786501587,0.02842080266764807,0.686679230588169,2,left
1.104,-0.13046468647740622,1.15032542093729,-0.08442430766430556,-2.3206026834264444,0.8045483222221148,-0.7617997607569299,-0.2444631996632314,0.026552823124665552,0.6926979208250776,2,left
1.107,-0.12652366316087238,1.1267823356166526,-0.038595313540628354,-2.32516417595506,0.8070542420858771,-0.7663884690801339,-0.2371688944861326,0.028970527611256874,0.6849029222037037,2,left
1.1079999999999999,-0.12244814006198995,1.104452012209546,0.012075505378135258,-2.320666961879721,0.8045820205449845,-0.7615144168369239,-0.24327667500220626,0.026943915610628123,0.6914392054343605,2,left
1.113,-0.11365071473036184,1.0810425953055813,0.06459833379242262,-2.323268946041373,0.80601225179156,-0.7643311885213382,-0.24308355784904712,0.02701152510886092,0.6912176365364747,2,left
1.114,-0.09763482512697468,1.0570600726098056,0.11956788876692515,-2.3247033055310062,0.8068050526797443,-0.7667186652755467,-0.2315112952041205,0.03084201012370205,0.6788727373213217,2,left
1.117,-0.07837313152398355,1.037565292709706,0.16345161772856084,-2.317380149114526,0.8027665421134955,-0.7562164303367898,-0.25999449634046534,0.021408522942249743,0.7092802793269273,2,left
1.1179999999999999,-0.03545431687873425,1.019438577863616,0.1969230746856146,-2.3310119939461806,0.8102834492598314,-0.7756964241032781,-0.21275320234016634,0.03705690774234694,0.6588377200703994,2,left
1.123,-0.00033342480956693836,1.0101914722193057,0.21804365623473507,-2.3135763866647787,0.800668913770049,-0.7506854965245475,-0.27506938770183276,0.016413962450739186,0.7253811749451866,2,left
1.123,0.009519945792774463,1.007511767206008,0.22149463406940684,-2.328100186636808,0.8086775552073795,-0.7715657684517023,-0.5366305174380961,-0.0702139620153184,1.0046188389934636,2,left
1.124,0.05692520488635075,1.0047338402393549,0.22596906102452982,-2.3276258429734153,0.8084175795304861,-0.7709931929886724,-0.5989480537478904,-0.09085691396714443,1.0711621000699645,2,left
1.127,0.11893303388486232,1.0098764737694377,0.23148682507066187,-2.3002857965830144,0.7933370037970826,-0.7312042816886614,-0.5517006318955926,-0.07520849849457453,1.0207204151381748,2,left
1.128,0.16020695453419878,1.020577471390852,0.22766550183014886,-2.367540819614728,0.8304319036086251,-0.829010301633871,-0.5801998049806254,-0.08464206605453908,1.0511256826909108,2,left
1.1340000000000001,0.20491258967892467,1.0367917763956924,0.21753716185734587,-2.2560411186776164,0.768935106846917,-0.6668387504789854,-0.5685983169447638,-0.08081143358420592,1.0387849413685328,2,left
1.1340000000000001,0.22748201796988854,1.0493597233366931,0.2096733329950493,-2.4030821196818963,0.8500330074184286,-0.8807462577321072,-0.5684453185835765,-0.08074402687753868,1.0385576686090063,2,left
1.135,0.2314345540731022,1.0532827436674832,0.2081786534333624,-3.020129228672533,1.1903740109357517,-1.77855143079246,-0.5745138014461909,-0.0827704397680985,1.045099534145229,2,left
1.138,0.24598615021781772,1.0666240250499535,0.20801858487734826,-3.1671302360332594,1.2714474373435922,-1.9924661920556122,-0.5672358644014006,-0.08035281907204367,1.0373022191969108,2,left
1.139,0.25217788885776365,1.0847261690850782,0.2151339314175243,-3.0556895840899667,1.2099857195435804,-1.8302875573105317,-0.5729181257148956,-0.08222097504846859,1.0433158877239896,2,left
1.1420000000000001,0.24830047597820146,1.0998807721644595,0.22580815558513095,-3.122905176530614,1.24706023065299,-1.9280878834326958,-0.5698264037078016,-0.08124167320086084,1.0401857374151395,2,left
1.143,0.24479982052660135,1.1144433456097498,0.22994156695144066,-3.0955368154202705,1.2319546154867007,-1.8883305904067436,-0.5705826159013475,-0.08141515907141658,1.040699196446996,2,left
1.146,0.2404325015629582,1.1279578188290302,0.23394869950842656,-3.095200367822062,1.2317904669667399,-1.8876937151255655,-0.5713228627186322,-0.08175476045203112,1.0418500123442658,2,left
1.147,0.2418294522415677,1.1434906327763132,0.23666676235715672,-3.109464825022609,1.239628123622277,-1.9086631928519562,-0.5699759696941726,-0.08123339615739122,1.0401246938789552,2,left
1.1520000000000001,0.24723657745884217,1.1578103781536369,0.23873246841933723,-3.0923644520938254,1.2302258102341983,-1.8835671662771505,-0.5712926585275233,-0.08166884205993653,1.0415279253389338,2,left
1.153,0.25323771046359556,1.1695820739973692,0.24411416410320008,-3.105708686737973,1.2375732305998566,-1.9030769492879482,-0.5703060833115744,-0.08148165600719781,1.0410075272127317,2,left
1.157,0.26455272638005933,1.1800222287237956,0.2439839119056783,-3.0984270965212124,1.2335320299529557,-1.8926637575967191,-0.5709305346144404,-0.08136949721405379,1.0404563703052216,2,left
1.158,0.27751885576144325,1.1898738742025337,0.23944521970883562,-3.100294270412668,1.2346423621480227,-1.894791870048141,-0.570573042718838,-0.08172695842234498,1.0418914761376163,2,left
1.161,0.2899148805536371,1.197325667048559,0.23771919036430159,-3.101828824758316,1.235350157323567,-1.8980399456567985,-0.5707440919255806,-0.08127632768538931,1.0401374053478118,2,left
1.162,0.30415097222909415,1.2011153988963517,0.23373711778902725,-3.098983131171625,1.2339506776179308,-1.8926531288352475,-0.5707860799283934,-0.08158334937318874,1.0413012139133528,2,left
1.166,0.31562265015374835,1.2057113087441373,0.2275510580880103,-3.1017179172639437,1.235323379279794,-1.8976259161997318,-0.570384443892916,-0.0817029699268966,1.0418370972592312,2,left
1.167,0.32319103484310124,1.2110460872917808,0.22353572049650483,-3.099633180892429,1.2341726327890652,-1.894601464857339,-0.5713344916315923,-0.08091188603808486,1.0386297085534166,2,left
1.172,0.32779155585886777,1.218214171084112,0.21962263553481842,-3.10123108273102,1.235304978951836,-1.895082592846245,-0.5697633922700878,-0.08244216230793391,1.0447814158535582,2,left
1.173,0.32905708022548474,1.2248264594529599,0.21861607187726956,-3.0996567468628475,1.2338624598451373,-1.8970054855006269,-0.5717120878653508,-0.08045445038214966,1.0368091058510802,2,left
1.177,0.3266085097578737,1.2295300238062672,0.21891762808435317,-3.1015075002667207,1.2357402724980941,-1.893412739437959,-0.570114102960801,-0.08212348520903148,1.0434954895031345,2,left
1.178,0.3230111852069347,1.235363613059233,0.21613397479617524,-3.09962788219543,1.2337894165080803,-1.8973779478135533,-0.5701129799072203,-0.08206354701632246,1.0432674310621977,2,left
1.181,0.32451883744890686,1.2388215601792072,0.21571836146901627,-3.100566340983189,1.234836151114266,-1.8948731256983504,-0.5732781779866254,-0.07892032746910607,1.0306433068404395,2,left
1.181,0.32703503447517845,1.238010427252905,0.21497899047490437,-3.102104086807776,1.2361374942493055,-1.8937710548826456,-0.565562413480573,-0.08666727904398752,1.0617394709121353,2,left
1.185,0.33255771235520915,1.229204837336315,0.21131851661661438,-3.0965689931895994,1.2310950396424938,-1.9003258970878845,-0.5783317701422452,-0.07381450718565649,1.0101557676661397,2,left
1.186,0.3412468592793291,1.2203424973343977,0.21090586016257185,-3.106616140347213,1.240328824182087,-1.8878559654151008,-0.5614971174235236,-0.0907700490219441,1.0782024754839243,2,left
1.1909999999999998,0.3449960563086243,1.2166960672539764,0.20997817599144591,-3.093766893981515,1.2284980983519391,-1.9039403273957212,-0.4908033489761342,-0.16193000036588084,1.3637983679461128,2,left
1.192,0.3548566323238249,1.204037055737862,0.20677975823820333,-3.104468921658848,1.2383651416601686,-1.8904802228336985,-0.47396813816621913,-0.17888573572617494,1.4318432359374955,2,left
1.192,0.37302221185762086,1.1815886116433112,0.20595267202199663,-3.104267502311347,1.2381371015181828,-1.8909621426523078,-0.4867339053108111,-0.16603118373538545,1.3802576445727772,2,left
1.195,0.38884019189547825,1.1571697493414288,0.20672701930032394,-3.0835827221044845,1.2191928256760802,-1.916249534474712,-0.4790332233664814,-0.1737836193229651,1.411368304156452,2,left
1.195,0.40524911299063626,1.1318980981769462,0.20714518841524465,-3.134309122062091,1.2657111671409025,-1.853950871361104,-0.48216579778238294,-0.17062962430838613,1.3987092538634482,2,left
1.2,0.4236365990390242,1.101938258149562,0.20379356362351214,-3.0502427607186045,1.1885913561699246,-1.9572895141812494,-0.4822144122407612,-0.17058520825641565,1.3985374218273516,2,left
1.2009999999999998,0.4332762327964135,1.0823824577980519,0.19898236429518495,-3.1611107522688933,1.2903131188815773,-1.8209750444843915,-0.4805614913232428,-0.17223812225022614,1.4051583367070937,2,left
1.202,0.4359599896270449,1.076790510408496,0.19628381324251248,-3.626985241359744,1.717285399715641,-1.2492199358876972,-0.4825444350199824,-0.170258800466389,1.3972322985565295,2,left
1.205,0.4456351198004954,1.0568882804978892,0.19059132261702683,-3.737877482862313,1.819010151510041,-1.112929274071448,-0.48099654497854544,-0.17179968605668797,1.4033991757730724,2,left
1.205,0.45494197863770636,1.032637632068695,0.18057232563727882,-3.653734130113113,1.741895000180751,-1.2162078931704818,-0.48182965407957906,-0.17096860945916734,1.4000710944132992,2,left
1.21,0.4572746717184626,1.0159501312542214,0.16916383767471288,-3.704630325307871,1.7883841521983288,-1.1540208013415554,-0.4816541229762288,-0.17116064930836555,1.4008564780256958,2,left
1.2109999999999999,0.4591146082725588,0.9972936311429745,0.15775325860601205,-3.6836619537761948,1.7695082449438222,-1.179143424650975,-0.4813920181461497,-0.17137491436066635,1.4016694684781301,2,left
1.215,0.46045218439314506,0.982354541212229,0.1460279578022718,-3.6838231196761897,1.7691716089112315,-1.1798127081208278,-0.4818454558760719,-0.1710041055721062,1.4002619369792562,2,left
1.215,0.4610043004804975,0.970011929218717,0.1339424788465754,-3.694203502625278,1.7791635269838775,-1.1662177894032297,-0.4813985274717865,-0.17134875230457886,1.4015463014525837,2,left
1.22,0.4583827271360273,0.9590054051544643,0.12307702994641843,-3.681426941255218,1.7672469610649277,-1.1822692356439792,-0.4817097222183043,-0.1711194587872059,1.400704716192127,2,left
1.2209999999999999,0.45589764653901443,0.9474464989329505,0.1140826460892887,-3.691902520498683,1.7764462741526148,-1.1701239204673115,-0.4816060902544873,-0.17122455644412377,1.4011274343229991,2,left
1.225,0.4573267796056375,0.93477418437939,0.1047971302800616,-3.6852455370976562,1.7716423069866392,-1.1759917609717434,-0.4814713537267736,-0.17120418494983775,1.400899269905414,2,left
1.226,0.4581236697689882,0.9240498894076543,0.09718912776998641,-3.6885745001689476,1.772458893072339,-1.1758721809704618,-0.4818365922953953,-0.17119304097364435,1.4011887020113019,2,left
1.23,0.4599118621169817,0.9101341126132432,0.09720873061262819,-3.6874614049925865,1.7741799479711622,-1.172373086853717,-0.48130509778893726,-0.17119618816891363,1.4007031687595535,2,left
1.2309999999999999,0.46184560670449293,0.8952536813393208,0.09780393600324898,-3.6870005420117264,1.7715724574086997,-1.1768165544415192,-0.48185391966280544,-0.1712107009662424,1.4012920629273866,2,left
1.234,0.46421914477537857,0.8813439418311128,0.09597305793643382,-3.68936227897233,1.7737183841801083,-1.1739511117420487,-0.48153677514523835,-0.17120240999826844,1.400952857693242,2,left
1.235,0.4691469712263509,0.8654124856983605,0.0984122359055769,-3.684011752992375,1.772866258355697,-1.173328050322454,-0.4813021102955954,-0.17115606778238915,1.4005010286502315,2,left
1.24,0.47025921131540427,0.8497245618276381,0.0997568913710564,-3.6933360419542804,1.772151923819544,-1.178315870420787,-0.4823788446952187,-0.17130838586150893,1.402271314267274,2,left
1.2409999999999999,0.47041128886050604,0.8349066219681827,0.09945886457511804,-3.6804486412327417,1.7741553729506423,-1.1696198368716255,-0.48037993846509897,-0.1710281917497566,1.3989993177597098,2,left
1.244,0.4743024745308152,0.8195344289107673,0.10230125510141774,-3.6938122798241246,1.771675892994204,-1.179349371679093,-0.4829429452890584,-0.17139150971219674,1.4032130617217735,2,left
1.245,0.4773621581745739,0.8055050484052645,0.104829278878002,-3.6863423224510408,1.7733399203081524,-1.1734193000950521,-0.480805340317596,-0.17108632176541033,1.3996904126819416,2,left
1.249,0.4792039222133358,0.7910189742707887,0.10715822535167141,-3.67912111183875,1.7740549343756835,-1.1692663061581237,-0.480865839426287,-0.17109130822959046,1.3997663433601493,2,left
1.25,0.48050352680334185,0.7762776257444899,0.11133398669134714,-3.7092813097394384,1.7695972649438758,-1.1892110105661513,-0.4849277829404214,-0.17168885062384825,1.4065610173549625,2,left
1.254,0.4816148250251939,0.7668652113214911,0.1164043463091259,-3.65369078713593,1.778179644988831,-1.1518049038724947,-0.4749438997961847,-0.17022153031411702,1.3898787246176418,2,left
1.255,0.4848254777263355,0.7577531380253177,0.12260476117765422,-3.7249473269858053,1.7670431775351818,-1.199987710302469,-0.4914950596556593,-0.17265606451698237,1.4175357122926195,2,left
1.2590000000000001,0.4868084290234634,0.7496392012337991,0.12676586665309214,-3.6655132790150087,1.7763937407096084,-1.15969702978331,-0.4696674447053898,-0.1694425691931908,1.3810565255556257,2,left
1.2590000000000001,0.48785190881544727,0.7475593561945105,0.12797008473146554,-3.6670360204578003,1.7760539855514683,-1.1608895735094205,-0.3780309714483899,-0.15595854199291612,1.2278428899295764,2,left
1.26,0.4932959283988655,0.7452133751572854,0.1313667613136923,-3.7805916833391064,1.7584513169259548,-1.2374454565397088,-0.35620861555602706,-0.15274130420572674,1.191364887365322,2,left
1.266,0.5011863566389161,0.7415173378928506,0.13377791936061956,-3.50161362248373,1.8018496897406608,-1.0491305967407762,-0.37275332258997895,-0.15518065840050152,1.2190236871201607,2,left
1.2670000000000001,0.509533699488054,0.7385142279770326,0.1335369706273128,-3.9641189653129505,1.7298324948671513,-1.3614249241811316,-0.36276997747429673,-0.15371214757780066,1.2023299506540672,2,left
1.2690000000000001,0.5145185485908881,0.7372059264154469,0.13501667846354037,-3.354102064779643,1.8248582413679042,-0.9494845778825605,-0.3668452244841071,-0.15430188792840954,1.2091514622011919,2,left
1.2690000000000001,0.5160058755865773,0.7370125664570013,0.13477756109590774,-0.793393007800417,2.22343061571569,0.7794808723365789,-0.36687337789505514,-0.15432742216409007,1.2091847386968788,2,left
1.27,0.5229896170385329,0.7373539669497269,0.1336361000682873,-0.18339400683570722,2.318494056705064,1.1914356631557603,-0.36478512970238763,-0.1539897619320063,1.2057111653148649,2,left
1.274,0.5311508183435221,0.7380369458778221,0.13478116028429524,-0.6458707488109108,2.2464276113142176,0.8791143760807907,-0.3672952654588857,-0.15438917667719249,1.2098911322650558,2,left
1.275,0.5350072430837072,0.7352206861685832,0.13456177185467472,-0.3669180319214635,2.289840465365186,1.067463428909107,-0.36532608415070833,-0.1540864227380995,1.2066056828612606,2,left
1.278,0.5400688075966136,0.7333228295453296,0.13351331940652195,-0.48047050029275146,2.2723112456281163,0.9908766394586396,-0.36643229182668846,-0.15422383933831657,1.2084695572513855,2,left
1.2790000000000001,0.544828589904508,0.7343964738328178,0.1312277436575987,-0.4819550653279326,2.2717721485780604,0.9896953155352574,-0.3660752858669071,-0.15425318665746207,1.2078273535324535,2,left
1.284,0.5481755450450508,0.7322800502535463,0.1254917661657815,-0.42261182191235813,2.281441598654413,1.0300141662809899,-0.3659844925121364,-0.15409876353198718,1.2077531095342136,2,left
1.285,0.5538350586084294,0.7294567871188733,0.12072816707916276,-0.4937328879884231,2.269946277606128,0.981748026971922,-0.36623901303866824,-0.15430930255942168,1.2080837825038655,2,left
1.2890000000000001,0.5598406703525551,0.7283955136092035,0.11742567917142518,-0.43828447839969775,2.2787602050701645,1.0192927452202811,-0.365966809020253,-0.15413124948039125,1.2077041257106063,2,left
1.2890000000000001,0.565390717012096,0.724270958774362,0.1100402203159744,-0.46836824014006784,2.2744339324466916,0.9991830585427693,-0.3662776052992827,-0.15417584086059558,1.2082246273181614,2,left
1.294,0.5729653708009821,0.7169260160172278,0.0998714962425368,-0.4610616154693062,2.2744215957740903,1.003460565107388,-0.3657918654064337,-0.15436018822454925,1.2072721564358375,2,left
1.295,0.5795130118275365,0.7099254788271967,0.09073304101902707,-0.4539271073270533,2.2775115146891673,1.0094071257509494,-0.3665933763395526,-0.15389336820105032,1.208932571376118,2,left
1.3,0.5832494460266906,0.702075368642973,0.0808745378711265,-0.46667910234130716,2.2730987572833223,0.9994119856039079,-0.36547163972727315,-0.1546007571453135,1.2065794961425833,2,left
1.301,0.5876576003758145,0.6911654176712201,0.07276269949598167,-0.45457810642046736,2.276917460264675,1.0086863882774137,-0.3666535476518127,-0.15384451532828997,1.2090643993719472,2,left
1.304,0.59397338832771,0.67895734716574,0.06888902806117593,-0.4632215066333415,2.2755885544570935,1.0028596240425762,-0.36599258428353,-0.1542848849685109,1.2076657907319768,2,left
1.304,0.5982339931110698,0.6671474214552564,0.06496669656054918,-0.4579899498631326,2.272815002196899,1.0043461065048551,-0.36531452651934304,-0.15464797495759036,1.2062776175376533,2,left
1.308,0.5987703661735813,0.6543386797948041,0.0575395577545365,-0.461326997834811,2.280495608616747,1.0067687424204639,-0.3681044490361849,-0.15303156771760845,1.2120528882098562,2,left
1.308,0.599721765350143,0.6402592265841287,0.0452534257151987,-0.4584127898996986,2.268715875521905,1.0017608364399762,-0.362962901141768,-0.1560344813903088,1.2013980500943005,2,left
1.3130000000000002,0.5971176673559258,0.6272847602788645,0.032468747468441306,-0.4611352200537331,2.281333589002492,1.0073589110379009,-0.3695571736887825,-0.15217695526782507,1.215065178242849,2,left
1.314,0.5913834573092618,0.6154009019557982,0.01928166520320604,-0.46016881954234795,2.273947676416292,1.0037143531124666,-0.3640556997867856,-0.1553987022658656,1.2036633327774464,2,left
1.317,0.5803431505659289,0.5993191136538556,0.006945830375071356,-0.4563300931694099,2.268051945730671,1.0026035247793637,-0.3641915255781933,-0.15530785528571134,1.2039457240599751,2,left
1.318,0.5603627983749113,0.5822282589075638,0.002018160012618296,-0.46821104856785634,2.294626849752101,1.0107893239911327,-0.37472287094786905,-0.1491748139386384,1.2257659526751543,2,left
1.3230000000000002,0.5402558531316435,0.5692363611280669,-0.0011465201445226296,-0.4470647480135513,2.245202614357141,0.9950086085961461,-0.3488552152002701,-0.16425507705543313,1.1721718972974493,2,left
1.324,0.5057220592190452,0.5521842064186894,0.00024410877077206167,-0.4740197257473838,2.30869936586299,1.0154066008304765,-0.391738536528235,-0.1392477244410777,1.2610158549105825,2,left
1.327,0.47781885614362785,0.539260005844904,0.004984836941258708,-0.45159487551652777,2.2556725324851925,0.9983225187424943,-0.3351790020532157,-0.17223544998695645,1.143843443293879,2,left
1.328,0.47043573527237426,0.5365536271277941,0.007444830278725221,-0.4518974954714448,2.2571656658781563,0.9989948172742376,-0.09771984193441806,-0.31066297767413614,0.6518511330429155,2,left
1.329,0.43699114248822224,0.5274574032883032,0.017443191299115802,-0.4956600573069182,2.358095263110526,1.0308827495444195,-0.0411640209159426,-0.34365575432351503,0.5346961441117696,2,left
1.3330000000000002,0.39061532409558636,0.5144148977306718,0.034717559293013206,-0.38845156676290915,2.10994721750434,0.9522582692777474,-0.08404332526812398,-0.3186429364964462,0.623521253830243,2,left
1.334,0.3431419590288487,0.5057707362636217,0.06000256044760452,-0.5661211326460045,2.5214150962854225,1.082685641000912,-0.05817413883166886,-0.3337211219994646,0.5699200209436501,2,left
1.338,0.3043952575820936,0.5013539119973172,0.07819899723059584,-0.33177783368294034,1.9786805820808593,0.910647052289357,-0.06871881675183468,-0.32760620662054873,0.5918027943067372,2,left
1.339,0.2947077502735077,0.5004009983055808,0.08336394552493057,0.652165885719995,-0.2990832589715719,0.1888445372551686,-0.06882595950820841,-0.3274763581355655,0.5919506240109761,2,left
1.339,0.2656650154215703,0.49853621559884664,0.10651610460615793,0.8865433552609078,-0.841800843893442,0.016833912309097795,-0.06336560835149119,-0.3307540263351081,0.5807417034628426,2,left
1.3419999999999999,0.2261175617971712,0.4985979510141229,0.14015575785309395,0.7088556029824756,-0.43038843369866586,0.14722681131945348,-0.06991893485749842,-0.32684081317049907,0.59421673000112,2,left
1.3430000000000002,0.20637804728282927,0.501777932957683,0.1674502500659329,0.8159834993630353,-0.6784118514854808,0.06860576351927819,-0.06479504767791747,-0.32986775699117943,0.5836447591040033,2,left
1.3459999999999999,0.185895246322616,0.5075399729241944,0.19288603865933812,0.7724807361504719,-0.57769279117201,0.10056325532506444,-0.06762014658032517,-0.32829916375090934,0.5895850382329464,2,left
1.347,0.17286837062540794,0.5153311210806619,0.21241943018449197,0.7717107610119569,-0.5759279016715474,0.10106531227862856,-0.06682880276252687,-0.3285082229309464,0.5876654110626178,2,left
1.351,0.1693040693477161,0.5235642527520853,0.22754257067220343,0.7947323403359013,-0.6291992750296581,0.08424179499110843,-0.06636302075144869,-0.3292139989877306,0.5871824720761305,2,left
1.3519999999999999,0.16734079413476943,0.5362643103705059,0.23499929511639972,0.7672747825476449,-0.5656402597851156,0.10435974288222438,-0.067305408425366,-0.32813203178803707,0.5885436698782972,2,left
1.357,0.16934020820163687,0.5496391600713038,0.23384964111547352,0.7884677698151566,-0.6147547924427426,0.08873807056331967,-0.0663746046791836,-0.3290991124055911,0.5870863908127796,2,left
1.358,0.17344973799898472,0.5593551048953582,0.2292995720332528,0.7774104912567803,-0.5890088878031741,0.09707630431508778,-0.06717787294559509,-0.32863458902596476,0.5887549638953871,2,left
1.3619999999999999,0.17954003062126744,0.5698076191840311,0.21850966400273641,0.7792704986271245,-0.5935683944758989,0.09532297549075405,-0.06633768407566107,-0.3283370576778389,0.5861397301832961,2,left
1.3619999999999999,0.18459246967762094,0.5823384436143455,0.20372347858087858,0.7832633445505248,-0.6024992142420358,0.09287146364047558,-0.06745841287019333,-0.32948293416658575,0.5904598801083996,2,left
1.3659999999999999,0.19001203770228675,0.5928264664940708,0.18811944090056976,0.7772334478649667,-0.58878998957417,0.09691404353561933,-0.06597800233330123,-0.32766191692237656,0.584412019899871,2,left
1.367,0.1973984219800562,0.6011002291110987,0.17114656617831925,0.7821767998011563,-0.6002379264653153,0.09328270968333269,-0.06752040024415563,-0.32962392647061545,0.5907848210863086,2,left
1.371,0.20404008754100247,0.6120388984655194,0.15638211868279533,0.7802570718789975,-0.5953218595348121,0.0954034345611988,-0.06668565065325698,-0.32845746193343905,0.5872200102494973,2,left
1.3719999999999999,0.21198139516839126,0.6204372639901703,0.14699565921130328,0.7785126271170834,-0.5923613215976704,0.09505622221646884,-0.06568676197362294,-0.32761452179276074,0.5835669973294313,2,left
1.3780000000000001,0.2217484103296072,0.6245868681068651,0.14102056538554586,0.7832748154563929,-0.6017769054312772,0.09398968367845016,-0.06960094991817886,-0.3315697336510943,0.5986037180434933,2,left
1.3780000000000001,0.23145216159032422,0.631531386254772,0.13597172660477522,0.7774075539007126,-0.5899106399389593,0.09570663762710224,-0.06242483980334614,-0.32418673521282615,0.5708907072775997,2,left
1.381,0.24163584820526396,0.6376230002375964,0.13391789212828775,0.7813281607915111,-0.5979932629059174,0.0943252134968264,-0.07162043413816999,-0.3336776351968421,0.6064352546673164,2,left
1.382,0.2517645715428839,0.6409988223590055,0.13501769951339526,0.7830586713272506,-0.6011479147789167,0.09434519614635192,-0.06395154983742768,-0.325749795095163,0.5767793198343234,2,left
1.386,0.2592800204769519,0.6447578907791416,0.13503101180925642,0.7724419837910649,-0.5803079288927364,0.09649192942942988,-0.06412909498138142,-0.32598112704434035,0.5775157943906994,2,left
1.386,0.2661889236779954,0.6482670803362971,0.1353103282620901,0.7928505661930405,-0.620617255003131,0.09198223256308408,-0.07884945234353787,-0.3410429646066664,0.6342749456180427,2,left
1.391,0.2718593881451309,0.6523488543196404,0.13648036236955424,0.7663843392551497,-0.5682599672540837,0.09796447693185423,-0.04270510015595321,-0.3040030663819982,0.49485159160224684,2,left
1.392,0.2718807171949205,0.6573827922124446,0.13390019109625895,0.78859168293959,-0.6122221986388857,0.09288744935551338,-0.10262335940237119,-0.3654220050551697,0.7259935067154477,2,left
1.396,0.2707390732248607,0.6612443375871858,0.13091852299378248,0.7878159152390918,-0.6106453072138982,0.09315441345853197,-0.023594179974752785,-0.2844103174209249,0.4211302648287422,2,left
1.3969999999999998,0.2697593866799123,0.6633698414729239,0.13069483291026018,0.7459339881375668,-0.5278484148651256,0.10249220617558635,0.30819408721763775,0.05561092495618516,-0.858733236532494,2,left
1.3969999999999998,0.2663521550998115,0.6680659663729218,0.12915225048689444,0.8491308888393186,-0.7319108865797885,0.07935031058045892,0.38722356458314844,0.13662066081519658,-1.1635869320879448,2,left
1.401,0.2614684526221174,0.6776557795785958,0.12762134439478043,0.6779242047556973,-0.3933578921435287,0.11779715690615397,0.3273049831612097,0.07520383429636976,-0.9324553450575707,2,left
1.402,0.256176634263215,0.6848674348472994,0.12801160506244597,0.9037879613405393,-0.8399800389384091,0.0670523587895434,0.36344921213372455,0.11224453403021467,-1.0718826288253005,2,left
1.406,0.2545717979426041,0.6863678106743083,0.12823166393473107,1.8516064904548015,-2.7144212650201602,-0.1457472636254594,0.34872992530295654,0.09717569515521171,-1.0150892139028564,2,left
1.406,0.2514550051201929,0.6918078583989486,0.12794994211703284,2.0774924439882225,-3.161049343924598,-0.19651163639871616,0.3485500776245236,0.09695942965663477,-1.0144264599113222,2,left
1.4069999999999998,0.24268788980942618,0.7026491014164504,0.12655560757889547,1.9062422373355719,-2.8224447907728423,-0.15802930924273173,0.3562222626127897,0.10486566572995709,-1.0439766960953487,2,left
1.41,0.23780189366806603,0.7118436732981366,0.1245335684924854,2.0094990981729293,-3.026664710522989,-0.1812138092327798,0.34702338233109165,0.09539628109215265,-1.0085374003996335,2,left
1.411,0.23411967347210308,0.7225891670465758,0.12289741406749959,1.9675543891224603,-2.943559480970184,-0.17184182860702768,0.3542009086943794,0.10276999189245364,-1.0362050009121127,2,left
1.415,0.22650518257760974,0.7344973517806278,0.12144773405687383,1.966818543601745,-2.9424258054626486,-0.17157865269261668,0.35028954606436463,0.09879631415018128,-1.021077890338248,2,left
1.415,0.22202152813943696,0.7433694458239857,0.12162098605534875,1.989044833946043,-2.9859288579548355,-0.1767061084877067,0.3512793398813979,0.09969875447595934,-1.0250220583140142,2,left
1.42,0.21894693516329317,0.7535969972720399,0.12261476500306386,1.9624645756226156,-2.933808598282395,-0.17060387426229429,0.3521297567467436,0.10076268837573193,-1.0280852057955538,2,left
1.421,0.2134299838969798,0.7650506270174768,0.1221291400750082,1.9830990769946668,-2.9744245875314776,-0.17529491177470752,0.35056813493722516,0.09892651952272191,-1.0223280617385502,2,left
1.425,0.208190239976039,0.7748308979282266,0.12125477906428694,1.9721731130496956,-2.9524387772277754,-0.17295266176079804,0.35206386605318296,0.1006471957243493,-1.02788510475638,2,left
1.426,0.20367576485753167,0.7821039263742998,0.12123074844603876,1.9741993553910733,-2.957663355329383,-0.17304886705944306,0.3509432867752631,0.09950045900797773,-1.023560547669394,2,left
1.429,0.1992655740419052,0.7890268457057974,0.12111697268030443,1.9780081124519595,-2.9630997393033014,-0.17452169127414974,0.35175501491161487,0.09998411889590364,-1.0270866845520135,2,left
1.43,0.19501302228575512,0.7993485013728605,0.12160189787968825,1.9718557251411948,-2.9535036184092904,-0.17238287082949239,0.35101676532699,0.10002321502541744,-1.02333645500397,2,left
1.435,0.19244140508784333,0.807051832699186,0.12400210466977281,1.9774763444367216,-2.96256978678463,-0.1742484702473111,0.35185059065166313,0.09969085217745093,-1.0278991790861451,2,left
1.436,0.18892931496216253,0.8130626839379267,0.12579633115842567,1.9742864666475977,-2.956243577389104,-0.17353741445079668,0.351011561139691,0.10009613452681652,-1.0232275619662614,2,left
1.439,0.18282677507333867,0.8204939797835913,0.12757205432705804,1.9741077094948234,-2.9596910739543096,-0.1723783002156163,0.351417663094086,0.09978144576977012,-1.0256231369928202,2,left
1.44,0.17870713972873192,0.8239597091402138,0.13130936736225024,1.9777068848239436,-2.9581219907251857,-0.17574364391801478,0.35215743379065856,0.09990920851894028,-1.0291919208078713,2,left
1.444,0.17528405463325095,0.8282175354537736,0.1319685483735059,1.9715734320964053,-2.9589519909788047,-0.1705516859927748,0.34955777562998436,0.10000306572539663,-1.016035017022372,2,left
1.445,0.16877006734889602,0.8333804605332006,0.12967185220032543,1.9782541732087013,-2.9583482043865557,-0.1761182676747412,0.35426369196128976,0.09971130269087394,-1.0399899321020163,2,left
1.449,0.1602617988228489,0.8358408774721882,0.1306792215182096,1.9741690643863892,-2.958253130675839,-0.17285149694465293,0.34824694998653527,0.10011214264454289,-1.0093309029547224,2,left
1.449,0.1521871724365546,0.8391866757407114,0.13368948574130407,1.9717617461644763,-2.9603713412965815,-0.17028536538939237,0.3532594956621058,0.0997671725925485,-1.0348853748492788,2,left
1.456,0.14361686667676266,0.8436170074834682,0.1363049604225316,1.9841213000598399,-2.9547016031031643,-0.18192489391393274,0.35316409782128266,0.09981672763397403,-1.0343504370475929,2,left
1.456,0.13430302831472868,0.8488242850507632,0.1397430176288647,1.9608708343322367,-2.9645671259039164,-0.16026557991469692,0.3434741952072084,0.10034177269547623,-0.9851107664017654,2,left
1.459,0.12695186200768727,0.852847461405873,0.14457923580512064,1.9908000033798097,-2.952043928729691,-0.1880936167767951,0.367243208767595,0.09900465741902421,-1.1059495251083362,2,left
1.46,0.12054709265624158,0.8563913764356748,0.15209724210690714,1.965782819849223,-2.962441655959803,-0.16485485256905566,0.327845510216617,0.10123274713235633,-0.9056433315249225,2,left
1.464,0.11615580174647853,0.860229937039754,0.15846867879240606,1.9665767203387376,-2.962382855429995,-0.16550923296918596,0.3798096909921073,0.09829432897006907,-1.169839499364293,2,left
1.466,0.11427781181695153,0.8621469626888134,0.16039355196631905,2.0138983886622523,-2.9418221762488317,-0.2097372269105035,0.597988852539945,0.08600334888231544,-2.2790559623321953,2,left
1.4669999999999999,0.10963827457954181,0.8668823036499922,0.16331509026474805,1.897447828905053,-2.992099502139274,-0.10100066344749532,0.6499577118782127,0.08307239051103171,-2.5432667087024052,2,left
1.469,0.10358726784743813,0.8751987289000188,0.1674294107279132,2.090567075780399,-2.908798548001344,-0.2812980286289519,0.6105549525706608,0.08529240910102995,-2.3429447443601665,2,left
1.47,0.1001553621420913,0.8798972184657332,0.1690513411954604,1.8358357252859394,-3.0186762915587995,-0.0434868289159976,0.6343220368868221,0.08395222458509335,-2.4637774960985945,2,left
1.474,0.0976389774750879,0.8817376658816107,0.17064658972440172,0.7667647973389371,-3.480206496651258,0.9546882939471144,0.624648933398819,0.08450404105876039,-2.4145901624893686,2,left
1.475,0.0957118238701956,0.8875739539133356,0.1728846288408834,0.5120287883198528,-3.590144326532789,1.192494529767083,0.6245173957079966,0.0844959934828386,-2.4139426260169516,2,left
1.475,0.09300946477440233,0.8967113423906393,0.1734492542871936,0.7051663647666602,-3.506756979312846,1.0122036839552648,0.6295817541191503,0.08423361433144586,-2.4396585326936586,2,left
1.479,0.0880979719765232,0.9065590694676471,0.17134804502666062,0.5886706508485126,-3.5570853211829405,1.120938221092831,0.6235134230642477,0.0845522104404946,-2.4088387592668474,2,left
1.479,0.08483478448769449,0.9174483591042715,0.16603793520044013,0.6360726414786002,-3.5365841375472034,1.0767008008140753,0.6282415887443936,0.08429593511145164,-2.4328630119624712,2,left
1.483,0.08224761567919991,0.9286540826581828,0.15876892552591082,0.6367585492303929,-3.536293007131839,1.0760723064783304,0.6256862546602144,0.08446041374624286,-2.41984418856236,2,left
1.484,0.07809730831506921,0.9407246256149114,0.15095984892189618,0.6118442986153612,-3.547107370150208,1.099269468397881,0.626283286512274,0.08436068150379764,-2.4229682591020483,2,left
1.4880000000000002,0.07356936108186996,0.9528399238558487,0.14324828285826208,0.6417358093785274,-3.5340649559704236,1.0714884637540336,0.6269353100025405,0.0844379782477009,-2.4261300471250706,2,left
1.489,0.0697431562828773,0.9623208051022849,0.1340269017572684,0.6183811747495407,-3.544348272488983,1.0931170750736672,0.6257944980438402,0.08436219389898861,-2.420518144078442,2,left
1.494,0.06843871660813812,0.9694295613392964,0.1221126920594429,0.6310505560606527,-3.5386778901463445,1.081461146194233,0.6268688816223763,0.08441336388540613,-2.4258304354045714,2,left
1.495,0.0669458327252582,0.9781651259906834,0.1117081388385181,0.6281225342076213,-3.5400301071999283,1.0841213696132286,0.6261328616380115,0.08445587050199696,-2.4220870563292793,2,left
1.4980000000000002,0.066124981311994,0.9876379431020006,0.10235282760946224,0.6246636980738407,-3.5416908043392157,1.0872025972210995,0.6264979803103579,0.0842278117662727,-2.424221803061074,2,left
1.499,0.06671359157481449,0.9941405648451106,0.09046767889798771,0.6308634386223,-3.5384694891493034,1.08188858350187,0.6263978964494632,0.08470760224051901,-2.423076725644469,2,left
1.5030000000000001,0.06421636235368977,0.9987833183000988,0.07874789678550351,0.624684041221288,-3.5420772790328536,1.0868420621076644,0.6263713390431372,0.08400175331335427,-2.4238907496756616,2,left
1.5030000000000001,0.06375886949379578,1.0007407610708805,0.06879602600435256,0.629270956232159,-3.5389429487687982,1.0835600105821084,0.6264323600965137,0.08475233135300403,-2.423189472864144,2,left
1.508,0.0677090402477068,1.0019183362115063,0.057902755545403445,0.6269113099591718,-3.540881998227446,1.0849657890570275,0.6263454867988736,0.08432163838188692,-2.4233318954370136,2,left
1.508,0.07014392950363973,1.0047028052465488,0.04585665377207407,0.6269117833005645,-3.540889289323216,1.084958084249124,0.6265264427451689,0.08393566673933651,-2.4247565409878753,2,left
1.5130000000000001,0.07159532489517431,1.006858438742904,0.0362143530734029,0.6292128937546915,-3.5381898848845665,1.0842892319708204,0.6261531123265257,0.08560068482468808,-2.4206523162996643,2,left
1.5130000000000001,0.07326934259072997,1.0079021809179012,0.02880319785992075,0.6248309935709788,-3.5439812714666803,1.084999448967944,0.6267700808787112,0.0825173786500635,-2.4278794164761104,2,left
1.518,0.07377324811014835,1.0076420792361789,0.020777119666947043,0.6306459519209255,-3.5356527408116163,1.0846139011275022,0.625994525836258,0.08647531757627196,-2.4186851864598,2,left
1.5190000000000001,0.07475230524022974,1.007256168205092,0.013747034507174434,0.624869077321401,-3.544349410653925,1.0846310267894563,0.6266355998623271,0.08317174597713124,-2.4263269796787013,2,left
1.5230000000000001,0.07698687922196094,1.0050701973010394,0.008924962531724031,0.6280722478730055,-3.539381940704204,1.0847467847083134,0.6266435103384642,0.08325891761007356,-2.4262520133579075,2,left
1.524,0.08037774127238254,1.0021200703388309,0.004313981031104961,0.6307767158565716,-3.535126507650374,1.0848998594838992,0.6253372480907257,0.0895648611578918,-2.4112460476592026,2,left
1.528,0.08357373631793491,1.0024943994521296,0.00022044305212652452,0.6191016907543796,-3.553685281700804,1.084080285589925,0.6285190640544933,0.07406890716583732,-2.447975414082965,2,left
1.528,0.08336018717712065,1.0016172322855825,-0.003212446145417218,0.6405985806749557,-3.5193327389631683,1.0857442157404948,0.6232497543677197,0.09976029385143703,-2.3871136850252705,2,left
1.5319999999999998,0.08209721096368566,1.0004776908071105,-0.0059423787920793465,0.6131023183922666,-3.5633988228543414,1.0835081949443541,0.6302010540567993,0.06587468716424728,-2.4673903154409302,2,left
1.5330000000000001,0.0827849414441034,1.0006864141321625,-0.006572782269225003,0.636011456997164,-3.5266273646178616,1.0854176444076562,0.659397016111186,-0.0763752248410864,-2.8045026230625454,2,left
1.534,0.08176629186722695,0.99906434599476,-0.009704558949947545,0.6353830813869339,-3.527632928607259,1.0853744926500766,0.6663545150657966,-0.1102591043682731,-2.884801936588062,2,left
1.538,0.07818065141599755,1.0008408416775394,-0.016964075847254345,0.5918034555412928,-3.597687594223823,1.0816350563151649,0.6610784991069512,-0.08456958593003036,-2.823915672751542,2,left
1.5390000000000001,0.07682210004454508,1.0056663336904887,-0.02290733725992313,0.6988943360949533,-3.4254985782802114,1.090845629343093,0.6642577608272979,-0.10006625214887482,-2.8606356809169347,2,left
1.5419999999999998,0.07449479807875453,1.0104426525890093,-0.027264433978280975,0.5213589607331175,-3.710993176860045,1.0755506601176283,0.6629737537532325,-0.09375410692037371,-2.8457111722110744,2,left
1.5430000000000001,0.0694125604001028,1.0142733746172112,-0.030054207453628454,0.7555070721098534,-3.334429442245424,1.095742645811522,0.6629337839631209,-0.09368027689770636,-2.8454609744502406,2,left
1.5430000000000001,0.0675646318469794,1.0144976825880727,-0.030805058321951045,1.7381986041366635,-1.7540675909208665,1.180652005069223,0.6636435049328467,-0.09696472100717154,-2.853353987124848,2,left
1.547,0.0652180608609256,1.0182741291848771,-0.03127290076721102,1.9723236806630413,-1.3775211450606233,1.200866196787195,0.6627995964111633,-0.09302582697989363,-2.8439096285274896,2,left
1.548,0.05976908381258495,1.0255101443461463,-0.030819325871170054,1.794834636955991,-1.6629624371051794,1.1855248022731915,0.6634460497731204,-0.09610091951276102,-2.85124459221458,2,left
1.5519999999999998,0.05593717258441626,1.0302724218795885,-0.030292318627291023,1.9018591634859923,-1.4908888653783348,1.1948055783055875,0.6631314347625585,-0.09441953840965353,-2.8473552995265208,2,left
1.5530000000000002,0.05341803513047513,1.0367997630537529,-0.02822359045485332,1.858353204369341,-1.5607529123422723,1.1909822687247185,0.6631232857750147,-0.0948582044418129,-2.8480878372766747,2,left
1.557,0.04889815866002534,1.0449047793022035,-0.022115079837446823,1.8576707688835916,-1.5619998197963212,1.1910103061742805,0.6633622290425042,-0.09519811154119648,-2.8494226497881323,2,left
1.558,0.04119148893009794,1.0530526179961752,-0.014682773765423629,1.8805737971891174,-1.5250174655060205,1.1929051737405085,0.6630234118395717,-0.09455894121269184,-2.8472581611190892,2,left
1.5619999999999998,0.03232306229072204,1.0607952596768242,-0.007016319493124623,1.8531880755797339,-1.569124751379329,1.1905743865307272,0.6633155943363522,-0.09517598446167466,-2.849238504723688,2,left
1.5619999999999998,0.024158231442526042,1.0671977483334096,5.8562622351575506e-05,1.8744432877911863,-1.5350679021359643,1.1924821580662486,0.6632184211027192,-0.09469537051866739,-2.8481043357891496,2,left
1.568,0.01585810730158438,1.073895013886896,0.007612474803267104,1.8631203396711276,-1.5528689748117888,1.191276294081475,0.6629918818312879,-0.0950883026874781,-2.848073520907957,2,left
1.569,0.007444506593834603,1.0786295884446842,0.01712510687960004,1.865459623017967,-1.5498116646935491,1.1918692034764073,0.6636078697583918,-0.09466906362366403,-2.8492782365077653,2,left
1.5719999999999998,0.0011010316264018283,1.0807069350758305,0.02514296292900677,1.8688555497443577,-1.5434852210437549,1.191683773646267,0.6626653791895822,-0.09517987060369326,-2.847209523079121,2,left
1.5730000000000002,-0.0038467065988916273,1.0821187867378845,0.034237554894460245,1.8633055215587677,-1.5531005319869102,1.1915856683498935,0.6636744781551838,-0.09465663126299743,-2.84946502966876,2,left
1.578,-0.0079600245328771,1.0816763013918884,0.044583106293680244,1.868247540435505,-1.5451588340264053,1.1920161553733801,0.6630845118458948,-0.09492534851491076,-2.8480826516338524,2,left
1.579,-0.010936973749173986,1.0785210654108903,0.05017422533721809,1.8654507229065875,-1.548377033641556,1.1910668799222082,0.6626101816965075,-0.09532367838603581,-2.8472843744896497,2,left
1.581,-0.013287132210219934,1.0737745908199068,0.057475791072637936,1.8657182545543243,-1.5508711581453491,1.1927068490790929,0.664742094403095,-0.09385307659738404,-2.8514207681699166,2,left
1.5819999999999999,-0.014868514949272858,1.0676521090662545,0.06848166053967661,1.86747585997489,-1.5436820924089263,1.1904468264565906,0.660778353696249,-0.09653128726716664,-2.8436350008429208,2,left
1.587,-0.016065984391955713,1.060988189985491,0.07438626513996738,1.8648129677849066,-1.5526147258651783,1.192787758475574,0.6658702222802435,-0.09310308843893712,-2.85365638342052,2,left
1.587,-0.014366849161449983,1.0553031143849676,0.07932749100152209,1.8668809583964052,-1.5466027659366541,1.1914809793880354,0.6616184153480817,-0.09596110792714108,-2.845282598945584,2,left
1.591,-0.010761550912887078,1.0484895729779236,0.08169260722456873,1.8670176813587205,-1.544065231870113,1.1902121453564187,0.6617368920612672,-0.09589985250569524,-2.845542596442373,2,left
1.5919999999999999,-0.008411679176595542,1.0412144084387758,0.07878029147938832,1.8633826416227448,-1.5600498918822427,1.1955024383200008,0.6698329743131659,-0.09039639054407769,-2.8613937696732425,2,left
1.595,-0.00717681742647157,1.0369901233762158,0.07452319256937531,1.87084153411128,-1.5292538666291609,1.1857536995467068,0.6499299091608315,-0.10390518708204988,-2.822400503482961,2,left
1.5959999999999999,-0.005674594940640518,1.0336135508117223,0.05996064730885595,1.8610049620679976,-1.5692121147098932,1.1982490478363887,0.6829309641177261,-0.0815105155525009,-2.8870541070444737,2,left
1.601,-0.0016742814960575094,1.0313479062519004,0.04860667235459476,1.869327019956311,-1.5356788167665507,1.1878269722992711,0.639402861775506,-0.1110502698077603,-2.801786817847507,2,left
1.601,-0.0005972352218679134,1.0315388979573712,0.04552088826312006,1.8689316106699922,-1.536853758950969,1.1880940207579198,0.45669691052655365,-0.235048163214325,-2.4438056651766527,2,left
1.6019999999999999,-0.002401144814101839,1.0299429058165583,0.03135701800916284,1.8535152674400166,-1.6000830564188848,1.2080066815158403,0.41316953944454116,-0.26459295155940465,-2.3585625221532207,2,left
1.6059999999999999,-0.003074656684195743,1.028864692521553,0.016364276139495985,1.891653910621355,-1.4442885377731143,1.1590858449710604,0.4461698041455437,-0.24219283229624608,-2.4231900086087936,2,left
1.6059999999999999,-0.008466086934162469,1.0299775459650409,0.0035472551691347505,1.8283235912077944,-1.7027455292152993,1.2401901189218,0.4262664348263763,-0.25569956151052897,-2.384186779950957,2,left
1.61,-0.013441123121834982,1.0284232683341985,-0.006553064171106226,1.9118921805623872,-1.3617936161223225,1.1332176388233508,0.43436514819765437,-0.2502141576763525,-2.40012466539927,2,left
1.611,-0.014032779667515937,1.0276028149974379,-0.008259921054107128,2.26250583963382,0.06919545897385776,0.6841819655939375,0.4344779682153492,-0.25011404218789957,-2.4001981271684176,2,left
1.6119999999999999,-0.019440604732811825,1.0271849313307064,-0.015154398258021567,2.34608515572606,0.41014847451788045,0.5772111340852197,0.43023426824183353,-0.25302778371135254,-2.3920917678086413,2,left
1.615,-0.026958203928827813,1.0210002018583666,-0.02139079104624938,2.2827237546693477,0.1516589693018948,0.6583119393340138,0.43531806847744736,-0.24954409163853858,-2.4018468873424057,2,left
1.6159999999999999,-0.032139551539962036,1.0149130331348832,-0.019659358871633656,2.3209269684266567,0.30756397408427083,0.609396392846223,0.43135780077430413,-0.25224625724950633,-2.394175939691588,2,left
1.6219999999999999,-0.0389730255820995,1.009719612737686,-0.015319564157860484,2.3054069037726115,0.24410992003807885,0.6293026656692495,0.4334966610825973,-0.2508232836575829,-2.3985411330282616,2,left
1.6230000000000002,-0.04482793815838662,0.999186476667176,-0.00730875220602719,2.3051396538504516,0.2432657758850474,0.6295752384231834,0.4329999838598043,-0.2510681478912216,-2.3970060985849653,2,left
1.626,-0.047722754877770904,0.9902369161680601,0.0009460254078463829,2.313354023500709,0.2764471051234164,0.6191518233074087,0.432448503712892,-0.25160131667740515,-2.396893030908532,2,left
1.6269999999999998,-0.04959608187013444,0.9860638352371408,0.010959879307927583,2.303529672742149,0.23668654490580726,0.6316402850930014,0.43341039045126273,-0.2507535037317896,-2.3975909383144822,2,left
1.629,-0.05062198764466833,0.9820762219620763,0.02344793893096688,2.311159728594162,0.26768101398196287,0.6219097827522093,0.4325055099563279,-0.2515231141584263,-2.3967637746938877,2,left
1.63,-0.052185160921766165,0.9794396591927563,0.032601717325667856,2.307107642795466,0.25087278763808374,0.6271708150035922,0.43312190162772346,-0.2511060947091677,-2.3979801150069804,2,left
1.635,-0.050744883801779175,0.9768241525203841,0.04037827073856751,2.3078883628127125,0.2549384546512526,0.6259357247463675,0.43282541069111846,-0.25101895501980653,-2.3956440259961944,2,left
1.635,-0.04662539849464434,0.9750854740465312,0.045150078124895646,2.309243798277927,0.2589559534039384,0.6246051583494753,0.4328879758558789,-0.25163562230256686,-2.39977715819096,2,left
1.64,-0.04463245487938524,0.9773630337841961,0.04398277398225202,2.307033665118608,0.25179281254320474,0.6269387964310528,0.4329419543700429,-0.2506155740260218,-2.393900359501071,2,left
1.64,-0.0415057057854485,0.9822324088832816,0.04122091918853062,2.309060425009939,0.2585844960947682,0.6247391053983118,0.4328569460423044,-0.2517217369593996,-2.4001107727831874,2,left
1.645,-0.03959561971477915,0.9919919019038991,0.03467264985133445,2.307879572510239,0.2537537032939211,0.6262540931646425,0.43294944927494683,-0.2510529383776314,-2.3966083333025754,2,left
1.646,-0.040832966969358134,1.0047159935539605,0.023397739968156132,2.3079119894181996,0.25662612788911277,0.6254808521736578,0.4328144011087497,-0.2506228533727084,-2.3931654222035994,2,left
1.65,-0.040869890692311284,1.0161063574280442,0.011079883493614526,2.3090186167113997,0.2548788131954735,0.6257366153956041,0.4330537608766475,-0.2527451808702623,-2.4075380844125833,2,left
1.651,-0.04269095227401032,1.0299442250303834,-0.004875704005243673,2.3070848590285995,0.256331884868703,0.6257170034638271,0.43267344295737187,-0.24876557375689443,-2.3810109676938467,2,left
1.656,-0.04621735306026577,1.04575658978767,-0.0222710087629538,2.3091991765653797,0.25499770547315137,0.6256705488234304,0.43314738222602617,-0.2538859412088402,-2.41504231798933,2,left
1.6569999999999998,-0.04827204645995495,1.0599620748138283,-0.0375760746200513,2.3078938491205063,0.2554291951507418,0.6258037580736426,0.4327577446179124,-0.24960625707529344,-2.3866467595317533,2,left
1.659,-0.0511567313189826,1.0731181583561618,-0.049121366867438454,2.3071822641673174,0.25748230141409445,0.6253915427783792,0.4327455677058306,-0.24973949792345487,-2.387362276661639,2,left
1.66,-0.05629768964244784,1.0838949998576304,-0.05584675667679337,2.310974303043994,0.2512488419142664,0.6263330300154433,0.4335625214901377,-0.2578450220862627,-2.441672296587611,2,left
1.6640000000000001,-0.06004860097990542,1.091705760683777,-0.05914162979064891,2.3038187889039783,0.26231203318947194,0.6247425695533425,0.4315818514100699,-0.23790009256283193,-2.308255680962474,2,left
1.665,-0.059144011245358195,1.0999631217755934,-0.05226404245705046,2.3130355514035816,0.24821802861515346,0.6267500958949466,0.43485822384078887,-0.27097794682546916,-2.529438390277318,2,left
1.67,-0.059756764065303974,1.106518365978653,-0.045049730026418794,2.3053278005909656,0.2599389031914544,0.625087900460858,0.4305381990212027,-0.2273443417887988,-2.237715615527745,2,left
1.671,-0.059317398027134365,1.1072472104450128,-0.043149255631765464,2.305583611731013,0.2597956208098362,0.6250794328613125,0.41236215491456607,-0.04425703473636482,-1.0129783244863497,2,left
1.671,-0.0511188529635085,1.1066124538176143,-0.029954477335840713,2.3201302814255373,0.23687635933658469,0.6284250526095607,0.4080409932404937,-0.0006190072374831108,-0.7212750169517708,2,left
1.6740000000000002,-0.042457093668420494,1.1051462521744986,-0.011756932068778815,2.284316441986154,0.2930033429137437,0.6202641516671239,0.41131859503264606,-0.033701648343733966,-0.9424366646316682,2,left
1.675,-0.030012239569087724,1.1007477459384596,0.008399603737439436,2.34371835285153,0.19999627186661895,0.6337802345893333,0.4093383950303667,-0.013758531448717016,-0.8090120361843515,2,left
1.68,-0.017697503019548158,1.0983990968026527,0.02440897041526722,2.265357400307435,0.32266629834877425,0.6159522876547612,0.41015126410525476,-0.021848198754752128,-0.8633919260582594,2,left
1.68,-0.014121579972627828,1.0977497087675165,0.02966362512303477,1.9365475594152775,0.8378282241381474,0.5410509500336409,0.4101478728309329,-0.022015567512412605,-0.8639571122651377,2,left
1.681,-0.006548607948556752,1.097764739728186,0.04715412278244926,1.8581680921088832,0.9605152971837517,0.5232121841816799,0.40974564090724763,-0.017686942971089935,-0.8357770953721484,2,left
1.6840000000000002,0.002636868151946958,1.1033801992217573,0.07053873269695848,1.9176015504020374,0.8674922342647008,0.5367418369172684,0.41023211835497475,-0.022856054737162932,-0.8695938143439156,2,left
1.6840000000000002,0.0056869744322886814,1.1186184218246447,0.08820566830263923,1.8817545409498293,0.9236035204036492,0.5285787839614289,0.4098463962581361,-0.01885539700406416,-0.8431593013230547,2,left
1.689,0.0015209223497714656,1.1469122101504756,0.1094972849382283,1.896318853042159,0.9007633374960295,0.5318991905381185,0.41007497594543413,-0.02093590947442598,-0.8577162832040333,2,left
1.689,-0.013236111735657299,1.1837689686265715,0.12998232841557533,1.8965928821076372,0.9004618665077397,0.5319540677341057,0.40997463032685844,-0.02064059488332163,-0.8536796506574467,2,left
1.694,-0.03115048640049791,1.219905784921513,0.15313040414600043,1.888814032436409,0.9123999766894244,0.5301937665360903,0.41000735272351696,-0.019739540047275024,-0.8512002047312335,2,left
1.695,-0.0495848490902915,1.2494702799270905,0.18403251395105963,1.8981577794134006,0.898101611211197,0.5323080823646047,0.40999569655381124,-0.021130783344739293,-0.8561551626882544,2,left
1.7,-0.06776210827031105,1.2650227139683357,0.21756372941136617,1.890843134759789,0.9092307691127357,0.5306546511787567,0.40999121597263827,-0.019883390010334387,-0.8512792521439557,2,left
1.7009999999999998,-0.08792053243328407,1.264782037394249,0.24872362317587415,1.8947665640025062,0.9032239793198996,0.5315433644549963,0.4100532123380246,-0.020498181357930547,-0.8554213533537245,2,left
1.705,-0.11999930967001865,1.2521395733573564,0.26888814549245577,1.8940453391514729,0.9046349668991385,0.5313681132843666,0.4098653157314045,-0.020832589856079553,-0.8512277668406116,2,left
1.705,-0.16671915493981904,1.2337181309588499,0.2714007178381699,1.892521853936194,0.9061228770312065,0.5310550134886654,0.41023362008889797,-0.019451920197354998,-0.8566890169137426,2,left
1.7080000000000002,-0.23662647564581932,1.2257985377189309,0.2540159145653308,1.8951531564007773,0.9035452648982472,0.5315966467004727,0.40969877581892333,-0.021659358862781312,-0.8495292094440015,2,left
1.7080000000000002,-0.33317394607657375,1.2374808417918302,0.22156185447931798,1.8924349921436368,0.9059104190999352,0.5310479153611499,0.41026628081369093,-0.01927851825029006,-0.8569777781495169,2,left
1.713,-0.4532122159753167,1.2723875435214351,0.18954926094772462,1.8943913387904865,0.9043536072897889,0.5314376680095474,0.40994252475449733,-0.020697919536895183,-0.8529643760759265,2,left
1.714,-0.5938941843809403,1.332902899825657,0.165368690690417,1.8939144176619844,0.9051151449084801,0.5313281932421836,0.4096426257465079,-0.021705337271820543,-0.8480664814641946,2,left
1.7180000000000002,-0.7472468473092211,1.4159161904246096,0.13578809449185997,1.8923429947070223,0.9047774943342902,0.5310745620411627,0.4109212860643794,-0.016942120806680453,-0.867147745696264,2,left
1.719,-0.9067888047774693,1.518498193640328,0.07876043633672392,1.8961993797073187,0.905131592342095,0.5317152509130139,0.4085558578466123,-0.02584001940474702,-0.8321862759627303,2,left
1.723,-1.0478964931454038,1.6271939657113506,-0.008664855900575233,1.8905097029379019,0.9045055477971065,0.5307734048798423,0.41159220644561795,-0.014399503993306908,-0.8769831923923619,2,left
1.724,-1.1667609576155276,1.739127324341133,-0.09858608994328022,1.8964911752588107,0.9053027781627216,0.5317588654880203,0.40905724750378125,-0.02395773366107983,-0.8396230175064425,2,left
1.7269999999999999,-1.2429408272998757,1.837561306151385,-0.16755755007766476,1.8930367788150897,0.9048417268711707,0.5311890044925266,0.4091251221624706,-0.023673800019820616,-0.8404863809187089,2,left
1.7280000000000002,-1.2504605911645452,1.9016102220736495,-0.18241180624642672,1.8902334518454658,0.9041641575051287,0.5307401344448059,0.4139625310497196,-0.005528122059730864,-0.9122099597328497,2,left
1.734,-1.2086245504608195,1.92817212997752,-0.13618093659336095,1.9027214301783235,0.906771471869345,0.5327600969930701,0.4020723243651704,-0.050160483571004263,-0.7360961469839742,2,left
1.735,-1.0747591570965158,1.8758240885951083,-0.10198738137582677,1.8795576581901126,0.9019495829681992,0.5290106827240283,0.4217886248778349,0.023853938768403027,-1.0280563745094269,2,left
1.7369999999999999,-0.9482566290622401,1.809127390516505,-0.09885958794479188,1.909278944998206,0.9081698441524131,0.5338223534782933,0.39578019120791375,-0.07377714145770879,-0.6429653068507625,2,left
1.7380000000000002,-0.9128413771953134,1.7897853640186356,-0.10617942689143818,1.8844832566962135,0.902958661837989,0.5298058972917694,0.2866219056038374,-0.48351942023249417,0.9736590369768741,2,left
1.739,-0.7622092956224031,1.6892982255872704,-0.12419375800295837,1.8851498999949243,0.9030868347237386,0.5299213080813835,0.2606059554562621,-0.5811632239049742,1.3587703910708198,2,left
1.744,-0.5384521199334913,1.534304843946974,-0.12401610913783781,1.9324051632680714,0.9131105405754651,0.5375556551152567,0.28033386980767006,-0.5071275512752085,1.066787569001594,2,left
1.745,-0.3761743995953136,1.4104432732664125,-0.09111940178222487,1.8162909096157338,0.8884614865920417,0.5187833414434675,0.2684344245572424,-0.5517811868998177,1.242895321974257,2,left
1.7469999999999999,-0.1851763462090896,1.2530010859558092,-0.009460622906654129,2.0087758918754854,0.9293593044686881,0.5499119540458051,0.27327028032378364,-0.53362651963762,1.171239831839578,2,left
1.7480000000000002,-0.06690260700907175,1.150538149332284,0.059507815550566244,1.7549303716125764,0.8753814959640427,0.5088509213850603,0.2733584807910865,-0.5333254161112895,1.170226815933817,2,left
1.7480000000000002,-0.04336322673290662,1.1278293017531273,0.07994839579819274,0.6890488096439981,0.6490352777430622,0.3365505467278255,0.27078078067208255,-0.542937496402027,1.207804085021583,2,left
1.7530000000000001,0.05119189102450906,1.047393379615063,0.15579929246251428,0.43527096627694983,0.5950023360747365,0.2954849791938988,0.2738766767778283,-0.5314068409024773,1.1627878365734134,2,left
1.754,0.1599826637689014,0.9583828341486974,0.26111222611512774,0.6276791679127451,0.6359653732929406,0.32661768937687496,0.2714540103671515,-0.5404114461539123,1.1978497965582613,2,left
1.757,0.22630648337965004,0.9117662374460356,0.33536470231453186,0.511549670465764,0.6113192812177586,0.3078501067580611,0.2727542261297843,-0.5355693696315555,1.1789433890041316,2,left
1.758,0.296282672023617,0.8702344214006565,0.40646292066296896,0.5590218318282597,0.6211857858635731,0.31546227227402224,0.2725099350524877,-0.5365620041070793,1.1832548225530273,2,left
1.7619999999999998,0.35824716694305136,0.846797667714221,0.46242411929988525,0.5592044313075046,0.6216793638387901,0.3156214634743675,0.2720193875573711,-0.5381594596500561,1.1882918896629762,2,left
1.7630000000000001,0.4172958678112503,0.8320922118110559,0.5107106906632184,0.535116662848137,0.6159225139690561,0.31154539432013517,0.2728669426757059,-0.5353981068978644,1.1795730469591925,2,left
1.767,0.47516733944338047,0.8189237554889341,0.5596808259204287,0.5641156468696897,0.6227133164167962,0.31641248072509776,0.2719962903576564,-0.5381508381057827,1.1877664568442805,2,left
1.768,0.5171612416675094,0.8139091745602851,0.5926193178484715,0.5412957782093467,0.6175947925454608,0.31264648440695564,0.2726206085504319,-0.5362182285667956,1.1822663659265464,2,left
1.7719999999999998,0.5449490827652461,0.8130641786519577,0.5978198293612671,0.5543297072827544,0.6198284467998263,0.3146019728339815,0.27246181374235046,-0.5368178190314636,1.184652073496531,2,left
1.7719999999999998,0.5441596497225885,0.817345608644769,0.5571578984066067,0.5496399103617975,0.6205545527902924,0.31433174002735387,0.2719873121470624,-0.5378369443403637,1.1847287714997479,2,left
1.777,0.5113184016514778,0.8219420165129385,0.467206452017232,0.5495085278051655,0.617561380437038,0.31347056979376053,0.2731601884039544,-0.5351759177680208,1.1832409783132989,2,left
1.778,0.47268512635847526,0.8240295627255221,0.34379132493993064,0.5513348061664571,0.6215866916299401,0.3147960323779873,0.2714311471902173,-0.5390679463103643,1.1851556473819933,2,left
1.7819999999999998,0.4458818744937031,0.8222289552571762,0.207881165194204,0.5490728797739831,0.6182070555051553,0.31360926678381684,0.27324692463432565,-0.5350220131058611,1.1835191647002725,2,left
1.7830000000000001,0.43064761319265027,0.8152631807645427,0.06129534338371014,0.5526950721031798,0.6189509058558345,0.31418759731140455,0.2721976345529369,-0.537360016761125,1.1844687807618048,2,left
1.786,0.42463013108383296,0.8065342185443501,-0.09322783945451182,0.5453698713751138,0.6227729541114627,0.3145264937989251,0.27135321620319675,-0.5391506177222105,1.1843912129007026,2,left
1.787,0.42280130075183414,0.7984146212660981,-0.24226502471420297,0.5585226345975347,0.6132764310768017,0.31317209079007813,0.2751261837616591,-0.5310251863205997,1.1835713019593113,2,left
1.791,0.42494018139002676,0.7885840634844248,-0.38581086014448895,0.539760386835735,0.6276259784946061,0.3153314864106449,0.26812571530802837,-0.5461062146651421,1.1851487587965044,2,left
1.7919999999999998,0.4335349335586201,0.780857975941723,-0.5066467417259651,0.559601228803805,0.6122951419276677,0.31300368171239945,0.27710919299971226,-0.5267626347108485,1.1831985148320214,2,left
1.796,0.44323219697191707,0.7777559624248919,-0.5840439540144666,0.5483899318784721,0.6212069322569775,0.3143895254625746,0.2696122860031239,-0.5428995072648278,1.1847914309033811,2,left
1.796,0.45636195837194615,0.7779312254378619,-0.6104744220564798,0.5374737706522721,0.628623295954678,0.31538181858771686,0.2698200164880237,-0.5424471757213374,1.18465715678715,2,left
1.801,0.4735766851705009,0.7821408435575098,-0.5910581196867085,0.5831991237179428,0.5957307015472005,0.3107078956347099,0.28409172729414317,-0.5117590157289773,1.1820145099137433,2,left
1.8019999999999998,0.494411855739636,0.791369434381953,-0.5397206882621021,0.49877058944828434,0.6568089858341737,0.31943550410659793,0.24901180372051282,-0.5871886837112008,1.1885750071008927,2,left
1.807,0.5210104061440977,0.8167888031792685,-0.45984676978701683,0.6070988277527398,0.578363343265994,0.30821537987039493,0.30717341013427224,-0.46213551101240097,1.1777086287230418,2,left
1.808,0.5334351009047742,0.8386866151525743,-0.4064157451961694,0.5166921040709855,0.6438624210821904,0.31758807364611785,0.2304616657493131,-0.6270658650883958,1.1920148622193194,2,left
1.808,0.536025559269269,0.8441963287525933,-0.39494768064573194,0.5190183755098959,0.6420569087350682,0.31731305392970416,-0.09156223846546882,-1.3195360904722393,1.251895076888795,2,left
1.8119999999999998,0.5514505568212629,0.8658298786730902,-0.3626703254987141,0.6918049120204117,0.5172686711469919,0.29951104903012354,-0.16827307303389366,-1.4844657961475651,1.2661671111523227,2,left
1.8130000000000002,0.5652490815628826,0.896508674837555,-0.3310010193934341,0.26725946345878526,0.8240209280629477,0.34329125259566706,-0.11010830309377341,-1.3593881980584452,1.2553478603725468,2,left
1.817,0.5698522232724883,0.9218096389909147,-0.32235883003799815,0.9711292941860729,0.315408173553918,0.270695896048849,-0.14520329298894402,-1.4349071330883523,1.2618865629382625,2,left
1.818,0.5721920536362861,0.9393459063380508,-0.3145129361774772,0.0427648621584128,0.9862439587881071,0.36644697202209264,-0.13089802807660106,-1.4040331633279974,1.2591951228687956,2,left
1.818,0.5714006948944664,0.9429522992757317,-0.3148038842630141,-3.853124571060226,3.801300529913725,0.7682582310011477,-0.13074225878280193,-1.4038580478179257,1.2592152335571418,2,left
1.8219999999999998,0.5628364153323202,0.9551559219580331,-0.32038701168425376,-4.781229454704604,4.471948061611994,0.8639880250876081,-0.13818086392925516,-1.4196955847570356,1.2605472405808547,2,left
1.8219999999999998,0.5341923003484277,0.972532835090783,-0.3345680521940562,-4.077942551738309,3.9637411886584277,0.7914360655242088,-0.1292352078175885,-1.4005275011032536,1.2589062171433754,2,left
1.8259999999999998,0.4854709268035246,0.9799441193158548,-0.3540265284381652,-4.501524707445626,4.269854699231995,0.8351528703864456,-0.13625693171304676,-1.4157604288477845,1.260258490267283,2,left
1.8259999999999998,0.4284224939780609,0.9858795892552337,-0.35358221071644075,-4.330012795961689,4.1458673868788205,0.8174232446015681,-0.13236490644220794,-1.4069598046937872,1.2593845041833838,2,left
1.831,0.3686923286889924,0.9892247490497094,-0.3284740216396693,-4.326417801336598,4.143324988072763,0.817091869318811,-0.13344388883092884,-1.4100230492273433,1.2598448631515275,2,left
1.8319999999999999,0.3097119751250009,0.9876438918133368,-0.29089157362602097,-4.417463717148594,4.209090908570528,0.8264658054469547,-0.1341735843591711,-1.4106805306285901,1.2596611762935956,2,left
1.835,0.2569396309448735,0.9818540709240218,-0.2545887443404793,-4.309972707772916,4.131365909788642,0.8153438171004479,-0.13266020227335418,-1.4081528920720237,1.259634651102313,2,left
1.8359999999999999,0.2097662293192152,0.9750250913607545,-0.2213552995201878,-4.391303471638549,4.190301704396811,0.8238445593309751,-0.13428239172315892,-1.4116475325599396,1.2599386667483718,2,left
1.841,0.16148732723094283,0.9728684718096473,-0.19010205668955807,-4.351164507975097,4.161010420508841,0.8195115313418501,-0.1327994706736211,-1.4071108162506538,1.2591891600408927,2,left
1.841,0.11224915129804398,0.975735516822787,-0.16438149433451382,-4.354933652501284,4.164086691790329,0.8201372026519049,-0.13418151954447427,-1.413163152352711,1.2605289420976362,2,left
1.845,0.06058676365117494,0.9848754927421978,-0.1441009645871815,-4.372299726896339,4.176353887675108,0.8217393965221936,-0.1328265341604824,-1.4056539852838625,1.2586615081456247,2,left
1.8459999999999999,0.00356252316662449,1.0010912214810146,-0.1308932013835578,-4.3514495846896075,4.1612851089721,0.8195873453853915,-0.13401231777551717,-1.4131026835614868,1.2606042114165854,2,left
1.85,-0.05329500311567336,1.020875282788951,-0.12163109405869221,-4.361234703519266,4.168878809478578,0.8209470399090619,-0.13350065953446125,-1.4091719144899824,1.259513996849297,2,left
1.851,-0.10675492445013979,1.041912472678656,-0.11422051574592504,-4.370531258534692,4.174400881645508,0.8211046524177528,-0.1325202132226979,-1.4046235645709877,1.258473713608803,2,left
1.8559999999999999,-0.15506593146706066,1.0630510201247372,-0.1076341990574629,-4.342808773584046,4.156152757874665,0.8194410111017046,-0.1358159466594023,-1.4223891782390619,1.2628411109855526,2,left
1.857,-0.19378411617115016,1.0807401798774685,-0.09597285769591568,-4.378464830955371,4.180015359039985,0.8218435099894634,-0.12993918949569622,-1.3899485533644635,1.2547855715184855,2,left
1.86,-0.2199545275053305,1.0917995522081894,-0.07963309839398015,-4.354745273801665,4.163975604780374,0.8201346137322081,-0.13740033047271377,-1.4314212426689348,1.2651133814570255,2,left
1.86,-0.23355788275947958,1.095348589513079,-0.06081863829498963,-4.340865896944377,4.154892376647066,0.819336362011259,-0.13120748799427212,-1.3968754931108034,1.256498107379203,2,left
1.864,-0.23373279810588626,1.0923934049250854,-0.042171036657883784,-4.415471779836258,4.204657638758027,0.824254433594291,-0.13131923984812943,-1.3976901550837777,1.2567204399040492,2,left
1.8659999999999999,-0.22464351365066948,1.0858989631371319,-0.024512617556861176,-4.273070717679645,4.109447509122312,0.8147189774617418,-0.14327619183979587,-1.4638817240085702,1.2731767930356956,2,left
1.869,-0.2110886788145463,1.0798467808022505,-0.004718309441268047,-4.457718936929902,4.232999392633495,0.8271462189813586,-0.11396861419839806,-1.301365919407948,1.232745070813745,2,left
1.87,-0.18947428274869516,1.0738952595362554,0.01766057746338204,-4.302789220723518,4.129294211528464,0.8166945609510095,-0.1625308826168547,-1.5707574704604395,1.299776341552365,2,left
1.874,-0.1730003110347595,1.06866781029104,0.030770473514227216,-4.307669736992139,4.132590819605306,0.817040712432802,-0.09848912760555768,-1.2154566760309802,1.2113650604945658,2,left
1.875,-0.16814563400088423,1.0681317398191588,0.03270631580882793,-4.601803261828236,4.329422633226452,0.8368554873021619,0.1703892042484002,0.27605683067675124,0.8402349588158032,2,left
1.875,-0.1548161236979571,1.0657792605892689,0.038596992140679895,-3.877621556645627,3.844753756369543,0.7880409603597037,0.23442986809082597,0.6313554195807072,0.751823421826916,2,left
1.879,-0.13260048657894075,1.0608189048300174,0.03726832118045642,-5.0789533342311,4.648783864192474,0.869028432351699,0.1858725488340754,0.36197387587173085,0.8188558342669133,2,left
1.88,-0.1193474019217695,1.0609115407928784,0.028701686739728866,-3.494087103561324,3.5880546883932265,0.7621855761406374,0.2151672270447859,0.524463593861586,0.7784211542120993,2,left
1.885,-0.11518449315197767,1.0609555701265492,0.024002950171524963,3.1580315840126056,-0.8642201177948082,0.31361399616048496,0.2032338780862164,0.4583197606792501,0.7948829038130104,2,left
1.886,-0.10309933177383729,1.0594123853576947,0.007282505612858328,4.743115839282273,-1.9250890151825855,0.20676842232888604,0.203089725738127,0.4574395675025329,0.7950978439347776,2,left
1.886,-0.08387932798469541,1.0593524654620392,-0.017986704367851127,3.541371235752461,-1.1207798867107446,0.28777708343403663,0.20931430520164754,0.49204951020151955,0.7864897914622192,2,left
1.89,-0.06956530456801878,1.0579085818146916,-0.04368044036681658,4.266089943854588,-1.6058441214973445,0.2388990368486576,0.2018399458707463,0.4505500775095259,0.7968146291214109,2,left
1.89,-0.054853374293150875,1.054013633593587,-0.07188978154278156,3.9714468371690956,-1.4085801492639907,0.2588373162811929,0.20768826620166622,0.4829332006872997,0.788752537750141,2,left
1.895,-0.039429219429238244,1.0472990188901554,-0.10044306071757059,3.9667995998664747,-1.4055896920881579,0.2590067550199554,0.20448255082463376,0.4653496385308123,0.7931405397350868,2,left
1.896,-0.028822299054715485,1.0405170288851584,-0.12810667917746482,4.122085868364055,-1.5093552351815323,0.24873719664114566,0.20530836186105,0.4695852399477794,0.7920649401493445,2,left
1.9,-0.01918664700171361,1.0348756263001193,-0.14755967090591326,3.9362194833908113,-1.385119577303974,0.26107212404820745,0.2060096287984029,0.47389950784316703,0.7910179454855386,2,left
1.901,-0.01232506041161243,1.0275044786573582,-0.15818782400226533,4.080748849108197,-1.481782808240228,0.2514112030854836,0.20467275112222344,0.4661451844971564,0.7929263330757814,2,left
1.905,-0.011457451798808527,1.0198353317448836,-0.16326099256447604,4.003496203530877,-1.4299363670947485,0.2567894124526865,0.20602626915765276,0.47365144144134835,0.7910582780677338,2,left
1.905,-0.01237784024000833,1.0120287045224885,-0.16667441993413967,4.019548062900999,-1.4411327748196392,0.2551642092145492,0.2049249323375235,0.4681667819295882,0.7924624739073263,2,left
1.909,-0.015231517790534038,1.0052819105953987,-0.17080522469489706,4.043131944101411,-1.4561382032987136,0.2545081067226735,0.20576647328650322,0.4714063470203239,0.7915663145640135,2,left
1.909,-0.02025729856778699,1.003632773742571,-0.1713468809659307,4.003809707840014,-1.4307755668275939,0.25601385672855315,0.20510108037816369,0.46984685225140754,0.7920886840039036,2,left
1.9140000000000001,-0.02372808383490582,1.003153295828608,-0.16816929862149785,4.040183907709782,-1.454359134756414,0.2544742876049365,0.20559449178396108,0.4703114700454073,0.7918299029223235,2,left
1.915,-0.02571820412190392,1.0019278266049683,-0.16269055008541422,4.01776980347789,-1.4393504571514073,0.2559938667614797,0.20545415478466147,0.4708462191626916,0.7917795352333412,2,left
1.9180000000000001,-0.02521139033712102,1.004735679136652,-0.15989919048688708,4.022212327470377,-1.4437373425915734,0.25400001459941657,0.20488316063318016,0.4688100393741519,0.7923575849075131,2,left
1.919,-0.022579166535590604,1.0089687550201174,-0.16084042983572522,4.034452905203037,-1.448699945420457,0.25704640069295737,0.2065518617839604,0.47311431012761823,0.7909743338692881,2,left
1.9240000000000002,-0.018489295906445914,1.0115424625163665,-0.15893708444691568,4.0108292545688675,-1.437707105165948,0.2528634642069322,0.20365338207757663,0.4662205358892533,0.7932686511867352,2,left
1.9240000000000002,-0.007944326092790853,1.0165312216810896,-0.15228510894558472,4.037011019588284,-1.450094076138995,0.25725516496594714,0.20730451195915026,0.47468010395927523,0.7904203368438181,2,left
1.9280000000000002,0.004471934663346482,1.0219206163545675,-0.14040573696342423,4.020306131989143,-1.4418812261506893,0.2548240432377809,0.20428616377016492,0.4677835005536125,0.7927568860074561,2,left
1.9280000000000002,0.019929229932448115,1.0215033188889573,-0.1274627218711697,4.013718842408527,-1.4400309849020503,0.25220139906469896,0.20432200836498474,0.4677144846092486,0.7927574783818393,2,left
1.933,0.04263671271884024,1.0185751456325216,-0.12213346191705929,4.055335695620567,-1.4566881615668028,0.26281671986471034,0.21019940208773258,0.4815449308881746,0.7881324360503353,2,left
1.9340000000000002,0.0646677522023571,1.0165680227018585,-0.12498939293803385,3.9758493325281625,-1.4242525283434695,0.24328624114401973,0.19581968324337,0.4479213369094939,0.7994077284049844,2,left
1.939,0.09408538061338753,1.01256265206953,-0.12968973744078693,4.078430840446774,-1.4662478771824161,0.2683293408498203,0.21963709984858815,0.5035309314933576,0.78074793526496,2,left
1.94,0.11593245167166977,1.0084168591796348,-0.13260099850646287,3.9925819785644365,-1.4310479965994387,0.2474363207632556,0.18823081106261266,0.43023327343507733,0.8053469895350494,2,left
1.943,0.12105134495810675,1.0080145641618117,-0.13256449910161777,3.9957079537048936,-1.432538572255575,0.24794745268620338,0.05636933515251148,0.12236568950414436,0.9086535515008994,2,left
1.943,0.14143944410414722,1.0095262829279594,-0.13009822589428463,4.156770083907914,-1.4978925578284186,0.28796448555921317,0.02496367229019425,0.04907815927944762,0.9332490665810328,2,left
1.944,0.17058485164828396,1.0076753670203942,-0.12460496087399787,3.7599558113899136,-1.33662735702136,0.18967168394743883,0.04877552507372472,0.10464648395048765,0.9146011358708395,2,left
1.9480000000000002,0.2002425308745281,1.0031738842397844,-0.11306581696624679,4.418132418556751,-1.6041748596219163,0.3526289689492612,0.034412857182008996,0.07112608925298619,0.9258494305721807,2,left
1.9480000000000002,0.22259215848289765,1.0021064331147789,-0.10402094021752771,3.5499858190874303,-1.2512691724332663,0.13769064495815217,0.04025681407013905,0.08477153598078013,0.9212703472032895,2,left
1.953,0.22807478540152165,1.0013308556817924,-0.10339337376564586,-0.09291954880977582,0.22929025163441366,-0.7645886340693724,0.04034076375354555,0.08495269673754093,0.9212112419688208,2,left
1.953,0.24991243916252845,0.9965646109880931,-0.10248360142367847,-0.9609568004479299,0.5821284348467138,-0.9795333304915264,0.037272527903750144,0.07781577960639563,0.9236020102606639,2,left
1.954,0.2804230420880346,0.9915353401085946,-0.100804731072699,-0.30290292957402637,0.31465302277343493,-0.8165695408927126,0.04094949635727043,0.08636677125689675,0.9207388955654886,2,left
1.9569999999999999,0.29958912400843163,0.9883644290632247,-0.10110342264457552,-0.6997465100918214,0.47594934596470406,-0.9148583390578124,0.03808413583931135,0.07970815462779207,0.9229668232837165,2,left
1.9580000000000002,0.3192719881847228,0.9852243449357969,-0.10094035651235195,-0.5383242860199444,0.4103462010703399,-0.8748670235846827,0.03962864554037475,0.08330116312952479,0.921763974456975,2,left
1.962,0.3321307793914997,0.981128352726424,-0.09989508043984224,-0.5359947047906376,0.40938711592046007,-0.8743024598202909,0.0392822200731527,0.08246757646905609,0.922049392723731,2,left
1.962,0.3389502304833706,0.9788252753539042,-0.09898060179419224,-0.6206844001909672,0.4438286357416592,-0.8952705671774192,0.038854571168921215,0.08154821567964629,0.9223394592219272,2,left
1.9669999999999999,0.3444725503513729,0.9759792859760212,-0.09811744148034213,-0.5192787901722065,0.40258384796200275,-0.8701545989229337,0.03959476971517356,0.08314102944812943,0.9218368224885801,2,left
1.9680000000000002,0.34264559030963027,0.9696066098453672,-0.09415474449019214,-0.5982176429447539,0.4347041855611455,-0.8897129855406841,0.03889073771853267,0.08166276696360254,0.9222937213055811,2,left
1.972,0.33889441369832296,0.9632329560476959,-0.09124063769417327,-0.5556835126157924,0.4173827732740981,-0.8791683804667283,0.03936788415664612,0.08264514357648395,0.9219953173365629,2,left
1.973,0.33314234928410613,0.9572240050789311,-0.09204377890174648,-0.5653846870737367,0.42133877747510473,-0.8815772367961332,0.03917356330826255,0.08219030846446301,0.9221482043482787,2,left
1.9769999999999999,0.3216195818759259,0.9518751508990279,-0.08869222534000462,-0.5766339317360507,0.42594256438012945,-0.8843687738869599,0.039114240762127085,0.08229555043213402,0.9220549071296686,2,left
1.9780000000000002,0.30980270579714986,0.9473260223772438,-0.08200408272949293,-0.5572434532879902,0.4179643790794292,-0.8795431923856789,0.03935688792934365,0.0823052115895328,0.9221842223629455,2,left
1.982,0.29574591431400765,0.9437235073154133,-0.07443013922476263,-0.5753096514491134,0.42547284234272953,-0.8840594383604362,0.039019736285769165,0.08234862345788393,0.9219718608227462,2,left
1.982,0.2750704626107344,0.9424023775377248,-0.06536094490959143,-0.5633488631268788,0.4204089586795173,-0.8810450193812425,0.03934617200919957,0.08222546447579006,0.9222240827000878,2,left
1.986,0.25119832685086946,0.9408010557938837,-0.059329069800290964,-0.568464272977312,0.4226492143805317,-0.8823538381259803,0.039157204029809975,0.08229573742561419,0.9220785894923355,2,left
1.9869999999999999,0.22811382706250966,0.9397371531538689,-0.05542814945353715,-0.5684375442581563,0.4226401544621675,-0.8823471524730264,0.039067454957856844,0.08252718615788585,0.9218960018868119,2,left
1.9909999999999999,0.20521080529735664,0.9410184264584716,-0.04982275162557473,-0.5660213058230424,0.4213582635892654,-0.8816719862339681,0.03955492489010839,0.0817355872660592,0.9226211848040403,2,left
1.992,0.18133691642376826,0.9433062424976215,-0.041164180056978736,-0.5685542948849933,0.42307246465056547,-0.882475308920627,0.03864620742588158,0.08319250848319928,0.9212798977631488,2,left
1.9969999999999999,0.16009777044017215,0.946099030190193,-0.031473466874879744,-0.5672364331636004,0.4215156034104281,-0.8818861388787067,0.03980696241013003,0.08130767623622728,0.9230070565364588,2,left
1.9980000000000002,0.1405585129439335,0.9488719430536464,-0.025882516286235384,-0.567202970371494,0.4225905654576621,-0.882158076905192,0.03884069540902736,0.08288757357392579,0.9215627706758103,2,left
2.001,0.12281816896911811,0.9527606609016203,-0.023469578042287508,-0.5676819210443902,0.422156311792964,-0.8821147300953628,0.03887448493445867,0.08286300679538958,0.9215963234882714,2,left
2.002,0.11012140368742887,0.956628326392398,-0.01916111142970637,-0.5682862044487751,0.4218596408371921,-0.8821249047197249,0.04068427807488094,0.07977327446031554,0.9243748008406366,2,left
2.006,0.09881562194122706,0.959046892085542,-0.014840333239605567,-0.5650889557458174,0.42293313966339036,-0.8819437647749042,0.036230321038869896,0.08735341271051869,0.9175492605559381,2,left
2.0069999999999997,0.09104735717020224,0.9630041713903457,-0.0158899033968124,-0.5715465661483046,0.4211571162508695,-0.8824104807091924,0.04361453106205024,0.07478416067811898,0.9288674013665699,2,left
2.012,0.09011165970315872,0.9658470883064846,-0.018810616570784887,-0.5628890528704822,0.42328897793931675,-0.8817206142183898,0.03387675727702182,0.091367144853608,0.9139368653953022,2,left
2.013,0.08851008372958018,0.9655754925341647,-0.02119072826038363,-0.5702767384190119,0.42157422227470687,-0.8823362974987363,-0.0069775832390306,0.16103090113018192,0.8512637471838038,2,left
2.013,0.08737344457501178,0.968024337165021,-0.0256499789076894,-0.5700979172234053,0.4216292216904787,-0.8823244343656951,-0.0167123471167792,0.1776212856073624,0.8363313424399252,2,left
2.016,0.09232166378436665,0.9723820819023727,-0.029758706661537994,-0.5556765690123859,0.42476294384065816,-0.8810688564120057,-0.009332983868596987,0.1650390176433026,0.8476510631336895,2,left
2.016,0.09777842864521188,0.9750759672254481,-0.03116240087532169,-0.5912120062767416,0.41709705933343466,-0.884177586665671,-0.013782546755993042,0.17263385373050982,0.8408278574432055,2,left
2.023,0.1057075116092702,0.9779121421460264,-0.03022797381369116,-0.532196676478728,0.4297683753114967,-0.8789997351235039,-0.01197356376194522,0.16953410130963134,0.8435964003222273,2,left
2.024,0.11333490067696737,0.9804623630545133,-0.0298139568049373,-0.6101071930034458,0.4130834266754725,-0.8858448234328467,-0.011945788944884215,0.16950665689371963,0.8436491722084412,2,left
2.024,0.11464985425468982,0.9808815212522801,-0.030271821416835695,-0.9372832052074165,0.34311241896680666,-0.9145561819427434,-0.012897220876007164,0.1711102452341625,0.8421790562216633,2,left
2.026,0.12247147408709191,0.9794794877211399,-0.031069803672829556,-1.0152259425226449,0.3264416382167812,-0.9213948469154984,-0.011758997270831757,0.16917738224076134,0.8439297806283175,2,left
2.026,0.13405398177225225,0.9779278400316626,-0.03427418711681097,-0.9561696168006114,0.3390939582126242,-0.9162381889164448,-0.012643584435362527,0.17070041265891328,0.8425823280624082,2,left
2.031,0.14241370406609422,0.9756226065869881,-0.034315660039054854,-0.9917135255275342,0.3314352329506839,-0.9192991097499252,-0.012169968394522935,0.16984547764735886,0.8432780530709105,2,left
2.031,0.15472215227700326,0.9708535220206949,-0.029533749362002978,-0.9773630178264684,0.3345930244304581,-0.918124493172789,-0.012272206075145856,0.17010104025075312,0.8431744893229143,2,left
2.035,0.1681256573164586,0.9657435984859037,-0.030182756848620127,-0.9770018394200711,0.3345783433048962,-0.9180079157135171,-0.012407235299962346,0.170231889537271,0.8429018478334013,2,left
2.035,0.181593659251515,0.9632981143353567,-0.039548928172589995,-0.984674968691398,0.33297782586219105,-0.9187181135973961,-0.012181417605257526,0.16992594952079315,0.8433005313614562,2,left
2.041,0.19569500869493067,0.9623988517969758,-0.051359434190675186,-0.9757032299874822,0.3349780184571085,-0.9180035993986153,-0.01238694249022345,0.17027705551259514,0.8429857360177133,2,left
2.042,0.20793820260071752,0.9595047859138832,-0.05979477763904384,-0.9823521562916174,0.3332920913473567,-0.9183519700805853,-0.012261445003435309,0.1699166312365348,0.8430811061122534,2,left
2.045,0.22125645865889043,0.957136487075983,-0.06289397436169097,-0.9792962059229996,0.3344019201098427,-0.9184891559821393,-0.012293632021395428,0.17030610647209457,0.8432537538626941,2,left
2.046,0.23558715776787958,0.9561263225644104,-0.06365888503787262,-0.9792245037305236,0.3338563234893296,-0.9179852556927166,-0.012335278188120408,0.16987804064121614,0.8428586300820822,2,left
2.051,0.24696221616265443,0.9526896514819905,-0.06656828157544387,-0.9809931569174438,0.3339256948101014,-0.9185372259638401,-0.01225806664999525,0.17027835405080557,0.8433301807032529,2,left
2.052,0.2575663184952255,0.9482895511151522,-0.0727988283031347,-0.9792450182464298,0.33430355479520174,-0.9183873510342895,-0.012324703044896048,0.17008464892862024,0.8430239642076156,2,left
2.056,0.26903486565339,0.9429971761079419,-0.0792718920959794,-0.97948963042143,0.3334198977252286,-0.9176724928359653,-0.012313658814300514,0.1698008113374357,0.8428649378606008,2,left
2.057,0.2757674025408071,0.9396748349615758,-0.08298491019364465,-0.9815896823963135,0.33487095152448276,-0.9195395350183921,-0.012235631419452525,0.17082734874619915,0.8437545178993832,2,left
2.059,0.2794585484316886,0.940353947533916,-0.08516387262533597,-0.9772930293566789,0.3329548603513685,-0.9166521073648763,-0.012410214646527782,0.1689746766363105,0.8420590380693335,2,left
2.06,0.28296080641312726,0.9404001662430184,-0.0902481897871025,-0.9823859985288081,0.3348879573461021,-0.919775108685329,-0.01217523187128395,0.17133506890212424,0.8442526069522867,2,left
2.065,0.28442610026629556,0.9410300843486551,-0.09670532148161234,-0.9791816913367615,0.33382694528449003,-0.9179478143905695,-0.012376041347007732,0.16937252718933068,0.8424143337459622,2,left
2.066,0.2855904248806822,0.9414189026052988,-0.10057892121226783,-0.9769700527621159,0.3327944437384227,-0.9164205050820627,-0.012363392048769135,0.1694130640457424,0.8424748407160061,2,left
2.07,0.2869168476460141,0.9399873964379826,-0.10424954561318434,-0.987811564676665,0.33706438675725264,-0.9232058027752348,-0.011999616228251835,0.17318850574902012,0.8459514655132383,2,left
2.0709999999999997,0.28919734620603565,0.9387930340835338,-0.10659960460225576,-0.9673670161583806,0.3292182530818455,-0.9105930494765606,-0.01290430270752567,0.16392754624446823,0.837390786321077,2,left
2.074,0.2902340295924189,0.9368335401618306,-0.109166743546661,-0.9937690847339942,0.33926087584102205,-0.926801248708965,-0.011400107041525618,0.17927502602617557,0.8515906735930057,2,left
2.075,0.2887333825918805,0.9358057634370311,-0.11364043433898507,-0.9716632967648313,0.33089060201828446,-0.9132647644937006,-0.013385933260476216,0.15903538388495353,0.8328589280092855,2,left
2.079,0.2884212319187729,0.9352346808430834,-0.11643868001300983,-0.9723165915129686,0.3311051063508267,-0.9136347281278662,-0.021713749335544687,0.07406370282973984,0.754241139962937,2,left
2.08,0.287822706281628,0.933703046134357,-0.12117732374469187,-1.0143664377414865,0.34708795303474466,-0.9394401260709461,-0.0237008936466779,0.05382764808986245,0.7355088809258974,2,left
2.08,0.28438313753790445,0.9358042728224719,-0.12797158320766244,-0.9109146990772649,0.3078257030948302,-0.87600757286927,-0.022193940777191522,0.06916833175990035,0.7497106398771346,2,left
2.085,0.27723208292952384,0.9419341344572905,-0.133242824600944,-1.0824889444234462,0.37291388214974275,-0.9811836354951438,-0.023102799707484384,0.05991622027381938,0.7411455101073998,2,left
2.086,0.2716555197588779,0.9457909151362864,-0.1359408285536179,-0.856161380983965,0.28706812267039583,-0.84245735426611,-0.022734034276131992,0.0636832523959045,0.7446299030594223,2,left
2.09,0.26970520637810813,0.9469151921096752,-0.13533870868126097,0.09385935570387668,-0.073268857394573,-0.26014120354009274,-0.022725627119632275,0.06372766421010549,0.7446801165103086,2,left
2.0909999999999997,0.2624917552611691,0.9516317342344841,-0.136631639534365,0.3201963053772082,-0.15911152407731016,-0.12141993174154246,-0.022925553166799784,0.06177095093269911,0.7428514616759955,2,left
2.0909999999999997,0.2525936387729183,0.9595056653029023,-0.14254730985577607,0.14859905904329845,-0.09402995841325765,-0.22658889542360117,-0.022684956006091272,0.0641113187943654,0.7450418735735971,2,left
2.094,0.24501226836067444,0.9663328011970793,-0.1471289715443704,0.252092435228508,-0.13328190853781327,-0.1631602281488344,-0.02287402128368335,0.06229369454161696,0.74333583252443,2,left
2.095,0.2371422470442141,0.9705800813010751,-0.14663544715176519,0.20998247219877406,-0.11731182005023205,-0.18897134354329675,-0.022773026464019477,0.06327657603592354,0.7442555978980201,2,left
2.1,0.23155347203668197,0.9725475424946552,-0.14405135445896547,0.20939586164055557,-0.11708580310732508,-0.18932081410840867,-0.022788161200184745,0.06302868343170667,0.7440466024755934,2,left
2.101,0.22751476106370888,0.9749686169527596,-0.14252951814833037,0.2314562060342978,-0.12545982369593434,-0.17582027134654207,-0.022836828342725962,0.0628324683747959,0.7437996509569677,2,left
2.103,0.22173764800981022,0.9755062548602922,-0.1435991671326814,0.20503672939529372,-0.11542940759638015,-0.19198448703674054,-0.02275285097319253,0.06317276074365055,0.7442269673888195,2,left
2.104,0.21589026683989807,0.9729948489826519,-0.14568265242933592,0.2256051391615996,-0.1232406801349937,-0.1794059287148968,-0.022842942334925856,0.06288680564127033,0.743824529166272,2,left
2.109,0.20921309610681219,0.9720363811765743,-0.1439157780555227,0.21451049292907498,-0.1190284444244906,-0.18619392813369956,-0.022776455280474523,0.0630605700820415,0.7440951461809256,2,left
2.11,0.2018425650089398,0.9712200205726262,-0.13760484236283402,0.2170763013562108,-0.11999237370881131,-0.18459759794713007,-0.022788417006512938,0.0629341751116423,0.743979161424495,2,left
2.114,0.1966343075547652,0.9697057205906372,-0.1301563989075494,0.21993227643636257,-0.12110492373384382,-0.18292345726624099,-0.022859545767746924,0.06314401332730343,0.7439696318420745,2,left
2.114,0.19268934272711316,0.9695037990553604,-0.12109979839677867,0.21498851041194858,-0.1191793465985867,-0.18582218009009022,-0.02269022971531299,0.06273344190853287,0.7440552083905569,2,left
