time,gFx,gFy,gFz,ax,ay,az,wx,wy,wz,subject_number,foot
11.999,0.14501785741762985,1.974220050062616,0.09792337538754174,7.224387677265657,5.292801163720879,0.9770719796282806,0.14319008046136875,-1.8883501024092795,1.8071171367984828,3,left
12.001,0.3067675900881057,1.7122823037571013,0.27659600987805577,5.961419114737846,4.9286860762848175,1.5066473773809288,0.13600833059396328,-1.707953257803079,1.5895046625092926,3,left
12.004000000000001,0.3210864517647134,1.6813144530776494,0.28686223054160137,0.6599811430055527,3.400666862436875,3.7290178583349185,0.14035606883726726,-1.8167884655797004,1.7207186568361834,3,left
12.005,0.4447693721206668,1.477177661027882,0.39093930862183407,-0.6029945726258251,3.036344723622318,4.258716078446872,0.13856087235716794,-1.7724465793503206,1.6673752782936866,3,left
12.005,0.591880569810709,1.227828766636307,0.48953141551626117,0.35453974137423777,3.3125631549139682,3.857129389106673,0.13858043997182598,-1.7719261964551407,1.6665521777721157,3,left
12.009,0.6797026093732075,1.0741457428083359,0.534150638845472,-0.2229955499830422,3.146048227212631,4.099225027821348,0.13946178371898144,-1.7950342143304931,1.6946136668185354,3,left
12.01,0.7659225338228022,0.902706621422364,0.6165259066391846,0.012047489218807605,3.213583034675671,4.001017114492261,0.13837307184757577,-1.7672731510332125,1.6610462403154589,3,left
12.014000000000001,0.8047389719071124,0.7727817218570748,0.6758479622430085,0.015231747579617844,3.2150065321695656,3.998989265997219,0.13927010815263063,-1.7890192108138416,1.687128044369837,3,left
12.015,0.8120460922735013,0.6560749020715195,0.7219486215873374,-0.10778409557600495,3.1788250527571065,4.051535495154882,0.13869278586438394,-1.7770508224626482,1.673174685633799,3,left
12.017999999999999,0.7874100837533871,0.551697454869426,0.757328962954152,0.039612352189195885,3.222025044560829,3.9887835324494314,0.1389922345886868,-1.7802201559635806,1.67616662223554,3,left
12.019,0.7206339747592065,0.4861194136326441,0.7721997170003516,-0.07525130368974381,3.188602548680574,4.037350623147773,0.13887873538313888,-1.7827008071629522,1.680176835023211,3,left
12.024000000000001,0.6253324407132915,0.4462336500817639,0.7765128361795997,-0.013088180202826732,3.205943578026714,4.012098158460118,0.13885402857021162,-1.7778334912738745,1.6734950513134543,3,left
12.025,0.49986082947897603,0.444292484977342,0.7530120299815585,-0.027821454915904854,3.203580445915337,4.015670085507471,0.139055668780535,-1.782863521673594,1.6795555729118292,3,left
12.029000000000002,0.36188879109959526,0.4646199974437466,0.6998722182989046,-0.04327148296116249,3.1958790612303463,4.0266316681365835,0.1385722396542136,-1.7785855128158166,1.6758968505019456,3,left
12.029000000000002,0.230528069105039,0.4987729785020703,0.6073336958530942,-0.016037235745925936,3.207713745650929,4.009713850490645,0.139429230666493,-1.7821370798244793,1.676749870448587,3,left
12.034,0.12430122590676969,0.5346395795668464,0.4684943360001098,-0.041755108568015696,3.1971251323573293,4.024879129920595,0.13823805367123654,-1.7790313972918035,1.6781213606672685,3,left
12.035,0.05875430579886381,0.5567725268334119,0.29232961784572054,-0.023864157136577,3.2022549917880436,4.017417920672379,0.13947593887623766,-1.7815392548486237,1.6756917118442436,3,left
12.038,0.039760039594941315,0.564443906368447,0.09193589113274604,-0.03346775495445157,3.2053730884111196,4.013311690746491,0.138782031114,-1.780629354217846,1.6777448178276073,3,left
12.039000000000001,0.07220414555239123,0.560215226868265,-0.10887551909616024,-0.02936718381360661,3.1931038107159493,4.030175925456906,0.1381175837060472,-1.7781687502325279,1.6774956937856356,3,left
12.043,0.1462864824269139,0.5514631892826215,-0.2929952959756915,-0.03120907148689691,3.2126377288487222,4.003226630535673,0.14090326439159434,-1.7858439783152744,1.6748610280091074,3,left
12.044,0.25200127631432245,0.5434059743857873,-0.4551427781765046,-0.03004348848005034,3.19158716734095,4.032287840570914,0.1357659970769196,-1.7723426253574706,1.680627644568646,3,left
12.047,0.3892794357296061,0.5525024132323157,-0.5933979229337061,-0.029456588536713832,3.204108550249667,4.01497069817295,0.14235225589810324,-1.7894128098450839,1.6729047912001604,3,left
12.048,0.5327444607019026,0.585827716593551,-0.7034802807739522,-0.035187650698033486,3.2131194625885624,4.0026491408005445,0.1368578049196107,-1.7752779128661722,1.6794881555750758,3,left
12.052,0.6855388311800626,0.6424207607844012,-0.7877645849353256,-0.020319826229247617,3.170771288561318,4.060838012781181,0.1370005037903287,-1.7754775122789557,1.6790987812636131,3,left
12.052999999999999,0.8431633174972778,0.7122246114183743,-0.8590546847853795,-0.04604362991856803,3.249825662026362,3.952158774013318,0.14749351371248876,-1.8029134979907653,1.6671061687158617,3,left
12.057,0.988199075996935,0.7848629273971433,-0.9081340695868978,-0.013434806806581743,3.14820789226997,4.091877604742622,0.12171123071771787,-1.73575073488084,1.696890729280927,3,left
12.058,1.167531434347211,0.8760225627293042,-0.9257130917963051,-0.04047811636612034,3.2330760477067724,3.9751684080199374,0.16445692609855078,-1.8469979797115252,1.6473865463403303,3,left
12.062999999999999,1.2916031556344194,0.9365103054239653,-0.9233671407811985,-0.040416935866535074,3.2306295700063545,3.9785846102199613,0.10807569771725414,-1.7003157488803682,1.7127306489251757,3,left
12.064,1.323459478731813,0.9502420379042168,-0.9161862713203506,0.013322679224495426,3.0693257540875227,4.200270857476442,-0.12857505723704377,-1.0842742486238541,1.9867648882411149,3,left
12.065,1.4341226107658316,0.9969881259407237,-0.8939962392523912,-0.11794558237488367,3.465934731176308,3.6551004453961657,-0.18495816602650159,-0.9376285876526866,2.052128679048604,3,left
12.068,1.577596847385459,1.0518842092117748,-0.8220648944643503,0.09945849762500425,2.8083426494012222,4.559080147956228,-0.14221122603716574,-1.04881647499239,2.002579326004163,3,left
12.068,1.630319331587398,1.0682125295351117,-0.7624638578981497,-0.18722445174679506,3.6756402707021767,3.366750667345327,-0.16798993751537217,-0.9817087649116426,2.032440328683272,3,left
12.072000000000001,1.6459722781064228,1.073399753469837,-0.7442130435643111,-1.3917914483644134,7.316214725179749,-1.6377758251385073,-0.1575094439603667,-1.0091314747306543,2.0203440797173196,3,left
12.073,1.656606376397423,1.0715172463855027,-0.6677780454955939,-1.678407224745062,8.183317168600706,-2.8300188716836674,-0.1573436677995118,-1.009263090588349,2.0200612527682136,3,left
12.073,1.6312283681941722,1.056846384576838,-0.5589328810000678,-1.461147605678042,7.526018798350771,-1.926157733452172,-0.1628681219743463,-0.9953029658082008,2.0265850724881402,3,left
12.077,1.556939115856356,1.0297893630058335,-0.4803249127537391,-1.5921892476455888,7.922415725085911,-2.47127499093119,-0.1562558396216994,-1.0121025619399373,2.0188050695901274,3,left
12.077,1.4539374270363314,0.998150222647225,-0.4134178478941966,-1.538732738568397,7.761014176031531,-2.2494614501220473,-0.16139718001804038,-0.9988972554585266,2.024812576094062,3,left
12.082,1.3361086608822703,0.9723536480863721,-0.3675160002731862,-1.5384126101420943,7.759180653495887,-2.2464413310822136,-0.15865033420973337,-1.0063917085616305,2.0217287382263254,3,left
12.083,1.2153196807610818,0.9517279967331816,-0.3313782727189304,-1.5655468227910352,7.842847562775342,-2.362484790973986,-0.15921804971805284,-1.0038026860756162,2.0220693468404676,3,left
12.087,1.1095446457141367,0.9387197125663512,-0.28926018972732326,-1.5331977137223747,7.742828704224853,-2.2235511056005124,-0.1600625265620601,-1.0035175616018464,2.0235929564399093,3,left
12.088,1.0169992307714795,0.9356323467122346,-0.24880863622637187,-1.5581590464008772,7.8204452975509495,-2.3316646157150562,-0.15865695892419132,-1.0048301116088214,2.0212962898949005,3,left
12.092,0.9296941067546743,0.94576004724148,-0.21134008227098483,-1.544566971086462,7.778447493860427,-2.2733245086413723,-0.15995626530678986,-1.003317700222408,2.0233339953572256,3,left
12.093,0.840061228823618,0.967760247116286,-0.18308643366325472,-1.5487667452305645,7.789294393826227,-2.2870328870148366,-0.15915907620525213,-1.00540920234162,2.022414952980784,3,left
12.095999999999998,0.7422336881334248,0.9966813882639763,-0.16369218913098127,-1.5493548668329291,7.796969530900414,-2.30144982508875,-0.15930684567876358,-1.0015570919839307,2.0215994000306132,3,left
12.097000000000001,0.6367252875011299,1.0355880156793522,-0.15059845402133265,-1.548300970691519,7.783653100646999,-2.276490048907939,-0.15976562213587164,-1.0082867247222138,2.024385944890204,3,left
12.102,0.5256556199935705,1.0788983529833072,-0.14358471011942592,-1.5477334069839244,7.794352854855699,-2.2993598048550803,-0.15889048656809546,-0.9987442897457037,2.0200080074718585,3,left
12.103,0.4103336764194523,1.1187926915560624,-0.14031492658300476,-1.5489517635581809,7.78814555216083,-2.2843226807717616,-0.1598588698726364,-1.0088238022732836,2.0247161015492967,3,left
12.107999999999999,0.2920949181280692,1.1567719484989263,-0.1378361912458433,-1.5507776764787433,7.79357292170397,-2.2917253244673628,-0.15924332176356099,-1.0031464761909161,2.0219306707107005,3,left
12.107999999999999,0.17507255085174597,1.1883104047248607,-0.13334751385236004,-1.5409706812877464,7.782282467289077,-2.2882717049271877,-0.15899034896913028,-0.9975274908621938,2.0198519852349017,3,left
12.113,0.06394176635659737,1.2106469624548208,-0.12762307490539876,-1.562401663526176,7.805128199697616,-2.292101886170823,-0.16055180463110746,-1.0209312101975785,2.0294771606079527,3,left
12.114,-0.040303692545829106,1.222845580840868,-0.12068528493425566,-1.5302053874901245,7.770360701957227,-2.2854440395313373,-0.15757421593430998,-0.9777440611292104,2.0115317532389367,3,left
12.116,-0.13562627784859074,1.2196729787694995,-0.11408252301686023,-1.5648270000280577,7.80833359234397,-2.2937935633607514,-0.16141575072344655,-1.033148936836362,2.034596196841164,3,left
12.117,-0.22142219518122844,1.2068839019796616,-0.11021583552118971,-1.5448277860508823,7.786403885989933,-2.288982878667155,-0.15820157201889315,-0.9869159313360694,2.0153316710565092,3,left
12.120999999999999,-0.2960497051911387,1.1807093546436105,-0.10899089769966691,-1.5269142556937574,7.765476046689863,-2.2820579810794417,-0.15831627162991524,-0.9880873582357221,2.015887586258006,3,left
12.123,-0.3564134642552541,1.1429918198788087,-0.11130943115963463,-1.6044354597679626,7.854442909080752,-2.3087676915119344,-0.16435341027876685,-1.0765020468764486,2.052509073971888,3,left
12.126,-0.40536437263555847,1.1048020389845616,-0.11648345651650684,-1.4607196213768026,7.689586528791566,-2.25941385116219,-0.1494829208428945,-0.8592879026401279,1.962456322553265,3,left
12.127,-0.4349950461813764,1.051035477689927,-0.12102350035642745,-1.64530837208396,7.901434298707992,-2.323016147232697,-0.17414635440825998,-1.2194091304054109,2.1117796430523383,3,left
12.132,-0.4458320602760174,1.0130305476266688,-0.12318429998123746,-1.4911862455259226,7.724501920106457,-2.2698140686483765,-0.14161565808117646,-0.7444182432358489,1.9148209217949548,3,left
12.133,-0.4472500069472326,1.0044655647935823,-0.12486676449736427,-1.4952711053068142,7.729066581368228,-2.2709589905181433,-0.005083267800260166,1.249614877513002,1.088177645758194,3,left
12.134,-0.4407018306512277,0.9679605805023158,-0.1293606796741272,-1.7894908023152893,8.067376255693464,-2.3736580897863186,0.027444697163907267,1.7246209969517454,0.8912247520298509,3,left
12.135,-0.4235966088901859,0.9204397498104145,-0.13237788433589315,-1.0664197956811299,7.2360361530768795,-2.1214630116504054,0.0027810111447341152,1.3644635749211398,1.0405363000057628,3,left
12.136,-0.3770582271459505,0.8933269638017773,-0.1227095750152389,-2.2652883042193652,8.6144363631858,-2.539631929499914,0.017663985957402057,1.5817412784971474,0.9505005166898978,3,left
12.14,-0.3378263868133815,0.8777339991994637,-0.11046237490373446,-0.683985889370632,6.79629294892122,-1.9880000910750109,0.011593622075468183,1.493237300796463,0.9871029936064526,3,left
12.140999999999998,-0.3254062071540317,0.8752882109701374,-0.10597131935404133,5.954177128115786,-0.8362691989288913,0.3283683668585421,0.011534762960191756,1.4921618195152448,0.9876731406073467,3,left
12.142000000000001,-0.2723960274548761,0.8731069205617228,-0.0926387051550449,7.535524315002681,-2.6545090634207744,0.8801196313113187,0.014681405504897488,1.538334254014488,0.9684095634530454,3,left
12.148,-0.19302839982664077,0.8740167970547289,-0.07366581760924917,6.336533208108635,-1.2759146085491226,0.46174338920055646,0.010891474296352456,1.4828935199238624,0.9914463891463823,3,left
12.149000000000001,-0.12505657365741518,0.8840694207496267,-0.06316172188124321,7.059848460634379,-2.1075334218401105,0.7141660026471663,0.013875855334666379,1.5262747332765834,0.9735624295705874,3,left
12.15,-0.05138051625661086,0.8959341338062736,-0.055889550016941195,6.765247927049935,-1.7689134854309592,0.6113251108280244,0.012203129838697525,1.5024902878251132,0.9830971892789574,3,left
12.151,0.015412042588938113,0.914300302768388,-0.04921107151462193,6.761620717845567,-1.764577868001155,0.6101042095407467,0.012699341462741714,1.508627729216785,0.9811134080292868,3,left
12.155,0.0688168991650831,0.9379651041140737,-0.04454095819616491,6.915376302793847,-1.9415329365185379,0.6637203182259881,0.012961176096333557,1.5138136633426917,0.9782759253776425,3,left
12.155999999999999,0.11540946354716536,0.9608954699344703,-0.04633483680731846,6.730790765116219,-1.7292240150614182,0.5993246331751358,0.012357431581675004,1.5039103352951875,0.9829295090332089,3,left
12.159,0.1517891039712244,0.985413500037887,-0.05987436125439385,6.875177045732569,-1.8950937772103629,0.649728524556197,0.013045637009413517,1.5139501208907962,0.9787719227509273,3,left
12.16,0.17988961645626916,1.0117783296793625,-0.07693276100732771,6.79610501822658,-1.804646293789578,0.6220693019816712,0.012346256676589007,1.505756414721489,0.981153152131305,3,left
12.165999999999999,0.20306862706337886,1.0322108383148176,-0.09165648144243049,6.816350954947152,-1.827115236317859,0.6292473875982085,0.01309360583858659,1.5120549515567419,0.9808631578177232,3,left
12.167,0.22150570714469478,1.047994200441066,-0.11059621408427434,6.833843257609537,-1.8482222314247496,0.6352143259198997,0.012278359142685331,1.5070350339827268,0.9794814587554407,3,left
12.17,0.23564324574416443,1.0591329150246298,-0.1283143705447744,6.800692588838998,-1.809312892182117,0.6237548546298921,0.013037775961835571,1.5107849335530734,0.9816182921651144,3,left
12.172,0.24839259000118108,1.059527812095673,-0.14031243050798056,6.834115049013057,-1.8477341549436628,0.6354177753152006,0.012672527650971887,1.5096920267950846,0.9799383893051029,3,left
12.175999999999998,0.25471056132403946,1.0524332058774295,-0.15416531841712877,6.807172155698832,-1.818228633088922,0.6258186727057575,0.0121290050419764,1.5054115570930442,0.979874605807144,3,left
12.177,0.25342205754322666,1.0372351709288354,-0.16858161921832657,6.827374668258686,-1.8380914855395978,0.6333197611539838,0.01408584778031188,1.5179860008501165,0.9827077124441752,3,left
12.18,0.24739216993714272,1.0156877736955514,-0.17996493403564215,6.811806239705169,-1.8252114367214922,0.6272137309192045,0.010556548382418658,1.496121698201263,0.9768502127654016,3,left
12.181,0.22933395696840425,0.9932670595104359,-0.18500617390325652,6.8230701389506425,-1.8328119826806966,0.6318623684956826,0.015052395484488744,1.523672157703599,0.9845891264135052,3,left
12.185,0.20415835084097295,0.969166377722927,-0.18639149792812726,6.820138518065136,-1.832530397445835,0.6304236524964419,0.011314256959607522,1.50089309048267,0.9780361857892443,3,left
12.185,0.1711630641790105,0.949613197598594,-0.1894203980879558,6.806491486826149,-1.8195098085842416,0.625306127286736,0.011391950203830957,1.5011685548483982,0.9783556810235945,3,left
12.19,0.13267288196531468,0.9387967767398926,-0.18974216945678163,6.845700793713062,-1.852920457231497,0.6405495416359108,0.01858226686629961,1.545511033993208,0.9904729411055638,3,left
12.190999999999999,0.09725891821901828,0.932929803030298,-0.18497532383973814,6.777836349234622,-1.7965293875773092,0.6139704060740816,0.000943381168134169,1.4370156545404522,0.9604842491805569,3,left
12.196,0.043274108402208925,0.9338427658044101,-0.17441909524532562,6.863226611351415,-1.8669317044154097,0.647490628729644,0.0301765136196226,1.616720326223755,1.0102852055715112,3,left
12.197000000000001,0.00562892588787451,0.9364668103463089,-0.16515857222076066,6.792683530369086,-1.8090030056725042,0.61976274186815,-0.008376984284388411,1.3797574445467358,0.9445685661827415,3,left
12.199000000000002,-0.004590200816918693,0.9384904672636423,-0.16209031253963319,6.793439288103501,-1.8092675013144137,0.6201188860850348,-0.17022325610302325,0.3848426037760603,0.6688331103800753,3,left
12.200999999999999,-0.04862146716243961,0.9483568689368509,-0.15649265169831234,6.931014800641179,-1.9231938301472185,0.674039862603937,-0.20877526648516567,0.14788792760026379,0.6031066250940111,3,left
12.202,-0.10399404969958143,0.9595087731757943,-0.15168105313713534,6.594549081487882,-1.6450597941909972,0.542077717588843,-0.17954693369632385,0.3275464318424868,0.6529381262519629,3,left
12.204,-0.15924218335099624,0.9696493975112224,-0.15611087249868089,7.151778411657498,-2.1055109968230603,0.760664022090799,-0.19717513151480717,0.21917975673921214,0.6228830273608611,3,left
12.205,-0.2034777453445909,0.978108238422503,-0.1620237068296245,6.417046784917437,-1.4984313510448521,0.47242477560346335,-0.1900027723180885,0.2632793868230486,0.635110208614284,3,left
12.208,-0.2123812829008187,0.9796673303907021,-0.16483132072185616,3.331837026864662,1.0507315660715526,-0.7377238352126219,-0.18990200449637626,0.26389546072855513,0.6352902352649582,3,left
12.209000000000001,-0.24500309345097104,0.9876556516452395,-0.1737667277512835,2.5971869019384117,1.6577766037840254,-1.0259558071924688,-0.19366076715144248,0.24077366784071702,0.628859571846031,3,left
12.21,-0.2896935801558337,0.9986722111331725,-0.18557013214434723,3.1541964883289766,1.1975141190009544,-0.8074232918894149,-0.18915994674848818,0.2684834946795692,0.6365737692216371,3,left
12.213,-0.312591473925219,1.0017088601381507,-0.19148918594950945,2.8181632353979236,1.4751265787877315,-0.9392257852182262,-0.1926624899055161,0.24688823674401722,0.6305467205098525,3,left
12.214,-0.3357926105043358,1.0033607853216178,-0.19566882463087812,2.9550705360659277,1.3621806849556883,-0.8856140100438263,-0.19077651579647414,0.2585474421720395,0.6338163109636115,3,left
12.22,-0.346289653002515,1.0007496427028655,-0.19609000491463963,2.9566222230573684,1.3605446248106685,-0.884816586409682,-0.19120632300937834,0.25587607543551605,0.6330608836288785,3,left
12.220999999999998,-0.3439034478404467,0.9935747949654943,-0.18878760465338806,2.885451783081368,1.4198490462128346,-0.912997836650745,-0.19170246520864154,0.25277088550398075,0.6321671551773066,3,left
12.224,-0.3377851090715581,0.9848557559504232,-0.17652774316753073,2.9708249282413437,1.3488147879335066,-0.8792501729042335,-0.19085148309699773,0.2581828795643136,0.633769846582279,3,left
12.225,-0.323490126242802,0.973103448477171,-0.1610624314643944,2.9041597319714745,1.4041081089582683,-0.9055114597908692,-0.191636533673484,0.25304439786042787,0.6321705531916529,3,left
12.229000000000001,-0.3059757544132346,0.9630506961316875,-0.14801983117332157,2.9406374055298423,1.3743978852876793,-0.8914218798111535,-0.1911264952415601,0.2565638445993581,0.6333599296163538,3,left
12.23,-0.28436416307620976,0.9548230423119416,-0.13674905011543056,2.931064982610461,1.3809309508320906,-0.8944716195969427,-0.19133684180086685,0.25496433717390266,0.6327464868467847,3,left
12.232999999999999,-0.2576138065343765,0.9477147684184685,-0.11943873430878198,2.92379498233391,1.3893066167605677,-0.8985370220431936,-0.1913354177435877,0.2549705568237224,0.6327464609084992,3,left
12.234000000000002,-0.22857172535745582,0.9433900979818441,-0.10177002225344615,2.9375343309227566,1.3750482291209334,-0.8916590841142531,-0.1912596086338417,0.2560049260277258,0.6333490077379755,3,left
12.239,-0.19830566810381633,0.9416313810282522,-0.09097970241216902,2.924248904841169,1.3883419889449873,-0.8980567932262565,-0.19130020970755968,0.25445615100707775,0.6321983914320294,3,left
12.24,-0.16831615358511656,0.9430197730746168,-0.08518107522234611,2.934671454296591,1.3797513572765525,-0.8939788210449688,-0.19134890609420752,0.25609513079813007,0.6337285352583734,3,left
12.243,-0.13590766942897292,0.942687704617494,-0.08184496617226256,2.9259779958160514,1.3826343211120906,-0.8951885214915443,-0.19123312408830961,0.25474049636234436,0.632206296954275,3,left
12.243,-0.1008887653468988,0.941506949079201,-0.07777823193748437,2.9354629346389296,1.384623975896592,-0.8964965855760882,-0.19132042696935384,0.255397802179779,0.6330510311102472,3,left
12.248,-0.06559225448884973,0.945907825586406,-0.07608842776794257,2.9238000387020313,1.3796007365897869,-0.893569630117085,-0.19140421747292807,0.25591193099558285,0.6337647498732089,3,left
12.249,-0.02790534148793671,0.9507998535874219,-0.0768130443435188,2.9357698119858435,1.3853386073818663,-0.8968715895513275,-0.1910130256598294,0.25381230376470165,0.6306830924953876,3,left
12.253,0.01029067219540549,0.955017195435875,-0.07329679592353697,2.929584334103044,1.3814190205501862,-0.8946768315561084,-0.19176193989969376,0.2575619695834095,0.6363580275136946,3,left
12.254000000000001,0.04939213987788871,0.9610738125224503,-0.06905475779930438,2.9206325632239247,1.381032654307795,-0.8942057561269297,-0.19078407519153012,0.2528469614892783,0.6290988387880226,3,left
12.257,0.08610358245355013,0.9638423054747612,-0.06528331520145214,2.953885573779645,1.387621887873567,-0.8985932082932011,-0.1916075168011906,0.25673973681256596,0.6351470398663526,3,left
12.258,0.12082108980083009,0.9653741240635137,-0.05865045507060445,2.8932857299826864,1.3745179982940088,-0.8900368394522713,-0.19158626832357312,0.25662822715930683,0.6349817698022417,3,left
12.263,0.15663128156441314,0.9679539330923314,-0.053851126561839345,2.9708607754761474,1.391542312052735,-0.9011178257207737,-0.19000098588686926,0.2492979052061392,0.6234743201832926,3,left
12.264000000000001,0.1847876129179593,0.9707124040664614,-0.05252711239625024,2.9061914287015767,1.377249487191523,-0.8918287478650724,-0.19390127342360702,0.2672909107618012,0.6517513722527482,3,left
12.267000000000001,0.21473847769399496,0.9750498127019066,-0.05189768146744171,2.9075760202154424,1.37794380498493,-0.8922263992365853,-0.18743009196284244,0.23748419989654337,0.6048740507395561,3,left
12.267999999999999,0.2355185640768342,0.9764809168923321,-0.05218356582565546,3.032093941590171,1.4041881121580155,-0.909459019985198,-0.19596900150653945,0.276778582421666,0.6666996732345796,3,left
12.267999999999999,0.23873232089264054,0.9754454969528652,-0.05262476971321821,2.72646862952639,1.3393211469423179,-0.8669311188903671,-0.23182984675686147,0.4416269606042057,0.9262010682862584,3,left
12.272,0.2571534616437722,0.9767198142400252,-0.050784230979351724,3.2331082620101697,1.4469659751794153,-0.937488623950378,-0.2403732748472036,0.4809001094948606,0.9880241893728265,3,left
12.273,0.27283546768825073,0.9786928485472076,-0.04868076480183839,2.564848285492195,1.3049768223104392,-0.8444202277246624,-0.23389355332311326,0.45113165666417454,0.9411501063667866,3,left
12.277000000000001,0.2737166408318428,0.9790300051088938,-0.04837745614717405,-0.24062374471514458,0.7094105773339499,-0.4539741463931026,-0.23780491446589172,0.4690792612706031,0.9694263029245536,3,left
12.277999999999999,0.2858355326246441,0.9773096259661419,-0.04786890103037028,-0.9089663203278054,0.5674620295927753,-0.36092374504083885,-0.2362091860345687,0.461784345638204,0.9579137615988018,3,left
12.279000000000002,0.29618474090845825,0.9745804613888327,-0.052331884537826695,-0.4022205365327179,0.6750623583464123,-0.43146212847611687,-0.23619260114810453,0.4616712191495266,0.957762043399946,3,left
12.282,0.2985853977373421,0.9719144471982497,-0.062357341225947514,-0.7078713106158948,0.6101806940958929,-0.38892559122035464,-0.2370236170589131,0.4655066133799021,0.9637887340625181,3,left
12.282,0.3002437027825846,0.9696877514342513,-0.06647405194704485,-0.5835272636197275,0.6365665848651504,-0.4062253319661834,-0.23602039620485926,0.4609233195307293,0.9565535652679593,3,left
12.287,0.3003608129314755,0.9673308388325552,-0.06641739228896948,-0.5816866785361062,0.636953499878676,-0.40648026223492817,-0.23681333147479888,0.46447766183292427,0.9622133037302262,3,left
12.288,0.30010758192879927,0.9650173511422468,-0.06983059081928163,-0.6470753845074134,0.623103644234694,-0.39739445956363717,-0.2363676865806125,0.46258406408197583,0.9591221632431252,3,left
12.292,0.2960238107172389,0.9635670782670251,-0.07494476679907452,-0.5687021161590318,0.6396840849420871,-0.4082747224271983,-0.2364957516710277,0.46298349853343657,0.9598855777356798,3,left
12.292,0.2930976361749004,0.9616338757873948,-0.08026740682262856,-0.6297984558718728,0.6267768590284561,-0.3998018119588964,-0.23658120808541025,0.4635268250860318,0.9606338445870966,3,left
12.297,0.29251577105514137,0.9603487824747241,-0.08433801574997385,-0.5968804491820658,0.6337354056920226,-0.4043688864917592,-0.23638864533825632,0.4626428811552886,0.9592414465573054,3,left
12.297,0.29005482848710773,0.9600151993027692,-0.08342577762539821,-0.6041502389021778,0.6321390028866263,-0.4033316851344053,-0.23661663440683045,0.46341259071887225,0.9606510872890843,3,left
12.300999999999998,0.2893357635357512,0.9578596737267026,-0.07836527487206954,-0.6135760208805454,0.6303159254468982,-0.4021052975881789,-0.23638702068179873,0.4629929739164257,0.9595382741464668,3,left
12.302,0.2916049610305801,0.9550212318093473,-0.0760447852602037,-0.5972662930630181,0.6334685746879669,-0.4042263493203003,-0.2366020396693344,0.4630329415312076,0.9602757058932085,3,left
12.306,0.29440147354795976,0.9535597026815231,-0.07579940676574674,-0.612931760251664,0.6305247358881991,-0.4022296311333583,-0.2364289967449955,0.46324844535852416,0.9598960241735378,3,left
12.306,0.2933905083696329,0.9530748140636697,-0.07336478046027439,-0.6022338182242755,0.632490719871645,-0.40357185275286434,-0.23650031643870487,0.4629921607110914,0.9599079013405895,3,left
12.312000000000001,0.2904618026694946,0.9516008860024207,-0.07085980011779625,-0.6063635742234461,0.6316116597952348,-0.40299594693317176,-0.23662213314230143,0.4630487559589761,0.9603551348043102,3,left
12.312000000000001,0.2873812632181064,0.9498906885385356,-0.06736932383618519,-0.6086364349723815,0.6316950854951324,-0.40295174066018136,-0.23621638256788124,0.46338683154103577,0.9593202734689705,3,left
12.315999999999999,0.2793875154939767,0.9514587028529339,-0.06558525355817132,-0.6011648963336261,0.6319871273475774,-0.4033693746432977,-0.2369317208148502,0.4625891284421665,0.9609704896408044,3,left
12.317,0.2710747011652995,0.9547588206988831,-0.06862813166124415,-0.6117817126537703,0.6316642272263465,-0.40282017548241594,-0.23602965245321927,0.46368915096563873,0.9589709085139759,3,left
12.322000000000001,0.2649100324526854,0.9580458098023096,-0.07207519820785585,-0.601166568486307,0.6318591631695782,-0.4033078342922408,-0.23677573862749646,0.4627384673774376,0.9605891609555747,3,left
12.323,0.2571974669244713,0.964028069905077,-0.07568149826488896,-0.6073062153596036,0.6317451128132632,-0.4030250641792014,-0.23676154299758964,0.4627921016389856,0.9605897204742736,3,left
12.325999999999999,0.2497270308671129,0.9710265817149212,-0.07764531792239972,-0.611046113980438,0.6319769050837388,-0.40299792160493514,-0.2353278487381366,0.46455322395315624,0.9574217379787116,3,left
12.325999999999999,0.2426261691246156,0.9753912952872834,-0.07430522546091979,-0.5926719931910193,0.6313894217935165,-0.4033970424064133,-0.23884096959330037,0.46017463198305025,0.9651286728267702,3,left
12.331,0.23591221286110817,0.9800004880434995,-0.07028919515320814,-0.6268434522643183,0.6324580084984676,-0.4026429837344079,-0.23302110746294363,0.46745830649900055,0.9523883851087027,3,left
12.331,0.23209790798268828,0.9845198171453795,-0.06955581003955322,-0.5830986406373424,0.631058147335555,-0.4035932182723051,-0.24069512408219948,0.45783974166670827,0.9691739244435124,3,left
12.335999999999999,0.23139697233350562,0.9845453693436017,-0.06808068249831155,-0.6195542705243076,0.6322397470629827,-0.40280813228067025,-0.27290503844543046,0.4174614789773098,1.0396285770403952,3,left
12.337,0.22935595500719763,0.9850806427517443,-0.06478452812240218,-0.6184177825615179,0.6322415430093113,-0.4028521324564789,-0.2805782404666421,0.4078374645842905,1.0564034491115888,3,left
12.338,0.22589771452654173,0.9886277155054624,-0.06304071011982118,-0.5495686118947117,0.6298425461152228,-0.40425198673745966,-0.2747605642005856,0.41513385158837984,1.0436864389293197,3,left
12.341,0.22545639262379474,0.9887316147301668,-0.06398697671069069,-0.7188882502674463,0.6357146020494888,-0.4007941571229795,-0.2782693995929385,0.41073335809051853,1.0513561930964568,3,left
12.342,0.22420739548355798,0.9874098980457376,-0.0699545374369684,-0.4381790389734183,0.6259745784740369,-0.4065256341848587,-0.2768423078352548,0.4125246979608475,1.048235628355982,3,left
12.345999999999998,0.2216650529371781,0.9887824015305755,-0.07443024931374254,-0.8083787811164695,0.6388311770089594,-0.3989715189016113,-0.2768202698825529,0.41254656766874764,1.0481914153071688,3,left
12.347000000000001,0.2218602163555502,0.9900767792527887,-0.07488931646232477,-2.3622378411699247,0.6928651436204478,-0.3673260227894545,-0.2775725056689055,0.41161480679602713,1.0498280267718203,3,left
12.347999999999999,0.22061050218943676,0.9911059192533157,-0.07937882004209484,-2.7323871256182573,0.7057345634050469,-0.3597809714385105,-0.27667067683359836,0.4127292366139784,1.0478674141365212,3,left
12.350999999999999,0.21851595069622626,0.9932865839328248,-0.08036319257381402,-2.4517193915935045,0.6959762013746446,-0.36549743808394386,-0.27737409632890575,0.4118635761914166,1.0493945101048034,3,left
12.352,0.22055010346240303,0.9972274131903756,-0.07684107332927316,-2.621106245638339,0.7018588025798902,-0.3620543108118458,-0.27699536379199563,0.41233153831699676,1.048571129883013,3,left
12.356,0.2211320323637162,1.002264672639424,-0.07432744496847146,-2.5519802210676112,0.6994732029403865,-0.36344869499349153,-0.2770769879039898,0.41221449127300497,1.0487585491900333,3,left
12.356,0.22089064753215792,1.0072386816802692,-0.06858781150089807,-2.5513754430857114,0.6994243826570496,-0.3634790785626215,-0.2771909622699814,0.4121184170827725,1.0489788048275115,3,left
12.36,0.22579031517606063,1.0142419995454053,-0.06607304929508276,-2.587119924637416,0.7006960022288897,-0.3627338410563239,-0.2769938344020154,0.4122849659568673,1.0485976132689845,3,left
12.360999999999999,0.2283789543663369,1.0205237676838954,-0.06847934383648824,-2.544019303364939,0.6991847061170489,-0.36361900583507123,-0.27718580016646277,0.41214322596631914,1.0489562510843276,3,left
12.366,0.23010986899601218,1.022346678791136,-0.06946496509869657,-2.578031570569371,0.7003418488616157,-0.36294017210136564,-0.27705331984866877,0.4122304254672067,1.0487152715355124,3,left
12.366,0.23611574155011958,1.0250350317467558,-0.07005814364126954,-2.558830645705533,0.6997567880876829,-0.3632865234455065,-0.2771006531046448,0.4121703575912803,1.048819162419786,3,left
12.37,0.23843419449234945,1.0307613235832638,-0.0721139023144608,-2.5647630746216628,0.6998203384872262,-0.36324246590886805,-0.2771446645062898,0.41226171768662423,1.0488251920351406,3,left
12.370999999999999,0.2409936140136107,1.0347356996917272,-0.07643435207945146,-2.5673923225464526,0.7000872350457018,-0.36309493176031044,-0.27701791734570164,0.41208571100035396,1.0487542276383497,3,left
12.376,0.24965737634021207,1.035497118773673,-0.08530408631901333,-2.5608010631774816,0.6997179923220115,-0.36330397906461465,-0.27720094977841064,0.4123559282029481,1.048846847652633,3,left
12.376,0.2556856048917523,1.0367160154830681,-0.10153676035886922,-2.5686350195791654,0.6999892105755314,-0.36314514300028555,-0.2770138632958564,0.4120577266887326,1.0487656906130085,3,left
12.379000000000001,0.2576814933879842,1.0387443446497513,-0.11939918228643112,-2.560158856634761,0.6999544365408639,-0.36317902282487946,-0.2771220969548612,0.41222997640101955,1.0488128332168816,3,left
12.380999999999998,0.2617286587305946,1.0377217468528135,-0.13113328942793606,-2.569845864282552,0.6996969642250047,-0.36329863792575257,-0.27719737215104034,0.4124007045199176,1.0488142141179613,3,left
12.385,0.26391630147200784,1.0349638348430943,-0.13459732932121826,-2.558804842132771,0.7001998409875099,-0.3630509035245588,-0.27684447442323,0.41168216898728305,1.048757194995508,3,left
12.385,0.2605530776104429,1.0314276913140197,-0.12930911456801514,-2.5693267614507107,0.6996201813134808,-0.3633402286240753,-0.27750021057739716,0.41301341326808527,1.048865619288645,3,left
12.392000000000001,0.2557673557619503,1.023985138152912,-0.1185142909238529,-2.56408442279511,0.6999844710288083,-0.3631562825001001,-0.2766595649030229,0.4113020154306074,1.0487294749693443,3,left
12.392999999999999,0.25004679744619107,1.013803064400194,-0.10489226761708528,-2.556962228819822,0.7002072482492088,-0.3630498966681596,-0.27736089107929573,0.41273184799660445,1.0488418919088924,3,left
12.394,0.24246546459322066,1.0039056372125512,-0.0957019880236726,-2.58332945912976,0.6990636946088836,-0.36361152640101646,-0.2773395986635075,0.4126949909783281,1.048834210081454,3,left
12.395,0.23473765325111162,0.9942944485278143,-0.09424815888565108,-2.5355664647690475,0.7012245615507838,-0.362547603309861,-0.2760113459378203,0.40995974618941455,1.0486386328841921,3,left
12.4,0.22760203437750176,0.9845892569103951,-0.09677588086199354,-2.5964865236779375,0.6984350047553349,-0.36392135160245404,-0.27927834991972456,0.4166819270911647,1.0491235575403715,3,left
12.401,0.21965741398613697,0.9768507142718984,-0.10842612510816721,-2.545801913488406,0.7007708496252432,-0.3627719674250345,-0.273860913067953,0.40553520886491534,1.048318923015092,3,left
12.404000000000002,0.21395094817466298,0.9733738896807423,-0.11979778850405165,-2.546903532619793,0.7006961492601067,-0.3628062121476893,-0.2810068646528593,0.4202392144699204,1.0493802761223612,3,left
12.405999999999999,0.21287427206169432,0.9726550445484807,-0.12242298426955586,-2.6442665001169514,0.6962720275809003,-0.3649888363720059,-0.3109927097032613,0.4819598598294135,1.0538193650744825,3,left
12.405999999999999,0.2104168558420666,0.9749472029124552,-0.1239432584782844,-2.405353664281459,0.7071639940118035,-0.35962113514894545,-0.31814019401897287,0.4966671988594859,1.0548820102209373,3,left
12.409,0.20858318416823768,0.9810146139264786,-0.11829165086361643,-2.80132990189505,0.6890958072264282,-0.3685201283854299,-0.3127203612688859,0.4855152699485873,1.054075356036786,3,left
12.409,0.20902270872113426,0.9843938534615302,-0.11070659238882345,-2.2790997081416995,0.7129337372002813,-0.3567856841421098,-0.31598934707860143,0.49224176105180867,1.0545619513027993,3,left
12.414000000000001,0.2098077417981474,0.9847787473569202,-0.11052497955987062,-0.08679427300751064,0.8129631764384344,-0.30751121199072207,-0.3146612091564484,0.4895067658007536,1.0543664708863836,3,left
12.415,0.21711735636675883,0.9897014631509082,-0.11322099398633391,0.4354075863722706,0.8368124521328848,-0.2957878092257181,-0.31463607151489054,0.4894615462877002,1.0543555476582358,3,left
12.415999999999999,0.22826867597977096,0.9988550452240668,-0.12145610026101195,0.03950214175307944,0.8187256078025595,-0.304670081855556,-0.3153457918290331,0.49090963443186036,1.054475040575047,3,left
12.418,0.23954534919578563,1.0070520745062634,-0.13071517736616034,0.27828447054926664,0.8296355114907357,-0.29931474832594407,-0.3144931886799385,0.48917223127975273,1.054328816512094,3,left
12.419,0.2516122340819701,1.013180723514148,-0.13326321089781473,0.18111290416728987,0.8252055039883244,-0.3015021351367262,-0.315160767227512,0.49052923083816863,1.0544472235298046,3,left
12.425,0.26122720914677533,1.0184327285148194,-0.12850722623918365,0.17979526355456923,0.8251123329088106,-0.30150284096337004,-0.31480273765254707,0.4897995339192085,1.054385878456825,3,left
12.425999999999998,0.27012443548244147,1.0208337305430597,-0.12179888280552706,0.2306328422143192,0.8274995885954433,-0.3004201929700734,-0.31486805237950743,0.48994860067978907,1.0543788629894024,3,left
12.427999999999999,0.2771712365796023,1.0193906828010324,-0.12084602209560985,0.16975627186008863,0.8246276990996355,-0.30170419114758856,-0.3150084853129829,0.49019087702551245,1.0544531485185433,3,left
12.429,0.27914772913485186,1.0162146474706142,-0.12258955344343023,0.21713687959035965,0.8268819163550907,-0.30072225392204394,-0.31476591764661904,0.4897720145915817,1.0543252227131603,3,left
12.433,0.28033984645047005,1.0098395595076841,-0.12642285200844933,0.19157018557282818,0.8256758143386471,-0.3012612656236689,-0.31501702454203984,0.4901902818115708,1.0544752271584321,3,left
12.435,0.2818543708943396,0.9982576554741436,-0.1326920143346822,0.19755507846592565,0.8258708540385329,-0.30105625344152875,-0.31483601149068563,0.48989625458200403,1.0543585185495037,3,left
12.437999999999999,0.27608518575137536,0.9867780466083256,-0.13771911920009933,0.20393872839849153,0.8264130510118827,-0.3011395795429086,-0.3148795528756306,0.48998659658380606,1.0543641517982518,3,left
12.439,0.26043125409491663,0.9786578876336118,-0.1452490377462606,0.19288515906887554,0.8254769051212804,-0.30099755992517474,-0.3150275315376859,0.4901454083949046,1.0545528835459788,3,left
12.444,0.24258204075516343,0.9705625875597188,-0.1560268427846464,0.2030517344787452,0.8264703241227856,-0.301248029142835,-0.31466503640263666,0.4897323735880656,1.0541180091257663,3,left
12.445,0.223706857881962,0.9666002471554432,-0.1658240541092186,0.1963458805222803,0.8257423153607537,-0.30101694862156014,-0.3152001445369937,0.49033690168152877,1.0547659043999795,3,left
12.448,0.2008819379328402,0.9696190053734711,-0.17272144458800037,0.1995874102932934,0.8258865578320644,-0.3009408129394734,-0.3146372212972657,0.4897079120703184,1.054076359844881,3,left
12.449000000000002,0.17884136338557433,0.9763407737836692,-0.1774231695495142,0.198296138163509,0.8266103049149589,-0.30167789597419703,-0.3149625502368839,0.4900715004355502,1.0544747799661605,3,left
12.453,0.1587552399565072,0.987919297187951,-0.18093914754046544,0.19946755006691594,0.8248750620912808,-0.30003327358744825,-0.315226369569166,0.4903506899256058,1.0548157838539636,3,left
12.453,0.14119968310576075,1.0023340089725594,-0.17731194265491906,0.197306460671273,0.8274449165812334,-0.30249618461655364,-0.3140502756642396,0.48908452700334637,1.053320255497348,3,left
12.459000000000001,0.12909373835867705,1.0155521790011632,-0.16200333005845788,0.20015906025288022,0.8247303444628529,-0.2998581587832526,-0.31623239639587397,0.4914348254829824,1.056093844232771,3,left
12.46,0.11850431247012483,1.028671999109271,-0.1413188855523322,0.19851597211909047,0.8262992688645809,-0.30138261310844144,-0.31343186919058774,0.4884197829804083,1.0525326991647277,3,left
12.463,0.10853812929952429,1.0426374109708845,-0.12362878779177322,0.19588553756341387,0.8275956232000286,-0.30272299830113153,-0.315769170746563,0.4909355838483648,1.0555054546652516,3,left
12.464,0.0963462025490974,1.0520842538591348,-0.11304308228097626,0.20582782133432725,0.8218490876805914,-0.29688998584988924,-0.3157044203676148,0.490863901363471,1.0554252609696688,3,left
12.47,0.07961399004717326,1.0573086179875122,-0.10957886291594147,0.1874659561453772,0.8325101717479303,-0.3077065461004474,-0.31125438561149465,0.4860821329924642,1.0497564125240313,3,left
12.470999999999998,0.0651408002462986,1.0619924360612738,-0.1109915843033436,0.21114659839102234,0.8188249006210337,-0.29381431672679836,-0.3221930178879675,0.49783779512193554,1.0636893166547763,3,left
12.472000000000001,0.05049806675894743,1.0606736311008744,-0.11225467739142209,0.19132745162407083,0.8302487635315043,-0.30541476569604487,-0.30405627735346763,0.4783467552428254,1.0405875978494055,3,left
12.472999999999999,0.03983384728592092,1.0577761756372772,-0.10908783022466573,0.19174406022082124,0.8299317557571703,-0.3051000853021646,-0.327978953796905,0.5040542073219715,1.0710605225782897,3,left
12.472999999999999,0.037358452634179765,1.056482068261586,-0.10655691417143068,0.23006114511732173,0.808178480733134,-0.2829768500057045,-0.4284194944186307,0.6119465252483323,1.1990356223964982,3,left
12.478,0.031026557653745353,1.0504732080853487,-0.10162684053139323,0.1359635404300445,0.8616535745344677,-0.3373577780338832,-0.4523488998405102,0.637651111564564,1.2295249769089223,3,left
12.479000000000001,0.025214777637379816,1.0431708696673399,-0.084702452871288,0.29200177000091937,0.7729873320128803,-0.24718687955502855,-0.4341971007611661,0.6181654577076787,1.2063874377775745,3,left
12.482000000000001,0.024549526393901216,1.0385249616227978,-0.07254420725435329,0.086148589079418,0.8899381120091978,-0.36612602650837456,-0.44516051485249375,0.6299142039359538,1.2203774949154518,3,left
12.482999999999999,0.024079549629563414,1.0373678623921936,-0.06924112831840955,-0.778035407937383,1.3807626737566674,-0.8652739377198841,-0.44067783084317674,0.625138839639136,1.2146358461170426,3,left
12.482999999999999,0.02743425583522557,1.036437442233618,-0.05283932886401226,-0.9839307633497684,1.4977089363370837,-0.9842103251121392,-0.44064538510779766,0.6250645271283422,1.2146242660799254,3,left
12.487,0.03213257642509811,1.0353832100126499,-0.03449354248198058,-0.8278476582611278,1.4090564711601279,-0.894055232715191,-0.4429667460186729,0.6275751728933294,1.2175691155435144,3,left
12.487,0.03486509397248283,1.0410057526314407,-0.02761567501943677,-0.9219252357232521,1.462501935963087,-0.9483918860243228,-0.44014414990088624,0.6245764130209144,1.2139477373514103,3,left
12.492,0.03763149908302217,1.05040509673521,-0.02113645397609249,-0.8837650205186534,1.4407973637941511,-0.9263523646762737,-0.44240624674191187,0.6268989825725576,1.2169107600920879,3,left
12.493,0.0423288160305665,1.0593548428995667,-0.013866284947880003,-0.8830145666498734,1.4404189330742008,-0.9259201053329675,-0.4410867689359026,0.6256665420543077,1.215090355718102,3,left
12.497,0.050785415020848844,1.0705386109470423,-0.005510738171942366,-0.9033094369954886,1.4518961434960018,-0.9376390668156043,-0.4415331695894596,0.6259191742415076,1.215829938109267,3,left
12.497,0.0618156580393148,1.0827984215742572,0.005215138813609519,-0.8791587426540025,1.4382011187852861,-0.9236913678616501,-0.44170249542354073,0.6262819250785403,1.2159095001073206,3,left
12.502,0.07395956875585726,1.0936548881246348,0.0133195708694883,-0.8977166253809481,1.448785875555322,-0.9344157205497546,-0.44116253544970097,0.6257034579167803,1.2152204098423982,3,left
12.503,0.08701166276525082,1.1050669640629058,0.016417933728500228,-0.8881936284867085,1.443233290057932,-0.9288979576559346,-0.4419311960201429,0.6261937443898253,1.216452184129297,3,left
12.505999999999998,0.10153534036860039,1.1159775952447506,0.011977599206835682,-0.8895004110153876,1.444224133659305,-0.9296832420399446,-0.4409906834244223,0.6259500049188427,1.2146768922043925,3,left
12.507,0.11584248181624232,1.1248811652849149,0.0017861127258780411,-0.8934087927499481,1.4461382212044573,-0.9319027736502565,-0.44203666563524274,0.6259300057800319,1.2168704279434999,3,left
12.512,0.12861549299979796,1.1337589457950634,-0.007217275928268093,-0.8877926637161659,1.4431925332606537,-0.9286893262144562,-0.4410788922285922,0.626120284564317,1.2147323279017663,3,left
12.513,0.1413147428082573,1.1423333381670182,-0.014956705704174414,-0.8921318799612761,1.4456590599128256,-0.9311961911298106,-0.4415520691429854,0.6259241167031908,1.2158657191068998,3,left
12.517000000000001,0.1530610064859775,1.1527841876508735,-0.022793520010411156,-0.8910383533055228,1.4445850007828112,-0.9305070144277068,-0.4421288053036991,0.625936549803997,1.2170571807405168,3,left
12.517999999999999,0.16315100841498958,1.1627520884876594,-0.02571518942515788,-0.8881520567704209,1.4439814096952168,-0.9289711988192978,-0.4399611598020836,0.6262653343838644,1.2122954907595827,3,left
12.520999999999999,0.17135876439963063,1.170323215443386,-0.023829802211038607,-0.8943543501968085,1.445958505590311,-0.9323578871496832,-0.4438772319496578,0.6255439188433909,1.2209943573125228,3,left
12.520999999999999,0.17580271144387782,1.1799618295505427,-0.02654621014114273,-0.887048962744597,1.4434574244490577,-0.9283467312219968,-0.4388947650312676,0.6265197483784583,1.2098825791702612,3,left
12.526,0.17687017741904987,1.186090930883771,-0.03818976291096997,-0.8917344893746337,1.4451656407605058,-0.9309331995652943,-0.44303495515388636,0.6256840295620638,1.2191353216993241,3,left
12.527000000000001,0.17480961690978725,1.1948878377022791,-0.056341530452209854,-0.894329618401527,1.445820206110325,-0.9323269808113489,-0.44293924721987366,0.6257246442087205,1.2189038378618402,3,left
12.530999999999999,0.17019025941774168,1.2096846440907925,-0.07645586863708788,-0.8803089619639988,1.4414474957701602,-0.9246851553939829,-0.43501481826986765,0.6272850348602177,1.2012270467069532,3,left
12.530999999999999,0.1662686187491629,1.2225443946464363,-0.09625916088172135,-0.906938513056817,1.4499115550334782,-0.9392213199478816,-0.45446299419623487,0.6234176339455517,1.2446412702829504,3,left
12.537,0.16180312424591645,1.2461965504474994,-0.11651861812805794,-0.8725201352304894,1.4389175521595787,-0.9204248435611699,-0.4222304213347472,0.6298450707922856,1.1726723945632846,3,left
12.538,0.15899655582368719,1.2634398013710206,-0.12605722371910513,-0.9013465691495801,1.4481455135648225,-0.9361726267931882,-0.4647392963182605,0.6213603361098511,1.2675952726816317,3,left
12.540999999999999,0.1565020809677527,1.268545678641372,-0.1293673176694718,-0.9004271101817152,1.4478230961878067,-0.9356607027968666,-0.6431605300275456,0.5857400995233175,1.6660019087282696,3,left
12.542,0.15000515158500502,1.2904148054929439,-0.14146267051079608,-0.8458335363430726,1.4304234822928197,-0.9058607316641485,-0.6856693879863588,0.5772531063535118,1.7609341180425337,3,left
12.543,0.14467188688643018,1.3177153563129969,-0.15134269837915568,-0.980214151274788,1.4732880717241241,-0.9792294443028962,-0.6534393975633739,0.5836868181429191,1.6889539127647852,3,left
12.546,0.1328732248640988,1.351401373596015,-0.1603162585740312,-0.7573376441992998,1.402188275379598,-0.857533811087678,-0.6728784986333727,0.5798067756009938,1.7323686667379623,3,left
12.547,0.12102343371473771,1.3785521861456154,-0.16907653389616267,-1.0513264118291703,1.4959675619129889,-1.0180669826106428,-0.6649727318786576,0.5813870388507878,1.7147163549762887,3,left
12.550999999999998,0.11789163790652354,1.3858698618989176,-0.1701480843222707,-2.285380134611889,1.8897413648728318,-1.6918325660494637,-0.6648493776811132,0.5814035856623727,1.7144261810583403,3,left
12.552,0.10269909019235754,1.4149548675460504,-0.1768975211930101,-2.5793517166330817,1.983494159379788,-1.85236940587175,-0.669019193851033,0.5805874120832559,1.7237678942034917,3,left
12.552,0.0793286961540634,1.4557611859594024,-0.18381932392171174,-2.3564766566568016,1.9124132814704362,-1.7306599095535848,-0.6640197312049817,0.5815624675374028,1.7125614947838677,3,left
12.555,0.05545762920519995,1.487179364641742,-0.18413873739346848,-2.4909250770833307,1.955323286427955,-1.804062158381332,-0.6679199173613757,0.5808066842598592,1.7213123834009907,3,left
12.556,0.026659430324792552,1.5210502897302907,-0.18582869999901014,-2.4361446177399495,1.9377574414843304,-1.7742031022721194,-0.665820363115982,0.5812160891889488,1.7166061383337328,3,left
12.561,-0.0013096267071900747,1.5515783880218272,-0.18277963247309037,-2.4355436196737643,1.9377451556527325,-1.7737700396991614,-0.666269809956689,0.5811063907310905,1.7175746315772469,3,left
12.562000000000001,-0.03495553434665072,1.5797594442760323,-0.17865588202891747,-2.463980413816922,1.9465665087986335,-1.7894433950004869,-0.6669100288911229,0.5810425390756132,1.7191173465628755,3,left
12.565,-0.07179528873917769,1.6055112632526463,-0.17866393773371503,-2.4298663860764482,1.9359298656673556,-1.7706727642335993,-0.6658028264386464,0.5811534437254042,1.7164502959406063,3,left
12.565999999999999,-0.10600029073526204,1.6266893775986988,-0.17870016197866145,-2.456519950054532,1.9443280055231147,-1.785287410572979,-0.6668848170487911,0.5810726158187312,1.7191051104610084,3,left
12.571,-0.14303863687551144,1.6465589269050247,-0.18184907975580705,-2.441880017797592,1.9394450204707114,-1.7774168540952804,-0.666136184545961,0.5811142410336679,1.7172431701457742,3,left
12.572000000000001,-0.17788382735917746,1.6662505586206382,-0.1842435607693726,-2.4458542343049547,1.9413933857356769,-1.7791921186790982,-0.6663981622045686,0.5810611122362235,1.7178264757818096,3,left
12.575,-0.20828075513048816,1.6875333300080602,-0.18144935930335968,-2.4485131230091493,1.9410709975598377,-1.781323000045529,-0.6666695078160739,0.5812067661008403,1.7187852762209825,3,left
12.575,-0.23493831039419827,1.7071855282562467,-0.17582805066599289,-2.443323642556721,1.9408509793543691,-1.7776567180441665,-0.6659046496028905,0.5809025245551189,1.7162709544802797,3,left
12.581,-0.2564995320847563,1.7261616858098185,-0.1661981558581907,-2.4483937857644493,1.9413247621756737,-1.781088569007027,-0.6670119796377759,0.5813633735534063,1.7199465609661284,3,left
12.582,-0.2720323759082258,1.748867402909732,-0.15197210007988213,-2.4442201333882476,1.9399819167186774,-1.7788161261715718,-0.6658762426548437,0.5808628671342893,1.716128161916286,3,left
12.585,-0.2770860561841356,1.7765906255715258,-0.14228909297777287,-2.4481581714532887,1.9433630350731657,-1.7797341997837557,-0.6665328547331779,0.5811525043748451,1.718335208192515,3,left
12.585999999999999,-0.28058889218223054,1.8100887976966797,-0.15374693183866922,-2.4433143462715208,1.9369640210295695,-1.7799042392782356,-0.6670001598308746,0.5814202561394641,1.7200175462448035,3,left
12.589,-0.29309096939607704,1.851387057015212,-0.17931610248476687,-2.4495441304672534,1.9461908437615714,-1.77910730945047,-0.6648274659694088,0.5802704766787092,1.7123705312136746,3,left
12.59,-0.31948380365497964,1.9034640086339447,-0.19686567111497016,-2.4430901347376324,1.9364162928111912,-1.7800581315110255,-0.6688628634617311,0.5824029668194255,1.7265654350219584,3,left
12.595,-0.3709928410368648,1.9637013142362223,-0.19527934616045117,-2.446523542768321,1.94196675358148,-1.7793487292590235,-0.6636896829160408,0.5796616254875546,1.7083576046387159,3,left
12.595999999999998,-0.44314437826451103,2.0258577535067026,-0.15875696896374578,-2.4509423777411876,1.9472260911072248,-1.7795294204922547,-0.6680044011506824,0.5819531565412341,1.7235489255464087,3,left
12.599,-0.5374325122385347,2.0807227719434676,-0.0884863229196563,-2.433996447965227,1.9249915100798887,-1.7800357392830208,-0.6678780555134224,0.5818881635022759,1.7231170941297043,3,left
12.6,-0.6464476746703123,2.1223060257820676,-0.003587602018107372,-2.464986098085431,1.966078395837542,-1.778862248679854,-0.6596931360703384,0.5775219069877835,1.6942432770710378,3,left
12.604000000000001,-0.7449593023087009,2.145866771815345,0.07658208993075016,-2.4252984342972312,1.9133621310556754,-1.7804222502136788,-0.6798168303908765,0.5882622748413657,1.7652239404661576,3,left
12.606,-0.8402420077772921,2.1456149605575536,0.12111009141392981,-2.458380333276814,1.957344294529981,-1.779097563543445,-0.6464528835352459,0.5704463508547524,1.6475404231117041,3,left
12.609000000000002,-0.8954087016534478,2.136627222394548,0.13084042941869753,-2.4576629778602443,1.9562375728874946,-1.7792174156725862,-0.6904559485446382,0.5939537704788188,1.8027548016515862,3,left
12.61,-0.9034543928624013,2.1311383639039043,0.12959189254769923,-2.394023772903155,1.8721296958546605,-1.7814699642976644,-0.8751457244132022,0.6925419520556436,2.454249470903564,3,left
12.610999999999999,-0.9269544540821992,2.113500197526771,0.11487330262021189,-2.5502069989520715,2.078727381530692,-1.7758323939254113,-0.9191429826260118,0.7160631996891528,2.6094491584323865,3,left
12.614,-0.928803867632749,2.0779217165416863,0.09051328559192962,-2.2913376110865933,1.7362488787458696,-1.7852083214000138,-0.8857872474032704,0.6982319271231512,2.4917858427814226,3,left
12.615,-0.906787762389726,2.052618596896898,0.07600641925773834,-2.6327369764966324,2.187919386472882,-1.7728357124773655,-0.9059064984182915,0.7089679776487382,2.562757295986414,3,left
12.619000000000002,-0.9019677411886103,2.0461133631694635,0.07591809414707072,-4.066480285344184,4.084507647550311,-1.7210631482995407,-0.8977148254550023,0.7046485179878875,2.5338622051695703,3,left
12.62,-0.8699865939077154,2.0273859989210843,0.07957374524265821,-4.407824199990143,4.536091311101314,-1.7086941998318474,-0.8976124215367776,0.7044809449104761,2.53349715802709,3,left
12.62,-0.818983652947642,1.9991559090629214,0.08645699004212126,-4.149014797752633,4.1937067633190654,-1.7180661635137686,-0.9018852776676654,0.7069210686902492,2.5485759015569602,3,left
12.625,-0.7765490887330964,1.9774876217477109,0.10290692158424061,-4.305220871436502,4.400340201509339,-1.7124270990013464,-0.8967631948947046,0.7040298690759821,2.5305011884932296,3,left
12.626,-0.7370491384157514,1.9559637503763438,0.11117297553571605,-4.241382598666329,4.315920617010841,-1.7146927595752182,-0.9007590661965447,0.7062305318888507,2.5445996306999223,3,left
12.629000000000001,-0.7107224128212035,1.9382767371529708,0.08244910872075624,-4.241093521240919,4.315484549997313,-1.7147843830218688,-0.8985827704903142,0.7052013455514383,2.5369282309783223,3,left
12.63,-0.6813970498326091,1.9200030982036806,-0.0054376566078426815,-4.273561389744081,4.3585051495029425,-1.7135001839003157,-0.8991309634318505,0.7050667136655757,2.5388438113863248,3,left
12.635,-0.6285496070458583,1.8979520124611127,-0.14988918221515826,-4.234485130616422,4.306746378416868,-1.7150198516142297,-0.8996088751142404,0.7060575757451093,2.540561165813304,3,left
12.636,-0.5602959556329296,1.8813709991125647,-0.2910585114914804,-4.265211048111404,4.34742016673316,-1.713863795265989,-0.8987342016800659,0.7046881023119737,2.5374369636787795,3,left
12.639000000000001,-0.4891917578292488,1.8706724556686196,-0.36333827202618685,-4.247739920165012,4.324363274720541,-1.7144046778426338,-0.8995710430831545,0.70585426111752,2.5404199009814485,3,left
12.639000000000001,-0.41408573694608897,1.8597171025322998,-0.35181767633137706,-4.253850256609708,4.332271329592764,-1.7144739069202712,-0.8989472864857169,0.7055274735332153,2.538219824259884,3,left
12.644,-0.32737116615016726,1.836212836684401,-0.2689411709741092,-4.2543693116371335,4.333258038963359,-1.7139566282084688,-0.8993914214764778,0.7044303879346434,2.5397291104065296,3,left
12.644,-0.22442033437385525,1.7966542785363881,-0.15069494431736724,-4.251491771903096,4.329084249286529,-1.7146715926524743,-0.8989981021999405,0.7072696495180048,2.538472946003445,3,left
12.648,-0.11169249341996067,1.743654166645542,-0.04433495842948966,-4.254870510690997,4.333846033639169,-1.7140628101920368,-0.8994359510044401,0.7029543331485198,2.5398215704595666,3,left
12.649000000000001,-0.00737535849425747,1.681139304557731,0.0289401051122952,-4.250000638038008,4.327406862711553,-1.7142342725589117,-0.8989969728292373,0.7075695700481472,2.5384819406726926,3,left
12.654000000000002,0.08445106709839176,1.6243158598299776,0.06499001627049843,-4.259230931213512,4.339074752589014,-1.7148037765782143,-0.8992067264072338,0.7048790957120957,2.5391011047985987,3,left
12.654000000000002,0.16975641688449394,1.5701772104923815,0.06654496191126713,-4.242963877412964,4.318794542874349,-1.7133283917065276,-0.8996047609421421,0.7026769848732067,2.540401263853916,3,left
12.657,0.24906978393528428,1.5126142233864388,0.056741010379136765,-4.266074479214258,4.347519263700798,-1.7155707923972703,-0.8982184812215341,0.7125068002588213,2.5359662814524153,3,left
12.658,0.32534685740910335,1.4587719255189995,0.060043928571837935,-4.241654582477652,4.3171837257247745,-1.7131729453411673,-0.9007249926506837,0.6942419650842689,2.5439638264663147,3,left
12.663,0.4014101276346304,1.3997292479380912,0.07505656795979923,-4.255422715665494,4.334260754938713,-1.7145701602068113,-0.897521161266208,0.7177037015334946,2.5337464159252767,3,left
12.664000000000001,0.4732585366695381,1.3364335578181037,0.09318078051892488,-4.268980102361109,4.3512122729040055,-1.7157153793311508,-0.9001896625346559,0.6981119321822233,2.5422542860466364,3,left
12.668,0.5429464165225412,1.269186061309191,0.11350884599080788,-4.212413752054675,4.280677583068702,-1.7106072373803412,-0.9001406684836475,0.6986578908691641,2.542106423671134,3,left
12.669,0.6068339367868556,1.1996686296847163,0.13212379191600715,-4.3168144507550155,4.410823667870956,-1.7200968635315408,-0.8949769761486712,0.7359674430146823,2.52561657255211,3,left
12.672,0.6645509280354884,1.133442205215671,0.13405897614173448,-4.182875036645136,4.243860425399755,-1.7079090920403517,-0.9076405150763642,0.6442432673654765,2.566046224906003,3,left
12.674000000000001,0.732376572310339,1.0524099751498455,0.11385094544913481,-4.29464271549758,4.383185663227605,-1.718083689850137,-0.8866520848425476,0.7963361025070604,2.4990420569765486,3,left
12.677,0.7807510424000641,0.9947394067563798,0.0952589253199271,-4.291805382178644,4.379653348414578,-1.71780655274107,-0.9143334730182049,0.5957189355195646,2.587411414750184,3,left
12.677999999999999,0.7957263486951052,0.9775053909428381,0.08933947241522724,-4.078084038420172,4.113213644493136,-1.6984155258278197,-1.030566884732242,-0.24631411861456096,2.9584904838537245,3,left
12.68,0.8401305305454951,0.9229503883813549,0.0718468772257948,-4.6031505662949,4.767800055344475,-1.746074266907996,-1.058246639208281,-0.4469488156449139,3.046851786168089,3,left
12.682,0.9214852603707835,0.8297454684449099,0.03219051272706225,-3.7326432706358377,3.6825513046329776,-1.6670596179935189,-1.0372621372040811,-0.2948278441498824,2.9798650589958333,3,left
12.683,0.9687555677400231,0.77817496950299,0.004694964450185003,-4.880806501531161,5.113965805069768,-1.7712710996955203,-1.0499186952403017,-0.3865772865998657,3.0202671210144354,3,left
12.687999999999999,0.9837044730432762,0.7621293184799209,-0.004083914030884581,-9.70060586334013,11.122737297194217,-2.2087352464117576,-1.0447649174098355,-0.34926368656756623,3.003812073488027,3,left
12.690999999999999,1.033580646135253,0.71078580046063,-0.035868763292666604,-10.848721884705096,12.554137076445137,-2.312923972793144,-1.0447051316398828,-0.3486817027354092,3.0036318920125926,3,left
12.692,1.1034841219990112,0.6424117471144972,-0.08577063744260263,-9.978299064199657,11.468925462311535,-2.2339445087725576,-1.0473806668484422,-0.3683609411161967,3.012152021835056,3,left
12.692,1.1629725976056275,0.5922425588951848,-0.12762232945770252,-10.503266723777415,12.1234428073663,-2.2815751916356586,-1.0441803730466859,-0.3447673634464013,3.001964973782946,3,left
12.693,1.2279984049430552,0.5384150798207226,-0.1546508338935158,-10.289619825987902,11.857105144688575,-2.262179647250266,-1.0466657810172753,-0.3631721714615579,3.0098703614755586,3,left
12.7,1.2847836144085063,0.48698549872395136,-0.15853483604646731,-10.286785238566775,11.853456741911884,-2.2619637707060383,-1.0453215758724965,-0.3532641111630631,3.0055914800114905,3,left
12.702,1.3247507837635562,0.44325552636201215,-0.15097585545871056,-10.398418535798257,11.992865587004363,-2.2720092678986834,-1.0456616809473496,-0.3553889146780646,3.0067021783497845,3,left
12.703,1.3532678279678598,0.4022105865926895,-0.14563147795881534,-10.26477588407109,11.825922568840744,-2.2600016008289154,-1.0459272000988347,-0.35839953960360516,3.007469910419064,3,left
12.704,1.3666258263076698,0.36503099214651,-0.1456160078852391,-10.368745932959705,11.955867758451095,-2.269317788721457,-1.0454665503008753,-0.35319291797940444,3.006136804819743,3,left
12.707,1.3701430961903567,0.32539365561374795,-0.1487857273045306,-10.312622050160577,11.885758525344926,-2.264275576165554,-1.0458518334475433,-0.35827613259528845,3.0071981851364367,3,left
12.708,1.3666007108136322,0.28823868526385943,-0.14621025892896541,-10.325953656272866,11.902101295751887,-2.265587882707235,-1.0456187893949829,-0.3547615113988313,3.006588579396157,3,left
12.710999999999999,1.3583431089630718,0.25462585432302687,-0.13979277292307707,-10.339429949446242,11.919794833409544,-2.2664818099558643,-1.0457917833319872,-0.35599831320747943,3.007142066817127,3,left
12.712,1.350124491572229,0.22382783677165102,-0.13273814182732055,-10.316091086176776,11.889161748467416,-2.2649302994115956,-1.0454959899391982,-0.35724372122456627,3.005948422776698,3,left
12.716,1.340409385495109,0.19967508837078407,-0.12166287361037155,-10.337260267968592,11.917438103503272,-2.2661564450065406,-1.0460775299562144,-0.3537141715304033,3.0083747333457893,3,left
12.718,1.3259346729546986,0.18042223713841385,-0.10693236443636753,-10.323460528510278,11.898731764833318,-2.265457996622678,-1.0451881041070836,-0.35882072031954065,3.004685305731294,3,left
12.720999999999998,1.3037644027032922,0.1660904977188677,-0.09194799552196264,-10.330594753787201,11.907612634035338,-2.2661106114445326,-1.0461653054632754,-0.35358780681205315,3.008711058142744,3,left
12.722000000000001,1.2720775504762152,0.15710007757621391,-0.07902605392519467,-10.326006533842438,11.904679550702252,-2.264665882521004,-1.045601002480439,-0.35661355283056795,3.0063860192622283,3,left
12.725999999999999,1.2307441076074865,0.15117609396140114,-0.06941659821580114,-10.332581497637285,11.906507436075598,-2.267612223092094,-1.0450500540220165,-0.3587547860064119,3.004175834342453,3,left
12.728,1.179680531314824,0.14622742233281008,-0.059944867186491266,-10.321861979616113,11.902644961197375,-2.263134441738633,-1.0473777228659036,-0.3487793389085059,3.013581915195529,3,left
12.731,1.1204245127899866,0.14222535117155177,-0.045490621427108524,-10.334497735521039,11.908269098558506,-2.268017176195907,-1.043065250345,-0.3673088128729144,2.996151697125734,3,left
12.732000000000001,1.0573780647904332,0.1380423613642929,-0.026145657562972158,-10.327205070521146,11.905029875892868,-2.265197281243722,-1.0486078962677357,-0.3435548841213787,3.018549631991143,3,left
12.735999999999999,0.9955578636145902,0.1351928663467553,-0.002301895392083521,-10.318258806223728,11.898921264568319,-2.262523203008228,-1.043978512241605,-0.3633683246600069,2.999843929194958,3,left
12.737,0.9347371788872116,0.13232149455901632,0.022798535013784225,-10.353980551480863,11.921376912049372,-2.2739108782166344,-1.0440959861078118,-0.36278217405376645,3.000325456119219,3,left
12.741,0.8800720859330224,0.12601735825210753,0.0424978300550454,-10.287893348543598,11.879931347257383,-2.2528084272278726,-1.0529552588815774,-0.32521403349351974,3.036094886868639,3,left
12.742,0.836334659648714,0.12121243271595547,0.05325471313621887,-10.372987828826854,11.933442491161742,-2.2799246713308587,-1.0311865431041638,-0.41758934696692007,2.9481978605191115,3,left
12.745999999999999,0.8005043877758375,0.11352961809888393,0.05742214996160258,-10.301825126822587,11.88861767382707,-2.2572781905992434,-1.0672814740449859,-0.2644326163270361,3.093939421623886,3,left
12.747,0.7824621977880699,0.10350416235686363,0.05926084751608035,-10.303518932328629,11.889539940501649,-2.257864017699089,-1.0196664297170666,-0.466426992807672,2.9016888003519843,3,left
12.748,0.7780495269017511,0.09928633876340578,0.05824845516124827,-10.440292069685906,11.976361859198125,-2.301159126796878,-0.8196427618714061,-1.313989434709042,2.0942387134645495,3,left
12.751,0.7692244113991691,0.08847871675022909,0.05115766280686791,-10.104238561987119,11.763114056953494,-2.1947674749057495,-0.7719890651367283,-1.5159173277725742,1.9018724857954292,3,left
12.752,0.7573598094655682,0.06768104794112695,0.03415190784183747,-10.661515211481667,12.116792411601946,-2.3711694941629125,-0.8081665136378728,-1.3628936800415774,2.0478605285720772,3,left
12.755999999999998,0.7497354050359435,0.0568357243949319,0.021373588280513993,-9.92635269230152,11.650147267450945,-2.138491438966743,-0.7862695488127007,-1.4550797480624666,1.9595810598288426,3,left
12.757,0.7465823724416192,0.05307473879595385,0.018059026876245617,-6.841173931272183,9.692186035603275,-1.1617114284090317,-0.7952872917209561,-1.417719555644641,1.9958221109350738,3,left
12.758,0.7338597145082638,0.034650728936858555,0.0032986864297149723,-6.105952289743423,9.225465514905572,-0.9290215932910394,-0.7952623343093235,-1.416984296739439,1.9958811257686895,3,left
12.763,0.711046090150073,0.009037671445921668,-0.014136361787316747,-6.663175139980731,9.57908444931818,-1.1054478140226718,-0.790678221258915,-1.4367726963186862,1.9773070801859656,3,left
12.764000000000001,0.6891308831274174,-0.015472629492702129,-0.02581661319638154,-6.327563090563359,9.366366993594653,-0.9990204307602247,-0.7963743165593965,-1.413342016332764,2.0001661287297887,3,left
12.765,0.664192506643859,-0.045845843433183264,-0.040191596165790336,-6.463264090131411,9.451888977104858,-1.0423569200422933,-0.7916269888576165,-1.431178077718604,1.981437277174793,3,left
12.765,0.6426954089756849,-0.07608189222351626,-0.04782166523512893,-6.466690237844709,9.454920510302186,-1.0429096006101568,-0.7946722999161204,-1.422201417745526,1.992981198357154,3,left
12.770999999999999,0.6291459808882186,-0.10636833624500167,-0.051846282912547885,-6.393503650328034,9.407622010268916,-1.020265900007956,-0.7932710287208957,-1.4233212136423343,1.9882438162429739,3,left
12.772,0.6221532345160117,-0.13850412368383458,-0.05554623197705157,-6.480039003412516,9.46290872225941,-1.0474352679076264,-0.7933420695362229,-1.4268601196556556,1.9877979487635615,3,left
12.776,0.6253812342348555,-0.16662107971547466,-0.052888586029109355,-6.414396876469991,9.42197403606384,-1.0262061028991585,-0.7944210973472942,-1.422321910570001,1.9921471629260912,3,left
12.776,0.6343489817830167,-0.19259792316507648,-0.04799220723876814,-6.446423254308112,9.439962531981934,-1.0377873262671409,-0.7921328362176825,-1.4248951126498262,1.9842692933413946,3,left
12.78,0.650099848340266,-0.2173231331162505,-0.039135773434003394,-6.445151819150874,9.443181529609111,-1.0349012196271992,-0.7957366489805884,-1.4259016383108467,1.9957108885638863,3,left
12.782,0.6731484794820415,-0.2378238970325852,-0.02816757747617334,-6.427036190658539,9.426744697223626,-1.0322130910633915,-0.7910718538878938,-1.4213867214055735,1.9815137403495775,3,left
12.786,0.6979484736170313,-0.2544537194454508,-0.023153367022628598,-6.450403914252906,9.445512458354127,-1.0371821432531774,-0.7957310337618415,-1.427526742732589,1.9953826960724168,3,left
12.786,0.7262318385258834,-0.2672443660136659,-0.023869624980974648,-6.43493997891439,9.435734071994506,-1.032265028057667,-0.7931993950871516,-1.4233020981330418,1.9880162059153863,3,left
12.790999999999999,0.7590143215954481,-0.27449709104192016,-0.027775861403897387,-6.432695207635975,9.427001846374159,-1.0360603945087914,-0.7906787324134199,-1.4210851954017083,1.9803023595472085,3,left
12.792,0.7935976358615804,-0.27859088936949616,-0.036913696955766934,-6.457053618043457,9.459159333725555,-1.033474217168973,-0.8009961380341102,-1.4337950299055642,2.0111829602624374,3,left
12.794,0.8283539180447519,-0.28072565087276036,-0.05493403793700026,-6.413943229241472,9.40688964345864,-1.0351884512843914,-0.7820710651249282,-1.4093483378737297,1.9547550902914288,3,left
12.796,0.8616016704278159,-0.27943366359091737,-0.07813388692976707,-6.462378024182094,9.464181139308838,-1.0341455944098672,-0.8062784204308866,-1.4411267472464777,2.026836131716112,3,left
12.799000000000001,0.890874623165501,-0.2755267594715535,-0.10372340667856411,-6.432730408923296,9.430026694277991,-1.0342220343468211,-0.7861102573829827,-1.414432930557454,1.9668235788684025,3,left
12.8,0.916471574989274,-0.26601824595903223,-0.13023099850578138,-6.412340678856468,9.403853512992008,-1.0359236286068745,-0.786617435508518,-1.4152927642342479,1.96829767865275,3,left
12.805,0.9357980515587137,-0.2532065103530383,-0.1524100882991603,-6.511109061505124,9.524427702508845,-1.0314944343819348,-0.8251482957205714,-1.4659417951578062,2.0830148135148727,3,left
12.806,0.9489125861412824,-0.24198846094800608,-0.16989631026105156,-6.325689265601052,9.29940123986665,-1.0389952914660778,-0.7305146367141732,-1.3412080772167458,1.8013264794447439,3,left
12.81,0.9629375858791183,-0.22766644926864943,-0.17884235439268198,-6.564590083259354,9.588852755897246,-1.0296210070082923,-0.8873852096632373,-1.5481352997733486,2.268241076838471,3,left
12.811,0.9699704455968224,-0.21821682341375104,-0.18007959579483374,-6.36479895080284,9.346998891132781,-1.0373382007438439,-0.6804952123705652,-1.2751494859511072,1.6524605744670338,3,left
12.814,0.9706406794163003,-0.2160515475423054,-0.17949101714871077,-6.370739719631242,9.353852097192998,-1.0372974620722075,0.18800070585518996,-0.1291527560784539,-0.9324780006750972,3,left
12.815999999999999,0.9792772066497001,-0.20713380911722432,-0.17345912824916446,-6.750284284976862,9.814194434815128,-1.0221353211923083,0.3948710194724534,0.14384888973142676,-1.5481943015456816,3,left
12.815999999999999,0.9896338902410263,-0.19640794568113523,-0.16169701264116337,-5.816636489886609,8.682301601962855,-1.0591583430705447,0.23803082450216517,-0.06313395081914229,-1.0813858315957363,3,left
12.819,0.9978975879689077,-0.1861075167296099,-0.14765166053157847,-7.364962783871333,10.559171172831956,-0.9978650991764051,0.3326404161434788,0.061729580995129825,-1.362970713363669,3,left
12.82,1.0042663188800856,-0.17734632562170616,-0.13956787309475904,-5.322616156899741,8.083566859638843,-1.0786761206636517,0.2941052293881417,0.010856313548835796,-1.2482909093213088,3,left
12.824000000000002,1.0064783694036163,-0.17502103294118482,-0.13674755800875033,3.249610115112162,-2.307987729923453,-1.4180249790276322,0.293651662558185,0.010291193786887184,-1.246915352570582,3,left
12.825,1.0112920901836278,-0.16632394374488385,-0.12867751064846406,5.291989864672042,-4.783533703043214,-1.4988281261144643,0.31370749014133315,0.03671276810206025,-1.3066434177580322,3,left
12.825,1.0144641055076469,-0.1543849659039276,-0.12288179150425114,3.7435665699151426,-2.9066884294457047,-1.4375627661994628,0.2896562978225173,0.005017704020848671,-1.23502452407731,3,left
12.83,1.0076841440324371,-0.14650903284948064,-0.12010838843222639,4.6774173808367205,-4.0387427804954275,-1.4745204391505975,0.3084317295363929,0.02977706320599378,-1.290920871524468,3,left
12.831,0.992729202016764,-0.136985087364841,-0.11503033684660162,4.297545052527187,-3.577907573962596,-1.459471441293513,0.29816976288463515,0.016192369025607344,-1.2604086568753163,3,left
12.834000000000001,0.9715342908698357,-0.1293694340192743,-0.11075669117343956,4.2920111276253685,-3.5719254466059143,-1.4592817269823266,0.3008379402818894,0.019845379256612908,-1.268252417341707,3,left
12.835,0.9419875865166317,-0.12424662275430116,-0.09855660431419487,4.491457814125572,-3.812681989636991,-1.4671368912155516,0.3029302408085216,0.022380305022598374,-1.274647480953075,3,left
12.839,0.9060516976273887,-0.11822098880115826,-0.07835716084791303,4.252601602753072,-3.5241337793749654,-1.4577196861291515,0.29900695581408426,0.01748027541941887,-1.2627649310565876,3,left
12.84,0.8680716521002991,-0.11087995218345635,-0.056960755097444256,4.438556249963879,-3.7491221860840183,-1.4650636372210606,0.30279102007375713,0.02225279906243339,-1.2741912677905447,3,left
12.843,0.8273624423786535,-0.10330198329493932,-0.030686865888746938,4.3384727909420455,-3.626961909008253,-1.4610755209706408,0.2998565882051156,0.018378361767695257,-1.2654592180146236,3,left
12.844000000000001,0.786886799647768,-0.09466577439834513,-0.004948172333620557,4.360902210156088,-3.6568501038972014,-1.4620516963421668,0.3022249484121244,0.021914500744630798,-1.2722036532285825,3,left
12.849,0.7477575702222714,-0.08251686158184979,0.01589582775493765,4.38828237884686,-3.685394952223362,-1.4629832603054789,0.29973590098363057,0.01769091485027404,-1.2654909741493165,3,left
12.85,0.7094378870398341,-0.07020915284877888,0.034891368009384596,4.341305885466973,-3.6341471816712474,-1.4613102597122896,0.3027487922639731,0.02306803955076124,-1.2734210516051818,3,left
12.854000000000001,0.674660438402562,-0.05632501452120684,0.050581013690451544,4.385232520218692,-3.682854580964798,-1.4629003702746521,0.2996676397914426,0.017507633194976176,-1.2653558945322296,3,left
12.855,0.6406532456753286,-0.04071647821957358,0.06285227344607369,4.356325211174637,-3.6477733902764777,-1.461755554771722,0.3012415884260183,0.020449337538830686,-1.2694024655731353,3,left
12.857999999999999,0.6069889759983551,-0.025287113953624485,0.07227461531877456,4.367509047133458,-3.6697516695970913,-1.4624716256378414,0.30361963410329745,0.02432914605774474,-1.2759282370941694,3,left
12.859000000000002,0.5775512418600118,-0.00581507431655818,0.08065204857538386,4.3708048434836755,-3.65450169969601,-1.4619764494732428,0.29488449567939523,0.009548242450164637,-1.2523413531824108,3,left
12.863,0.5513884511256438,0.013947504072962675,0.08715857114851203,4.358977661418351,-3.668875099346863,-1.4624421320780858,0.3107813807772524,0.03656370088173412,-1.2951848852176804,3,left
12.863,0.5269376749488215,0.03502137196933608,0.0893196885067026,4.3728726194169685,-3.6551124731558495,-1.4619960261874345,0.29043779529795255,0.0019619521889941687,-1.2403746581982047,3,left
12.869000000000002,0.50770951291006,0.058170369215138504,0.08695192667131205,4.36281127511944,-3.6606012956033362,-1.462174489528986,0.3073925377034423,0.030815773748985205,-1.2860489788134888,3,left
12.87,0.4883299327876372,0.08377817380724813,0.08073467941798834,4.3642074173044465,-3.677535219876778,-1.462723088644618,0.3070426152312747,0.030167124823780547,-1.2851310491562513,3,left
12.874,0.46512990135614096,0.1115127284668424,0.07255586648722956,4.374579592973682,-3.6233971292608604,-1.460966675051098,0.27435930386386076,-0.025290953192920556,-1.1970001177888292,3,left
12.875,0.4436306161349305,0.13334528868072876,0.06440556475080006,4.352368902070024,-3.720192820682736,-1.4641094090269209,0.3545591277341207,0.11086762470293351,-1.4132352667114572,3,left
12.879000000000001,0.4169777490779448,0.16518803211679475,0.06608980202641129,4.381556934924314,-3.5967097836984845,-1.4600972565734143,0.2216221141898377,-0.11485709862644604,-1.054811193062634,3,left
12.88,0.39879652775725466,0.19151932820717316,0.07087120739005758,4.356917412275136,-3.69947444334207,-1.4634407348936,0.39695675890477394,0.1828791148098538,-1.5275544762045508,3,left
12.883,0.3934309661550055,0.1991323054142324,0.07506815458451005,4.35862493625995,-3.69794381021348,-1.4633805036817933,1.1331422812600656,1.432710318568664,-3.5124378152394886,3,left
12.884,0.3714489183617681,0.22834227063275564,0.09286793998842799,4.4021969643497565,-3.4978834945395203,-1.4568963817515952,1.3084800094690932,1.7304804778719498,-3.9852058614120027,3,left
12.884,0.34264633281815204,0.2660842447222162,0.10973735725325709,4.2938729604471195,-3.988138494040065,-1.4728069951536193,1.1755396594324499,1.504719021948604,-3.6267549969381987,3,left
12.887,0.32109685014403433,0.2909297188292627,0.12558678785026428,4.473799677118455,-3.1756457034082395,-1.4464224068461564,1.2557382157168915,1.6408636504198588,-3.8429799519463286,3,left
12.888,0.3078448923226792,0.3074114399966596,0.1429560577271926,4.236446645565067,-4.247298900806815,-1.481239198292561,1.2230659680484792,1.5855273605997724,-3.754937900470155,3,left
12.892000000000001,0.3061734672537191,0.31077159395940046,0.14550404677028705,3.2417163413352803,-8.747247155041654,-1.627250534543859,1.2226922389186172,1.5846166428477415,-3.7538287402319854,3,left
12.892999999999999,0.29848417022142054,0.31703172206370356,0.15205184506042416,3.0044822137016545,-9.819073644538191,-1.6621003064818676,1.239681116611838,1.6138462388610972,-3.7997772421130405,3,left
12.894,0.28999407769426283,0.3252336242378421,0.16779217047015982,3.184280277501556,-9.006393364812665,-1.6356800451473665,1.2193035377965618,1.5788702710885933,-3.7446939934989616,3,left
12.898,0.28802703249816025,0.32641137407567566,0.18244465559746564,3.075907368816001,-9.496577050002191,-1.6515770529074862,1.235215093571608,1.6060472466746467,-3.7876553186637834,3,left
12.899000000000001,0.28317722536563006,0.32583630046130857,0.20256896502428198,3.1199060801522096,-9.29713867012589,-1.6452113647797018,1.22650913828981,1.591587577506858,-3.7643029060961317,3,left
12.902000000000001,0.2773565241785826,0.3241739193834043,0.22164172051232361,3.120695509484902,-9.294269872183051,-1.6448963557734337,1.228793164449589,1.5944324093279867,-3.77007342326342,3,left
12.902999999999999,0.266318604511238,0.321645274050923,0.23647894900827707,3.0973723737146504,-9.39895318177292,-1.6486050957363452,1.230529119733898,1.5991575303572634,-3.775421304680506,3,left
12.907,0.252978114804581,0.3171835882054953,0.24912939988315133,3.125249528187754,-9.27355957843941,-1.6442292664039115,1.227249136984541,1.591408309486407,-3.7657591396414833,3,left
12.908,0.2398825763254926,0.3135015516119669,0.2557951112099171,3.103604516020816,-9.371179627902524,-1.6475288320281885,1.2304205565114779,1.5985306344546446,-3.7749623896442634,3,left
12.914000000000001,0.22062123151748986,0.3117812078165414,0.25975334268858147,3.115102222417354,-9.318682199812844,-1.6460849152547936,1.2279328962249059,1.5943222061238456,-3.7682611473277245,3,left
12.915,0.20091115228145276,0.31196537846932093,0.264037938277485,3.1128724875832674,-9.330331163363955,-1.6456272259999891,1.2300071285162568,1.5946206206001257,-3.7726427022365163,3,left
12.915999999999999,0.18197884781144935,0.3133595582479895,0.2693197105535068,3.1090588113304625,-9.344926154668997,-1.647539367147464,1.227744923380369,1.598146176908941,-3.7693104556559014,3,left
12.917,0.16293140483145546,0.31606872209780396,0.27626906642687643,3.1152861763951325,-9.31998801894007,-1.6449658155482827,1.2305260968114016,1.5918785382927931,-3.7726812937602827,3,left
12.921,0.148119636658582,0.32257587596741166,0.282824976541094,3.1095721745861855,-9.343271009105589,-1.6471272841779627,1.2276719643184024,1.5987482873785681,-3.7693859395635787,3,left
12.922,0.1362354087722138,0.32824023422824067,0.2920481459330283,3.11292197782319,-9.328100588972658,-1.6466479487330874,1.229146434375859,1.5944815187131618,-3.7708196476967646,3,left
12.925999999999998,0.12541286986361572,0.33470611926668487,0.3043601444534869,3.1127624480577767,-9.33354467613536,-1.6442154174594927,1.2312822537433383,1.5922747093861953,-3.7743855105262174,3,left
12.927,0.11554032227281068,0.34466675298607885,0.31563209848796764,3.1097793563435374,-9.336249338716886,-1.650264883526837,1.223350613893826,1.6043425785910976,-3.7625931309768488,3,left
12.931,0.10769162691626338,0.35559175879732086,0.32764812742102517,3.1150305871489925,-9.328586604365576,-1.6411233535247254,1.2378042434091663,1.581525979859523,-3.7837743272948874,3,left
12.932,0.10330735630682798,0.36691411315233935,0.33866233101066784,3.109283830066276,-9.33743046743114,-1.6508892414495149,1.2193026235108189,1.6109238212075745,-3.7567303718189464,3,left
12.936,0.10395055183477711,0.3738791146075898,0.3463607104851635,3.112840329198301,-9.331255262429535,-1.6452137088379772,1.2347251849577476,1.5863374345996752,-3.7792466442756925,3,left
12.937999999999999,0.11303866934736793,0.38322588427984,0.34824469961000815,3.114736352904851,-9.331210614081208,-1.6404871101983485,1.234397427989745,1.5871636364981265,-3.778874398338603,3,left
12.942,0.12611989346739277,0.39495278483932417,0.3442024524293089,3.1045236519661383,-9.340043922420652,-1.6614417243710267,1.204696124904237,1.63352639510033,-3.7351597108000956,3,left
12.942,0.1404117994241273,0.4030059979519015,0.3400458897800523,3.123809130588727,-9.32210613767904,-1.622535512721858,1.2775920340430278,1.5193743544830967,-3.8423281383435466,3,left
12.947000000000001,0.16236104361366133,0.4219219364844905,0.3301365062012671,3.098967385116487,-9.34548448119104,-1.6724994119266956,1.1567554206303778,1.7087057451010248,-3.664706098111271,3,left
12.948,0.1766227736615554,0.43625479329491196,0.3204941146621503,3.1197392548853453,-9.325832673761866,-1.6307896708327485,1.3161349380580991,1.4589566084733883,-3.8989883161374213,3,left
12.950999999999999,0.18030754400318819,0.44040241042001593,0.3184648799999861,3.1190532905017982,-9.326891245612488,-1.6319195865986822,1.9852624523945737,0.4109509168345973,-4.882698497838346,3,left
12.952,0.1973338280394403,0.4597703869590507,0.3096060734012992,3.0798486167913417,-9.362620142332563,-1.7114336901057392,2.1446499892329225,0.1611723438674673,-5.117024484477639,3,left
12.952,0.21843457329785917,0.48472521733118573,0.2984578564401954,3.17635751221154,-9.27419711285371,-1.5160107232747122,2.0238063210683572,0.35055905039785185,-4.939348803990177,3,left
12.956,0.23532539109402806,0.5154156226868041,0.2914193890713976,3.016299666224492,-9.420944873377856,-1.8400106596027261,2.0966931860869864,0.23633599951913203,-5.046521484324444,3,left
12.957,0.24841051011785012,0.5391540574742061,0.2846258412029609,3.227423244102508,-9.227399388890364,-1.4126817294037508,2.067032505828913,0.2827644804992883,-5.00291797917118,3,left
12.960999999999999,0.2504608756967357,0.5453561014230084,0.2826587730553687,4.113378607366694,-8.415465499494811,0.381295673538405,2.0666252551514743,0.2835637568375079,-5.002275847483764,3,left
12.962,0.2590975884472523,0.5712733173474394,0.27925808340999414,4.324496232735299,-8.222032801161514,0.808579808764528,2.0821554602549748,0.2589243154492786,-5.0252036311503945,3,left
12.963,0.27498157771466336,0.6068155880634105,0.2702469357168156,4.164444848257011,-8.368658569563703,0.48462833877385597,2.063554562169916,0.2884894871485648,-4.9977192297151465,3,left
12.966,0.2834357272847891,0.635214708282752,0.260803212234221,4.260956117711403,-8.280189004923628,0.6800697345240382,2.0780363344652977,0.26538805635318297,-5.019147420390185,3,left
12.966,0.28864695035985366,0.669124724064964,0.2519345198787041,4.221730236591471,-8.316322933685246,0.6003948754677715,2.0702238058522666,0.27780221523897874,-5.007602024195018,3,left
12.970999999999998,0.2905437910397196,0.700927891842904,0.24467710746232377,4.221090006429844,-8.316510199722401,0.5996108507889077,2.0720341825809836,0.2753227946744184,-5.010146533341334,3,left
12.972000000000001,0.28767897992649444,0.7316302702476041,0.24104017347853637,4.241796219497157,-8.298107530512361,0.6408246500643856,2.074036341702125,0.27104731429678663,-5.0134682162053466,3,left
12.975999999999999,0.2815089273815928,0.7629747685325138,0.24182038565457478,4.217019958209329,-8.320242164834207,0.5913546106374994,2.0705697043060676,0.2784357018776358,-5.007719799209591,3,left
12.975999999999999,0.2715750135764499,0.7901655188273733,0.24565037933638362,4.23627698883844,-8.302840698545985,0.6300477212325751,2.0737867735444615,0.2709959903874246,-5.0132495115480555,3,left
12.982000000000001,0.2629765775729418,0.8156232704409261,0.2520262080814549,4.226008500086332,-8.312742729725418,0.6086690462390629,2.0716491032538418,0.2762569876879793,-5.009468900820395,3,left
12.982999999999999,0.2573229480026422,0.8397089945444844,0.2606752754820074,4.228084995840213,-8.30925669664305,0.614761699558122,2.072637698954004,0.274726013731006,-5.010916672104921,3,left
12.985999999999999,0.2483673045279347,0.8627688798441862,0.2702228807031506,4.231330100405152,-8.309010421293442,0.6180834419323942,2.0724121482779974,0.27153027831076393,-5.011768609285191,3,left
12.985999999999999,0.23988883246368597,0.8843213672067782,0.28149670181188935,4.225965963004072,-8.310578766304861,0.6112062667137872,2.072384476957854,0.27968300014994996,-5.009023137220175,3,left
12.991,0.23866148987125407,0.9035432987306563,0.2913441227544433,4.230911463150272,-8.308715282620991,0.6180447431263718,2.0722994546825646,0.26771916497029247,-5.012933207576891,3,left
12.992,0.24026536226225756,0.9233062203645568,0.29269771421824,4.227927230023997,-8.311474258348529,0.6119748272842412,2.0725577387451457,0.28020974085381,-5.009011530092899,3,left
12.995999999999999,0.2421170234784345,0.9426618257491122,0.2894141491347578,4.228331423911044,-8.306150430575913,0.6186810476618119,2.0724098282751005,0.27299114538530467,-5.011279252469874,3,left
12.995999999999999,0.24841885689400836,0.9614412377528601,0.2795667301288003,4.230390059389958,-8.315583499852064,0.6093934474135436,2.0719125397928924,0.2673463317715336,-5.0126910062133625,3,left
13.0,0.2595833459323533,0.9836528021505624,0.258491408373599,4.2266045716295935,-8.302165913206174,0.6218027689096326,2.073611409454643,0.29279552017350347,-5.00581169096232,3,left
13.002,0.27205062528371626,1.0082387662885184,0.2332539024327913,4.230773276316984,-8.316346766480688,0.6088433763555052,2.0704834275337425,0.2455656732548064,-5.018602155802413,3,left
13.005,0.2882718676873528,1.034259584414642,0.19948393049125307,4.2281538929002895,-8.308347124195171,0.6159062934355677,2.0745320202907944,0.306159609684602,-5.002226278698034,3,left
13.005,0.3079701090748391,1.0613035968415663,0.16062606267236207,4.226938612769808,-8.300492482798997,0.6241004389335083,2.0711361076035733,0.2555993482425806,-5.015873523866612,3,left
13.009,0.33212344081970513,1.0943132392529713,0.1025684567362726,4.233964898982442,-8.333296561908533,0.5916853552507041,2.071193362403906,0.25701860009941746,-5.015454794022727,3,left
13.01,0.3616858614078623,1.1288123170206736,0.022259519008355964,4.220625390168912,-8.272747106348021,0.6511778870987157,2.077824862775225,0.3531905045675469,-4.989658044149907,3,left
13.015,0.3934625765283957,1.1640092070334767,-0.06300173964503408,4.237824675425621,-8.350428212116796,0.5749253648101169,2.0615459181281954,0.11678701667474431,-5.053090045560285,3,left
13.015999999999998,0.4317528891034523,1.217847283277701,-0.18359088264141146,4.223435461966785,-8.285607574980858,0.6385294935344612,2.088547299254265,0.5087329824998058,-4.94793451441146,3,left
13.02,0.4588342242895468,1.2619578515085057,-0.2761397004190823,4.223937597460276,-8.287250853519375,0.6370219594738453,2.0529150398114107,-0.008207657243801764,-5.0866052639774395,3,left
13.020999999999999,0.4689258069012665,1.2765328199038706,-0.3049025651580535,4.251010577209701,-8.411203129924505,0.5150368153887745,1.9032944858884717,-2.1780116728102845,-5.668610812811008,3,left
13.020999999999999,0.4979918594585957,1.3188804960978122,-0.3986892426966857,4.184330331506139,-8.106687300643582,0.8146121039049292,1.8676279246647371,-2.6948827055100013,-5.807223669827055,3,left
13.026,0.5463965181893824,1.4067729563191294,-0.5453973384875794,4.294932235651514,-8.611534202258234,0.31796287249098926,1.8946829249351076,-2.303045546797298,-5.702158635863849,3,left
13.027000000000001,0.5732179049471134,1.4630097749252804,-0.6180735851179628,4.149032987907859,-7.945676781777694,0.9730426498690263,1.87835962761891,-2.5393590310514274,-5.765515774641547,3,left
13.029000000000002,0.5831712406147733,1.4809103538019208,-0.639927164212084,3.5367748767164997,-5.150600095304556,3.7230423519621123,1.8849885593867692,-2.4431819158498955,-5.739714703603399,3,left
13.03,0.6185949508133193,1.543097285872662,-0.6932737588658697,3.3908432588107993,-4.484832788768491,4.378174035481003,1.8851318675397117,-2.441937285749597,-5.73944118886947,3,left
13.03,0.6697827703059536,1.6249019084393836,-0.7360714483172672,3.5015118765007793,-4.98951157695185,3.8814520294727086,1.8815480991000475,-2.4921163426296595,-5.752771404280258,3,left
13.034,0.7203736799345266,1.6792885831661102,-0.7221018840437725,3.4347327003257107,-4.68520878958114,4.181064811494766,1.8858642938091856,-2.4320654371915373,-5.736847157358638,3,left
13.035,0.7784279496538311,1.7235092800638032,-0.6890577173985439,3.4619209218533413,-4.808968823154887,4.059144622527999,1.8824712842773166,-2.478757474257537,-5.749190312214377,3,left
13.04,0.8288094892670457,1.7446330923152193,-0.6433142788326187,3.46232970228205,-4.810681243026746,4.057416272146233,1.8842850045241208,-2.4535413528392347,-5.742504886052492,3,left
13.040999999999999,0.8700671485494338,1.7399265616704866,-0.5859356298269378,3.4479505589578827,-4.746037289562305,4.121401905027218,1.8840106222547426,-2.4596384888158997,-5.744292752515664,3,left
13.043,0.9033425558196426,1.714971430692651,-0.5289755614662582,3.4652944438405004,-4.823197905711179,4.044688413819747,1.8831421130745964,-2.4653948206727887,-5.745344415707123,3,left
13.044,0.9172988746962352,1.668122462799516,-0.46612437344565205,3.451605382662396,-4.763512898768498,4.104530401992587,1.884642034562166,-2.455423830003803,-5.743518189184478,3,left
13.049000000000001,0.9119875439962577,1.6146685990181697,-0.39831003327051395,3.4591692296096577,-4.795289423567974,4.072164215794642,1.883033539126453,-2.464296153846954,-5.744857057892928,3,left
13.05,0.8812996532977596,1.5639612486727459,-0.3218410553768923,3.4573606211153467,-4.788208386470265,4.079604042685736,1.884220320165836,-2.4586078809832226,-5.744161410721501,3,left
13.054,0.8213912713668112,1.518816553182261,-0.22796765556975696,3.4551175011347306,-4.780315392757833,4.088305410950836,1.8840052685313273,-2.4618248787854347,-5.745030688889147,3,left
13.055,0.7382000191877458,1.4806245978511883,-0.11483755467247683,3.4595102590908855,-4.792837172296855,4.072975655265884,1.882741500690197,-2.4587853021579114,-5.7426776589663024,3,left
13.059000000000001,0.6348651374356447,1.4486370989037591,0.02075734988124318,3.4545221042074736,-4.783024105355333,4.087811642923505,1.8857514108287392,-2.463969978641369,-5.747584136308014,3,left
13.059000000000001,0.5098771473292607,1.414919486571373,0.1746527541554198,3.4589264600697573,-4.787238548352725,4.077310202696667,1.8812891581792304,-2.455826441023352,-5.740153628365739,3,left
13.062999999999999,0.3666185399792177,1.3789733968654616,0.326745709988598,3.4561584000193246,-4.787267374934444,4.082346500072888,1.8860088187719084,-2.4650501670268463,-5.74822171382824,3,left
13.064,0.2109671858688399,1.3436738200659533,0.47484765265000595,3.4561463746724352,-4.787325004586705,4.082335551682431,1.8832809739185254,-2.459727095501741,-5.743559150246828,3,left
13.069,0.047806103626723176,1.306139809800583,0.6052315962089858,3.460091732660443,-4.781839862220647,4.078334657441764,1.8810138941963546,-2.4539326652914992,-5.739224470885602,3,left
13.07,-0.11135018251471179,1.2744768555725354,0.6957218682442102,3.451577178763597,-4.79666462534348,4.085223239128232,1.8910460272313463,-2.4777293570258125,-5.757792805502762,3,left
13.074000000000002,-0.2585612802372782,1.2486681618663777,0.7546244424639874,3.463866231130103,-4.772662731619226,4.076803913389908,1.8724348215634758,-2.433677301106548,-5.723371807090672,3,left
13.075,-0.3856813726102638,1.227505470507344,0.7684442655454758,3.451006939820418,-4.799351020981749,4.084693265904974,1.8963268276053205,-2.4903405253478574,-5.767603618857786,3,left
13.078,-0.4956198174415034,1.2132915512191034,0.7408321833756351,3.4583610070385045,-4.783580280863589,4.080482228296123,1.8763818897682674,-2.4429922010960503,-5.73065415418501,3,left
13.079,-0.5819487260673045,1.212535169741923,0.6581024111706721,3.464664285218297,-4.769831549095507,4.076995098314883,1.8769348773306151,-2.4441412819286468,-5.73164497762523,3,left
13.083,-0.6367019067990896,1.225069309825081,0.5261720692999164,3.437162835024789,-4.830411395492928,4.091835831494903,1.914917777228014,-2.534979534947464,-5.802184607316415,3,left
13.084000000000001,-0.6709378854336618,1.2416676858770068,0.38743162813587595,3.4880791405379084,-4.7176664177022465,4.064713875923468,1.8215453328380233,-2.3118173333743126,-5.628784799258229,3,left
13.088,-0.6587326883212722,1.2833256147027066,0.18883311367882807,3.4227581567577587,-4.8627109163374005,4.0992621940611285,1.9763661541633855,-2.681832307872045,-5.916324153748729,3,left
13.089,-0.6357481693713449,1.3168169203764624,0.04507687881996779,3.4772695930283595,-4.74150661506025,4.070542577080392,1.7721561524215816,-2.193758965351129,-5.53702866047362,3,left
13.089,-0.6242179245014486,1.327903828819228,0.006298727630977362,3.4757786182565673,-4.744750543369977,4.071330788106821,0.9151425644414972,-0.14455512254630265,-3.9455731246566783,3,left
13.093,-0.5654965972761992,1.3765234027961704,-0.13817462999648158,3.3719213792010296,-4.976168733909717,4.125852536086246,0.7109408992546802,0.343574745467195,-3.5662908400776043,3,left
13.094000000000001,-0.4802364603167217,1.4408556803247825,-0.3143564988963746,3.6271987843575095,-4.407343021321788,3.991923445020304,0.8657339036999849,-0.02655164634464434,-3.85373141471124,3,left
13.097999999999999,-0.361603107004832,1.5082535958748688,-0.40732822968133753,3.2039353844909866,-5.350526394321751,4.21390162887449,0.772424609298415,0.19676531896659072,-3.6806254333607065,3,left
13.099,-0.26784651194424214,1.5609668014019629,-0.4616148279236806,3.7622234241843246,-4.106445342677604,3.9211789108646986,0.8103001660952488,0.10576291663583146,-3.75059550961234,3,left
13.1,-0.24464013385206929,1.573604524757574,-0.46531762163840823,6.10537002341511,1.1161460565876375,2.6926021293065423,0.8109924165444596,0.10472183577625617,-3.7523996348335324,3,left
13.104000000000001,-0.15284367917946462,1.605431049558768,-0.4503827107124739,6.663677253427114,2.360233288980267,2.3999486574055497,0.7909212196445452,0.1521116131710743,-3.714614042616502,3,left
13.105,-0.025166057218188674,1.6353456037590042,-0.39737575172916273,6.240401381681268,1.4170054334646238,2.6218147299803896,0.814847250066362,0.09516190321237027,-3.7592662868184803,3,left
13.107999999999999,0.058373206991690726,1.626961614297112,-0.29218286788188885,6.495641524026183,1.9859624744899906,2.4879888775872754,0.7963916536513742,0.1397929242928782,-3.725429270516283,3,left
13.109000000000002,0.13455595135221426,1.6028137314177346,-0.17702408842244094,6.391913697457412,1.754290477636157,2.542487562329945,0.8060021793454799,0.11519297952034521,-3.741872940426914,3,left
13.113,0.1788271170982937,1.555830142792924,-0.041347790318847284,6.3901847212999865,1.7514082645978744,2.5431439617411833,0.8044181571130904,0.12176984571807711,-3.741348251461437,3,left
13.114,0.19263934131762428,1.4924609238000253,0.10273844850363803,6.445005020277543,1.8722415640953343,2.5147586016994508,0.8008966141773792,0.12676943126563225,-3.7318434915389576,3,left
13.117,0.1866575473350658,1.4231168019054876,0.23635562379891534,6.379416926211027,1.7273820946863192,2.5487926050243095,0.8061833281792258,0.11685460004774245,-3.7440246231216445,3,left
13.118,0.16481079619447278,1.3470546805457024,0.36289509938165854,6.430373360036818,1.8403897078304843,2.522229566894114,0.8018771033278942,0.12717454420798507,-3.736048684616472,3,left
13.122,0.14541313300519917,1.2654384205442266,0.47559800864082447,6.4032743976906294,1.7788617845757366,2.536735367596377,0.8034883350280186,0.11826757104146926,-3.7346560529380524,3,left
13.124,0.12673417408723414,1.179186884828911,0.5696594754390687,6.408578946628603,1.7943069742517226,2.5329912799511503,0.8051472819083474,0.125851987247006,-3.747757251939322,3,left
13.127,0.12373940504181616,1.0869612216120106,0.6445422521070309,6.417484846284044,1.8079251561065652,2.5299811885423926,0.800791442695534,0.1190350958240857,-3.724719581592441,3,left
13.128,0.13355786544614817,0.9899870860870704,0.6967843154189,6.402900488389223,1.7830606710607397,2.5355918247996128,0.8061231878089214,0.12465615381470328,-3.750556400295905,3,left
13.133,0.16062915348736156,0.8939968805761133,0.7218851500558727,6.416296943286234,1.806829829571265,2.5301909750067253,0.8025808562362633,0.12251186728541191,-3.734770683384842,3,left
13.133,0.20572428230645606,0.8037908315280813,0.7110980494701113,6.4084087364691,1.789192661979211,2.5343410352700917,0.8009626417669322,0.11723265382397699,-3.7238282910585814,3,left
13.137,0.25965595969550526,0.7308974404458963,0.6630769800639542,6.408885260336192,1.8015547101563354,2.5310806658818192,0.8106928545823937,0.13400745414852805,-3.7766345057186834,3,left
13.138,0.3286155657720945,0.680830759183739,0.5847740084973643,6.4156816329464075,1.7908824241168224,2.5343972112256554,0.7920222850593845,0.10439391892564122,-3.6775430148000257,3,left
13.140999999999998,0.3646460396481824,0.658821999143431,0.46298032026699104,6.403654907844951,1.8025935997945441,2.5304395335042034,0.8162219629382945,0.14188018037956712,-3.8052003118239073,3,left
13.142000000000001,0.3804910114232506,0.6431888861707336,0.29897665107052324,6.416826104279532,1.7908928153507566,2.5344743013995092,0.7959231052114619,0.11081240772935684,-3.6984481137818124,3,left
13.147,0.3392728255029598,0.6501256079688984,0.10808567282441586,6.40866233232337,1.7964163784744083,2.5324339917184036,0.796620537961318,0.11130267736468781,-3.7016117624735765,3,left
13.148,0.21208113164193104,0.6974172818882802,-0.08915011971584602,6.404370394882481,1.807307719104285,2.529233291289044,0.8349329701714295,0.17147534534651443,-3.904437617848227,3,left
13.152000000000001,0.054182561038558424,0.7562084264768028,-0.26432974493354683,6.427644724067273,1.7696742227547673,2.5408812786448545,0.7405509359455831,0.0240852175851399,-3.405518948862418,3,left
13.152999999999999,-0.26723585718683407,0.9168338886004106,-0.41342992364664416,6.383674973548344,1.8376570006343012,2.5197054856584904,0.89712265524001,0.2682737059862632,-4.232900178775843,3,left
13.155999999999999,-0.5332748796265188,1.0750208307794131,-0.49318441657190676,6.44031105068564,1.7507671808033218,2.546801300082393,0.6905743596031968,-0.0537406480874236,-3.141531908910082,3,left
13.157,-0.6109591384794888,1.117784371102032,-0.5066642002545784,6.392962776614654,1.8231472884739612,2.5242180737738433,-0.176272893553287,-1.4056598978840855,1.4392294020132737,3,left
13.158,-0.9278463672565411,1.355837910710647,-0.5025873454538101,6.394508717508188,1.8218085223994245,2.5246831317093688,-0.3828297070890902,-1.7276633922221651,2.530612797923469,3,left
13.162,-1.379431677178356,1.7592059430994644,-0.4120558524981387,6.483908154483311,1.681749268040551,2.5682265023173256,-0.22623178663591062,-1.483527266170165,1.7031836573773893,3,left
13.163,-1.7401451214413566,2.135092767144431,-0.2539289277099374,6.26387985560246,2.0252764582178333,2.461372461902915,-0.3206704783575836,-1.6307780109406615,2.2022078361751998,3,left
13.165999999999999,-2.0303027279902057,2.589705718577062,-0.16573702861895767,6.628753657541168,1.4558670541080352,2.638499893062563,-0.282264584888985,-1.5708629329497388,1.9992059156574333,3,left
13.167,-2.1199501187141125,2.8704421542447287,-0.15501809076198148,6.147509555088424,2.2069176749659776,2.4048695568620175,-0.2816853857398254,-1.5700165486290145,1.9962672053245734,3,left
13.168,-2.106253652755389,2.9244362303170384,-0.15619092920621613,4.127564358691469,5.360148411926172,1.42403821234034,-0.301881059121472,-1.6014362984019934,2.1028200917415587,3,left
13.171,-2.0765355941785035,3.0677126676997606,-0.19270999671826528,3.6464040571273086,6.111307976142143,1.190382917153711,-0.2777012682966337,-1.5637976708798644,1.975207374046438,3,left
13.172,-1.9876728656658564,3.1639237316498976,-0.36862868775248014,4.011187190122419,5.541780704836162,1.3675373562001945,-0.2965171301780567,-1.5931090304712883,2.0745654036907433,3,left
13.175999999999998,-1.838587441495527,3.144461958219944,-0.6724159610572347,3.791124414323137,5.88526305706223,1.2606935724445099,-0.2864152799230246,-1.577312840112158,2.021062417955788,3,left
13.175999999999998,-1.5843582235283402,3.13645542864633,-0.944757428010073,3.8808245887395483,5.7455948044346385,1.3041473967834254,-0.2886206625785177,-1.5808981707097942,2.0331164481211195,3,left
13.181,-1.2423016598226342,3.0866206588439518,-1.0728952065790662,3.881723446290848,5.743414760855072,1.3048051437348511,-0.29149757764557926,-1.5851330699394526,2.047629913814759,3,left
13.182,-0.8578426742906591,3.0073694317389856,-1.0213743973196108,3.8353029654496917,5.817001080084334,1.2819456253341752,-0.2866146723353892,-1.577825718228868,2.0226713998904757,3,left
13.186,-0.47027003977073334,2.90160244214401,-0.8265127320964952,3.891015145394882,5.728910137367894,1.3093165879360398,-0.2911622091125342,-1.5846730394141002,2.0460294400844727,3,left
13.187000000000001,-0.12218699806870137,2.7219443097769336,-0.578202736294003,3.8474440556619376,5.797411155049383,1.2880220384806835,-0.28823971919047076,-1.580114175985086,2.0305812674300174,3,left
13.190999999999999,0.16933281116656793,2.4557524565024424,-0.32802932386353534,3.8715117087615174,5.760809128836761,1.2994338338098594,-0.2891757734277157,-1.5820233939517536,2.036770885798356,3,left
13.192,0.4027715202468125,2.1147386738699527,-0.10561108722981359,3.8646641929538097,5.768377910355802,1.2969941119147452,-0.2899545740712309,-1.5822106435564036,2.0380444849810093,3,left
13.195,0.6096592931616062,1.7645680726209219,0.08802069828503473,3.860903824293005,5.779626328998488,1.2936425258878528,-0.28809395361265955,-1.5808410178454326,2.0324518647253136,3,left
13.195,0.8106107844871269,1.4397786546544227,0.27100155467907017,3.8686709041357084,5.760899767962337,1.299286641833688,-0.2902075221114577,-1.5825046411067567,2.0391012791087384,3,left
13.2,1.0185709013702664,1.1419763451037763,0.4388328488401795,3.860952656023,5.778212146913717,1.2940457901167428,-0.28878073085527567,-1.581221990558753,2.034173203751621,3,left
13.2,1.234134962754197,0.8780085419918997,0.5955965246668247,3.8677872991435724,5.767589972476226,1.2973511855747848,-0.28856912927262635,-1.5817065531666363,2.035305023652003,3,left
13.204,1.4379562559223213,0.6419587851279316,0.7318196229635456,3.8602687153275976,5.769557218781356,1.2964713939419419,-0.2911620716250336,-1.582190249411632,2.0391576960927082,3,left
13.205,1.6149683848691714,0.4362113003809313,0.8131537183801849,3.8706522137437154,5.7756752733166,1.295180524490845,-0.28605254221764226,-1.5808217652581595,2.030423596664331,3,left
13.209000000000001,1.718087864194148,0.2711692862626428,0.820690852299644,3.8567900747473955,5.764005789087033,1.2978970737689677,-0.29268101758977616,-1.5826866126484895,2.041995109459,3,left
13.21,1.7458954051158397,0.1461520726604043,0.7945139394276886,3.871264240652366,5.776919380775817,1.2948538582845324,-0.28711974171375854,-1.5810836833250863,2.0321903508773382,3,left
13.215,1.6775494010916858,0.07576639672559851,0.7501232866422484,3.863379976177272,5.7687102858341035,1.2968447770234077,-0.28737550295013475,-1.5812983590273895,2.0330094471701545,3,left
13.215,1.5134413853538775,0.05903669202173376,0.6643959220512783,3.854211201216308,5.765336676905342,1.297409189337201,-0.29763483369785526,-1.5838000702762502,2.0498883079806074,3,left
13.219000000000001,1.3057061033221569,0.07931277739658246,0.5556023366963293,3.8904549483987516,5.7861622936464805,1.2930536866174307,-0.2722943111261411,-1.57744226531998,2.0077499862289705,3,left
13.219000000000001,0.9959010324172539,0.15219341195051844,0.40048176359923393,3.8239413491623253,5.74644699613561,1.3014713020336464,-0.31434255090090013,-1.5880466516077751,2.0777849968788082,3,left
13.224,0.7735861672252908,0.21284737701796044,0.2840059369658999,3.9091910687257343,5.797688927821358,1.2905862937183077,-0.25887784659861335,-1.5740406384666308,1.9853963061584534,3,left
13.225,0.7198915154585874,0.22882350438830756,0.25305029576804305,3.8380832545383456,5.754809880702773,1.2997046602127333,-0.026218729623906076,-1.5155638471109034,1.5983822546274036,3,left
13.225,0.5536691961315157,0.2916769432002224,0.11087037651703606,3.8397661669626193,5.756352977569615,1.2993388846750882,0.029235267395946663,-1.501539152612302,1.5060621963219538,3,left
13.23,0.3849805604129165,0.36822319172828133,-0.09631744983295713,3.97614846289851,5.836859976622261,1.2823422508512183,-0.012802687486920756,-1.512182803036952,1.5760240207979246,3,left
13.23,0.3523301138331072,0.4005630992940902,-0.24740915126525953,3.641222396902572,5.6385335679426465,1.324257891687929,0.01254684457994649,-1.505765202316058,1.533853668675926,3,left
13.234000000000002,0.3663614916807916,0.42302432958759817,-0.42158872193492736,4.196468902901632,5.967481089379188,1.2547245665550626,0.0022395961512594598,-1.508338990774837,1.550986653250917,3,left
13.235,0.40494373895644464,0.43090910399929794,-0.5280853147203974,3.4641176186622307,5.533600252371366,1.3464390157771806,0.0020805954397446107,-1.5084915267976302,1.5512641884122014,3,left
13.235,0.4221434854402893,0.43210057182312056,-0.5463032747695932,0.3900719891832626,3.7131701527016263,1.731169996776278,0.007508212734084854,-1.5069032790525414,1.5422317406889734,3,left
13.239,0.4691983596784104,0.44945292283800387,-0.6162784832490837,-0.3422248977326406,3.279399450220583,1.8228510158005173,0.0010064921989880534,-1.5088464619049782,1.5530394119400852,3,left
13.24,0.5516887539785025,0.48217682518960486,-0.6980632674707903,0.21286903338266758,3.6081606329615266,1.7533738317759182,0.006073105311105756,-1.5072715532776715,1.5446252041460993,3,left
13.244000000000002,0.6257308065620433,0.5409749128013086,-0.7492661467933839,-0.12174745560157973,3.4100268595696916,1.795232488090007,0.003344180936227523,-1.5080857679643906,1.5491561296702048,3,left
13.244000000000002,0.7209896765248229,0.6305902799000047,-0.7950081197146015,0.014145693369398499,3.490438549163615,1.778261716949117,0.00394713706841097,-1.5081899296268344,1.5481415292558784,3,left
13.249,0.8164537962969391,0.7469088724752028,-0.8206029221922295,0.016423872186928562,3.4918589920962164,1.7779377226395974,0.004726105022120506,-1.5071743131742186,1.5468900173229985,3,left
13.25,0.9141839417771362,0.8813323789361551,-0.8372180909843936,-0.055171408938611756,3.449418177524909,1.7869181837284103,0.0033794465359787084,-1.5089225927451198,1.5490505208294645,3,left
13.254000000000001,1.0126847807664843,1.0114133103325633,-0.8479177186502822,0.030106550338461074,3.4998960107030443,1.7762679243201287,0.004670662265015845,-1.5068696182242263,1.547002097040164,3,left
13.254000000000001,1.0896485495235266,1.1203104161059758,-0.8479221977861455,-0.03557031969801665,3.4611189219311527,1.7844033467598783,0.0037900949027218443,-1.5084681667162125,1.5483868665227838,3,left
13.259,1.1524620810414878,1.2015232687010093,-0.8425012645249,-0.0013068388329051384,3.4811985769738545,1.7802630885148143,0.004132483454488063,-1.5083945103860197,1.5478168511696395,3,left
13.26,1.186712051740215,1.247189399237416,-0.8229587430046441,-0.007461946845601575,3.477815607705945,1.7808512860814731,0.004308763922611539,-1.5057951947633477,1.5476722733570722,3,left
13.263,1.1807858647812184,1.2518216189284928,-0.784256366149724,-0.01862800361396061,3.470992388250263,1.7823940142115198,0.0037173868840406125,-1.5117822238489214,1.5483156763409682,3,left
13.264000000000001,1.1386276075321256,1.2147939688697469,-0.7212728585198044,-0.0021563616599416567,3.480749955119826,1.780333455230171,0.004555518002018772,-1.502862106671869,1.5474294525718333,3,left
13.27,1.0700716709680116,1.1478049372444188,-0.6398900699098627,-0.014576509316560066,3.4737717595855693,1.7816199383174145,0.0037204308264755528,-1.512356203458351,1.5482771089225762,3,left
13.272,0.9928504903473248,1.066819184304714,-0.5582168450726106,-0.01116913390304549,3.4749218312529817,1.781805671401508,0.004203389170814114,-1.5068706250658785,1.5477862138647305,3,left
13.273,0.910419023731661,0.9825457880192296,-0.4848644929308663,-0.00532333149955375,3.47968121500712,1.7801615147821037,0.004491094355817054,-1.5021737323383515,1.5475783963133964,3,left
13.274000000000001,0.8330045917979603,0.9051268375205977,-0.4191950051956729,-0.016368526345402618,3.4717545364230897,1.7825154265413028,0.0030658908356832534,-1.5227701045475426,1.548767015554119,3,left
13.277999999999999,0.7734210175995113,0.8421010645911958,-0.3551853624510957,-0.0075307576492785085,3.4777930926001694,1.7808501238056205,0.005716806375574016,-1.484572481936683,1.5465484161859409,3,left
13.277999999999999,0.7154773069532553,0.8054746485282507,-0.2928157879079767,-0.0050817076511463465,3.479923800303154,1.7800548923171506,0.0023240517793099266,-1.5336168041347378,1.5493799598523172,3,left
13.283,0.6603608398971819,0.789858480839216,-0.24115642931832346,-0.026712096452078844,3.464108937096227,1.7848867491011036,0.0051509700170856085,-1.4926742016222287,1.5470231811135444,3,left
13.284,0.6009366753713323,0.8001699412697068,-0.1947570622095561,0.01658153065434308,3.495331918734678,1.7755340751305535,0.005062383966112448,-1.4937839447972223,1.5471119984226842,3,left
13.289000000000001,0.5285976734442857,0.8430446857250173,-0.15042799522237596,-0.04041785606491243,3.4543954305244813,1.7877135368669999,-0.000273723712906846,-1.5718431377905986,1.5515035070048864,3,left
13.29,0.4672887041734649,0.8936312303998558,-0.11749583266687334,0.00776479008004965,3.488940202341739,1.7774797927737773,0.012849126200668949,-1.3799842152304542,1.5406879319108762,3,left
13.293,0.37992155351700724,0.9756506140778118,-0.08478638374810356,0.005955068553544122,3.487669634051449,1.7777992847875548,-0.00890617589528193,-1.698092356213463,1.5586221087789265,3,left
13.294,0.3131746717979179,1.0399223529116695,-0.06266232108660721,-0.08499236868031401,3.422435535958453,1.7972467108579209,0.0197841131279394,-1.2785120834372101,1.5349702195834851,3,left
13.294,0.30482917172997526,1.0502776762961132,-0.059117338994620586,0.1394477677849158,3.5833804817463055,1.7493764490983588,0.1402172401865592,0.48271233036467465,1.4358271529042534,3,left
13.298,0.2238413965296127,1.123643596797243,-0.040753163265578464,-0.23310584627023567,3.3162213603017756,1.8287683490544753,0.16890371274404908,0.9022929834262503,1.4121869408183694,3,left
13.299000000000001,0.14299407916198562,1.195276192579477,-0.023127994337816808,0.25848307453611785,3.6687726389904025,1.7240588974118913,0.1471501715986308,0.5841791969707327,1.4300940492883734,3,left
13.302,0.1312101722772337,1.2024752417305948,-0.02187502538165778,2.3223028439151117,5.14818999137233,1.2841261218892668,0.1602829802625079,0.776056502118037,1.4193247965962135,3,left
13.304,0.05990921154717572,1.2552685165249262,-0.009953488131356686,2.8139683056623728,5.500879855293257,1.179460875924546,0.15491588239911255,0.6979604538087604,1.423652808781586,3,left
13.304,-0.030200636592453298,1.3104096225175492,0.0011241207342446433,2.441192257039094,5.233488114972407,1.2588224271118573,0.15488242282892717,0.6969044762191919,1.4238078300304626,3,left
13.307,-0.09295090484356242,1.327795187039368,-0.00374894779676431,2.6660954439947133,5.3946688845218755,1.210872064238556,0.1576395498420604,0.7377904319129711,1.421412505075625,3,left
13.308,-0.15692932477196309,1.3393818720698265,-0.016261202053194295,2.574403143826456,5.329328409770211,1.2306057744771133,0.15430474063498206,0.6887769842267446,1.424212011809245,3,left
13.314,-0.20039946537881567,1.3236042586962142,-0.03356628804590751,2.5735149723168016,5.327883394662822,1.2303945570606767,0.15695210427186645,0.7270087001288112,1.4221380067839147,3,left
13.315,-0.23454626365225234,1.2904598338887245,-0.050728266060962354,2.620921595650489,5.363001188161386,1.2208534788931589,0.15542771801205535,0.7062765607773416,1.4230528050947426,3,left
13.317,-0.2608376369452593,1.2474454185721444,-0.06358131559351343,2.564013878004101,5.321090777438972,1.232428453408894,0.15594988235027318,0.7112228351900205,1.4232086473164638,3,left
13.318,-0.27710230183838025,1.191066070982743,-0.07247580071953746,2.6085326405663984,5.353482886114058,1.2231782815569345,0.15607714446896342,0.7163854312331588,1.4223854383841488,3,left
13.321,-0.29509103986385965,1.1295119924296606,-0.07834061852479472,2.583909514615037,5.336778777215889,1.2288940167272848,0.15562728252916155,0.7071743736144461,1.423328406484421,3,left
13.322000000000001,-0.31059059241019527,1.064876069170385,-0.08922237275476552,2.5909854393568708,5.338805166812518,1.225879203329129,0.15623498578459905,0.7160381955152497,1.4228330816847365,3,left
13.327,-0.3230614828695966,1.0069348781808332,-0.1115668996137707,2.5946976887114848,5.34670921265249,1.2276819515139428,0.15546490382073783,0.7096607166845834,1.4224051310716082,3,left
13.328,-0.3317170854755762,0.9576519843789874,-0.14139734836359563,2.5869183954634494,5.3347021889195325,1.2261583123906779,0.156474257343113,0.7132592455885289,1.4240010388703421,3,left
13.331,-0.33404922873939547,0.9154450622746718,-0.17374103559506507,2.5946811409071815,5.345391577222246,1.2270395930522562,0.15523278813681413,0.7117562919056315,1.4214026546066059,3,left
13.332,-0.32220873682439805,0.8876829178452854,-0.20078720545825324,2.5876936222919324,5.34042895808061,1.22855128399142,0.1564594985100484,0.7119440614515491,1.4242521960258439,3,left
13.337,-0.2915248846287556,0.8754626738474764,-0.21824556643482335,2.595612583786846,5.336596715400686,1.2221596801290753,0.1558155800059069,0.7127839487828151,1.4225523114434724,3,left
13.338,-0.24431374987882506,0.8740322492161405,-0.22851005251461692,2.5844664364783823,5.350335112148354,1.2352845804381527,0.15505879561376806,0.7105593790033595,1.4212531171852563,3,left
13.341,-0.1833549110028014,0.8829968340856931,-0.2336335663489289,2.5994284111886716,5.328647401369648,1.2160600560019486,0.15799869493165883,0.7148554360066732,1.427245519029054,3,left
13.344000000000001,-0.11643610633232848,0.8986946736736697,-0.2389974258645634,2.583790728760947,5.351988614256603,1.2364868674984852,0.15263457386263848,0.708173481205213,1.4160601123578247,3,left
13.344000000000001,-0.04589212336804943,0.9139604781201085,-0.24474874125867555,2.592333172292645,5.338151830844305,1.2247898749406594,0.159490633825019,0.7162904106030398,1.4304488773808006,3,left
13.349,0.021733169646174895,0.9289506614571403,-0.24857678801855201,2.602132457841206,5.327960437075893,1.2141861937035665,0.1537803157702854,0.7097094086933666,1.418425274722841,3,left
13.35,0.08015263209876303,0.9458677601324049,-0.25325586756384116,2.563237967416965,5.375403779663912,1.2597388056300758,0.1539140751221606,0.7095866033041045,1.4187679953212173,3,left
13.355,0.13231925669655015,0.9602865974730785,-0.2616505579063207,2.634642078373653,5.286907895911726,1.1754172752649512,0.16485776952998427,0.7229359406788016,1.4416487031552048,3,left
13.356,0.1733543263942746,0.9716012350399361,-0.27597864822379037,2.543126404249998,5.400654436354851,1.2836523802518636,0.13798970864915044,0.6905596240569947,1.3853855111238604,3,left
13.359000000000002,0.20385960316521073,0.985611711855865,-0.28800001988602547,2.61944810320372,5.305648950685531,1.1933115478457799,0.18252660397938986,0.744077713177963,1.4786823076623874,3,left
13.36,0.2194179567247921,0.9942715305953673,-0.28988585037537784,2.6176677988899035,5.308393719452888,1.195690934875519,0.12378714118933973,0.6735457534775768,1.3556201631744598,3,left
13.365,0.22179941180660728,0.9956615868611022,-0.2888456947827256,2.47123106360613,5.4889766702663625,1.368158063115074,-0.12278750911971416,0.37725487039187783,0.8390806573263033,3,left
13.366,0.22625444275694517,1.0017029848796422,-0.2837540253365183,2.830791250207516,5.0449260790158235,0.9443421200244468,-0.1815250677655738,0.30672795105395895,0.7160149791985005,3,left
13.367,0.21972601668072045,1.0067119142110568,-0.2729873979325729,2.2347463163651304,5.781228992409255,1.647015657886334,-0.1369934536207894,0.36020916769989164,0.8093196032955867,3,left
13.370999999999999,0.2083628045523367,1.0073680361617652,-0.26889261605522025,3.0208855082066917,4.810050856513888,0.7202066496718248,-0.16385088909317436,0.3279420644321389,0.753043681693119,3,left
13.372,0.20501492571867175,1.006369478378839,-0.26679879705319953,6.32210185236184,0.7336423916339361,-3.170503608349108,-0.1529238815763272,0.34108006107950506,0.7759409486062663,3,left
13.373,0.18658150027002976,1.0001196888236454,-0.2596533035065101,7.108311372046618,-0.23751817887355697,-4.097332555212478,-0.15276993155469215,0.3412587093553691,0.7762675751389874,3,left
13.373,0.15653846589753115,0.9921510426085309,-0.2550679223444604,6.512057774611398,0.4987841257600868,-3.394592092287364,-0.15849661855884906,0.3343681950157785,0.7642514078905036,3,left
13.374,0.12670053996702332,0.9825856354205869,-0.24789699410432925,6.872058600486092,0.05466114791228355,-3.8185604713906773,-0.15163997289637832,0.3426400583734368,0.7786523056414378,3,left
13.379000000000001,0.09365676910732865,0.9731828055127489,-0.23505778537274596,6.724906181048516,0.235441469419078,-3.64583372424007,-0.15697516514186793,0.33617587681710276,0.7674253832828701,3,left
13.38,0.06156165039037484,0.9673115729356606,-0.22204520528624555,6.724019024771997,0.23785131126206513,-3.64379169449857,-0.15410301110342697,0.33968305362224127,0.7734909686530406,3,left
13.383,0.02664179757514033,0.9608117998275313,-0.2096613716696052,6.799577914795675,0.1432541952380311,-3.7338259564950453,-0.1547572483930422,0.33887138209590134,0.7720998493786864,3,left
13.384,-0.011099315337734518,0.9573178053004938,-0.2063123182908841,6.708175079588896,0.2566838289511503,-3.625674878276394,-0.15551219073864342,0.3379173692324431,0.7704767171595364,3,left
13.389000000000001,-0.0466696686285175,0.959048906812911,-0.21515514909389188,6.780731508847129,0.16815803322905176,-3.7103710111645585,-0.1542189623147614,0.3396263236626738,0.7733187475182957,3,left
13.39,-0.0857139317020564,0.9615520708776021,-0.21973333308090573,6.7389727213742,0.21625751130172216,-3.663799529744724,-0.15540928527643483,0.33792726572321863,0.7705968777988217,3,left
13.392999999999999,-0.12699971489552825,0.9647878567223291,-0.20982412372368248,6.753237714583478,0.20461315752150944,-3.676056560862821,-0.15463930046941926,0.33918314230836144,0.7724897010936675,3,left
13.394,-0.16564647564706642,0.9692465942984922,-0.1951397777784717,6.756788476758005,0.19290482792198327,-3.6858294184927276,-0.15495410481901578,0.33854089892370787,0.7716072977169692,3,left
13.398,-0.20175401832707585,0.9761136965096795,-0.18132593407339193,6.744406152890803,0.2140322306681992,-3.666781954863973,-0.15495191298018673,0.3385414310469823,0.7716099012953377,3,left
13.398,-0.2313373351092904,0.9843658513215038,-0.16854862480219351,6.761062005337898,0.19351430592564284,-3.6863741139312545,-0.15484687522596108,0.33915716626879266,0.7722434522242498,3,left
13.404000000000002,-0.25540857247755777,0.9906916990413068,-0.16362261481325302,6.740055455403806,0.20863345111572157,-3.6698741288132073,-0.15488477838123194,0.33799246390607024,0.7712191020112578,3,left
13.405,-0.27438154559330064,0.9950165742052913,-0.16520982778568788,6.767489629790119,0.19948628836535226,-3.683334900322702,-0.15499473569757094,0.3395301425083443,0.7723984483372422,3,left
13.408,-0.2825466762726032,0.9978255218011138,-0.16830020268604598,6.73380818577102,0.20418555458587584,-3.671792966940249,-0.15478018074083844,0.3380078303207016,0.7713450960367919,3,left
13.409,-0.2828185509337322,0.9994500427782793,-0.1728792429549394,6.767061697280656,0.20244972382224236,-3.6809721881303727,-0.15493527862903642,0.33884999055955933,0.7718886611844158,3,left
13.413,-0.2786241242839686,0.998199783024266,-0.17664927759477123,6.7496259394686815,0.2012575695831606,-3.677763680378405,-0.15508185121846796,0.3395606628850934,0.7723297581149584,3,left
13.414000000000001,-0.26673261903341583,0.9945827296987526,-0.17639007161883347,6.729068124770962,0.2070548041054766,-3.6684837530077496,-0.1544028080361246,0.3364959225477403,0.7704769825817492,3,left
13.417,-0.24979660637679119,0.9903259314988052,-0.16584683933307826,6.80884011884856,0.194274317386867,-3.6970792159867694,-0.15569793424549733,0.3421362915018968,0.7738383416146805,3,left
