time,gFx,gFy,gFz,ax,ay,az,wx,wy,wz,subject_number,foot
15.42,0.16359321586319583,0.9637673605181504,0.05948340835918316,-7.186732616823764,0.45032338127163324,1.164169365435428,1.0768463584014425,-0.634180382288743,4.1570196312905505,2,right
15.421,0.1899173980873077,0.9513919321600314,0.05694387694444434,-7.577019394345173,1.0010370470646253,1.240315346410317,1.0742402919312597,-0.632272455202437,4.18493158834476,2,right
15.421,0.22463689595089648,0.9400350634977104,0.05357841074332002,-7.281120056480509,0.5834931745756132,1.1825836907524587,1.0741614440132614,-0.6321833391751344,4.185027288986019,2,right
15.425,0.2554134317030413,0.9274323798134274,0.050228794595096604,-7.4595301623616095,0.8353597067764564,1.217417407306515,1.0755975640311894,-0.6332851110223052,4.170882694309552,2,right
15.425999999999998,0.2941538287208429,0.9102711277542659,0.05082019282008059,-7.3870918950999105,0.7328102579307154,1.2032067250847964,1.07388956740254,-0.6319842734260437,4.187915277429912,2,right
15.43,0.3267818209576496,0.8949462824432165,0.05243097000335081,-7.3857335518774665,0.7315105298890763,1.2030889260869149,1.0751992852156254,-0.6329681538799342,4.174506877895727,2,right
15.43,0.3596957335002138,0.8772263036002828,0.055436184774224975,-7.424268725829803,0.7850412714224728,1.2104035673497833,1.074556871979774,-0.6325266955874151,4.182179677380895,2,right
15.435,0.3942968234806039,0.8620846383148575,0.05814998482897958,-7.37820758962097,0.7208716370806338,1.2016169269660966,1.0745535516784535,-0.6324188351950912,4.179387532709916,2,right
15.435,0.42334740702441875,0.848534528841949,0.05448740158026483,-7.413919401003751,0.7709171198822911,1.2085000505698105,1.0750154208401417,-0.6329408982707837,4.179370785953283,2,right
15.439,0.45351563039593185,0.8354685129122882,0.04730607119822383,-7.3951600641276585,0.7437197252874256,1.2046643553024103,1.074356255889084,-0.6322324503761204,4.180370426779622,2,right
15.44,0.4820238806127799,0.8266338304254166,0.032369499201783336,-7.398277266246149,0.7504279159288536,1.2058322749720922,1.0749264622583143,-0.6328300176438755,4.179099490205896,2,right
15.444,0.5056035597926885,0.8209878652208924,0.009277786042850162,-7.40552056666438,0.7566799836905275,1.206283006025776,1.0747291375748038,-0.6326860383866221,4.181229492847611,2,right
15.445,0.5265165928842661,0.8233669301159209,-0.012683725650870758,-7.394076684788693,0.7453978035197717,1.2052306666725605,1.0743114846848028,-0.6320499812821838,4.176814233995617,2,right
15.449000000000002,0.542434717851461,0.8317567953069751,-0.0350508944122522,-7.404436789319837,0.7561396194585726,1.2063112079772635,1.0754652299150673,-0.6336503204596107,4.184795035416955,2,right
15.45,0.5536926485695436,0.8418652681820741,-0.05601999438295722,-7.398931975821957,0.7483341117490381,1.2052283916461017,1.0736963772304233,-0.6312280186115257,4.17339468232907,2,right
15.454,0.5554614281396832,0.8560334904630835,-0.07205051015108381,-7.3974165606117985,0.753397912714362,1.20667955426093,1.0755907954187927,-0.6338163855921005,4.185453083763556,2,right
15.454,0.5441699784415394,0.8748988591420225,-0.08957135423668283,-7.406391220536218,0.7496073595015776,1.2044389774879463,1.074482348428681,-0.6323111252393173,4.178635094346272,2,right
15.46,0.5252834475034314,0.8961661130341814,-0.10949435362339505,-7.391683488789652,0.7533984861320111,1.207524086991866,1.0735958014717404,-0.6310628697617517,4.172019613756923,2,right
15.460999999999999,0.49407466871794953,0.9178691848819892,-0.12688218566857312,-7.407606612997634,0.7497038386728183,1.2042828948121351,1.077588349205847,-0.6366055706532472,4.199762534334438,2,right
15.463,0.45092930984789326,0.9395628150130606,-0.14234979040667883,-7.398020461621633,0.7512912986179927,1.2060805669594616,1.0701641019447257,-0.6263131910077258,4.148532553397937,2,right
15.464,0.403508801932712,0.9572065559163921,-0.15456579209221316,-7.391672551222586,0.7553720442457545,1.2080034132346618,1.079701306950418,-0.6395308006359948,4.214263523144496,2,right
15.470999999999998,0.3531626216064707,0.9710316774822764,-0.16373365762608758,-7.422585762245555,0.7419512376836126,1.200197976906443,1.0717380057313357,-0.6284970873055828,4.159410601048889,2,right
15.472000000000001,0.3010385282565211,0.97730303514065,-0.17244200807136678,-7.364695677259718,0.7660405262414769,1.214564279553271,1.071959152236556,-0.6287957242249365,4.16081331279297,2,right
15.472999999999999,0.2508784602806159,0.9734678130625982,-0.17507946578529798,-7.439149891194752,0.7352862316992369,1.1961401626703712,1.0871236768719026,-0.6498297318303402,4.265669724138531,2,right
15.474,0.2066102018605196,0.9656724177043108,-0.16677509746907826,-7.376950374820929,0.7608922495374486,1.211514370485567,1.049846044430617,-0.5981359153626566,4.00804814077436,2,right
15.481,0.1604587186950511,0.9448733275951854,-0.14535964737128915,-7.378808368935733,0.7604701351314468,1.2111301204478653,1.1116533127857249,-0.6838382385841235,4.43516183540128,2,right
15.482000000000001,0.13252355767986762,0.9278517303043428,-0.12924721228400604,-7.49681705027356,0.7107481204326214,1.1817040373330139,1.0301333349221025,-0.5708097678917744,3.8718174423816762,2,right
15.482999999999999,0.12750565277357861,0.9261894998626898,-0.1259843251237498,-7.2065805792897875,0.8326468066751702,1.2539979301329467,0.687963192105797,-0.09637893883449686,1.5070728514259124,2,right
15.484000000000002,0.10088714953466701,0.9056129813212772,-0.10905737011803737,-7.687829751008818,0.6306048168197055,1.1341326668297826,0.6064562380829777,0.01660676154451382,0.9437670908823261,2,right
15.485,0.07687928727930218,0.8856078281578303,-0.09413890278007665,-7.053096287514252,0.8971039081096743,1.2922439269137627,0.6682410879948243,-0.06902033516790512,1.370805751653581,2,right
15.489,0.07506299225248596,0.8830964886817136,-0.09333480985301237,-4.388677275907683,2.015978173455028,1.9558490404170459,0.6309875924729679,-0.017411466862738,1.1132859939109865,2,right
15.491,0.05742889369890329,0.8658292414376372,-0.08396950542053697,-3.7540287363697926,2.2825348251310578,2.1139828924370105,0.6461380492087799,-0.038387560535844086,1.2180383570424582,2,right
15.491,0.034017912293554844,0.8494062155665993,-0.07978956241356205,-4.235186034926241,2.080430565612484,1.9940931866111657,0.6463488396989783,-0.03866956797360913,1.2195028028739716,2,right
15.494000000000002,0.014400018285917079,0.844733510907689,-0.08747680622023837,-3.9449145863968176,2.202305541657549,2.0663777812966937,0.6384329131742927,-0.027772780514181514,1.1646911828886797,2,right
15.495,-0.006614144164209644,0.8373510945051879,-0.09703253875606507,-4.063228115083776,2.1527901545377315,2.0370327813162805,0.6478823113707112,-0.04071277890703071,1.230218859137574,2,right
15.498,-0.020213647999447516,0.8346209255889605,-0.10831362164249447,-4.064430235889046,2.1519234887370167,2.036474073078621,0.6405714083535767,-0.030802522005619903,1.1793777544853383,2,right
15.498,-0.031277777487793076,0.8332789341292088,-0.11615004972789525,-4.003171073327434,2.1781668759054775,2.0520984166305714,0.6444654737256468,-0.03597907967061534,1.2066012571761728,2,right
15.503,-0.038526434351182914,0.829371295341562,-0.12592146892236855,-4.076688935372258,2.1467779284607658,2.033425219157903,0.6435970533274643,-0.034870362720308086,1.200465171461595,2,right
15.504000000000001,-0.037834888019067994,0.8269945982156914,-0.13597050435180483,-4.019202786686323,2.17114099497043,2.047898991004156,0.6426271404955916,-0.03371489265833593,1.1934987253863532,2,right
15.508,-0.033858818678063604,0.8223012314444867,-0.13729791718362466,-4.050920243490069,2.1582653175304083,2.0403074533853482,0.6441713287035671,-0.03524743807294747,1.2050200648130354,2,right
15.509,-0.02470066454235166,0.8145188580706255,-0.13808975781380917,-4.04198196269923,2.1605903025716966,2.041541290941549,0.6429507837496484,-0.034602412383862476,1.1951218448543819,2,right
15.513,-0.010467256260812602,0.8013941275094453,-0.1440947045335897,-4.036858941129638,2.1652028684290614,2.044526143417406,0.6434902135619396,-0.034065839225211614,1.2006447219522833,2,right
15.514000000000001,0.0024546217472401705,0.782411204006169,-0.15230628889657094,-4.047304884698419,2.1577958096817205,2.0398279945920623,0.6434750793032051,-0.03506859195877793,1.199109428351313,2,right
15.517000000000001,0.006923979860820191,0.7608850215254102,-0.15634705892132306,-4.0369635284750895,2.164546422140728,2.0440746432615993,0.6434818513857157,-0.03508709691332847,1.1991437182169573,2,right
15.517999999999999,-0.006428548560269968,0.7366433286961718,-0.15182481482948676,-4.045977784503937,2.160782767072214,2.041844456945981,0.6428452496840833,-0.03230518011748387,1.197397939913553,2,right
15.522,-0.043700985650752346,0.7158344837366855,-0.14306403535275328,-4.03635795965363,2.1603533414606946,2.0411400196775675,0.6445805652959495,-0.039051451613980576,1.2033259123669016,2,right
15.522,-0.10636545652264269,0.7009677935540053,-0.12992664018633943,-4.0493731747147965,2.1651007319330544,2.04498339465423,0.6417607588934519,-0.028666992324976815,1.192885822941534,2,right
15.527000000000001,-0.1857367622118862,0.6933873644669909,-0.10846128194195889,-4.032105402570849,2.1571164259006483,2.03871491603533,0.6449017666513309,-0.0399242112102607,1.2049484332691591,2,right
15.527999999999999,-0.27276617117138535,0.700503569717992,-0.08340508009398359,-4.050112271895225,2.1657958032197193,2.04549673684872,0.6430437596315531,-0.03336002436632417,1.197680541644621,2,right
15.532,-0.3605717663708335,0.7259298790349171,-0.05683294187132784,-4.040341231103795,2.160515821749249,2.0414210656515563,0.6414240590676783,-0.027676435406105218,1.1912907041441971,2,right
15.533,-0.43290873555593123,0.779175767388284,-0.02390022533474763,-4.028784168488848,2.157277475190895,2.0386864992209297,0.6485643703663817,-0.05262208107379697,1.2196132918463576,2,right
15.536,-0.49014664320699985,0.8608452818609675,0.006410766194988214,-4.0742307455226925,2.1735990773152736,2.05192866548523,0.6352730338536304,-0.006291452165930803,1.1667462504702102,2,right
15.538,-0.5250160775571904,0.9646684980125491,0.029814361606134564,-3.990878495347962,2.1429430217119103,2.02714124320803,0.652374076485784,-0.06582991602296799,1.2348671806192977,2,right
15.542,-0.5254507731775808,1.0757329966078173,0.045719759745599706,-4.097695127627074,2.182393295772599,2.059020632822866,0.6380822299130222,-0.016103007868836092,1.1778928768429102,2,right
15.543,-0.48029690442729317,1.1742560778366187,0.05004953334442837,-4.008609401235308,2.149423983509438,2.032385950457234,0.6384671980915211,-0.017447646786803602,1.1794206600079535,2,right
15.546,-0.3868137046240617,1.266366693971765,0.06783878144449672,-4.010684558656731,2.150449332303083,2.033185449992219,0.6657498901868089,-0.11230605225960545,1.288277837344268,2,right
15.548,-0.29516250746099665,1.3510486903800207,0.11326392866512852,-4.181642958022339,2.2128767888519847,2.0837130619577504,0.5986838890819082,0.12085740311917006,1.02066305938687,2,right
15.550999999999998,-0.1470343592808639,1.457817903061576,0.2055164186836611,-3.7618566387912313,2.059283133592605,1.9594312762284787,0.709891130256451,-0.26574906285580124,1.4644426176900538,2,right
15.552,0.030974720708482936,1.5622770031818036,0.3048971345725853,-4.457760347522223,2.313985632875937,2.165517733382255,0.563203679389448,0.24418494126340937,0.8790537629674059,2,right
15.552999999999999,0.033772396444087666,1.5638989770109228,0.3084637319033874,-3.539900869497751,1.9780353891140114,1.8936919051634011,-0.0525042976172755,2.3844269642392093,-1.5782453655470081,2,right
15.557,0.03821833200719176,1.5666627899599015,0.3097017342788594,0.3134069025402709,0.5680565172752099,0.7528029513538521,-0.19918830384768874,2.8943091586128955,-2.163664350538027,2,right
15.558,0.265657231988787,1.679205787005168,0.40288654017631215,1.2312396733318038,0.23213332579472115,0.48099440354240774,-0.0879912951229246,2.5078192441705704,-1.7198381260388327,2,right
15.558,0.5586806267736009,1.8005157167236558,0.4881614899050773,0.5353975365734505,0.48680186415805116,0.6870587869524215,-0.15503567063635385,2.7407897372984187,-1.9874903316383576,2,right
15.561,0.8717665442826454,1.8938730295672703,0.5325795883477279,0.9550791048705348,0.3332136966465314,0.5627818535252377,-0.1277881220440017,2.6461871571459543,-1.8786385684642337,2,right
15.562000000000001,1.2251309886256452,1.968153275170868,0.5478304083969885,0.7842634665449233,0.3957039777312013,0.613346819785341,-0.12735927364486385,2.6445871971323722,-1.8770305083425263,2,right
15.565999999999999,1.5328145158988917,2.006746411316189,0.5370853484433298,0.7820405491086246,0.39657126173968127,0.6140494702938417,-0.14168862996830303,2.6944439172286856,-1.9341748651424493,2,right
15.567,1.7510228987489302,2.030986825634055,0.5306011320513965,0.8712105049907426,0.36384690879696335,0.587566841526229,-0.12458196492784533,2.635071288179853,-1.8658159408200714,2,right
15.571,1.8404670773992007,2.0461837010326738,0.5191352662473293,0.7644694261999723,0.40303036174758633,0.6192783388686041,-0.13781681553752848,2.680782408025924,-1.918913197124564,2,right
15.572000000000001,1.7987013796960767,2.0482855078916895,0.5008027903720718,0.8474930069835537,0.372531947889914,0.5945939609094897,-0.1308170628132596,2.65695690677006,-1.8905010693828035,2,right
15.575999999999999,1.6567153094330735,2.036212743824015,0.49244760286946504,0.8026637981197481,0.3889847068512049,0.6079097808101479,-0.13221753842955455,2.6612044508368453,-1.896673874402727,2,right
15.577,1.430431273705318,2.0095155025532945,0.5037638914352957,0.8134057805247445,0.3851553433014367,0.6048166485296625,-0.1343206230307164,2.669009508038554,-1.9046024502042591,2,right
15.583,1.1560957682375494,1.982502170026057,0.5358544206629238,0.8239150681270417,0.38098936548759577,0.6014276567595143,-0.13101985718326528,2.6575399971927407,-1.8914249547959485,2,right
15.584000000000001,0.8704390482500743,1.964387931246454,0.5548791514232906,0.8057094517823877,0.3882000233410019,0.6072936466085289,-0.13375609395514776,2.6661345329787354,-1.9032072802909337,2,right
15.585999999999999,0.6029129277803396,1.9547599280294667,0.5222314158049897,0.8220794128811084,0.3815383216568679,0.6018644878165261,-0.13250617022834005,2.66388508641888,-1.8962491545536437,2,right
15.587,0.3820756494343607,1.9503969140140436,0.4355017349850504,0.8114871732688745,0.3859484310308955,0.6054640769208002,-0.13218151971896092,2.6596305492378995,-1.89789165259795,2,right
15.591,0.22040636513880657,1.9368046764471234,0.32833969953442704,0.8171972975035378,0.3838652390645435,0.6037783982762672,-0.13349196840827093,2.6675183423992843,-1.8999896965106415,2,right
15.592,0.1246068953862672,1.900096118147589,0.24860422765014883,0.812706779982769,0.38451440483589305,0.6042466188820155,-0.13224250334583815,2.661249176538969,-1.8968125021889215,2,right
15.595,0.09581431580079983,1.8369839653555422,0.21151445899707924,0.8198377887323214,0.384173731007585,0.6041019610623286,-0.13220205492053097,2.6594496233827027,-1.8982114301941873,2,right
15.595999999999998,0.11891919607976142,1.7507431879991109,0.19741466571073524,0.8084751566995068,0.38494919406815387,0.6045335268847692,-0.13456730098027325,2.674934316010921,-1.9008235809492355,2,right
15.602,0.17049177279117744,1.6529542720793784,0.18691723085235706,0.8215497551335157,0.383768235368215,0.6037873399512552,-0.12954297916807828,2.6439992076407535,-1.8934326918282935,2,right
15.603,0.23536802486338554,1.5513641605342596,0.1592407950433502,0.8140091422340878,0.38444927185251165,0.6042164995263277,-0.13627752999077664,2.684706410523905,-1.9040532610569012,2,right
15.606,0.3038460475268273,1.4543158258372606,0.10974408941717739,0.8053598488729284,0.3858111306014644,0.605216229494443,-0.13053420185192088,2.65029994838457,-1.8947030535411282,2,right
15.607000000000001,0.3615785604067099,1.3512813467173022,0.05174946760005716,0.8404221362753158,0.38084774954876055,0.6016535079170297,-0.13079433114503247,2.651598512260554,-1.8953755891893997,2,right
15.61,0.40760445372275245,1.2455955699929628,-0.004461825199836369,0.7755461735961584,0.39000881226820555,0.6082228044971394,-0.1415517977526382,2.716522544355934,-1.912426706156673,2,right
15.61,0.4391446076263542,1.1435072339321906,-0.05025647257706026,0.8590176180029259,0.37817373202971577,0.5997319820786368,-0.1149236355669383,2.5562878743309576,-1.8697648058699285,2,right
15.615,0.4452140793850782,1.0080781269125851,-0.08745848602249884,0.7892654901349689,0.3880943204344855,0.6068490289534021,-0.15916393525055053,2.822281494124711,-1.9408605945742647,2,right
15.616,0.43477526218432877,0.9085620293827188,-0.11088191766074253,0.7908933582498716,0.3878830777511232,0.6067121308931338,-0.10076757749278996,2.4712790345130156,-1.8469082983391507,2,right
15.62,0.42561465226564643,0.8809339032840011,-0.11934878699324317,0.9249421338440016,0.3686766491278021,0.5928838238664433,0.14436235570910388,0.9979439119122391,-1.4525147605084126,2,right
15.620999999999999,0.39928724145132627,0.7919444738838659,-0.14676382075909772,0.5957048502397633,0.41586982781744436,0.6268427240003436,0.20278145467794134,0.6468451351121197,-1.3584637146330663,2,right
15.620999999999999,0.32104469811102043,0.6491979664465721,-0.2061665690560368,1.1415663848500879,0.3375827378976131,0.5705182403755117,0.15848993918561202,0.9130437758702472,-1.429776394270481,2,right
15.625,0.25848829441118626,0.5793701004369909,-0.24644628073139743,0.42155689069188435,0.4408878913254318,0.644837047944151,0.18520300162793318,0.7524916602068786,-1.386765327165601,2,right
15.626,0.23846148972203945,0.5582695711672756,-0.2589419336983197,-2.6023300104846534,0.8740051147660037,0.95665658201025,0.17433282750144377,0.8178061779999412,-1.4042656603421517,2,right
15.626,0.15620237856577918,0.5015635642276879,-0.3022946644188792,-3.322466561604025,0.977316171698527,1.0309902738242969,0.1741853854193809,0.818756352344239,-1.40450850643786,2,right
15.629000000000001,0.0258906320046607,0.44751105828994947,-0.3731657800032821,-2.776286008023855,0.8990965715985382,0.9746745699725827,0.1798710725875573,0.7844556888643945,-1.3953445872895984,2,right
15.630999999999998,-0.10568550918435034,0.43815016302421883,-0.44969248968225395,-3.1061140689770657,0.9460256465554852,1.0085392070519614,0.1730641095216715,0.8255493101894608,-1.4063164839420748,2,right
15.636,-0.2670161686382946,0.44735487641062077,-0.5410990574857706,-2.971195554692163,0.9273798726152609,0.9949460236967781,0.17836071555123545,0.7935343112167346,-1.3977771801189394,2,right
15.638,-0.43985538269896884,0.47575248012591154,-0.6361658492751434,-2.9705533686288454,0.9263227062567647,0.9944246169244898,0.17550226422955334,0.8107912325083173,-1.4023844592485315,2,right
15.639000000000001,-0.6140583285403346,0.5111836693227113,-0.725859892094882,-3.0396013110091435,0.9371676431337306,1.001995787202167,0.17617591616126138,0.8069028317797013,-1.4013081990808693,2,right
15.64,-0.7861932895199435,0.5406915272943262,-0.7973614113007919,-2.955945368141255,0.9247725063458372,0.9931741410198872,0.1768769297686262,0.8021773752707284,-1.4001520238334046,2,right
15.644,-0.9336639117115442,0.5710210253960697,-0.8380212703227059,-3.022545706935698,0.9335059800054585,0.9996607751755076,0.17566311162436946,0.8103543049882448,-1.4021536235476646,2,right
15.645,-1.048607691775449,0.5977004260297524,-0.8519937076254176,-2.983851874680772,0.930565604224864,0.9969015135547608,0.17677241310418074,0.8026053650863123,-1.400309734372146,2,right
15.649000000000001,-1.1305574678276797,0.6289912824494474,-0.8413561516921451,-2.9976792911937014,0.9280638096503981,0.9962066395992125,0.17604462096194207,0.8078419342777058,-1.4015275267087635,2,right
15.65,-1.1949755623713507,0.6690500067631928,-0.8169206349939333,-2.999999219862671,0.9338958504460524,0.9990483281920389,0.17640751353278503,0.8056689786546174,-1.4009437056097889,2,right
15.655,-1.2462121704417526,0.7144897558627568,-0.7912914570249721,-2.9894008498568585,0.9279931571484274,0.9958802929524693,0.1762212361187465,0.805186836301572,-1.401158332964981,2,right
15.655999999999999,-1.285192913718284,0.762375096926354,-0.7656166311180502,-3.0046619378374264,0.930142400669079,0.9974372501882928,0.17644781603550816,0.8074850787898813,-1.4009882376720042,2,right
15.66,-1.3230836671599338,0.8086989276350505,-0.7441225583876271,-2.9840457353150676,0.9353185869053682,0.9991573978272903,0.17606355236546645,0.8043344933678006,-1.4013166535756398,2,right
15.661,-1.3489207803869823,0.8562977467282584,-0.7265198612811821,-3.0123198259963937,0.9207875559517915,0.9932808261708098,0.17653454539468139,0.8073243054705367,-1.4008675200053498,2,right
15.665,-1.363646774841465,0.9015650579181795,-0.7019598416870791,-2.9767734831306436,0.9434177246633135,1.002733703520673,0.176263076458327,0.8055928178487579,-1.401126330558362,2,right
15.665999999999999,-1.3632321020333245,0.940973211108119,-0.665199150822569,-3.012242022579411,0.9189435320373353,0.9924043212009623,0.17589291966758983,0.80491819957041,-1.4015674704722718,2,right
15.669,-1.336182424361248,0.9806092245403896,-0.6152600275740836,-2.993369500970189,0.9333215537630222,0.9985438968518636,0.17733662221453322,0.8089296103694454,-1.3999181825231937,2,right
15.67,-1.28711247589286,1.0222828973302787,-0.5465970203863597,-2.972061433912114,0.944979221259889,1.003303809361251,0.17466805946259967,0.8014376833173427,-1.4029636809003065,2,right
15.674000000000001,-1.2093768230222341,1.0647565421931586,-0.4565142177925632,-3.056023832824109,0.8925981147534194,0.9814869993385734,0.17810588224527504,0.8109899111464266,-1.3990339471455475,2,right
15.675,-1.1243989585212057,1.1076496827818012,-0.34478348535081316,-2.9025016265422714,0.9900652686001463,1.0221831750451393,0.17523071571499862,0.8030460347570796,-1.402324417805741,2,right
15.679,-1.0192088577455296,1.1429385342349585,-0.20397932954018397,-3.098856131811527,0.8647890354846475,0.9698362171880373,0.1752941270376851,0.8033473269932057,-1.4022550378312761,2,right
15.68,-0.9082584633024318,1.166043739690846,-0.06433692057739115,-2.935236287246674,0.9694383681895972,1.0135860517937187,0.18083778002196543,0.818127130553989,-1.39589051987729,2,right
15.684000000000001,-0.8026185766174592,1.1763987734469248,0.04743784077388259,-2.9392154537219772,0.9664982748578621,1.0123175264656061,0.16722319553944526,0.7817344954534744,-1.4115230831617622,2,right
15.685,-0.6422331746290797,1.1702039920939284,0.15315242672752988,-3.252418881439472,0.7672305497381808,0.9291116946613421,0.1897976832106727,0.8420693516711347,-1.3855967461750152,2,right
15.689,-0.5404170051928663,1.1607194036062274,0.21538159890384045,-2.4832137619108288,1.2571811237816122,1.133761346346123,0.16001875709332514,0.7625082197145259,-1.4198041957908725,2,right
15.69,-0.4841594237707081,1.1568621827316699,0.2314177924689922,-3.758413300457577,0.44472892075199416,0.7943661869351395,0.034982562054144045,0.42878371316976277,-1.5633908499957916,2,right
15.69,-0.38439840095005484,1.1513847067051926,0.2581727205564772,-2.0764283744723073,1.5164156584570596,1.2420851507303268,0.00519880350639859,0.3492520695851091,-1.597615172346202,2,right
15.693,-0.32684657585657095,1.147720184047106,0.27319544904940973,4.982873988765667,6.014156800336346,3.120789587365839,0.027781172165276875,0.40953908441388587,-1.5716663091396657,2,right
15.694,-0.19584561148920482,1.1496070631526507,0.2748857181556127,6.6650201920239045,7.085933939781134,3.568591092593417,0.014159180584921556,0.3731907638529809,-1.5873070574576988,2,right
15.695,0.016560608799837916,1.1621209945413933,0.2730616198095037,5.389706077325258,6.273375332458637,3.229100433555181,0.019704860467830133,0.38796002325633305,-1.5809719058272782,2,right
15.698,0.19064176227976815,1.1898979989099572,0.2499215294385724,6.158632610702119,6.763319152347506,3.4337380635280956,0.0197768511139435,0.38820625637486983,-1.5808185048663101,2,right
15.698,0.37357114286104987,1.2250705371340553,0.22617005535109394,5.846445502653774,6.564313101417148,3.35078322398454,0.016879022959558294,0.38040357014028797,-1.584246126368141,2,right
15.703,0.5365641556817126,1.2587027953609837,0.21125678145141363,5.840571883330397,6.560768051580705,3.348944435226379,0.02035235407236678,0.3897374460408084,-1.5801589807417302,2,right
15.704,0.6644149144646101,1.2837777707620188,0.19509264278846578,6.006673980701228,6.666318339911305,3.3935361078372144,0.017644435814833683,0.3824841319403788,-1.5833110974697846,2,right
15.709000000000001,0.7666886596849111,1.2918702586446957,0.1684466833507464,5.808139967218284,6.540103010088652,3.340320632053012,0.019113030354929395,0.3863503006644101,-1.5817078072227893,2,right
15.71,0.8187002669968402,1.2744944349456908,0.1310385241927094,5.962059806277498,6.638053234513295,3.381447679970579,0.018757962695968137,0.38557114654693,-1.5818473752163706,2,right
15.713,0.8360964668213228,1.2327707323842207,0.09201320202875346,5.8812196802398065,6.586299115765548,3.360247356312856,0.01840641622962995,0.3843446809783153,-1.5827128790140068,2,right
15.713,0.8179094401625655,1.1735841426947524,0.05779402006799492,5.894621734333255,6.59562840369429,3.362798917473719,0.019033098918025272,0.3863697585714535,-1.5814267369734605,2,right
15.718,0.7663978327990335,1.1023181301610039,0.03497217024409319,5.925895081072955,6.614193563894421,3.372869880110567,0.018438966793073296,0.38450346249757705,-1.582560515792066,2,right
15.719000000000001,0.6880690433046175,1.0307163846511807,0.020927594822768906,5.876505007656133,6.5843945828675325,3.3575815559328412,0.01886101812929322,0.3856275223057831,-1.5820798551101394,2,right
15.722000000000001,0.5841798003241143,0.9693308948212754,0.013718289782100395,5.921211789198553,6.611548017991229,3.3711883707233317,0.018611568895103223,0.3854814898269372,-1.5815287311078927,2,right
15.722999999999999,0.462833634651048,0.9234293589255729,0.010491390576311627,5.897482503665256,6.596417025675558,3.3648873477813597,0.01876073593882115,0.3846918396931196,-1.5832714781094848,2,right
15.728,0.32256617181142966,0.8965942406963351,0.007567506125143367,5.890858935247847,6.59466827849576,3.3599576921471623,0.018639021622591026,0.3861390393210138,-1.580555930932567,2,right
15.729000000000001,0.1668066876594801,0.8860278227456683,0.008827113909483139,5.929757805947014,6.613804145649014,3.377548332730745,0.018750000940623908,0.38454585091913074,-1.5834721996911552,2,right
15.732000000000001,0.002066357982950486,0.889666309586305,0.00975618607261395,5.866035681807066,6.581630946261671,3.3497909153632266,0.01871549710292491,0.3855462561593843,-1.5817533460985498,2,right
15.732000000000001,-0.17148321820214188,0.9051482651135355,0.005125669605511026,5.935026334877673,6.616603702119862,3.379664043518466,0.018539004735402258,0.3860142716852897,-1.580439632676673,2,right
15.737,-0.3479787562382084,0.9269364789785253,-0.0018165323079660125,5.893486466237881,6.595329315346241,3.3619557349611267,0.0190712485377171,0.3833194285731981,-1.5864637048132364,2,right
15.738,-0.5182542975740254,0.9525295089983923,-0.007533157758568505,5.8659796140439155,6.582275304541904,3.3489043825495806,0.018127499435666737,0.3884349240276392,-1.5752427746822006,2,right
15.743,-0.6807401879103565,0.97884307120948,-0.009130905688935358,5.999955849648027,6.648057610608581,3.40964977028782,0.01932966972112954,0.381838291736481,-1.589661586433741,2,right
15.743,-0.8325024784365882,1.003825860449562,-0.007037880022734562,5.749036965735664,6.524501040852874,3.2963389588929575,0.018329850120942133,0.3873591398192241,-1.5776203746397877,2,right
15.747,-0.9623845380590272,1.018794583784383,-0.007708230445981013,6.0717880729843134,6.683505971832476,3.4419878830294817,0.018342097425264513,0.3871620574672251,-1.5779616760626722,2,right
15.748,-1.0686104011411843,1.0234000217466548,-0.011075466741224742,5.802102628030075,6.550615657841071,3.320324633051617,0.020297421488399282,0.37678481909480166,-1.6008696071962367,2,right
15.753,-1.1443749241019276,1.0238846422531167,-0.018711442041255733,5.810289044675181,6.554764291601506,3.3238660081341784,0.015508669634655445,0.4023531058198659,-1.5445482623793945,2,right
15.753,-1.1807914996954423,1.0124020175072905,-0.03614106868260563,6.321644245261631,6.806356009148926,3.5550570880562375,0.02344452050949573,0.35993627508742665,-1.6379338539779829,2,right
15.758,-1.1939243277356453,1.0020664118081002,-0.04725815205130122,5.063722663431867,6.187317740044497,2.9865072257655574,0.012977057196525005,0.41589609402021566,-1.5147613714769363,2,right
15.759,-1.1881424036156307,0.9964075483905203,-0.05256204912886971,7.1497242112853545,7.213888481019924,3.9292902712700823,-0.030976218625571553,0.6505995747010923,-0.9977364115559255,2,right
15.76,-1.1761465476326078,0.9849846152300978,-0.0635497985675086,4.3982268995705684,5.859821843649093,2.6857260569558363,-0.04144637562829387,0.7065733066027624,-0.8745710506484459,2,right
15.763,-1.1693307572357465,0.9785592567630192,-0.06881398827935065,-7.149332105250698,0.17706388142508933,-2.533417330274323,-0.03350761111935373,0.664141427466012,-0.9679489384193971,2,right
15.764000000000001,-1.1299353728873658,0.9655386993392264,-0.07688828131691153,-9.900812696770753,-1.176956897880131,-3.777009577591267,-0.03829525183824624,0.6897039730923442,-0.9116246586121065,2,right
15.764000000000001,-1.0554775784705277,0.9441620587519058,-0.09196481069470826,-7.81482922680422,-0.15043577542499514,-2.8341962064756183,-0.03634960065968473,0.6793766996397739,-0.9345581575458121,2,right
15.765999999999998,-0.9685004179737302,0.9306528115420769,-0.10244482570986156,-9.072757732346025,-0.7694929038694188,-3.4027345182647295,-0.0363165446507384,0.6790721335483699,-0.934844452845399,2,right
15.767000000000001,-0.8621913822665919,0.9203188060519863,-0.10956975585110976,-8.561342435444802,-0.5177366299671897,-3.1716440764683433,-0.03734619672642246,0.6847470738144321,-0.9228821036854931,2,right
15.770999999999999,-0.7447483765215243,0.9162126661932688,-0.11250367484004338,-8.553285263686234,-0.513942074891752,-3.167886186662556,-0.036114323249552216,0.6779970199639818,-0.9372223909394064,2,right
15.772,-0.6245543268323794,0.9202191358925556,-0.11965013169725905,-8.82278544567345,-0.6463246999570009,-3.289859858078459,-0.03707088180476358,0.6831786729435312,-0.9260353311093569,2,right
15.777000000000001,-0.5010203025307163,0.9263184061466943,-0.13426919878888294,-8.500218761749696,-0.4878253361077102,-3.143901839887006,-0.036564160436499626,0.6806156692875143,-0.9321268598046273,2,right
15.777999999999999,-0.38147558035221274,0.9355136738245351,-0.14718757850551972,-8.751058181697992,-0.61116373532017,-3.257345980801455,-0.036658465490610505,0.68065915643742,-0.9305958961528347,2,right
15.782,-0.2666441203233768,0.9467752855827108,-0.16545773005578193,-8.61692332318761,-0.5449473566287664,-3.1968661052605376,-0.036834565871106645,0.6823909491988689,-0.9292513476197573,2,right
15.783,-0.15341933273362302,0.9594066543069468,-0.18915115675938013,-8.644940702119559,-0.5593997441689065,-3.209062324030806,-0.036549828707727564,0.6799002633447631,-0.9317082780483109,2,right
15.786,-0.04243736251844823,0.9727506107366375,-0.20615427481291212,-8.685601162618568,-0.5782646079954679,-3.228243975640597,-0.03681004633185773,0.6820628441819087,-0.9293588959481645,2,right
15.786,0.06521920984089141,0.9839538441845512,-0.2148061574192634,-8.617689497430536,-0.5462490058200709,-3.196562779697372,-0.036662170750781126,0.6812799078582861,-0.9311050018962774,2,right
15.792,0.169064771974536,0.992462875690175,-0.2150281025862179,-8.680551798433001,-0.5760645229600048,-3.2257615360860035,-0.03665446329380999,0.6798055401835221,-0.9298741524458419,2,right
15.793,0.2667966959867666,0.9971289695614253,-0.21166658788191692,-8.6416443487951,-0.5569078670572427,-3.2081840622924735,-0.03681999677530775,0.6839646732556462,-0.930946716604049,2,right
15.797,0.35458778673398095,0.9985379391120531,-0.20886643820729264,-8.649865624432328,-0.5630313403977472,-3.2104382346685423,-0.036537631004492685,0.6775710336947222,-0.9297634756892268,2,right
15.797,0.43198818436074077,0.9978582297545601,-0.2028694811892346,-8.669945279892454,-0.5681642257908219,-3.2228530419811663,-0.036845213977331044,0.6844217632382505,-0.9309471610830282,2,right
15.800999999999998,0.5011640331646174,0.9930822650865865,-0.1980693889496108,-8.630681821895323,-0.5559266649775276,-3.200125923215378,-0.036657122712499844,0.680408103054323,-0.9303859079785403,2,right
15.802999999999999,0.5583698810631231,0.9862214280338054,-0.19390477928485203,-8.67427081225754,-0.5698245724419753,-3.225136133306318,-0.036546432935525244,0.6772229249944045,-0.9292945840070936,2,right
15.806,0.6028152473013382,0.9801549066370967,-0.18643393876065217,-8.646346509580146,-0.5604476176818836,-3.2094489184680066,-0.037115004880208836,0.6916118764385452,-0.933076181837671,2,right
15.806,0.6325181430341922,0.9725703654126469,-0.18074221072422839,-8.63584031932729,-0.5590371425047729,-3.202052617259919,-0.036045479011052727,0.6648469093321971,-0.9262428322850477,2,right
15.81,0.6406880436368138,0.9633201390523735,-0.1765864176697439,-8.704025499352007,-0.5761312665182857,-3.244448723742267,-0.0374220748481496,0.699231781944465,-0.9349766602592775,2,right
15.811,0.6371034578414121,0.9573470979200661,-0.1746362897110786,-8.573566565811111,-0.5424598216792316,-3.164016818048271,-0.03627166619447815,0.6705195348204065,-0.9277019404301655,2,right
15.815,0.6145190263175664,0.9532566958282114,-0.17632711862825845,-8.741983461265981,-0.5861365695334206,-3.2676987727685205,-0.036307575143618515,0.6713218824155798,-0.9278353327151329,2,right
15.815999999999999,0.578614359278068,0.94676172646875,-0.17511289763061025,-8.601013015140445,-0.5494958203250364,-3.180979332899881,-0.038485066756782225,0.7259849739751225,-0.9419142930243516,2,right
15.821,0.5405705576405941,0.9426681104748182,-0.1702330635938979,-8.606233598326567,-0.5511705396705606,-3.1839488240623885,-0.03312784865605113,0.5916025175215952,-0.9073854965159731,2,right
15.821,0.4771442212894585,0.9421047253316501,-0.16544302627949195,-8.870434067179982,-0.6187924244785892,-3.347255563294633,-0.04201126557655862,0.8144191989985567,-0.9646155749752399,2,right
15.828,0.4320612239675834,0.9414760914993425,-0.1617699701346757,-8.219398618877124,-0.45178528941650226,-2.945142415504568,-0.030294497074808753,0.520527664071043,-0.8891318126125489,2,right
15.829,0.40998110231618756,0.9411085977497475,-0.1625955519221184,-9.299283504001895,-0.7288922075104904,-3.612041075941342,0.018894668536115072,-0.7131285680576199,-0.5721707541648193,2,right
15.829,0.3737686130845616,0.9401476444252332,-0.16620140033948505,-7.874870634938727,-0.36338107532650094,-2.732406620589694,0.03061132830932012,-1.0070196933544282,-0.4966778951229228,2,right
15.83,0.35147537596190614,0.9399320428917826,-0.16741294882535018,-1.8979886860208215,1.1699128787945208,0.9590422300649863,0.021726057305693366,-0.7841923299429059,-0.5539216113775607,2,right
15.831,0.3068640233136948,0.9416765888960807,-0.17016233841028494,-0.47370069967823714,1.5353201178809992,1.8385582201662778,0.027090304032893652,-0.9186143604548443,-0.5193831133279612,2,right
15.831,0.239755285879623,0.9416137043195338,-0.17888269587448255,-1.5534763220198806,1.2583333047582692,1.171805892273729,0.02489802424894063,-0.863868560522945,-0.5334571444664561,2,right
15.835,0.19251293648472245,0.938900759476556,-0.18764282653635922,-0.9022979164581645,1.4253559196001762,1.5739034615027991,0.024884315214686304,-0.8631898983908904,-0.5336196595320039,2,right
15.835999999999999,0.1418542718905702,0.9366749296284602,-0.1910833012577333,-1.167135351344929,1.3574173980329909,1.4103041794103275,0.02601059452667662,-0.891768256414265,-0.5262883586059306,2,right
15.84,0.09553445501768187,0.935567335507124,-0.19398810196961525,-1.1711115389010422,1.356461523055411,1.4080527264994815,0.024648407437240543,-0.8574624354475894,-0.5350970472450567,2,right
15.841,0.05367238498047025,0.9345683618794987,-0.19841151101929955,-1.0318243293931122,1.392041523021829,1.4936717124211771,0.025729578366196274,-0.8842940777609738,-0.5281970100863083,2,right
15.845,0.0057155766813504205,0.936015847862137,-0.20455865104848014,-1.1986912055734615,1.3494586251741931,1.3911741866900573,0.025107474822566873,-0.8696050124676673,-0.5319935590409094,2,right
15.845,-0.03477081159620479,0.942080563963104,-0.21362652193499826,-1.0686668389232272,1.3825883330087279,1.4709304849316012,0.025319796102091147,-0.8733574137241111,-0.5309903873849018,2,right
15.849,-0.0721022269528076,0.9511511725699371,-0.2211555526175178,-1.1387228037368975,1.364715660679697,1.4278964717361842,0.02537297169004487,-0.876620544961096,-0.5301998556451446,2,right
15.85,-0.10390444520437467,0.9615718286894862,-0.22582943352862966,-1.1231188309249887,1.3689105890311253,1.4379999218285346,0.02518826928941095,-0.8704500038355812,-0.531747115269218,2,right
15.854000000000001,-0.12616095801917615,0.9691676256532239,-0.22400594708642677,-1.1034511716508864,1.3733328509823772,1.4486523665506095,0.025436460733153067,-0.876661300878972,-0.5301512093499829,2,right
15.854000000000001,-0.14233149628964564,0.9714292916093418,-0.21376171064181565,-1.1374667542719414,1.3656822400862985,1.4302141608714143,0.025123747591354995,-0.8716718226106874,-0.5315028454511856,2,right
15.859000000000002,-0.1474355927065215,0.9731081309649036,-0.20150380775014134,-1.105000002056237,1.3726902788039124,1.4471147205107684,0.02553186768130089,-0.8753860073011577,-0.530389045471622,2,right
15.86,-0.14348087018421776,0.9736729547512806,-0.19050994733884555,-1.1270635307294898,1.368083574450982,1.4359990554768811,0.02503096000560602,-0.8725527328030007,-0.5313550139046254,2,right
15.865,-0.1350843877189536,0.9719781972855939,-0.18514607404511552,-1.118260537284678,1.370350947108931,1.4414585686815586,0.025525462785859113,-0.8745822353980534,-0.5305798225883449,2,right
15.865,-0.12432522454640656,0.9732596578264873,-0.18479530855683257,-1.1147691948854739,1.3692923602481923,1.4389560734262623,0.02526617943764822,-0.8740740571090038,-0.5308570824501495,2,right
15.872,-0.1151928980680556,0.9776228818152178,-0.18401208904944316,-1.1275958247188507,1.3704683998319878,1.441679872242024,0.024960467531537564,-0.8715701096861043,-0.5316265673490095,2,right
15.872,-0.10720564017624731,0.9833489325726038,-0.1820536232626947,-1.1095905164978097,1.3684239158265754,1.436919377830393,0.026146791441947037,-0.8787171603998729,-0.5292376200105194,2,right
15.875,-0.10119588424029366,0.9896505553407255,-0.17761874502003816,-1.1272873986984897,1.370987470036679,1.4429183601810416,0.023982506312893746,-0.86636352053616,-0.5334367435548144,2,right
15.875,-0.09370316049076628,0.9950629004984926,-0.1742379129126498,-1.1170475478855106,1.3695101731881592,1.4394615829940403,0.02674874890757421,-0.8819014222715158,-0.5281281327521148,2,right
15.879000000000001,-0.08311458700047922,1.0014128081225144,-0.17290460812541486,-1.1115337522315345,1.3673860661007353,1.4344344457704898,0.024444625326501126,-0.869067116664339,-0.532524949629152,2,right
15.879000000000001,-0.07307695979239248,1.0092275266691573,-0.16435615284533256,-1.1399505316868672,1.3755812882922052,1.453786273559679,0.02449900747202516,-0.8692022896856617,-0.5324598729124548,2,right
15.884,-0.058971293715989935,1.015813042077478,-0.15025470495942655,-1.087041134911121,1.3604377122259579,1.4180289593405604,0.02891387024725179,-0.8942389117965703,-0.5239324885065281,2,right
15.885,-0.041529685499326646,1.0178622430945612,-0.13777123195430596,-1.154701127023265,1.3799535223357062,1.4641140065972977,0.018073941050856662,-0.8330094460488927,-0.5448139750645207,2,right
15.888,-0.023559756348935125,1.014961353685632,-0.12480261084001025,-1.0983448943400826,1.363628507870297,1.425561090690606,0.03604318783433262,-0.9344138213874077,-0.5102205613701551,2,right
15.888,-0.011330710920877762,1.0125841379223894,-0.11735174750686224,-1.1002091353296142,1.3639809828825054,1.426392395593563,0.012342663750157619,-0.8007055731307497,-0.555839005505891,2,right
15.894,-0.007369820627414389,1.011540467187951,-0.1165278665220921,-1.2062050312275692,1.3954910939677876,1.5008162812693313,-0.08714206661328187,-0.23929265396337335,-0.7473606467318217,2,right
15.894,0.0026316504014406448,1.0077407672010175,-0.11025705197871818,-0.9454355867791355,1.3181105790593644,1.318048148333483,-0.11084453010060966,-0.10559607829511342,-0.7929789844714813,2,right
15.895,0.015761896444594643,1.002371074493078,-0.10382917865215718,-1.3777640171905494,1.4464178423042586,1.621106410093277,-0.09287309074500735,-0.2069611656798981,-0.7583911430881201,2,right
15.899000000000001,0.021650725604040615,0.9989448254127975,-0.10429440433644763,-0.8076211744970031,1.2771590214756228,1.221317722151742,-0.10371255577085335,-0.14582132352306354,-0.7792533438844782,2,right
15.9,0.022337414078565557,0.9986744199898866,-0.10532430764836219,1.5848580984697276,0.5664506268635959,-0.45729473006217114,-0.09930396497384902,-0.17070516719113873,-0.7707654273864176,2,right
15.9,0.020414252064673788,0.9982239618101799,-0.10662044075160593,2.154872119305238,0.3971562761314391,-0.8571656640920586,-0.09923562796968152,-0.17103901097392837,-0.7706420524443163,2,right
15.902999999999999,0.019304514166768302,0.9982048741097354,-0.10658533447677501,1.7227285841038513,0.5255222076556908,-0.5539810181769234,-0.1015601283352665,-0.1580239725530144,-0.7751011434416025,2,right
15.904000000000002,0.016738936186287058,1.0010708595208841,-0.10085393577917665,1.9833898110115027,0.44808466773524747,-0.7368477763116916,-0.09877313432059306,-0.17361178953911927,-0.76975714314623,2,right
15.908,0.010500603763661905,1.0020579845846527,-0.09514418270459732,1.8772639725499536,0.4796149697562596,-0.6624459651989021,-0.10094722880249589,-0.16147812373039372,-0.7739221000739523,2,right
15.908,0.003532310076602635,1.0019666457577392,-0.09234199835413688,1.875901376118971,0.4800226773717871,-0.661384716268857,-0.09977675202485145,-0.1680258099128139,-0.7716774546656271,2,right
15.914000000000001,-0.0011843149009378706,1.003102046823972,-0.08929100370536344,1.931360562698279,0.4635394673463631,-0.7004134002224787,-0.10002802575393008,-0.16649519228862836,-0.7721780785540532,2,right
15.915,-0.0041142925637549935,1.0019083512477849,-0.09031855726790906,1.864815934501286,0.4833114940035919,-0.6536721153401686,-0.10038302884346004,-0.1648534490032308,-0.7728073342269546,2,right
15.919,-0.009539244399994318,0.9992071895845145,-0.09598278718966921,1.9168316202073454,0.4678740991335129,-0.690051447999091,-0.09976902249647508,-0.1676968784698415,-0.77171833104977,2,right
15.92,-0.014177230991286108,0.9959551644798924,-0.10046601039781619,1.888407517153537,0.47627161024271436,-0.6704822761404204,-0.10036822328015185,-0.1650771484786093,-0.7727579025863174,2,right
15.923,-0.012911969650905302,0.9903071193650255,-0.10474832412173193,1.8955798621896118,0.47422235354782327,-0.6748662692817737,-0.09995405960834348,-0.16680759968602046,-0.7720513485127825,2,right
15.925,-0.009302486453856092,0.984993966378562,-0.11077541228701039,1.9020340140806695,0.47220371287884344,-0.6801936584746173,-0.10010018107659716,-0.16597760756365945,-0.7723334580725234,2,right
15.927999999999999,-0.006579219314570263,0.9813504148594299,-0.11555822117009604,1.8899681802043915,0.4758694725249771,-0.6710895023222263,-0.10024537456081359,-0.1662834175975436,-0.7724446999765302,2,right
15.927999999999999,-0.002544364476112606,0.9765704699450316,-0.11926403318366913,1.9020133258597687,0.4722923127985622,-0.6795344393162157,-0.09983283217622183,-0.16604046846252157,-0.7720349938458291,2,right
15.933,0.003271959659572855,0.9736115462268805,-0.12792419175602293,1.8925180889094981,0.4749598477271545,-0.6740613979517383,-0.10042948724252093,-0.1665086177218592,-0.772610098018226,2,right
15.933,0.007009800050280475,0.973337100449774,-0.13982358762320155,1.8993081671012797,0.4732930003447406,-0.6761074948006283,-0.09981836045430764,-0.16586917157853198,-0.7720449526565955,2,right
15.937999999999999,0.009578040194496379,0.9722742715038951,-0.15136373292018102,1.8944287644627373,0.47421962639326437,-0.6767396255077308,-0.10017168912593738,-0.1662371646617687,-0.772371960551278,2,right
15.939,0.014876035643076279,0.9737291525629272,-0.16559786005042865,1.8977094016057643,0.4738027389725805,-0.6747173782551021,-0.10042120769012501,-0.1668656963766776,-0.7725477454217637,2,right
15.943,0.021235215605166054,0.9768966819713271,-0.17324741638667362,1.8971019474281103,0.47366080382096104,-0.6767899060189311,-0.09925803921712531,-0.16451785996362328,-0.7716411952006135,2,right
15.944,0.024566747820032632,0.9793166396153086,-0.1697523444778241,1.8925730194921573,0.4747284973948246,-0.6757659771415652,-0.10141857091323492,-0.16885201867928423,-0.7733291032569414,2,right
15.949000000000002,0.02395207772925035,0.9842244195526926,-0.17039350656838198,1.9050049074837814,0.47225138509246045,-0.6750619217340386,-0.09864905070817001,-0.16326076056768551,-0.7711707048087693,2,right
15.95,0.020255217230053225,0.9887276694027296,-0.1745717537236071,1.883695219922366,0.4763263678571911,-0.6775928140257971,-0.10095891059548073,-0.1679406442671391,-0.7729684127126684,2,right
15.952,0.00968414289725096,0.9937611073554391,-0.17260788378615166,1.9104292623285963,0.4712809842895057,-0.673901364714053,-0.10089101676219515,-0.1678461226179776,-0.7729090800556943,2,right
15.953,-0.0036408520017180766,1.0023573368880028,-0.16805698990663537,1.8883754034619917,0.47541394420693067,-0.6771698612287097,-0.09651031205716654,-0.15878426581448563,-0.7695276853833704,2,right
15.957,-0.017464538160756354,1.009713513723239,-0.15809130780069539,1.8885643312115215,0.47542419792817503,-0.6767936600014413,-0.1072810712094682,-0.18103361991798123,-0.7778461918145874,2,right
15.958,-0.038487159911616844,1.0148839659604962,-0.1453870090115159,1.9317025233375595,0.4672188109251576,-0.6713265041260701,-0.08942374277041576,-0.14413987796574496,-0.7640553026731536,2,right
15.963,-0.052193608317166684,1.0166210619798604,-0.14201683856881603,1.8262628805000085,0.4872097333375901,-0.6851804585257012,-0.11297540827267945,-0.19281134987895976,-0.7822419591666202,2,right
15.964,-0.0582646515101727,1.0168985371442787,-0.14145625233815806,2.0008663534427558,0.4541310852147756,-0.6620525136364178,-0.21182549100553022,-0.39718496993072405,-0.8585595171301919,2,right
15.964,-0.06899219422035396,1.0197001224974713,-0.13860678761162537,1.7706421826546253,0.49773655095376723,-0.6926158462648244,-0.2353740264475352,-0.4458696246430453,-0.8767409670060713,2,right
15.968,-0.07523121729032947,1.019990507424569,-0.1378546673661547,0.8039605472816228,0.680864645275969,-0.8206826626083865,-0.21752116021647433,-0.4089555522647726,-0.8629577810066119,2,right
15.968,-0.0835288826956028,1.0187818418689574,-0.13805203992396534,0.573736073827552,0.7244625775054835,-0.8512587208961849,-0.22828939726166486,-0.4312209729362764,-0.8712710982212635,2,right
15.969000000000001,-0.09702982048097261,1.0206398295842787,-0.139726327476819,0.7483021102159556,0.6914085409500111,-0.8280816146427079,-0.22390531403257694,-0.4221621215293674,-0.8678861326093155,2,right
15.970999999999998,-0.1103154560157707,1.0235000753351984,-0.1374945132173337,0.642996353167324,0.7113442587759917,-0.8420556955552088,-0.22384993712534862,-0.4220315338461479,-0.8678445811360345,2,right
15.972000000000001,-0.12992644724440838,1.024827613948273,-0.1282988382088272,0.6858576969209316,0.703232035391635,-0.8363757625097312,-0.22613764884934898,-0.4267868274354457,-0.8696087097045941,2,right
15.975999999999999,-0.1488461554170519,1.0245620171899268,-0.11654368599017356,0.6864580743114044,0.7031221371985921,-0.8362847192369673,-0.2233954318591473,-0.42109087353621616,-0.8674938483956871,2,right
15.977,-0.16101251822600524,1.0246291385813249,-0.10138222359655016,0.6639617704245921,0.7073630800247608,-0.8392825900752243,-0.22553443633866083,-0.42552518182593246,-0.8691442162180745,2,right
15.981,-0.1698569404276005,1.025216874596652,-0.08717416621003524,0.6909521706625644,0.7022904737015351,-0.8356879610547969,-0.22437028132966408,-0.4231405667798841,-0.8682434976340396,2,right
15.982000000000001,-0.1746020398805416,1.0262729837429003,-0.07885419382836667,0.6698739607345552,0.7062280764266584,-0.8384977132441949,-0.22466161288349018,-0.42366964819808206,-0.8684748418900716,2,right
15.987,-0.17533891642466026,1.0278288085628469,-0.07747524539917004,0.6812974661571147,0.7041179657688147,-0.8369716931415823,-0.2249209662382372,-0.42433269514759164,-0.868663919593512,2,right
15.988,-0.17350052426888526,1.0283557899761688,-0.08356718402616042,0.6786606968056582,0.7045946025716954,-0.8373244890159853,-0.22444845336286853,-0.423199816200561,-0.8683128514704515,2,right
15.992,-0.16759135744483208,1.0284898053943743,-0.09142414358159848,0.6755629280061816,0.705135482726795,-0.8377464553066687,-0.22489982748576437,-0.4242574841354384,-0.8686503733292816,2,right
15.992,-0.15638969657490087,1.029116369001549,-0.09852014289449262,0.6810819572774889,0.7042370144232433,-0.8369835027554711,-0.22456601608162163,-0.42356839676706604,-0.8683925417536634,2,right
15.995999999999999,-0.14393014223696277,1.02684893258364,-0.1048334240741148,0.6756401854580762,0.7050151120162905,-0.8377566640006595,-0.22479726200935607,-0.4238155491417684,-0.8685914709043632,2,right
15.998,-0.13108738061199915,1.0226975976415833,-0.10709504138673784,0.679610883186908,0.7045727998105081,-0.837167848181501,-0.22460151118931518,-0.42393870070635975,-0.8683937538356254,2,right
16.000999999999998,-0.11662836881024784,1.0214314654733538,-0.10499910436782066,0.6776174039871941,0.7047035154941456,-0.8374814146548186,-0.22481384439009697,-0.4235902064747442,-0.8686271613242751,2,right
16.002,-0.10372854503493692,1.018513810759722,-0.09828634345064227,0.677619595725476,0.7047008994341426,-0.8374818915981392,-0.2246023486169882,-0.42399236095449566,-0.8683898549206357,2,right
16.005,-0.092557523269842,1.0139028043500558,-0.08725221354926253,0.6794396883269604,0.704814151626997,-0.8371487048918999,-0.224701080139654,-0.4237116400052493,-0.8685087692570911,2,right
16.006,-0.08278972789602784,1.01275736551331,-0.07866954260349208,0.6760721125885615,0.7044053711238258,-0.837804568071957,-0.22490239126925954,-0.4237093292278193,-0.8687012502318412,2,right
16.012,-0.07514678550846732,1.0114136943307541,-0.07596390480281702,0.6804434872236274,0.705138787775588,-0.8369129169839837,-0.22421161568178122,-0.42411161146451676,-0.8680062948135079,2,right
16.012,-0.06672982686186604,1.009938985120416,-0.07835489173293851,0.6761649420413003,0.7042846578416305,-0.8378127455507538,-0.225458271161692,-0.4232949631825955,-0.8692683154098074,2,right
16.016,-0.057174945543023624,1.0106404427347166,-0.0890314873765881,0.6785151900604569,0.7048013698230229,-0.8373090161003374,-0.22386529806561237,-0.42435918493825875,-0.8676540632273897,2,right
16.017,-0.04613740731474495,1.0128031231655372,-0.10194167581081465,0.6804903310176214,0.7052560583647368,-0.8368815296605981,-0.2251919305822377,-0.42346473413030156,-0.8689988686653678,2,right
16.021,-0.031558082877951095,1.0140502977391375,-0.11167893612635216,0.6719927107888073,0.7032376267990015,-0.838732962070441,-0.22516831230080814,-0.4235125900564176,-0.8689727362837627,2,right
16.022000000000002,-0.01958735532553483,1.0107170419706324,-0.12399588908670522,0.6876114453178435,0.7070076952271176,-0.8353180368462765,-0.2225986702881717,-0.4251396109125698,-0.8663756965250158,2,right
16.025,-0.011679686060412035,1.006936825067474,-0.128597156441638,0.667653312055657,0.7021480226989743,-0.8396901517048414,-0.2288997739695736,-0.4211136368317713,-0.8727459289362711,2,right
16.026,-0.003623330136704409,1.0033650155256741,-0.11858594560284576,0.6842727871993244,0.7062137012898169,-0.8360456071835036,-0.21845639845091872,-0.4277947442097303,-0.8621881868482483,2,right
16.031,-0.0009662821836457968,0.998918359165156,-0.11274695130851764,0.6838175948884454,0.7061034214412905,-0.8361453025644616,-0.23223035743774167,-0.41898346470704484,-0.8761119731976483,2,right
16.031,-0.0018240181745545806,0.9975234655856022,-0.11235530889807939,0.6522158882220344,0.6983373391801604,-0.8430821641001078,-0.29006944262406065,-0.3820147171955218,-0.9345884984318416,2,right
16.032,-0.0005420890927354472,0.9935535058885584,-0.1041877125512036,0.7298645190579324,0.7174324735278823,-0.8260348017532886,-0.303844044008489,-0.37320927805013493,-0.9485107700255914,2,right
16.035,-0.0007571843506606969,0.9867813034991565,-0.09637569779939761,0.6011460132233416,0.685765240054955,-0.8542970376705411,-0.29339997297716425,-0.37988406732568836,-0.9379546653467224,2,right
16.035999999999998,-0.0011992194450783417,0.9841224294047932,-0.09393586670224435,0.7709047479823534,0.7275392217505803,-0.8170216530116621,-0.29970081401800913,-0.37585568720546847,-0.9443255262321186,2,right
16.035999999999998,-0.0011469661744906807,0.9835275945505895,-0.09442147112931358,1.483400216348032,0.9028599353371785,-0.6605776602153693,-0.29713347398256595,-0.3775036740949441,-0.9417230395601689,2,right
16.04,-0.002540562878635181,0.9854426186902728,-0.10394869812373192,1.6531404867394017,0.944636026965171,-0.6233051144090539,-0.29710490036507375,-0.377506422791579,-0.9417086197845288,2,right
16.041,-0.005325458821567766,0.9904014111722679,-0.119912163127051,1.5244531830162877,0.9129691772612971,-0.6515614572726036,-0.29843863970281403,-0.3766766435247294,-0.9430366374191128,2,right
16.045,-0.011235924147448628,0.9951208308449276,-0.13351053698751708,1.6020696531430585,0.9320539982731865,-0.6345229209252367,-0.29683858735425894,-0.3776764697613131,-0.9414390952689156,2,right
16.046,-0.01872390253379661,1.001086372988107,-0.1339694008261595,1.5704836460247447,0.9243149604063734,-0.641449366867876,-0.29808830174938994,-0.37688759982282505,-0.9426939190115665,2,right
16.049,-0.02893208192906801,1.0068946859702754,-0.11819350099016894,1.5700494337205884,0.9241594993919389,-0.6415577078905477,-0.29740359517772036,-0.37734519567957875,-0.9419845840386027,2,right
16.05,-0.040044585945931264,1.0064220534452957,-0.1004912201136135,1.5865949842461147,0.9282795445255905,-0.6379117878595917,-0.2975853391038324,-0.37716473282634044,-0.9422233331146155,2,right
16.054000000000002,-0.04574586070027982,1.00007177121209,-0.0888430494332325,1.566765234121363,0.9233787414463953,-0.6422715060497493,-0.2977177955079493,-0.37719095919189727,-0.9422625553452917,2,right
16.055,-0.05243693763517046,0.9942089610409278,-0.0854155134467249,1.5822268589867048,0.9271424049817887,-0.6388874946721614,-0.29746490047918717,-0.3772164295413337,-0.9421230195243828,2,right
16.06,-0.060595985990598414,0.9901569557096256,-0.08790829916223158,1.5738533879435286,0.9252149409827559,-0.6406906621930704,-0.2977102546467516,-0.3771682203846092,-0.9422785268066327,2,right
16.061,-0.06338791874227966,0.9847166942261356,-0.08875528092400527,1.5758318043022461,0.9254723438963118,-0.6403173093907847,-0.29751476247191583,-0.3772941071320289,-0.9420800068315314,2,right
16.065,-0.06472932946103699,0.9792728070934928,-0.08966504451069965,1.57794757817742,0.9262746163971851,-0.6397778293979689,-0.2976848119158432,-0.37698387409196293,-0.9424237474805508,2,right
16.065,-0.06547419614141492,0.9782740305698181,-0.08799917964587697,1.5741996834416985,0.9251278045383284,-0.6406604572594504,-0.29749091948115625,-0.37756849033000717,-0.9418351707019057,2,right
16.07,-0.06426648818662657,0.9786392750052161,-0.08428789017344299,1.5777853615979176,0.9260081886006779,-0.63987373794641,-0.29773350535699095,-0.3767260857292367,-0.9426659524697265,2,right
16.070999999999998,-0.06337576818673477,0.9752155286415184,-0.0905905459981772,1.5752451755398094,0.9257996861099334,-0.6403205863971624,-0.2974836293749836,-0.37761862323594686,-0.9417892515294466,2,right
16.075,-0.06268676597686892,0.9746978212950052,-0.1040982272740184,1.5766099304603653,0.925183485554269,-0.6402742467988801,-0.2976142357727356,-0.3771115810068024,-0.9422817043215399,2,right
16.075,-0.06234646704928728,0.9782938698419673,-0.11299936338928468,1.5761378210160553,0.9264875686948212,-0.6400001124098925,-0.29779492010984965,-0.3766313814540632,-0.9427756245970773,2,right
16.079,-0.062328888329866584,0.9804716975224684,-0.11345408694119287,1.5760686539725308,0.9249565675586255,-0.6404178875393488,-0.2971157162668533,-0.3786625320634238,-0.9407279737727097,2,right
16.081,-0.06258538566197086,0.9842822344644603,-0.10761346737294711,1.5764927936589044,0.9259356176799707,-0.6400924051147229,-0.2983550810819067,-0.37490830312679485,-0.9445044159975808,2,right
16.084,-0.06450397341515719,0.9871191815479426,-0.1005147259822279,1.5756639253663927,0.9264859658332198,-0.6400732852396944,-0.29676833473047964,-0.37972630476557107,-0.9396604839347052,2,right
16.085,-0.06781888461030328,0.9890334786761172,-0.0984592790125598,1.5770873625322075,0.9235356819432365,-0.6406391820531017,-0.2980909807875014,-0.3757047703844626,-0.9437016453989382,2,right
16.089000000000002,-0.07342743562370582,0.9938217095286098,-0.1027429079726842,1.5749689424509397,0.9291350159927645,-0.6394759797340176,-0.2980626946081949,-0.3758100593373682,-0.9436015346967437,2,right
16.089000000000002,-0.08096589990314312,0.9966104699328459,-0.10863913300879309,1.577500271304681,0.9218990321998488,-0.6410102978033008,-0.29551648726525237,-0.38349080037279204,-0.9358673895954995,2,right
16.094,-0.08561366242830123,0.9989214722962017,-0.1164944729380406,1.5754683529548217,0.9279595571764279,-0.6397126500477905,-0.30176546129184434,-0.3646159023119764,-0.9548641895349894,2,right
16.094,-0.08860444786143973,1.0010537323600213,-0.12127163957178026,1.5753961116797277,0.9277652922884552,-0.6397729890817654,-0.29140729758460415,-0.39591138791336755,-0.9233721509104053,2,right
16.099,-0.0917026951128975,1.000006946381964,-0.1220799070681925,1.5796079202050035,0.9162894579267069,-0.642179929908023,-0.30506869505364587,-0.3546314954502669,-0.9649064264955465,2,right
16.1,-0.09147162082103001,0.9992160034013398,-0.12204141181154836,1.5694423609376864,0.9445394622614331,-0.6362282665210294,-0.3624314459520958,-0.18136942899562059,-1.1392950520181446,2,right
16.1,-0.09243535184803031,0.9989958254339175,-0.10870243936438728,1.5862239635682789,0.8976830283051234,-0.6461089674793871,-0.3760923904174336,-0.14008656678253734,-1.1808245782845974,2,right
16.104,-0.09571622420494176,0.9997157581603989,-0.09515691955181386,1.5641183838420032,0.9594925510829602,-0.6330726218364513,-0.36573471696851223,-0.17138526555339134,-1.14933767668101,2,right
16.105,-0.09576871143388428,0.9999940796176003,-0.091989336591252,1.4710817249907842,1.2189073962036945,-0.5783275590391376,-0.3719838769145806,-0.15251158919155716,-1.1683364360034163,2,right
16.105999999999998,-0.09906823425003614,0.9964490110340853,-0.08309370159596847,1.4489745912464307,1.280717666285664,-0.5652886382347704,-0.3694360448045179,-0.16018167284880253,-1.1605852357326594,2,right
16.108,-0.1074311235237918,0.9921494647809583,-0.08248968938938417,1.465763246949447,1.233857846017528,-0.5751810192525737,-0.3694112551879939,-0.16030989294467085,-1.1605218143808929,2,right
16.109,-0.11099979425009276,0.9885396791891861,-0.09254375240430415,1.4555793003531852,1.2621166733979763,-0.5691989130874864,-0.3707288873461049,-0.15625547959866137,-1.164510376365807,2,right
16.113,-0.10823811025048011,0.9874500319546177,-0.09236961857251602,1.459824757288256,1.2506246974902933,-0.5716615573147619,-0.3691471344628673,-0.16110622227304458,-1.1597188154061384,2,right
16.114,-0.10227211391242463,0.9917983826174092,-0.09100997802734793,1.4597063222570605,1.2504525879305508,-0.5716454308288978,-0.37038434344235893,-0.15733786535367725,-1.1634726734712366,2,right
16.118,-0.09375071309880428,0.9969245018509909,-0.09952850203428432,1.4577196563503891,1.25649141453349,-0.5704226827295276,-0.36970085452198287,-0.15934090276910873,-1.1613800210063399,2,right
16.119,-0.08371169157307175,0.9997566055606094,-0.10750400182136548,1.4602321291852958,1.249264462102583,-0.571925805282933,-0.3698953472098295,-0.15895126682333358,-1.1620188523698944,2,right
16.123,-0.07202012321122953,0.999176811286901,-0.10030039544895157,1.4580731817058914,1.2548832518311328,-0.5706954918112533,-0.37000215844639234,-0.15828817790121832,-1.1622616466510265,2,right
16.124000000000002,-0.05758154903874622,0.9896765060835584,-0.07385350316664868,1.459624942732904,1.2518714028449116,-0.5714738321406797,-0.369781488058881,-0.15937222573195609,-1.1616913081072973,2,right
16.128,-0.0460523576964024,0.9721690161132943,-0.04342890148799437,1.458575617591421,1.2525274958766826,-0.5710897713765095,-0.3700007853989613,-0.1583771370307928,-1.1622778896079011,2,right
16.129,-0.04289113901573183,0.9535944212024787,-0.02954825177273538,1.4592700943612447,1.2533768991326093,-0.5712117675922267,-0.369806695610052,-0.15896039909077098,-1.161687029266115,2,right
16.133,-0.043010108369969824,0.9383421771218347,-0.03393671708597606,1.4589854729205807,1.2519491891563455,-0.5712729588928072,-0.3700199390634545,-0.15893349253290223,-1.1624841873257867,2,right
16.133,-0.04489823942242242,0.9294967909636833,-0.04270101070013295,1.458511340279932,1.2532543235631721,-0.5709953619015488,-0.36972571573503943,-0.15841187228074688,-1.1612496525307554,2,right
16.139,-0.04762122631851738,0.9246206558694885,-0.04584242823990993,1.4602762212179583,1.2524461117806776,-0.5716115053565987,-0.3701183755604277,-0.1593296478161521,-1.1629505694779967,2,right
16.14,-0.042327638478596726,0.9198835584049838,-0.04062624385342957,1.4568216887218775,1.2526762354591843,-0.5705446901323835,-0.36970843103028816,-0.1583253438769432,-1.1611637814441207,2,right
16.143,-0.0314327361512119,0.9160870217027777,-0.03451621914347183,1.4617714689968766,1.2529023570044333,-0.5720160211253215,-0.36993166057183646,-0.1589465863930763,-1.1621544474168601,2,right
16.144000000000002,-0.024311457920236756,0.9128981543596835,-0.04597423569495579,1.4565692819919291,1.2524529201209895,-0.5704915062657552,-0.3701915603834782,-0.15927901098169733,-1.163214441761232,2,right
16.148,-0.018952982302620526,0.9121124433798117,-0.06746274175073763,1.459525583517156,1.2528523842015193,-0.571342920704278,-0.36916461092814695,-0.15749189936664593,-1.1589132084822087,2,right
16.149,-0.013850917327385808,0.9140303852459422,-0.07138691932196946,1.462227820732918,1.2527621261358362,-0.5721684225993591,-0.37104909964535104,-0.1608658911495619,-1.166828304538051,2,right
16.152,-0.010181075285413569,0.9155426291546349,-0.06436633345020144,1.4506849991824744,1.2523552988335886,-0.5687245250416546,-0.36863388483924453,-0.15652036898887411,-1.1566795784681287,2,right
16.153,-0.005984811288089263,0.9158705827551465,-0.06171238854775347,1.4720248916045304,1.2532992831984453,-0.5750714102766743,-0.37064828196213434,-0.1601531996560156,-1.1651451861397326,2,right
16.157,-0.008481770638220837,0.9142572907664771,-0.05908620321796717,1.4446464646452293,1.2520187483006358,-0.5669359937511129,-0.37060100762038206,-0.16003505021755726,-1.1649407379279593,2,right
16.158,-0.019390828931083175,0.9148247702381946,-0.05217230642112737,1.4674950651965932,1.253116887785987,-0.5737219220403686,-0.36673645587427756,-0.15317400406580614,-1.1487207260831798,2,right
16.162,-0.032872476858617244,0.9170292231896375,-0.048336650966082015,1.4668878238310628,1.253042149925294,-0.5735472517864314,-0.37622624661037435,-0.17006001030891427,-1.188555399313317,2,right
16.163,-0.04947658687633019,0.9133709268507288,-0.057275964937139004,1.4232890084082617,1.251067788823664,-0.5605837995851062,-0.3604943248452258,-0.14205762118537962,-1.1225196191597713,2,right
16.167,-0.059584349229961454,0.9090410116743746,-0.06519522242010722,1.530436368821126,1.2559859973839764,-0.59243360209977,-0.38124400439559925,-0.17899137985842256,-1.20961442156363,2,right
16.168,-0.06290011421385863,0.9085808670832571,-0.07141542806777729,1.3527818692862548,1.2478061495394859,-0.5396296518275423,-0.46835596893113174,-0.3340103295121048,-1.5752876210957836,2,right
16.168,-0.06856564052202929,0.9074425922633149,-0.08414193556687354,1.5871131427783367,1.2586052449567409,-0.6092766736597197,-0.4891057341288815,-0.3709385973975867,-1.6623758619251334,2,right
16.172,-0.07201559786694164,0.9072751119246637,-0.09015014015221538,2.5706802900848817,1.3038938252069519,-0.9016227868205016,-0.4733737198726171,-0.3429421468676454,-1.5963471794027007,2,right
16.173,-0.07747599097272691,0.9110994795532982,-0.09882828143084679,2.8050348135565706,1.3146973818914578,-0.9712715170171099,-0.48286347474997454,-0.3598304198992993,-1.636184558215257,2,right
16.174,-0.08827500596281095,0.9189951966975123,-0.11027141028400261,2.62734555457879,1.306506132089051,-0.9184658290696963,-0.4789992316504458,-0.3529496528042768,-1.6199409862734981,2,right
16.178,-0.09812964813840014,0.9280743352456972,-0.11146073680236918,2.7345173670428435,1.311445794242832,-0.9503145366244374,-0.4789512940645316,-0.35287392529991823,-1.6197872229332582,2,right
16.178,-0.10487568538143624,0.9365781983489295,-0.11753270847885408,2.690931859210589,1.3094394308081772,-0.937358023660783,-0.48096664146610235,-0.3564459396600791,-1.6281801649098455,2,right
16.180999999999997,-0.10878381707381447,0.9495282189912915,-0.12729659189483977,2.6902491305008116,1.3094014741563864,-0.9371689625667049,-0.4785504812287551,-0.3521609676826365,-1.6181037910545084,2,right
16.182000000000002,-0.11277445496980157,0.9666502077045109,-0.12868285468792398,2.7132434782271986,1.31047255730088,-0.9439750923572254,-0.48043537630723687,-0.35550885206274474,-1.625987682681477,2,right
16.187,-0.11320045917577301,0.9853435164658648,-0.12966199912565346,2.6856730563917157,1.3091868872550254,-0.9358200987466296,-0.47940924233364834,-0.353669701789075,-1.6216242869578208,2,right
16.188,-0.10713532494543329,1.0068109415656812,-0.12985710456672678,2.7071828162608433,1.3101926549266625,-0.942174430011524,-0.47966652149752825,-0.3541696823280799,-1.6228844672485785,2,right
16.192,-0.09975115240579764,1.029896175108696,-0.12049777445778548,2.695604324785407,1.309652978047425,-0.9387496493566929,-0.4798942629794639,-0.3545022615313794,-1.6235302365791409,2,right
16.192999999999998,-0.0913346561036971,1.057803026327163,-0.11399657809790595,2.69807649488037,1.3097545310680103,-0.9395175400797942,-0.4794787849319437,-0.3538521745952316,-1.6221666890659143,2,right
16.195999999999998,-0.08190155140898303,1.091522531401974,-0.11992504604170198,2.7016250139440885,1.3099575497359368,-0.9404659634929722,-0.4798758507209241,-0.35448761887372005,-1.6235302292706444,2,right
16.197,-0.07483957468717112,1.1237210269259057,-0.12734161936297267,2.6954881604114513,1.3096068380831958,-0.9388247994005743,-0.47958167960094755,-0.3539633268806671,-1.6222925704038316,2,right
16.202,-0.06544869264509583,1.152146515051573,-0.13753110576522562,2.7014935113324228,1.3099669390033575,-0.9403855205261706,-0.47978671705849507,-0.3544607097259688,-1.623716080092598,2,right
16.203,-0.0487437803564517,1.1776033325585566,-0.15544713823653195,2.6973340362441007,1.3097086050958082,-0.9393278384066284,-0.47961135721463893,-0.3538460786491142,-1.6216940111555718,2,right
16.206,-0.03223893604214878,1.2023098870008209,-0.17936315518566776,2.6987784148918323,1.3097751492788756,-0.9397589135243132,-0.47980273134901347,-0.354637825403706,-1.624415552463779,2,right
16.207,-0.018662859291372694,1.2323115415465211,-0.210844646750418,2.7003331995598305,1.309969104592358,-0.9398892557424845,-0.47961180468941345,-0.35381734159597045,-1.6215695052934493,2,right
16.211,-0.008617273747949055,1.2667539147957312,-0.23596684353788322,2.695981431880427,1.3094880149015393,-0.9393536609257953,-0.4797014696494258,-0.3542542032873459,-1.6231268300987027,2,right
16.212,-0.007991908313907555,1.3036749796423441,-0.23696661745294104,2.7022881304516546,1.3101980290901594,-0.9400978581022708,-0.47988105698992156,-0.3548143000597798,-1.6249000126099147,2,right
16.215999999999998,-0.012109461425267334,1.3419912755757952,-0.22126388247877768,2.6958109608315457,1.3094513979074804,-0.939377287366868,-0.47926253849120853,-0.3526641066217532,-1.6178454042375958,2,right
16.217,-0.022637401691842453,1.3766054843198494,-0.2038299064825838,2.699556499740185,1.3098847894086618,-0.9397950796482797,-0.4803793683001843,-0.35659660750980393,-1.6308002198103644,2,right
16.221,-0.04069229053702617,1.411231356931538,-0.18649268202393923,2.7022381516133707,1.3102273674546723,-0.9399909200896888,-0.47895207971288606,-0.3515604121826449,-1.6141952098495913,2,right
16.222,-0.06365524320795346,1.4453138756721473,-0.17161313454781596,2.6897927218339484,1.3086831614825856,-0.9389194350107861,-0.48014091657123315,-0.35575814348097856,-1.6280447193110996,2,right
16.226,-0.09233768277235652,1.4842912450384977,-0.16289290532114808,2.7129091475051936,1.3115537391857106,-0.9409188054211108,-0.48011924377404036,-0.35566755803429184,-1.627717890309376,2,right
16.227,-0.11896717374542387,1.5324919252636742,-0.16218870084252218,2.6832706477283397,1.30786453326539,-0.9383630868156085,-0.47781788343941806,-0.34759155328178404,-1.6011554732747437,2,right
16.232,-0.14654553710544072,1.5806013341984642,-0.1719846300462213,2.7079955153559467,1.3109516274356132,-0.9404934685388768,-0.48346199320971106,-0.3674106238816669,-1.6663828301988444,2,right
16.233,-0.14757437790426775,1.6484515512420563,-0.17949897352840583,2.707264549118996,1.3108460740726793,-0.9404118900028935,-0.4741069536250394,-0.33456196927035176,-1.5582521667151252,2,right
16.235,-0.13086539028323133,1.6960938996165393,-0.17964333875795507,2.6603747781901737,1.3050182588317025,-0.9364392535345147,-0.4864459996846653,-0.37788211329704685,-1.7008690346458073,2,right
16.236,-0.1321025824557323,1.7033947217358596,-0.1786389242083276,2.7756758989160875,1.3193817301933377,-0.9462296644044704,-0.5382535625767484,-0.5598205913725937,-2.299632257340841,2,right
16.237000000000002,-0.08194821995789023,1.7587400591110751,-0.17010995634236853,2.5845000778112253,1.2955415179395902,-0.9299891016284365,-0.5505940148430024,-0.6031320472323531,-2.4422449751104205,2,right
16.24,-0.01951445570330197,1.8118924443346085,-0.161968304284225,2.836650030282649,1.3270049690502235,-0.9514128228811205,-0.5412374538490992,-0.570292790742303,-2.3341188006202027,2,right
16.241,-0.005412158758218958,1.8174905360650344,-0.16048341347604186,3.894756499843056,1.4584967743638821,-1.041089538947341,-0.5468809849236681,-0.5901154432210994,-2.399347869592072,2,right
16.242,0.06027151158889169,1.8588099352311773,-0.15513387856667016,4.146878754563797,1.4899383677554061,-1.0624990649305739,-0.5445846713960029,-0.5820082437836522,-2.3727705493104265,2,right
16.245,0.15419851896441206,1.9059401711865616,-0.1365921985921786,3.9557628728400087,1.4661943122402428,-1.0463033329127547,-0.5445521398319235,-0.5819847683031925,-2.3724757806105496,2,right
16.246,0.21812599003832261,1.927293237809837,-0.0919203184202754,4.070969228661979,1.4803099522502006,-1.0559951930265945,-0.5457565458982037,-0.5860862850029409,-2.3862793268411018,2,right
16.25,0.2846974398603961,1.945821475538619,-0.033085762555288556,4.024198917626155,1.4749331633622023,-1.0521868256778972,-0.5443137537044878,-0.5811458899978732,-2.3697200807490715,2,right
16.250999999999998,0.34937115153287235,1.948611938589992,0.017590964988020426,4.023357133218392,1.4742108882791916,-1.0518955776126266,-0.5454372728923298,-0.5850370721644121,-2.382655161049035,2,right
16.255,0.41730286110625303,1.9474664248674083,0.05953732925432757,4.048123829055406,1.477899045578372,-1.0542114737469341,-0.5448320678453865,-0.5828045738994889,-2.375561229381831,2,right
16.256,0.4852378144159742,1.95063879274678,0.08724948200216481,4.018589901848562,1.4739650373320072,-1.0516148041987767,-0.5449687694621745,-0.583629728343466,-2.3774610394507327,2,right
16.259,0.5404111223786136,1.955234680499591,0.10156907881782701,4.041389667394151,1.4762843781793649,-1.0533648439002923,-0.5451323279724862,-0.5836099237831133,-2.378800204486321,2,right
16.26,0.5886653042811786,1.9711174311001853,0.12166796383526415,4.029480140457655,1.4764639577899978,-1.0529437585756911,-0.544850715774316,-0.5833498423038261,-2.376221867698958,2,right
16.264,0.6163398559131097,1.9968534369024613,0.1585010891558453,4.031511914731581,1.4738576641501098,-1.052102911092462,-0.5451143882259409,-0.5836948715433605,-2.3787300167396186,2,right
16.265,0.6163788820609202,2.0286707689748207,0.1995485442374138,4.035766157086162,1.477893782913791,-1.0537060778572132,-0.5449396740046719,-0.5830761161346227,-2.3767059555191423,2,right
16.27,0.5928007391685767,2.0649005063780637,0.22630124561817364,4.029313589425374,1.4742957564526635,-1.0521689090741608,-0.545010541833662,-0.5844028174473801,-2.37852567266167,2,right
16.271,0.5489119752411675,2.1001462602448076,0.23856719275893973,4.034631274625088,1.4749331668436727,-1.052610694640978,-0.5450229905366408,-0.5819835171677628,-2.3763827125388293,2,right
16.275,0.49275891613739115,2.1291700757373326,0.23616393270973626,4.0325023300866345,1.4798525709989427,-1.0542675244609436,-0.5449626312600417,-0.5854457971038889,-2.3790966829552422,2,right
16.276,0.42774696774691773,2.148373097025047,0.2201038743957091,4.030772752756828,1.4677887680903607,-1.0499227062414356,-0.5450347769569204,-0.5817824923468127,-2.3762937071663983,2,right
16.279,0.36259346010699556,2.155297101679332,0.19726697244574234,4.03567569466135,1.4860757422108086,-1.0566007755319158,-0.5449807766762329,-0.5838556485406534,-2.3777708892056246,2,right
16.28,0.2977657855687245,2.1451482049504587,0.16517407082442037,4.02959870720721,1.4664742743320487,-1.0494103497947522,-0.5449951609648438,-0.5858575218934431,-2.3797486894841455,2,right
16.284000000000002,0.2272257077441793,2.120678819013418,0.13445446144557577,4.033680910408618,1.4778735949519963,-1.0536123793321697,-0.5450319955979034,-0.5774484601529868,-2.372246578159528,2,right
16.285,0.15423632675972854,2.084478108562984,0.11447046290851547,4.035424655753112,1.4874709955936773,-1.0570871993221278,-0.5449456277726552,-0.5929790376106339,-2.385950455845686,2,right
16.289,0.07510035327901009,2.0333222049988597,0.10068917446275247,4.024517326737245,1.4450434768775529,-1.0416085203607106,-0.5450606419935577,-0.573052140138744,-2.3684017059794993,2,right
16.29,-0.00011216333696550777,1.9767685073271544,0.09594188397594432,4.0455203134429745,1.5238292482255913,-1.0703768940790557,-0.5449628747695872,-0.5896810139457616,-2.3830318626913067,2,right
16.294,-0.08680320577811426,1.9076685169905054,0.09322825268781353,4.018270182120217,1.4226224869893347,-1.033415695039417,-0.5449720449801367,-0.5892559977536471,-2.3827117609112047,2,right
16.295,-0.18577699323693153,1.8365996525111963,0.08769528106551999,4.041141836181233,1.5071402632846367,-1.0642793115002935,-0.5451373028443569,-0.5574686609391788,-2.354569240575617,2,right
16.3,-0.2864465768678703,1.774863117159522,0.07583695083219061,4.040331714914789,1.5048055971469685,-1.0634362906166523,-0.5447231977661043,-0.6355657322673117,-2.4236475550445356,2,right
16.3,-0.41691267441036217,1.699896529005958,0.04764195814438275,3.9972254246044816,1.3437652134673956,-1.0046082341667475,-0.5454121429633609,-0.5060890726810577,-2.309140404400001,2,right
16.303,-0.4979339665091638,1.654978031849008,0.026680507360608178,4.103457983592635,1.7396664198949807,-1.1492065564430112,-0.5445027819638304,-0.6768617882613801,-2.4601664113547796,2,right
16.304000000000002,-0.5317823013041945,1.6333935169913425,0.022204419278335427,3.927204021996031,1.0831904117756672,-0.909460549612545,-0.5406973342557369,-1.393741451747991,-3.0942354798360574,2,right
16.305,-0.5918449322870843,1.5948802970355684,0.012809648141517402,4.1597368349050114,1.9491303611863664,-1.2256727319640623,-0.5397874577904589,-1.564502159585451,-3.2452535562213436,2,right
16.309,-0.6252499751774778,1.5726351000778869,0.00941264309378325,5.13554902720554,5.583635428169939,-2.553037553940778,-0.54047759454195,-1.435045625048787,-3.130763260405476,2,right
16.31,-0.6793467566934508,1.5262028196834447,0.02758807149317169,5.368137288417447,6.44969913593588,-2.8692130818746406,-0.5400614564510424,-1.5131223706381975,-3.199815529911338,2,right
16.31,-0.7566830552846153,1.4456788792958215,0.06770684874023894,5.191778595591698,5.793027418677083,-2.629522840507476,-0.5402294928955056,-1.4813440293849438,-3.1717049695114206,2,right
16.313,-0.79104150289189,1.3743428582550692,0.120863573860337,5.298146807333046,6.189096634066711,-2.7740791917707037,-0.5402357768212573,-1.4809344578059198,-3.171356467913638,2,right
16.314,-0.8247052781371254,1.2970435001054352,0.16909572459745992,5.254912814784413,6.0280490502429664,-2.7152372091639028,-0.540139672226574,-1.4975133252157693,-3.185995025638824,2,right
16.317999999999998,-0.8553498057980233,1.2206113007693462,0.20455078614827854,5.254159204471836,6.025428340429874,-2.714502732065209,-0.5402561233868067,-1.4776710277642098,-3.1684782812232566,2,right
16.319000000000003,-0.8771441122013461,1.149764350693328,0.2288207972970226,5.277124574917615,6.110597665854975,-2.745147804482296,-0.5401633924355156,-1.4931004683448084,-3.1820933772795055,2,right
16.323,-0.901290851313866,1.077572543360832,0.24400642855851756,5.249562846870598,6.008440525109441,-2.708482820292632,-0.5402122272789287,-1.4847676976787811,-3.1747365437183346,2,right
16.323,-0.917816719291135,1.0083230593854398,0.24250808748953723,5.271105621696797,6.088196406830482,-2.736977433816887,-0.5402107215455833,-1.4867800266523878,-3.1765435561766604,2,right
16.328,-0.9322224972264388,0.9418677857673164,0.22857675793481733,5.259531841808402,6.045294467988077,-2.7215807105924155,-0.5401711781559153,-1.4886897389432288,-3.178146322484114,2,right
16.33,-0.9408593057659149,0.8830494717788077,0.21554855559156172,5.261815601553025,6.054200083873477,-2.725370074777995,-0.5402393010887215,-1.4853814208087692,-3.1753683202098015,2,right
16.334,-0.9493457175380897,0.8278122048076533,0.20370074710554698,5.265879465635755,6.068051503856722,-2.7287017478114324,-0.5401616597307065,-1.4883301009652914,-3.177794909769082,2,right
16.334,-0.964515007899067,0.7738123064981826,0.20070146270604444,5.258856425483312,6.0441028124210625,-2.722928095810417,-0.540221110180872,-1.4864369181865946,-3.1762649700968866,2,right
16.338,-0.9823046741306776,0.7260200729922213,0.2103652891783862,5.265960409912017,6.067853691612868,-2.7279560160415084,-0.540215890329987,-1.4874994992674924,-3.177206063702911,2,right
16.34,-1.004124707042862,0.6852589406581961,0.22628014516845318,5.260920021481811,6.051239922271769,-2.7247946614721474,-0.5401294933763368,-1.4865213532049304,-3.1760729211663468,2,right
16.344,-1.0272868711660812,0.6496666476279764,0.23984819975804672,5.262346561179776,6.056567611173666,-2.7267656584825724,-0.5403300469072332,-1.4881749710192176,-3.1781479549193286,2,right
16.345,-1.0465690576193118,0.613904596784054,0.24111938076796943,5.265579745682063,6.064616341206369,-2.724315077833473,-0.5400315539035396,-1.4855726795227828,-3.1749325935172417,2,right
16.348,-1.0613891696353734,0.5777177555674815,0.22387395440744054,5.257396013629521,6.043269209380729,-2.728837367842557,-0.5403488349675014,-1.4885264267282619,-3.1785192301785674,2,right
16.349,-1.0691617778720919,0.544663139576522,0.18680159841632374,5.26942284658268,6.074432193521202,-2.721840959637163,-0.5401654338907758,-1.4868211466943992,-3.1764478843871995,2,right
16.352999999999998,-1.068666432429704,0.5108777416590184,0.15314604943604443,5.256843269381885,6.042118114887878,-2.7296309985202756,-0.540009662846817,-1.4849550379420706,-3.174312709142024,2,right
16.352999999999998,-1.063910127760873,0.4750284912100202,0.11997777887049058,5.26411956669335,6.0608045741164185,-2.725134080056778,-0.5406945706780004,-1.492610574699838,-3.1832064145269037,2,right
16.361,-1.053351203313916,0.44103106577470974,0.06580546218556112,5.269833812775854,6.074877800616558,-2.720519210985498,-0.5394240790783731,-1.478437429775047,-3.1667336450940313,2,right
16.362000000000002,-1.0351002713520807,0.4079581062860652,0.031779065007765145,5.244089824650427,6.010637971313102,-2.739758611692692,-0.5410554704412085,-1.4966709728649212,-3.18791669645355,2,right
16.363,-1.0103693823942435,0.377773809388674,0.05073477273702705,5.291881547221315,6.129916818697841,-2.704128018611877,-0.539693286339066,-1.4814313144340066,-3.170215619053181,2,right
16.364,-0.9818372981264318,0.35740060691503345,0.11209375494256135,5.230545229121386,5.97690868174341,-2.7499389378034502,-0.5397310899220604,-1.481807590697915,-3.1706651745421373,2,right
16.368,-0.9577415381294716,0.3493990178324249,0.17529703487419218,5.281752514304381,6.104594309054136,-2.711668160995153,-0.5423258088764344,-1.5110312577306169,-3.204557180192678,2,right
16.369,-0.9426665792222695,0.3530463574242343,0.21916175255261527,5.280260425924077,6.1008725598046585,-2.712621280061623,-0.5359467639401698,-1.4392238310693357,-3.121268369363124,2,right
16.372,-0.9382495925664384,0.366038338287071,0.2803846492480474,5.182979228964063,5.858435290448236,-2.7859390177228733,-0.5465244174125052,-1.5582942513154467,-3.259377449969201,2,right
16.373,-0.9399923743222895,0.37637263328989534,0.32623598933579145,5.4222270650624695,6.454585599920007,-2.605802350495411,-0.5325719050610991,-1.4012251359559067,-3.0771958484971482,2,right
16.373,-0.9409621439822589,0.37622513734591945,0.34017699030564463,5.025471903416056,5.466074132015568,-2.9044746505181687,-0.474028017656311,-0.7419789477619522,-2.3126075758086913,2,right
16.377,-0.9420721970508901,0.37680398606283066,0.36585400368804016,5.548852243940637,6.769947784067695,-2.5105169276631027,-0.4600763629102258,-0.5848992838386045,-2.130419325774749,2,right
16.378,-0.9421785195183103,0.3758383875590816,0.3797624477778717,7.744713483246619,12.241428995288501,-0.8565864768120197,-0.4706503708016882,-0.703969653862734,-2.268516190166924,2,right
16.378,-0.9453735334468694,0.36038280495158076,0.38432531997070735,8.268201555131345,13.545368431048905,-0.4626145991795985,-0.4642805991597604,-0.6322071704435903,-2.1852988642661844,2,right
16.383,-0.9537840104205834,0.33542680229084365,0.3885435585953248,7.871340396964726,12.556825088437675,-0.7613165667277095,-0.46685855062312687,-0.6613092736259438,-2.21902527594957,2,right
16.385,-0.9647795412157779,0.30659208808165694,0.37168194517784986,8.11050649233113,13.152809130639397,-0.5811348855523083,-0.4669191737060614,-0.6618911895740938,-2.219736442067579,2,right
16.387,-0.9819349923584677,0.27938395013183825,0.34502621935263744,8.013689053956835,12.91089491943603,-0.6545066316841193,-0.46553488546707256,-0.6464014548791729,-2.201736073532721,2,right
16.387999999999998,-1.0013413964751186,0.263808860710369,0.3112133213358358,8.011250655188935,12.90623946022298,-0.6554135640138712,-0.4671750295782532,-0.6648281029116379,-2.2231224704009787,2,right
16.392,-1.0238865928835406,0.26599327513552745,0.2779841691990556,8.0637735047756,13.035110343322456,-0.6171529495074242,-0.46592538158324703,-0.6506754716705919,-2.206737785573221,2,right
16.394000000000002,-1.051970618968418,0.28711209706926644,0.2595403423412169,8.001178690341264,12.881113678816584,-0.6630237772988623,-0.46654604242848796,-0.6579259347795451,-2.2150517418742037,2,right
16.396,-1.0760513538620113,0.31950918953840346,0.2533715984607884,8.049417733735872,13.000462983666988,-0.6272372877983519,-0.4664996300063429,-0.6569530532887684,-2.2140870943952358,2,right
16.397000000000002,-1.0882220999212784,0.3546831660607924,0.25148328627451116,8.024974950390863,12.937892532388489,-0.6467249176537748,-0.4661832082977731,-0.6539424258008963,-2.210394612517774,2,right
16.403,-1.0756787853475567,0.38407650960843853,0.2433410271873497,8.026877006151159,12.947999726449272,-0.6418259461573586,-0.4666048913359466,-0.658249874650819,-2.2155504419783103,2,right
16.404,-1.0292662166815885,0.40156168992105995,0.2295617468467008,8.040506541472427,12.972718640077058,-0.6375259361748111,-0.46631109013672334,-0.6549394396238032,-2.2117122062967676,2,right
16.407,-0.9483940349713147,0.40931918567096526,0.2134220837410173,8.020358557811333,12.933851838943696,-0.6453849822695699,-0.4663092450170546,-0.6557321106912147,-2.2123352018694113,2,right
16.408,-0.8333417530946496,0.41180059981452016,0.19480439213714557,8.038077873953863,12.968968630291752,-0.6378696006990512,-0.4666786237562687,-0.658029441036962,-2.215677205880316,2,right
16.412,-0.701076556489665,0.41242220041867933,0.18244226278018055,8.030730637035967,12.950580408465356,-0.6434550596457286,-0.465998845184734,-0.6531550865417677,-2.2090128802384097,2,right
16.413,-0.5708099955200434,0.40329832450988234,0.18235519673307876,8.021597807281047,12.944586038538716,-0.6395184145680222,-0.46677081495898853,-0.6588809583855311,-2.21673187094967,2,right
16.416,-0.4485688476339958,0.3789588375903593,0.19141030361042394,8.049858958286212,12.976701607944936,-0.6429479544748575,-0.46629273529836535,-0.6552171310159018,-2.211859037663679,2,right
16.417,-0.3449882204266014,0.34473602492926647,0.2083253631899818,8.00592938738354,12.924380137624826,-0.6391648852862468,-0.46598024628097284,-0.6531638410227372,-2.2089420095403787,2,right
16.421,-0.2668142163648917,0.30315312062780975,0.22017813260668445,8.053087671551934,12.98097788442833,-0.6429496898118676,-0.4675320497520094,-0.6641889520921158,-2.224076983078813,2,right
16.422,-0.2082632492241881,0.258877324866414,0.21468909142668482,8.02532053014398,12.946976638044697,-0.6411543333660569,-0.46461010416788845,-0.6432605987788642,-2.195448191047571,2,right
16.426,-0.17000611186179443,0.21070877700940344,0.20967840967003104,8.00395919672729,12.924099142083747,-0.6376663999325966,-0.4683787796438488,-0.6703080557383809,-2.2324128368059553,2,right
16.427,-0.14524515475796695,0.1582506032417743,0.2152538984833072,8.101658369148673,13.034753267168536,-0.6497561765348046,-0.4652240416040103,-0.6476527367619918,-2.2014639331756456,2,right
16.432000000000002,-0.12458310501304835,0.10143802894262836,0.22812196197211548,7.919716504641078,12.827640522393697,-0.627907626576981,-0.46532391545454155,-0.6483822571494955,-2.2024417193508814,2,right
16.432000000000002,-0.11179238066916469,0.04212503689831813,0.25129090581783126,8.153505756717848,13.094014551212332,-0.655835256728038,-0.4713021469825046,-0.691272990054861,-2.2610850638939053,2,right
16.438,-0.10336804113198128,-0.012479268831244613,0.2807194448963468,7.9582630300870925,12.871451939395431,-0.6325694045569799,-0.4565846017522226,-0.5856824180003297,-2.1167384485238103,2,right
16.439,-0.11311969732714522,-0.0705780348007342,0.3156403351235294,7.963801066610614,12.878155791496333,-0.6330051398442955,-0.48099996139041823,-0.7608238108329507,-2.3561586747278627,2,right
16.44,-0.12881001104346676,-0.1048419455330401,0.3386814307150925,8.335246821560968,13.300323951699713,-0.6780103437403876,-0.44878573219486484,-0.5297842590364177,-2.040321122827393,2,right
16.441,-0.12922526517736993,-0.11127597085002508,0.34462546527756777,7.421990854695855,12.261868865303562,-0.5676161892705434,-0.3136204160132672,0.4398791093813192,-0.7147919929482996,2,right
16.441,-0.15861379401395198,-0.1421229635851172,0.3602494784623894,8.936271320915095,13.983906483397362,-0.7506041771730709,-0.28138379628787924,0.6709400307934166,-0.3989039332632648,2,right
16.445999999999998,-0.1926966985032962,-0.1673609576073404,0.3738736911489962,6.938959192709302,11.712496478326688,-0.5092372406556451,-0.30583515459561106,0.4957539901741704,-0.6384161548486424,2,right
16.445999999999998,-0.2008019778407344,-0.16696525792462868,0.3706478728340026,-1.4444844390094713,2.17940470287133,0.5041212066041898,-0.2910851206585535,0.6014120188400696,-0.4939580311766814,2,right
16.447,-0.24064144379890667,-0.1783127629122847,0.3539906344402456,-3.4417097640426824,-0.09201979102540914,0.745542787000843,-0.2970689683223502,0.5584407821542694,-0.5526928415725997,2,right
16.45,-0.3012228243879672,-0.18309433035590267,0.31462621787862155,-1.9275486396417874,1.630081200466825,0.5624816937744292,-0.29721419424843454,0.557779458364803,-0.5536560304436757,2,right
16.451,-0.3519859916697588,-0.17382062222987965,0.26127055726511517,-2.840750264410169,0.5914631308652791,0.6729028950309752,-0.293948445334545,0.5804210764467239,-0.5225821797830235,2,right
16.455,-0.4007995813334507,-0.1635716913132118,0.20770966953774023,-2.469178652481393,1.0139275882605014,0.6279916858208026,-0.2978851071000922,0.5532822378176693,-0.5598534659890217,2,right
16.455,-0.4420966561095291,-0.14697257161213118,0.16063971770824537,-2.4640354528592767,1.0202266059080412,0.6272854889084498,-0.29478400432038065,0.5744450520628842,-0.5307539787776815,2,right
16.46,-0.4797013904899726,-0.129900840432343,0.1275441348197059,-2.658612752595719,0.798058147041627,0.6509937478359697,-0.296437369263407,0.563049004604216,-0.546405378902752,2,right
16.461,-0.5209481440694586,-0.11272980503205274,0.10761978825769118,-2.425610182184938,1.0642723974738526,0.6225573440975156,-0.296220585281654,0.5655240558277757,-0.5431661895749513,2,right
16.465999999999998,-0.5751297557172543,-0.09128453990090254,0.09955011285147031,-2.60698222897005,0.8567964253529212,0.6447521258927316,-0.2953375747583865,0.5689000598248029,-0.5380870020303936,2,right
16.467,-0.6441289756417741,-0.06629953580303918,0.09868299536076527,-2.509138397310701,0.9685836208893961,0.6328072657849451,-0.2968613396028049,0.5630613546148089,-0.5468677836874068,2,right
16.469,-0.7233286484022059,-0.03659970625064903,0.09885003321206329,-2.5318789506240824,0.9437693296806317,0.6353261175937641,-0.29520158256479484,0.5687219033821602,-0.5381492070290228,2,right
16.47,-0.8110812721209685,-0.005208448677238974,0.09795569874543876,-2.5567512756381,0.9121328615365514,0.6390763346975179,-0.2964382353920483,0.5648288068430662,-0.5442529555634235,2,right
16.475,-0.8975422555357355,0.027600133491184953,0.09032526436878471,-2.5136959976909443,0.9668608216527861,0.6325897461623227,-0.29624565282119864,0.5662541193397229,-0.5423107629738608,2,right
16.476,-0.9808252531116974,0.06494271525463773,0.07676771735772789,-2.5535325525932073,0.9144882224825427,0.6389788424386169,-0.2947982881774426,0.5674026064214208,-0.5392919131149763,2,right
16.479,-1.0546222936321106,0.10517768451472723,0.06328881713155038,-2.5271265244405052,0.9501518046868183,0.6345321734673414,-0.29821558096730016,0.5639916794521447,-0.5472669996822122,2,right
16.48,-1.108236989098976,0.14602943948340408,0.04991573821235068,-2.539516251850852,0.9361133834377935,0.6360189232953064,-0.2931431594331821,0.5688965793493717,-0.5356195615520122,2,right
16.484,-1.1477133071317978,0.1872504656751818,0.037777256208105355,-2.535987919364255,0.9296694763321844,0.6379201037564968,-0.2985165968271684,0.5639112628172687,-0.5477044884096698,2,right
16.486,-1.1737550027552102,0.2297647019374598,0.023686295963032275,-2.537246440831709,0.9521321561025567,0.6327523833940185,-0.2954114805220288,0.5667931761864702,-0.5407177323711487,2,right
16.489,-1.179826162418775,0.273843182143252,0.00625836534381029,-2.5337873382750127,0.9204213635055745,0.6402707220397172,-0.2928098086372947,0.568743008166727,-0.5354324234939198,2,right
16.49,-1.1733651871217243,0.31861221794758343,-0.008627222326385643,-2.539572942876036,0.9518392622951051,0.6325095449460514,-0.3042930280003825,0.5595207979206697,-0.5595194869960374,2,right
16.494,-1.1620314054787002,0.3626749249160675,-0.024105735424451102,-2.536251831023632,0.9336615303545421,0.6369966134761795,-0.2829924845980146,0.5766548177846165,-0.5148008765244926,2,right
16.495,-1.1404692477091132,0.4035994422960612,-0.03806233509054403,-2.528738759731959,0.9232793179074451,0.640302467431675,-0.3103371881853374,0.5547018877760803,-0.5721623718528431,2,right
16.499000000000002,-1.1158195219012395,0.4411531118556235,-0.04718758060570443,-2.555601302463696,0.9755590478163413,0.6251069657548312,-0.2875112837333128,0.5730039059399936,-0.5242993550027342,2,right
16.499000000000002,-1.0908764221135228,0.47437688404768324,-0.05515778825737964,-2.5060820281759355,0.8782678890863911,0.6533232292058524,-0.2881370775590242,0.5724639070077275,-0.5256784845835761,2,right
16.504,-1.0591893724687296,0.5009154626578365,-0.05877592630945043,-2.570055396414933,1.0027529878164902,0.6171388427573479,-0.331627586103448,0.5377778406087295,-0.6165981174289459,2,right
16.505,-1.0283678455415979,0.5202429080259595,-0.05995975872802193,-2.516467330392204,0.8990304726194542,0.6473263448057185,-0.22472712206348938,0.6230515940401854,-0.39305817289170397,2,right
16.508,-0.9859165541701544,0.5271932666709407,-0.053224497810097665,-2.5174393251140077,0.9023849769930545,0.6464490882612419,-0.4019724592502876,0.48168363281452886,-0.763699878144751,2,right
16.509,-0.9554692013121271,0.5265409209456664,-0.042918473051201625,-2.6216798427133723,1.0978123936165047,0.5891433419730516,-0.1681886787425545,0.6681214722868544,-0.2748384336347427,2,right
16.51,-0.9513412817813353,0.5273271255940997,-0.04103045435605873,-2.3658223361273905,0.6170717039517364,0.7300390665896349,0.8130895463988876,1.4508837391480514,1.7767472771601058,2,right
16.514,-0.9120280915460794,0.518522857368592,-0.02769660447530689,-2.7900865829146078,1.4141110142918838,0.49643463170150287,1.0468699552373844,1.63731176509331,2.265570836208452,2,right
16.515,-0.8730650909967714,0.5075395936224887,-0.012410645828456031,-2.2303762439275383,0.3629593509489573,0.8045345542554458,0.869630872331736,1.4959235223733747,1.8950123849888927,2,right
16.515,-0.867636903800544,0.5048973882985618,-0.010394300704374923,0.11956101946144959,-4.048106577757874,2.0973866973169244,0.9765234920209933,1.581310759465563,2.118418217471293,2,right
16.518,-0.8327959933235007,0.4892958828821915,0.0037764951620905896,0.679301840424491,-5.09909623312611,2.4054002995735955,0.9330399151242554,1.546363840819706,2.0276712425327474,2,right
16.519000000000002,-0.7855479429944663,0.4635323681203145,0.024279562143868016,0.2550867949180855,-4.302278119362606,2.171969766073926,0.9324119217116289,1.5462343630315263,2.026126798178617,2,right
16.524,-0.7473521370528664,0.44258178463472053,0.037743459553430385,0.5106406702702587,-4.782922844732628,2.312615847467825,0.9552308001861199,1.564068456078223,2.074061770700369,2,right
16.525,-0.7018150286220781,0.42296284902786085,0.051796606677092016,0.40710966136090215,-4.587249274016136,2.255588201711244,0.9279058088301384,1.542430745761128,2.016834816673823,2,right
16.528,-0.6618713305466325,0.4070512620728803,0.06623873155536308,0.40501196111409066,-4.584648395230384,2.254505320625749,0.9491742332304245,1.5597086593764238,2.061112473382197,2,right
16.529,-0.6252403739454854,0.3968198174766495,0.08263642967544882,0.45989313425597184,-4.687111011923427,2.2846732182920135,0.9377284993764253,1.549570809426085,2.037792187811996,2,right
16.533,-0.5884904811411968,0.39474675705541207,0.09634187152100387,0.39503290161550064,-4.564104578415156,2.248901089902822,0.9403030264325074,1.5533605684822542,2.0421253625371993,2,right
16.534000000000002,-0.5555321429128386,0.4004260853201557,0.10415668428695217,0.4441906974697297,-4.660341552683887,2.276210202207351,0.9434017776851112,1.553702197885633,2.0498910126363414,2,right
16.539,-0.5257061694424761,0.4093204939736096,0.1112983342783744,0.4198041566079157,-4.607751178319301,2.262341048831412,0.9380925753819249,1.5511652760696897,2.037765232609337,2,right
16.54,-0.5022465701623116,0.4242979738681001,0.11331738380466932,0.42229150131056187,-4.620783657528461,2.2642653614797443,0.9430295029907365,1.555118190726657,2.048078252218609,2,right
16.543,-0.4837944443563561,0.44158141043797444,0.11114059316148972,0.43259634290208226,-4.633458952530198,2.269491410977457,0.9398050122734147,1.5493960785255259,2.043238212765778,2,right
16.544,-0.47016275674111296,0.4600679088250018,0.10786960755528177,0.4200216121995175,-4.609786758418089,2.2625670494059817,0.9410587620329027,1.5575951857883108,2.0415138030704023,2,right
16.548,-0.4611913802020157,0.48289210824011863,0.0976594702701219,0.426227674518732,-4.633841167021025,2.266812126733308,0.9413419019717155,1.5470812149208795,2.048588708184522,2,right
16.549,-0.45315088421401484,0.50266264085185,0.08631707883156986,0.43113813147931423,-4.614715925403619,2.2676170034500323,0.9402521765795253,1.557660993471415,2.0393994250904264,2,right
16.553,-0.44828205758141004,0.5205947457664436,0.0794636206959278,0.41545688875439113,-4.62756282506726,2.261819060535511,0.9414099655147639,1.5519690503905585,2.045813367411352,2,right
16.554000000000002,-0.4473422043522781,0.5395139336896961,0.0725698355523707,0.4358543706516954,-4.62077623966689,2.2700248810638914,0.9407659584689967,1.5457533986381655,2.047908583701462,2,right
16.559,-0.4491647904804984,0.5550698012677071,0.06916796184782864,0.42218960809111716,-4.621170645057562,2.2642494839304037,0.9405552983651095,1.5705413317026644,2.0324045131697033,2,right
16.56,-0.45857256836310656,0.5707450999380504,0.07396013135742939,0.41436669150319466,-4.6289383641016295,2.2614490107390193,0.9416612950216348,1.525141841936422,2.062652991346736,2,right
16.564,-0.471594390197259,0.58878623508255,0.08270302610319832,0.45695582230238746,-4.610621581600288,2.2783027355237415,0.939983853087253,1.5832323985897079,2.0232740733984227,2,right
16.565,-0.47779316301218017,0.6054750525647089,0.08739230261159753,0.3755383356828572,-4.640019748668146,2.245706758320533,0.9414921273950694,1.5348205880309103,2.056375809928146,2,right
16.567,-0.47568206141853187,0.6112344805650778,0.08650205203655502,0.48116367265751186,-4.604298947386509,2.2881569523360703,0.9412859971884308,1.5360013415653095,2.055132463351276,2,right
16.567999999999998,-0.46948095318891625,0.601646226054369,0.07974483530194656,0.3925192523501352,-4.633253797054912,2.2524619610059213,0.9388504574859674,1.628658765998928,1.9929392714464524,2,right
16.572,-0.4650030222526391,0.5876695166599089,0.06598372275004633,0.3953210729051494,-4.633219945281258,2.253651108303251,0.945074193679523,1.4011029923415317,2.146302621461975,2,right
16.573,-0.4643886291244531,0.5752756113436973,0.056138909819599805,0.5636011453521446,-4.57661947478991,2.3212995738852977,0.9346674601632761,1.778334548486136,1.8918335360010412,2,right
16.577,-0.46502446286161625,0.5676518590095951,0.054689418118887445,0.14926672955316228,-4.714393009304956,2.1546271325798796,0.9484229251764628,1.280787655587841,2.2275404367731815,2,right
16.578,-0.46567199455272584,0.5676893495139455,0.05604574289057933,0.8365996026379227,-4.486598694434298,2.431171594018407,1.0060788407287826,-0.80768420793633,3.6364616997719272,2,right
16.578,-0.4669087009120374,0.5680045356537966,0.05729843852609595,-0.07016222866844418,-4.7867485453209735,2.066312096054782,1.0198329931745636,-1.3052386982973787,3.9721708527641875,2,right
16.584,-0.4672450071634703,0.5680297182396765,0.058489362244537754,-3.876312118769113,-6.046584554166236,0.5348049823021498,1.0094082324420515,-0.928014434017429,3.717658673506747,2,right
16.585,-0.4657654892881691,0.5735449348627969,0.06781974641769024,-4.783181891828207,-6.346588953624257,0.1698748344136659,1.0157013916994502,-1.1555121380835376,3.871165105064346,2,right
16.585,-0.46504293505904015,0.5841527087161869,0.08128065889611392,-4.095618347099586,-6.119126492208091,0.44656614454826393,1.013119132466521,-1.0629952509201974,3.8086831089810724,2,right
16.587,-0.46426144242213413,0.5967782257752805,0.08782220288934704,-4.510311732369668,-6.25634184886505,0.2796733805715587,1.013133817373606,-1.0615877855148186,3.807862822621173,2,right
16.588,-0.4615891100977346,0.608478166829705,0.08960290762460768,-4.341587426386033,-6.200493505783119,0.3475824444619089,1.014401441898066,-1.1102640712642287,3.840516768438407,2,right
16.593,-0.4549220022055473,0.6215492760756958,0.08566248595074352,-4.339185863135713,-6.199692537981006,0.3485543631334749,1.0128687630988824,-1.051985826993314,3.801385411156976,2,right
16.594,-0.44081838862407574,0.6373641029910175,0.07604374994373339,-4.427701177605256,-6.229065839999208,0.31289584326352776,1.0140884739773568,-1.0973257760676907,3.8318953908806352,2,right
16.597,-0.42614765827081547,0.6529815956313109,0.07081107709445462,-4.321648852296563,-6.193779466503221,0.3556531979875779,1.013347551180125,-1.0730228139046636,3.8153300425396472,2,right
16.598,-0.4163223818412788,0.6711845931053664,0.07444109979162997,-4.40428216873363,-6.221409802513266,0.32228687858482874,1.0137132728463043,-1.0782333024323214,3.819383849361813,2,right
16.602999999999998,-0.40485848907493094,0.6911773223148261,0.08104805692797677,-4.359682748909536,-6.20636133664383,0.34034646642874156,1.0135277512835505,-1.0853409267726366,3.8232519784052887,2,right
16.604,-0.39299859435379497,0.7088111003489601,0.09066432226680513,-4.3698918776375795,-6.209866019493887,0.33618998504087877,1.0136655005031652,-1.073359639091566,3.8163066764300804,2,right
16.607,-0.3873103366831195,0.727636611936607,0.10365434476695798,-4.3817671081844844,-6.214048153164759,0.33131547873907435,1.0135992270618808,-1.0844890987702906,3.8229079677072355,2,right
16.608,-0.3834329181701359,0.7466173412725453,0.11101641075779364,-4.361099069357623,-6.206393156725568,0.3399406122500581,1.0134012149179035,-1.0774509668457615,3.8181507603395994,2,right
16.611,-0.3788504232780999,0.7628934868655963,0.11295465371987462,-4.380682928721775,-6.2142812837746835,0.3315294002804936,1.0141489593108637,-1.0793797068366766,3.821138469835133,2,right
16.612000000000002,-0.3769344493429976,0.7803385047937804,0.11201481543560488,-4.3673160641296604,-6.208129162603438,0.33755911070516414,1.0126344883298437,-1.0820009412101097,3.81905345848429,2,right
16.616,-0.3750547391523731,0.7982033090045582,0.10541297478505078,-4.373354894970422,-6.211506424415509,0.3346103340408778,1.0148473122125679,-1.0764072544372136,3.821028175316528,2,right
16.617,-0.3744175388280466,0.8141588879422609,0.09599221213388864,-4.3733316770006585,-6.211511019146764,0.33461504580682166,1.0124970386452201,-1.0826834235460354,3.8191344947470682,2,right
16.622,-0.3789075588342407,0.83088815513867,0.08746469065250406,-4.369523311554104,-6.207690940665117,0.33710996919288483,1.0138413117844072,-1.078562507785277,3.819894635736416,2,right
16.623,-0.3878374146311805,0.8484489929000916,0.07810078644691897,-4.375105430375947,-6.215388652439996,0.3326643580324172,1.0150680614235943,-1.077460955772025,3.8222047465963906,2,right
16.625999999999998,-0.4002467367146824,0.8638402815447963,0.06485479118948781,-4.369348569010403,-6.204755271083894,0.33826192226620894,1.0098104791054725,-1.086292545867195,3.8148032367447535,2,right
16.625999999999998,-0.41647801248204946,0.8792288275577155,0.051894979457289145,-4.37398288615614,-6.215593670651194,0.33289949762333226,1.019540594351657,-1.0691913644995164,3.828040629466626,2,right
16.631,-0.438607880369812,0.895947246791666,0.0410346224101331,-4.371785257240587,-6.209490085916334,0.335804688910169,1.0070512310993687,-1.091310988084774,3.8111527345143656,2,right
16.632,-0.4619131357321471,0.90905642703867,0.028386920662551232,-4.370091311483803,-6.204294786185632,0.3382284307975749,1.0174760234779314,-1.072781162201483,3.8252073528088752,2,right
16.636,-0.48733434041592755,0.9205117395789683,0.01218140696413958,-4.376928303590197,-6.226840784940033,0.3278531561107431,1.0172011556867382,-1.0735291398520312,3.824996932919203,2,right
16.637,-0.5158299830542208,0.9326920189542232,-0.0054460164375415366,-4.364800695872496,-6.185211776188092,0.34687208713062556,0.9972994970697867,-1.108048168639502,3.7976395404688947,2,right
16.641,-0.5425090028446922,0.9421215301339447,-0.021633271515771692,-4.379991521345174,-6.238538690412872,0.3226046270424021,1.046206508601617,-1.0229189319989973,3.864680728412809,2,right
16.642,-0.5723124544352354,0.9488154131587248,-0.03974923170162168,-4.367475628018584,-6.194074960921512,0.3427969651416637,0.9651189792434179,-1.1641356981653495,3.753574500067987,2,right
16.646,-0.5900350415337254,0.9509650370953228,-0.05223408157222835,-4.367839544858638,-6.195282876823392,0.3422417598913971,1.0720725344951965,-0.9778717304541671,3.9001195218305735,2,right
16.646,-0.5942291221905203,0.9516549858532741,-0.05441316631745269,-4.391346417486606,-6.279958782195326,0.30387912513317183,1.5210271669518725,-0.19621864606234074,4.5154737142741315,2,right
16.648,-0.6122791174340795,0.9519834612143684,-0.061234820652916834,-4.333659481352587,-6.071870237867192,0.39813178520630355,1.6279818998622075,-0.009980839861415583,4.662040222335062,2,right
16.65,-0.6320186131526224,0.946824414323191,-0.07266741744805907,-4.429204333894164,-6.416858973640197,0.24189701027250785,1.5468921214925586,-0.1511905014493172,4.550911828004757,2,right
16.651,-0.6372320015582238,0.9441400243496447,-0.07831612267648574,-4.30326613181639,-5.961834768178042,0.4479408986937523,1.595802101412274,-0.06597540691265881,4.617940346311858,2,right
16.652,-0.6405838814945382,0.9429453383019206,-0.0800655839160253,-3.775199903792677,-4.051582081461634,1.3127622591407473,1.5758975505993602,-0.10074313682570979,4.590667957669155,2,right
16.655,-0.6464654235195035,0.936321922575351,-0.08164199300572347,-3.6493972452984402,-3.596483155911452,1.518796343846974,1.5756241500399044,-0.10105942555604343,4.590279913858243,2,right
16.656,-0.6494681030208944,0.9307851779727312,-0.08041110873620873,-3.7446775463724733,-3.9416445744529027,1.3625706565114122,1.5860506461624917,-0.08306575250946438,4.604584987593045,2,right
16.660999999999998,-0.6500818469913234,0.9258762123599145,-0.0767312651865289,-3.687352447457209,-3.7332614746234665,1.4568327327545147,1.5735548304766647,-0.1047549063613877,4.587452963982337,2,right
16.662,-0.6495855736540395,0.9204133394869581,-0.07294581446563654,-3.710484820956808,-3.8183398642211293,1.418423816879955,1.583296561266029,-0.087647405725335,4.600785902522658,2,right
16.666,-0.6424772542892772,0.9133259506513773,-0.06668774671130638,-3.711079353962427,-3.8191298061137307,1.4179607818575244,1.578024170019149,-0.09729119433995094,4.593616589995241,2,right
16.666,-0.6325457804047052,0.9013617341931419,-0.06179755106978512,-3.6986932897613887,-3.7749066915672573,1.438026892146571,1.5792636140612808,-0.0943346803616276,4.595217543360549,2,right
16.672,-0.6230227841868622,0.8910141020716662,-0.05858026933910339,-3.7131796393413543,-3.828441989039198,1.413877740261774,1.5806058897626745,-0.09297770328784846,4.597177556436707,2,right
16.673,-0.6080903086366272,0.8820944524187841,-0.05282457690400185,-3.702424118463679,-3.7858912378084715,1.4328593178964628,1.578236958348593,-0.09632089358630846,4.59383473573503,2,right
16.675,-0.590977961187702,0.8711649308336165,-0.047189677331040326,-3.707404839992644,-3.810174906370052,1.4223509442614692,1.5804961972897316,-0.09237960856094035,4.596929808440686,2,right
16.676,-0.5723511564178766,0.8621249486321091,-0.04012589937866608,-3.707456276240805,-3.8026797199932614,1.4251490970794651,1.578909521717239,-0.09659481364939032,4.594935293209076,2,right
16.68,-0.551839232774977,0.8540526469237661,-0.03365300184408264,-3.704655059238279,-3.798666339324968,1.42744019997641,1.5797377492774536,-0.09183367091913378,4.595659189703259,2,right
16.68,-0.5315032005667307,0.8455675794904629,-0.030539659613641766,-3.7074772737049178,-3.8089292630993525,1.4227980806968221,1.5794874670377455,-0.09722088647240631,4.595929574808526,2,right
16.685,-0.5074211411419922,0.837248779290018,-0.026970827056550233,-3.70697919689998,-3.7957799749191357,1.427871918465979,1.5793937822770365,-0.09210569301029144,4.5951473624976575,2,right
16.685,-0.4821396196163617,0.829076571095976,-0.025693070902551234,-3.7038270589597033,-3.810307712785599,1.4233038592456055,1.5796895626605174,-0.09464030410651067,4.59593023481982,2,right
16.689,-0.45718429869411725,0.8228588328540657,-0.027820765987206786,-3.710406509565467,-3.795427261520587,1.4270437154493187,1.579193240588713,-0.09813414493964762,4.59557644217873,2,right
16.69,-0.43114909330638707,0.8184610371719045,-0.03143198401630158,-3.702566118635088,-3.808298001614204,1.4244113806422618,1.5799794288840479,-0.08525817650482756,4.595227346775138,2,right
16.695,-0.40718407338188756,0.8169381702824148,-0.03578844035285379,-3.7075180231469753,-3.8023891170821638,1.4252408720202583,1.5788487459655687,-0.10856633347483452,4.596322561777816,2,right
16.695999999999998,-0.3851307795733339,0.8177629952960586,-0.03870553229238598,-3.7108987612401307,-3.794077708432679,1.427412117956158,1.5801828419781068,-0.07884305315319326,4.594755606295966,2,right
16.7,-0.36706479242123935,0.8166387195256735,-0.042670071532957585,-3.694228955474195,-3.823659877493916,1.4209835673741076,1.5791184891046066,-0.10357076908719781,4.59613042479951,2,right
16.701,-0.35387572682752766,0.8187323671039153,-0.0497171254223829,-3.7256892255662395,-3.7707801586049774,1.4320092200666574,1.5790714954870864,-0.10303511229267738,4.595991817392447,2,right
16.704,-0.3432198170807035,0.8262372821987943,-0.057297418812906856,-3.6850510406624584,-3.8378006372671387,1.418249457514667,1.5813029505023133,-0.05552876493477404,4.593641167189185,2,right
16.705,-0.3333410248198931,0.8325892505688023,-0.06572519103121198,-3.719080115124874,-3.782225963191703,1.42956667209729,1.5759272447377168,-0.17210046720498434,4.599562910031845,2,right
16.709,-0.32069412813015885,0.8423912372484231,-0.07686204368646168,-3.718072457335683,-3.783400966064076,1.4294078227244649,1.5848002759703332,0.021108124999101224,4.589693563587062,2,right
16.709,-0.3133866944653739,0.8494380522590268,-0.08280689377097533,-3.6533449012121837,-3.8899826918025364,1.4075547359413463,1.573109959542954,-0.2337070595853421,4.602724512366937,2,right
16.715999999999998,-0.31169225879729767,0.8503678824265528,-0.08332387038896294,-3.8125913325838416,-3.6286093825435572,1.461002548251149,1.5239913156848193,-1.3033927838607013,4.6573806045459225,2,right
16.717,-0.3017690045967698,0.8646097660316007,-0.08941669252601223,-3.5484827155236847,-4.06169239611203,1.3725100938076218,1.512298331571981,-1.55820518052245,4.670395764634556,2,right
16.718,-0.2938426330631445,0.8785315866000859,-0.0940860784128163,-3.896870364714752,-3.490602841654531,1.489169362494777,1.5211678759973226,-1.3650142821218991,4.660540605486532,2,right
16.719,-0.29407972145146444,0.8806059818822414,-0.09611727331123544,-5.359231939028735,-1.0934736782117187,1.9788380787145123,1.5158158415615568,-1.4815351436705004,4.666479099623027,2,right
16.719,-0.2875169156416991,0.8926525849936562,-0.10308541744200833,-5.707613201454121,-0.5224818498428925,2.0954652160873164,1.5179911848624603,-1.4341259689933328,4.664050645171936,2,right
16.72,-0.2774411313597047,0.9090629180716027,-0.10727445148664183,-5.443506972405052,-0.9553596811795437,2.0070442182070565,1.5180338328829794,-1.4334528343073591,4.664065320944046,2,right
16.724,-0.2699948136010756,0.9209136873951778,-0.10776568814291743,-5.602772049434158,-0.6942984096197607,2.0603752859973254,1.5168658425643298,-1.4583203409311987,4.665231667826193,2,right
16.725,-0.2590555332218569,0.9356281523493842,-0.11086299658257043,-5.5379885490136385,-0.8005046604135067,2.03867482310532,1.5182720500658893,-1.4285294618268598,4.663858187713001,2,right
16.729,-0.24458665761054257,0.9499562321086326,-0.11906321017737545,-5.5370792049829065,-0.8020024035295965,2.0383665805065707,1.5171679834930134,-1.451733821926695,4.664896134908731,2,right
16.729,-0.22462157357128393,0.9625478996854132,-0.13222983638674252,-5.570984970453647,-0.7463533871369473,2.0497546933520505,1.5177592252835996,-1.4392222820349976,4.664320507913301,2,right
16.733,-0.19558393094149068,0.9776602361260522,-0.14709347994859917,-5.5304475385578815,-0.8129627616032792,2.036103317079828,1.5176620214374852,-1.4420692917154363,4.66459251251392,2,right
16.734,-0.15920440923539014,0.9943109933886499,-0.15831568150766592,-5.561905232119429,-0.761161270156385,2.0467498527844787,1.517400042466569,-1.4454191735280624,4.664356146401686,2,right
16.738,-0.11423734633909981,1.0089623415669329,-0.16171771113776445,-5.5450547219079365,-0.7890207607313813,2.0409940052110462,1.5178528456892668,-1.4396212648688302,4.664762022722985,2,right
16.739,-0.06234875725942368,1.0243795528539885,-0.15579709335630385,-5.54885538810232,-0.7826874262902808,2.0423158185302834,1.5173731401267627,-1.4450778847206425,4.664179137887114,2,right
16.744,-0.007376214328931497,1.0434027670995376,-0.13868835424926876,-5.553175994561144,-0.7753978803421786,2.043860780523403,1.5177243464257493,-1.4414107722285796,4.6646788858001775,2,right
16.744,0.050733131492089314,1.0624687618195097,-0.11634651823116596,-5.546012013642157,-0.7878091078617823,2.0411452439512257,1.5176533655208124,-1.4429883822380654,4.664765199583522,2,right
16.75,0.10967566909198051,1.0795104634653694,-0.09358029335782703,-5.5521998719842784,-0.7765141277142824,2.0437632373602677,1.5173096088939197,-1.4430925541534614,4.663496430348241,2,right
16.750999999999998,0.16724338162023783,1.094463415120687,-0.07188303148764716,-5.5487028188920196,-0.783660412471358,2.041921992212866,1.5181353880709492,-1.4419871887140645,4.666352410621643,2,right
16.753,0.22461613757150722,1.1062019546536304,-0.057954040129796526,-5.549717588848726,-0.7808702215645689,2.042796136874504,1.5169124686227198,-1.4434336260785137,4.662080804403088,2,right
16.754,0.28374118184020625,1.114105641510788,-0.048371365482000814,-5.549695995906381,-0.7808936371503505,2.0427939768208794,1.5182041333486587,-1.4421604343738035,4.666648922120295,2,right
16.758,0.345386394783519,1.1180944369416097,-0.03965859188839853,-5.55065684004766,-0.7814146598110092,2.0421232097188087,1.5174572125290555,-1.4428969906394855,4.664008232436765,2,right
16.759,0.4109076522048396,1.1171250825256287,-0.030514191025299477,-5.547264019800254,-0.782189279212461,2.0432548540213515,1.5168420340585138,-1.4429445766504527,4.661705882026931,2,right
16.762999999999998,0.48315549307365635,1.1131062226085322,-0.014007775967374899,-5.553311466627623,-0.7794149673445037,2.041897136579191,1.5195726523787592,-1.441980960353293,4.671751869012731,2,right
16.764,0.5596573390037558,1.1075293508260282,0.006681411910154273,-5.546289420124406,-0.7833188332117494,2.0431513410188975,1.5145056853202081,-1.4438008256623704,4.653119693041636,2,right
16.768,0.635522816334279,1.0994781695036417,0.03060614106213439,-5.5505279791375965,-0.7807602646465261,2.0424882865332554,1.5210108847707793,-1.441518556382492,4.677050509479377,2,right
16.77,0.7097227916124675,1.0909263434378396,0.060620601112916436,-5.554268745030386,-0.7784306193196227,2.0419428286170103,1.5155792882589072,-1.443393841562059,4.657065423398286,2,right
16.773,0.7844013231305624,1.0788285691094073,0.09340282969947065,-5.537697046455647,-0.7889936647475095,2.0442565796255865,1.5157331829034508,-1.4432980960768038,4.657615264592907,2,right
16.774,0.854882215220061,1.0637868667730093,0.12490901032846147,-5.5686324533897675,-0.7690551659351728,2.0400363553312566,1.5260684298514402,-1.4399473309759738,4.695707779760697,2,right
16.779,0.9151074156130745,1.050859278015961,0.14881040169676543,-5.528772289025184,-0.7948994847794031,2.045406535482959,1.5006551247317104,-1.4481941378503786,4.602058254807846,2,right
16.779,0.9681656938152888,1.0379618300225073,0.1660316286121491,-5.562099818026744,-0.7732154303091464,2.0409442171572536,1.542798123170039,-1.4345543482306802,4.7573541060216655,2,right
16.783,0.9954221722349351,1.030668809603609,0.1746787282056923,-5.561239519667264,-0.7737947351162628,2.0410691082949493,1.4872047295420012,-1.4524972330376174,4.552495789430001,2,right
16.784000000000002,1.000557432567374,1.0293408108372417,0.1747898748752821,-5.497474722215087,-0.8153468383122103,2.0495297193255952,1.253900543258097,-1.5278321836213604,3.6927211938959696,2,right
16.785,1.0182615064331042,1.0222545125660738,0.1741355731800831,-5.654172751107184,-0.7131451606719017,2.0287442751115723,1.1982881623325503,-1.5456691401936151,3.4878017203785916,2,right
16.787,1.0268008018278407,1.0124542643483636,0.16448327022956222,-5.3943639855657395,-0.8826731299529369,2.0631959066242804,1.240460841300544,-1.5321949319242545,3.643193171355237,2,right
16.788,1.0193766251338006,1.008635783982388,0.1544547782603662,-5.737048014415163,-0.6590107866154813,2.0177632877869653,1.2150229840685574,-1.5403047769113714,3.54946456346062,2,right
16.789,1.0174696136996997,1.0057821711707455,0.15260011335845278,-7.1765419490569515,0.27979892530100914,1.8271340937459377,1.2253568118354847,-1.5369460698236121,3.58755251183665,2,right
16.793,0.9988271026451223,0.9994932091769734,0.13794592787146243,-7.519289804538885,0.5035006323862168,1.7817123117189833,1.225558336266392,-1.5371160825285002,3.588255759279482,2,right
16.794,0.9625835382921291,0.9949042800079,0.11387285076401422,-7.259271111486436,0.3339244546296303,1.8161414022018212,1.2200227588813446,-1.538411229772842,3.567935764008718,2,right
16.797,0.9214985033433271,0.99048634368719,0.08782757337032326,-7.41644184570963,0.4361298383708389,1.7953898103044597,1.2266760834388688,-1.5369553581506574,3.5923436784215115,2,right
16.797,0.8703810736002269,0.9852795922154405,0.054413576279901385,-7.351877440699042,0.39467797392613063,1.803810330487702,1.2214624116207606,-1.5379567929847868,3.573238971743158,2,right
16.801,0.8143347847658567,0.9841123718973119,0.021654349961984794,-7.35205038121188,0.39385557679277206,1.8039687161533102,1.2242566135780437,-1.537347814034107,3.583489773435441,2,right
16.802,0.7524674131780987,0.980072618908844,-0.009504676229758036,-7.384446652673604,0.4159101319950579,1.7995006197209897,1.223764803893654,-1.5380838295960686,3.5815847569620027,2,right
16.805999999999997,0.6836723659846121,0.9702119232226235,-0.04242797388569522,-7.344826572157318,0.3896694345705358,1.8048237816781172,1.2226190288421863,-1.536594997945685,3.577659420779067,2,right
16.808,0.6157722048840466,0.9593615253407578,-0.07538313617169352,-7.3769346053373175,0.4098299372109998,1.8007218452124787,1.2245979643251306,-1.5391562184278333,3.5844411609927986,2,right
16.811,0.5492964537482983,0.9439265869511927,-0.10602867996433293,-7.357216009136607,0.39948976481927306,1.8028501459780482,1.2225317517166903,-1.5358979588202755,3.5774533675592366,2,right
16.812,0.483616211366214,0.9255711981555975,-0.13068479375702186,-7.366034694434157,0.40089945448970754,1.802513595027158,1.2240298017960751,-1.538542875112534,3.582474735313603,2,right
16.817,0.4204840211264682,0.9081969082137975,-0.1457074738597515,-7.364395847934208,0.40515765766357076,1.80171109726607,1.2236917855445273,-1.5386797359647522,3.581224338926569,2,right
16.817999999999998,0.35712665261653054,0.8898458288789703,-0.15129294873752497,-7.361536739402499,0.39904664550854835,1.802902306399892,1.2223741526596243,-1.5333013352296758,3.577295449583483,2,right
16.820999999999998,0.2954220644071834,0.8734897835951259,-0.15527732853889492,-7.3688221648368355,0.4037611031174718,1.8019444896291077,1.2255746030435357,-1.5455310947391503,3.5869722238177983,2,right
16.822,0.2401804830071411,0.8599256263783914,-0.1617473257749995,-7.354949425485124,0.4025895353263577,1.8022748734269212,1.2208442017566257,-1.5272726476049594,3.572698258688048,2,right
16.828,0.18908923563037294,0.848284470222521,-0.17146148923956686,-7.3776820085009565,0.3994159071927362,1.8027080654127574,1.2258284522266534,-1.546754968963187,3.5876996957055205,2,right
16.829,0.14131788268725387,0.8422797832411553,-0.1831517750512826,-7.346928610479978,0.4062108253241918,1.8016432478704676,1.2229480062476523,-1.5354988404675205,3.5790290289201803,2,right
16.831,0.09515670217277267,0.839102665618275,-0.19499560183477443,-7.378556044321369,0.3982136388984822,1.8029317366544992,1.2205942636330787,-1.5257524245653746,3.572033636071732,2,right
16.831,0.05204807223870862,0.8369508529220768,-0.21035819657575514,-7.361057082864869,0.4033392875794816,1.8020840742195379,1.231062509892593,-1.5683498105481262,3.6032701655741093,2,right
