time,gFx,gFy,gFz,ax,ay,az,wx,wy,wz,subject_number,foot
5.167999999999999,0.24299336254608286,0.9137976343656713,-0.09676260047190097,-5.4592625339850915,-1.700340250657037,0.05610691222671954,1.5502994425230014,-1.8608771393136738,4.639261273188902,1,right
5.17,0.34693497973284393,0.8962777885022051,-0.09680538449493778,-5.760794255997272,-1.5027483140173037,0.09359253420464822,1.5497739242549398,-1.9007648958372343,4.632974120391671,1,right
5.171,0.46972130858883954,0.8791538918473449,-0.1003194775102315,-5.63811931584037,-1.5831068296187487,0.07835395117605773,1.55037586464123,-1.8529177330787459,4.640351264042659,1,right
5.175,0.5887666941812666,0.8701746263823118,-0.10738866029998456,-5.636360325982374,-1.5843635652169876,0.07809290477573821,1.5499490219493466,-1.890280329663331,4.634836411947338,1,right
5.1770000000000005,0.701559054139755,0.8674473519843662,-0.11759376871249466,-5.700733889872472,-1.541973652912481,0.08617977291645998,1.550137097363954,-1.8700338363390363,4.6375794740048875,1,right
5.18,0.8054412629470447,0.8669764685344876,-0.13454981135438657,-5.623617930462071,-1.5927982696981822,0.07647416821139555,1.5501126298755432,-1.874704622385536,4.6370546576480685,1,right
5.181,0.8909257810403546,0.8719677162261914,-0.15521640825119648,-5.683685741876631,-1.553147730347892,0.0840594085592931,1.550117909177854,-1.8801982923069414,4.636627302893557,1,right
5.187,0.9633153497896574,0.8768493496148917,-0.17544595838767885,-5.651301375446705,-1.5744918074283794,0.07998336686794327,1.5499908070611124,-1.87041342317058,4.636722000979843,1,right
5.188,1.0160318171463611,0.8840854439773822,-0.19061814704349794,-5.6586515774980635,-1.5699283746729602,0.08079360897895599,1.5503105484734547,-1.880060893889714,4.63772785281362,1,right
5.19,1.0456723658024054,0.8948562511139797,-0.19347183624216568,-5.667372151503529,-1.5634042841609161,0.08220867200948245,1.549851020594545,-1.8730212413228173,4.635715231333929,1,right
5.191,1.0505687932364443,0.907881516385789,-0.18885875998531326,-5.652280942967086,-1.5746870299805011,0.0797629248959576,1.5502464804669571,-1.8765557815739742,4.63765678703834,1,right
5.195,1.0283380275972394,0.9235414789600679,-0.17933500448290982,-5.666507949317786,-1.5636540986244294,0.0822305717202034,1.5502504024677872,-1.8765519042102357,4.637679407911009,1,right
5.196000000000001,0.9818073371339104,0.9409495910664973,-0.16612557336226494,-5.6569336666328764,-1.5712915429833925,0.08048307124913723,1.5494701375949629,-1.8733237063226027,4.633537346513062,1,right
5.199,0.9139049747173191,0.9580477177701902,-0.16202795691337407,-5.661015557668895,-1.5686286812166053,0.08098545682543881,1.5512731464664187,-1.8792977788382301,4.643231645765081,1,right
5.2,0.8324132370841439,0.9713941903206819,-0.1665735939874135,-5.661441410842796,-1.5658193738818689,0.08207291243472115,1.5485669768532677,-1.871541446771227,4.628581235532755,1,right
5.204,0.7446318025624802,0.9842695235440704,-0.17051265572818475,-5.658223645330844,-1.5737111616528212,0.07930867007956136,1.5514615313820572,-1.8791346834992275,4.644309255785815,1,right
5.205,0.6506024253734374,0.9980216707741307,-0.1735241921787462,-5.66250004760599,-1.5622803432777155,0.08336747104668052,1.549785615093995,-1.8749616846565687,4.635185461463251,1,right
5.21,0.5575119164221223,1.008594622976005,-0.1731514743292275,-5.65863620482152,-1.5740117825953126,0.07912684298915479,1.548340964924352,-1.8714598708728098,4.627309285456296,1,right
5.211,0.4691910239039469,1.0154825980240973,-0.1678945906020793,-5.660872222896584,-1.5672289230713092,0.08157790108712049,1.5546698111084924,-1.88653698415508,4.661828426028981,1,right
5.215,0.3834744170736266,1.0166794598256716,-0.15851503721288512,-5.661276038763185,-1.5623869967625548,0.08350018661442875,1.5429282636277781,-1.8588200069549645,4.597769023952309,1,right
5.216,0.30682969751512734,1.0132667594852307,-0.14684608518096937,-5.657546287535213,-1.5848775886460693,0.07484087829674235,1.5580085888140505,-1.894242838640091,4.680055443394178,1,right
5.218999999999999,0.2397255490903621,1.00662801587882,-0.13297427829206274,-5.6645510946021655,-1.5431049309249207,0.0909116770765509,1.5454158970088172,-1.8647379636851604,4.611341627041491,1,right
5.22,0.18700303935626955,0.9922088725653675,-0.11681558216265114,-5.655695154867161,-1.5966584482031934,0.07029207192065581,1.5457609763254345,-1.8655641618468204,4.613211382252528,1,right
5.224,0.15050938995907032,0.9717309421931946,-0.10473198385690845,-5.6630135470656064,-1.55198899020339,0.08749877534770834,1.5697641902536916,-1.9216232254526067,4.744232116490489,1,right
5.225,0.12791137042509548,0.9531457656366368,-0.09308556990944357,-5.662694253545386,-1.5533000299293858,0.08701379391861577,1.5107581722009757,-1.783845321843617,4.422170037311871,1,right
5.232,0.12671219198440264,0.9371677749155656,-0.07902149629170092,-5.649330065392042,-1.6380335086101558,0.054287732800531494,1.6085991631599474,-2.012263970613418,4.956186060423795,1,right
5.233,0.13098427211939975,0.925545657871007,-0.07132239315231523,-5.682221798497897,-1.4296964033720774,0.13473797480803631,1.479542624363419,-1.7109991778678095,4.251804712461193,1,right
5.233,0.13688037414105292,0.9269459224757144,-0.07204989536474782,-5.627750299421351,-1.7751158377332623,0.001350393119248082,0.9379571635487317,-0.44709064860928305,1.295495822782465,1,right
5.234,0.14813281718226495,0.9314661758898972,-0.0728610382822939,-5.699518393029337,-1.3195394055164402,0.17728212968279136,0.8089049420187552,-0.14587808940829627,0.5911218886175821,1,right
5.234,0.15433128614981717,0.9335357264728095,-0.07279489257603494,-6.001495990868684,0.5925505610744631,0.9157199837849301,0.9067250453328829,-0.37415302267027883,1.125089155431234,1,right
5.235,0.17674341426147655,0.9597430674397867,-0.08154964505217399,-6.07324299244005,1.0480886282550128,1.0916444859339898,0.8477746905406929,-0.23666249768152783,0.8031683101964187,1,right
5.24,0.21497376082000266,1.025868318494416,-0.07910231923430189,-6.0186822966025275,0.7027219794463924,0.9582667162399398,0.8716749808976663,-0.2922722514986279,0.9339181946446811,1,right
5.2410000000000005,0.25929900296836744,1.1278556532123671,-0.04709065840078966,-6.0519794761931145,0.9110349280165301,1.0387129048610486,0.8721624031777264,-0.2936397936111991,0.9361719986777159,1,right
5.244,0.3272132025490875,1.2578305492034112,-0.003893197902132328,-6.037721616347818,0.8262461091087077,1.0059753738715456,0.8594289567413207,-0.26369932750939373,0.867066629766323,1,right
5.245,0.41749172209902485,1.3908545579765579,0.03182468987622311,-6.0387787161981255,0.8251091551674592,1.0055247541564318,0.8745703314829614,-0.299130484845897,0.9495442304808055,1,right
5.247999999999999,0.5298505702328944,1.5008167256597225,0.037142985445916155,-6.044561132352724,0.8694849618262339,1.022674437178833,0.8629493510384625,-0.2721999428144938,0.8857713556193512,1,right
5.249,0.6511463015622717,1.5905993119317208,0.03001690568291119,-6.036688244082999,0.8162788849225036,1.002121297271879,0.8688872612912106,-0.2854494643579724,0.9192760267250732,1,right
5.254,0.7707977628785214,1.6681379435399795,0.055234598472389256,-6.04428362104336,0.8577994391622585,1.0181454312368667,0.868119552805365,-0.28470306474118207,0.9132048822373656,1,right
5.255,0.9220838925728934,1.72669578703636,0.10207824984141502,-6.037371546230143,0.8352459844362368,1.0094704968455135,0.8656078648153914,-0.2775602183396044,0.9018014601229042,1,right
5.2589999999999995,1.1165563124365319,1.7728172073099724,0.16424107599310608,-6.044003884206457,0.8406954836061943,1.0115144148519415,0.8691769685614735,-0.28691025915804225,0.9194450484181715,1,right
5.26,1.3571514159536195,1.8147099261213717,0.2531968679965847,-6.03779175013508,0.846201576774694,1.0137154330121105,0.8664576932284578,-0.28057367716581905,0.9045855260065027,1,right
5.263999999999999,1.65527882237512,1.849783850220112,0.366921722735848,-6.0418700699878745,0.8362810607114677,1.0098246114844054,0.8670525509003248,-0.28006775375079485,0.91124306934274,1,right
5.266,1.9805590603736254,1.883276660932503,0.5090562316208487,-6.043439591495492,0.8459038339132854,1.0135404204549174,0.8690683792084661,-0.28909988717175744,0.9144527088704894,1,right
5.268,2.310006192491378,1.9043629552601198,0.6443041429916971,-6.031850605329412,0.838834095921573,1.0109206171288927,0.8648724798309692,-0.2728523301860129,0.9031760724809795,1,right
5.268,2.587301692145068,1.9009929994685446,0.7220998173985709,-6.05645325116909,0.84307669284042,1.0123063730735624,0.8697803232519847,-0.29118681908165195,0.9175714323236019,1,right
5.274,2.6841710827673158,1.8979572674787675,0.7564322713146006,-6.02041346588251,0.8409421370665104,1.011859200700514,0.8666529405153269,-0.2799136473817371,0.9076617404569653,1,right
5.275,2.5354183542099875,1.90032801606771,0.7738004059431647,-6.058589537131518,0.841684245310026,1.0117435152247563,0.864863800374255,-0.27230874698968915,0.9040692483623193,1,right
5.278,2.1811545160767145,1.8975961759366826,0.7289579883467603,-6.036695107125901,0.8422814939170189,1.0122069182540807,0.8743667029256755,-0.3094882827947028,0.9289236155672731,1,right
5.279,1.6939188938057963,1.8970423683088034,0.5883194861311438,-6.017312659632573,0.8396062802915834,1.0113734577709184,0.8563483072945259,-0.23961919236367177,0.8806734362370738,1,right
5.284,1.1430630709376404,1.90390025740422,0.39679852764418505,-6.10119951491549,0.845432033556935,1.0127473817290924,0.879627174405937,-0.32966379657982803,0.9434065845398942,1,right
5.2860000000000005,0.6020948938513053,1.9367239905939069,0.18096464074020854,-5.9458540104507795,0.8360135350383817,1.0107353071687295,0.8601327345791451,-0.25435429923176534,0.890705264866737,1,right
5.289,0.10104305466646007,1.9664470358979245,-0.029520837853409965,-6.145242705510844,0.8476143951556284,1.013127698838571,0.8607529152445963,-0.2565981040187702,0.8926381564582448,1,right
5.289,-0.3157479550811439,1.9846642349232848,-0.20438390508183393,-5.978821078812296,0.8381272865469063,1.0112080484092465,0.8976786820304896,-0.399649257033028,0.9917817931691355,1,right
5.292000000000001,-0.6176709246788943,1.98517292744798,-0.31553000457268543,-5.983263704613229,0.838090498781239,1.011143801426912,0.8067859692304683,-0.0477553684125642,0.7473664234269352,1,right
5.292999999999999,-0.8505777400465981,1.91011276605356,-0.32070238817585006,-6.30075796530882,0.8569703264076365,1.0151159916857466,0.9575405352105499,-0.6313151922869584,1.1528946530276625,1,right
5.297999999999999,-0.9601071531584021,1.8498936800243109,-0.295505882746796,-5.5204912304476075,0.8109709886669252,1.0055149607601834,0.7586779378753983,0.13842908473193122,0.6179047786340226,1,right
5.2989999999999995,-1.0010606352258868,1.8032005038215053,-0.2638549704903276,-6.8141653134312845,0.8871133383119266,1.021380647080712,-0.07597771243537149,3.3695696062660745,-1.6273036287415075,1,right
5.2989999999999995,-1.0786500448151255,1.7202433864805498,-0.20656945707477817,-5.107841548436182,0.7866944121642718,1.0004630730342579,-0.27484351513277366,4.139332498366285,-2.162309848407992,1,right
5.303,-1.1196073387546805,1.6727143247201526,-0.17376342098099715,2.0546491338631587,0.36553206461857457,0.9127448639765138,-0.12407441501498065,3.5556882643669256,-1.7567075083285375,1,right
5.303999999999999,-1.1822821415001172,1.5402295152446976,-0.1055023600703235,3.7609471987753103,0.26503658270086095,0.8918050759923641,-0.21500500540884437,3.907802138419933,-2.0013160143483657,1,right
5.303999999999999,-1.2769897102673533,1.3125825132845121,-0.030628121630209493,2.467306863947129,0.3412238527789233,0.9076801527564637,-0.17800993472014473,3.7643484795166096,-1.9018190033795497,1,right
5.308,-1.3199183600305415,1.1008856533866105,-0.03537901166013675,3.2475631262752205,0.2953902880312076,0.8981401306828551,-0.17748488586049405,3.762657187660616,-1.900371176745289,1,right
5.309,-1.3466358337485462,0.8681522552216867,-0.08215754912559059,2.930020023545026,0.313718554175412,0.9019256670244492,-0.19688614636069773,3.8374255083697837,-1.9525973911887586,1,right
5.312,-1.3398352775542266,0.6454506985994575,-0.15430531786553214,2.925711476171697,0.31468359304109583,0.9021915931972201,-0.17364608021722913,3.747606262781179,-1.8900620744589438,1,right
5.312,-1.2914135188450633,0.4550249919227291,-0.22211487111597317,3.091917653027599,0.30390812321833616,0.8998557341102152,-0.19174798411606508,3.817960346825359,-1.9387380658958668,1,right
5.318,-1.2204253254883057,0.29190389125562477,-0.2651900617945572,2.8927724906696204,0.3166069881596649,0.9025911439019079,-0.1819807627389131,3.779245694087059,-1.9125359560326858,1,right
5.318,-1.1246241896078177,0.17649106126737896,-0.29686720163166325,3.047959082764856,0.30705813595188486,0.9005637224020551,-0.18422393878204152,3.789487568576325,-1.9184435271110345,1,right
5.322,-1.0312588689812439,0.09620520936410895,-0.31956309000518335,2.9639871458309788,0.31114971044183115,0.9013374150358284,-0.18679461633181738,3.797527463135934,-1.9255146591426022,1,right
5.324,-0.9504124748079895,0.06012664577869693,-0.35358611865048717,2.983857065335965,0.3126994106510889,0.901911582901664,-0.18233036833048302,3.7817693455003036,-1.9133811010485644,1,right
5.3260000000000005,-0.8952407699027891,0.07058400618055813,-0.4061771037686185,3.004790408354737,0.30678982930188603,0.900248139213622,-0.18653063997563402,3.7980422455168625,-1.9246800942870241,1,right
5.327000000000001,-0.8816383562745808,0.12491333352353587,-0.4743603147551221,2.9679225041636843,0.3146966046434294,0.902425541157849,-0.18369052474604097,3.784222827432961,-1.9172674396362823,1,right
5.331,-0.9042274592071995,0.2272103499839,-0.5523248910587903,3.0027271003952087,0.30807648757430883,0.9006239807880914,-0.18497890826002228,3.7956663111287083,-1.9202123732852752,1,right
5.332000000000001,-0.9643411574905378,0.36129012324167364,-0.6221467326931445,2.9785560978978873,0.3094553080387761,0.9009068514820169,-0.1848888999645949,3.7856869530541006,-1.92074770430586,1,right
5.337999999999999,-1.0602843883168238,0.5106674916899886,-0.6632256061305479,2.9914216357875465,0.3171885929050179,0.903303229314278,-0.1843144527584597,3.793729566722819,-1.9183733875556837,1,right
5.3389999999999995,-1.182700693047125,0.6535761444710093,-0.6721063077072786,2.9861322243983355,0.29810125059998427,0.8975331069944898,-0.1850959676958074,3.790823584389739,-1.9209551301100163,1,right
5.343,-1.3176331250178364,0.769222255319987,-0.6617068184921641,2.9882457753838643,0.326913390730213,0.906210656868353,-0.18437176236894842,3.782905481741868,-1.9194188027396235,1,right
5.343999999999999,-1.4434754248091355,0.8517562669116973,-0.6354121243985975,2.9870720898677057,0.29613847372008495,0.8969484085589,-0.18496224667805078,3.807571621553076,-1.9192020215603351,1,right
5.348,-1.545216835011787,0.9021161764925276,-0.6059621509835837,2.9860450570936257,0.3140156474211227,0.9023186065181004,-0.1844765943665546,3.7641887427037757,-1.92124443838804,1,right
5.348,-1.5955081937919284,0.9291875532807957,-0.5735658957091471,2.993593509451251,0.32894541702734886,0.9068521419799624,-0.18488043024775463,3.819042098372759,-1.9180297211193742,1,right
5.352,-1.5892673924100653,0.9379331738631953,-0.5428097914337398,2.9743730343590755,0.26282516398210193,0.8868579747919305,-0.18463636891055799,3.7736104771101253,-1.9209653313237796,1,right
5.353,-1.5332522344371735,0.9401370574728498,-0.5236619975378218,3.0075133753900802,0.3855799197257742,0.9239614577294942,-0.18449927056234938,3.7742784441036292,-1.920496007039479,1,right
5.356,-1.4364746223061289,0.9486070134790607,-0.5017152031974093,2.9655358570372568,0.22793572476230256,0.8763181142694872,-0.18534670811542925,3.862399330297788,-1.9159340916107768,1,right
5.357,-1.33846609835782,0.959457929605315,-0.48489950349792743,3.0003281090481004,0.3595415439615236,0.9160870806328408,-0.18347206240731562,3.6466261305833454,-1.9277135680160948,1,right
5.362,-1.2091113799754938,0.9828239516271274,-0.4284873730013991,3.000313784856063,0.35596640876939334,0.9150201746702873,-0.1865011502452224,4.004073163181838,-1.9079646984707554,1,right
5.362,-1.1137638843202118,1.002120544512465,-0.3690704299101877,2.930985598766755,0.10509808352608593,0.8391760118297575,-0.1825352606853178,3.5327247614142485,-1.9340976514382255,1,right
5.3660000000000005,-1.0990952886094787,1.003881188878367,-0.3613348892426219,3.100237824804796,0.7216828440574717,1.0255623290676243,-0.165763766339391,1.5536672840369266,-2.043397093128834,1,right
5.367000000000001,-0.9995575471148254,1.0279014792691359,-0.263462868618455,2.819976160163972,-0.30059445802261553,0.7165559738303835,-0.1618047113319236,1.0823587937103372,-2.0695569061905603,1,right
5.367999999999999,-0.9024807895281933,1.0515534077779702,-0.15801578762451074,3.1895023935147266,1.0477134580945944,1.1240958332393893,-0.16480986249391827,1.4396986071725868,-2.049734476046975,1,right
5.371,-0.8920050632949852,1.0547363301967103,-0.13943898949780842,4.7424480112243765,6.707539354838965,2.8349317722592193,-0.16299099709919931,1.2241358069173205,-2.0616605189293598,1,right
5.372000000000001,-0.8018932702439412,1.0802809145317078,-0.034759975822553094,5.11177934143723,8.055657881791516,3.24237239005869,-0.16374216850718984,1.3119323132241085,-2.056870053725405,1,right
5.372000000000001,-0.679086127651485,1.1146600973721528,0.1071789299008919,4.831875646465729,7.033673486829505,2.9335205086463887,-0.16373150095470596,1.312985828298928,-2.056675398880306,1,right
5.375,-0.5790442314336941,1.1443145537617716,0.20465274226159091,5.000687052602155,7.650024480504463,3.119780830858576,-0.16337077113700588,1.2672515169381515,-2.0593909887386386,1,right
5.376,-0.45827341111010655,1.1791874633502413,0.2978013270086887,4.931733515246918,7.399119056882051,3.043924441866517,-0.16381008365895933,1.3220938815504055,-2.056178273893181,1,right
5.381,-0.343989388515645,1.2081897634552,0.35616311043102644,4.931630683017236,7.396053042713257,3.043113617890967,-0.16345898196892444,1.279295872640379,-2.058622957588175,1,right
5.382000000000001,-0.2272959395220003,1.2355302674112019,0.39432403423154067,4.965975303067177,7.526585172502126,3.0823314473826864,-0.1636736936528358,1.3026347002875442,-2.0574755484644065,1,right
5.386,-0.1069189605217729,1.2593950353614913,0.4284906800394429,4.925161219186927,7.3704395014049995,3.0354667260652035,-0.16356589365021823,1.2966925169257766,-2.0573389543643166,1,right
5.388,0.00874235636154418,1.2776529383870585,0.4541427125593376,4.956466767587499,7.491750333811982,3.0718074848723895,-0.16362257907423394,1.2916875464448694,-2.0584161623439385,1,right
5.392,0.12480428510908018,1.294466770875276,0.48486747009673614,4.939318453620908,7.4261806244148225,3.0521281160508518,-0.16357948340801842,1.300919504690064,-2.0569247099948975,1,right
5.392,0.22970417481312883,1.3041978182579297,0.5130083875265178,4.945475151934839,7.442497623997948,3.057339306788241,-0.16360105091306507,1.2920637778613715,-2.0581958970034715,1,right
5.397,0.3250836725065829,1.3112982071323902,0.534791725750912,4.943847324617019,7.456190496012775,3.0605816401570896,-0.16365819265356485,1.298747070917679,-2.0578325726880244,1,right
5.398,0.40626586294818445,1.312569227455449,0.5469320676040921,4.946594809965125,7.432455487922339,3.054950288708682,-0.1634382968445416,1.2937873708050804,-2.056659962509574,1,right
5.4,0.4671955693362019,1.3022678191554702,0.5403014956451349,4.940827327479185,7.452810483186621,3.0592105885813545,-0.16388460888935352,1.298461515825673,-2.0597083268703953,1,right
5.4,0.5108409265538973,1.2832768281610063,0.5091204149312432,4.946411010681516,7.440194569649336,3.0569051753078904,-0.16323232212761363,1.2930838900372974,-2.0550725917600907,1,right
5.405,0.5285827287975249,1.2506779341200023,0.45000811034541743,4.948801536956359,7.448606045077849,3.059461694399252,-0.16392512106102067,1.298519404631485,-2.060030755522572,1,right
5.406000000000001,0.5242367065233746,1.202830482359362,0.36958550812081004,4.928711762004851,7.436555220340585,3.0530201298724933,-0.16352877417114833,1.2958476964073338,-2.057139821673532,1,right
5.41,0.5037675379293839,1.1429695158137405,0.27703272810695173,4.973356052595877,7.45949894243612,3.066350581495886,-0.1631676081669025,1.2912217647543527,-2.0547770827509395,1,right
5.4110000000000005,0.46283386915263947,1.0758325730009806,0.1821179751778495,4.906466331250779,7.424204740825284,3.046142564176956,-0.1647163037930685,1.3076650868078374,-2.0653293662883385,1,right
5.414,0.40149949076869507,1.00865952331942,0.09124309075369663,4.9781566339479895,7.463244124416885,3.06811138592503,-0.16184998695929642,1.2778566492052303,-2.0457216029177183,1,right
5.415,0.3176312835922046,0.9492588286620464,0.005367777441335937,4.936743602433673,7.440703873801141,3.0554245783037195,-0.16552921560258077,1.3159787770415636,-2.0709079041260896,1,right
5.419,0.2225527045047897,0.9016963552507142,-0.06290206026406645,4.90016689603512,7.418128449952166,3.043532201032292,-0.16245806872084712,1.284213840657028,-2.049876967294976,1,right
5.42,0.10371238637676937,0.868720726634296,-0.11626944435359013,5.059094135313405,7.512853760181887,3.0943357049763387,-0.16253935499620953,1.2848368540844097,-2.0504611270238478,1,right
5.426,-0.028354486918474427,0.8516929979809165,-0.16525438625051292,4.764431795962718,7.337390992386503,3.0001871319297666,-0.16840159571099417,1.346185157089002,-2.0905154130179664,1,right
5.426,-0.1601920187443422,0.8497309405896902,-0.2060667723961936,5.142850425808762,7.562950470326356,3.121151540447849,-0.15399493796269892,1.195675221501984,-1.992047797990169,1,right
5.431,-0.33920739531109484,0.8666562114633198,-0.24797177280894928,4.826914242978059,7.374528680480793,3.0201366147365656,-0.1778815167301054,1.4451591753628823,-2.1553184429980403,1,right
5.431,-0.47100539086556287,0.8855526919739207,-0.27741939474723726,4.835331938951965,7.379286785646757,3.0227526619159084,-0.14637494959637132,1.1160920009146795,-1.9399617440145134,1,right
5.434,-0.5094882260995597,0.8936654141132783,-0.28491089215477255,5.4382465603531305,7.740005245786371,3.215836730815738,-0.014125388754493384,-0.2654791957377166,-1.036040182045348,1,right
5.435,-0.6324299661636,0.9177623945136113,-0.30392511250143905,3.9565143965859773,6.853677813005461,2.741373373971893,0.01738236542391333,-0.5945887791589086,-0.8206763427694035,1,right
5.436,-0.8395919841327721,0.9624545815872476,-0.33463086564771627,6.413228018971282,8.323253033390795,3.5280315884175897,-0.006505944156454453,-0.34505326350474097,-0.9839589632824376,1,right
5.439,-0.9499864943998102,0.9902187923604144,-0.3496284666508678,3.172894965869049,6.384834445023531,2.490444376264723,0.007901806671801143,-0.49556585987116725,-0.885479232231681,1,right
5.44,-0.9862943707980749,0.9990819723097095,-0.35487737779548123,-10.42904332085251,-1.7526192679047652,-1.8652596466498501,0.0020405656252368886,-0.43432829517005944,-0.9255389281934776,1,right
5.441,-1.0929637308304014,1.023262900646552,-0.3671317423025217,-13.669202246873356,-3.6910925085536173,-2.902791869753873,0.001954950203010055,-0.43343931471352787,-0.9261321816572972,1,right
5.4510000000000005,-1.2148426066155125,1.0518622288511617,-0.3712312906928752,-11.212760821304368,-2.221431858356765,-2.1162196151918238,0.005034048180266222,-0.4656077711899807,-0.9050716058585649,1,right
5.452999999999999,-1.2737075562395432,1.0626072835300537,-0.35754557359584616,-12.694267806395711,-3.107829955845949,-2.590611858949821,0.0013447233948906002,-0.4270561184712507,-0.9303081578734649,1,right
5.454,-1.3070700474472048,1.0616750848052408,-0.34013733220292963,-12.091340207751422,-2.7471155911649223,-2.397523696035714,0.004219442169223727,-0.4571013346062719,-0.9106402029767287,1,right
5.455,-1.3034483966190917,1.048353083760746,-0.315828182302739,-12.083359255070688,-2.7422203746741776,-2.3950455654791876,0.0026700936515106155,-0.4409083000014627,-0.9212380742095051,1,right
5.456,-1.2604541087304408,1.0254706030048806,-0.2772858249556176,-12.398341918979137,-2.930941475716395,-2.4957593781191463,0.0030173257028884904,-0.4445240510247589,-0.9188811370569998,1,right
5.456,-1.1901536956859426,0.999821125239469,-0.2346225963423662,-12.02128166763428,-2.7049556306898177,-2.375223939488217,0.0034467842353240437,-0.4490520989787798,-0.9158935590019417,1,right
5.457999999999999,-1.0880167596825756,0.97381000134249,-0.20350928562462497,-12.31459858770057,-2.880840658717863,-2.4689476277834865,0.0027036846211408883,-0.44121549305545027,-0.9210623222102432,1,right
5.459,-0.9665341373895381,0.9525752112247331,-0.18208335531242595,-12.156254593185736,-2.7859323703321492,-2.418328326825777,0.0034105066708565116,-0.4486909238679406,-0.9161213013642739,1,right
5.462999999999999,-0.8294279045617992,0.9358055691596686,-0.17036487428390967,-12.193962422196847,-2.8081526223658946,-2.430577882239299,0.0029314629391163916,-0.44361306071377493,-0.9194831367628495,1,right
5.4639999999999995,-0.6820494153705563,0.9252632883534868,-0.17968087811991593,-12.231718013666917,-2.8318410137693544,-2.4421097137562864,0.0031263451247974965,-0.4456486543517701,-0.9181518248243719,1,right
5.468,-0.5301608446417565,0.9288811027802598,-0.2025673183927384,-12.166330171256803,-2.790823332490145,-2.4221311650542656,0.0031866446639074245,-0.4464144249360229,-0.9175774275517701,1,right
5.468999999999999,-0.37776817959576775,0.943117790379176,-0.23852251140858755,-12.225486367491168,-2.8285448565732274,-2.4398969560851267,0.0029415239403513672,-0.4435425249738838,-0.9196237266959975,1,right
5.473,-0.22725249727460367,0.9594945959061636,-0.28281158456341804,-12.18700766461362,-2.8036662042904767,-2.42851362960568,0.003282224509480995,-0.4475664606458146,-0.9167416170965891,1,right
5.474,-0.07780063319959096,0.9771926936543853,-0.3119567811564392,-12.207149065689102,-2.8157002207588855,-2.434971384619531,0.0029521629806101048,-0.4436225920266952,-0.9195877057488598,1,right
5.478,0.06718134681071485,0.9939417065593675,-0.324140011367206,-12.19332747931363,-2.8108775160748247,-2.4288051363021266,0.0031431572928224674,-0.44590481808972793,-0.9179409897226993,1,right
5.479,0.20672509608094264,1.0066621541785223,-0.32238673584696825,-12.213871529784836,-2.8152917529472026,-2.439361437461256,0.0032346272971559096,-0.4471063535890635,-0.9170225677284902,1,right
5.483,0.33948812497460645,1.0137427434802408,-0.30617755264686786,-12.180658397324008,-2.8071721600469286,-2.422791268061678,0.0027397648451752115,-0.4408571742388747,-0.9216902543775924,1,right
5.484,0.4580571394922723,1.0160998917053392,-0.283814104007191,-12.219467961709498,-2.8178641452350313,-2.4415463154514323,0.0036620227203680734,-0.45249492545862274,-0.91300216861346,1,right
5.4879999999999995,0.5575863286842762,1.01623770495877,-0.26113710145204566,-12.19707918608337,-2.8117072331616106,-2.4307192052223847,0.002484084078860559,-0.43761589794784117,-0.9241160063921386,1,right
5.489,0.6385916706771675,1.014041435743,-0.24313205580819144,-12.170235362339366,-2.801887274988353,-2.4189758180888328,0.0034644137047201854,-0.45000741541282874,-0.9148572838528639,1,right
5.492999999999999,0.6944404491609477,1.0101411008319194,-0.22803652380233114,-12.277953179678956,-2.8390247653438614,-2.4672558272543195,0.003430869754467322,-0.4495943898842506,-0.9151589910259951,1,right
5.494,0.7283794903288803,1.0048555687005782,-0.21460986717507943,-12.078672183807754,-2.770440890527862,-2.377869714551381,0.0015927757281341403,-0.42630292107875917,-0.9325924572275186,1,right
5.497000000000001,0.7441259065605357,0.9990159036367687,-0.20733068682870764,-12.33518824063642,-2.858883452288346,-2.4928524031524883,0.00611505286953444,-0.48360567939388377,-0.8897064267993275,1,right
5.497999999999999,0.7334895580282503,0.9910970295243742,-0.2010957254193783,-12.12074521977577,-2.784871998868052,-2.396758710364172,-0.0013815883136388803,-0.3886050541837613,-0.9608073076346711,1,right
5.502000000000001,0.7159022339812313,0.9831754477853264,-0.1954254279385597,-12.125768475568766,-2.786411034534119,-2.3991266403625815,0.008503837064783332,-0.5138874849691302,-0.8670402922646929,1,right
5.502999999999999,0.7068146745251853,0.9819464130352322,-0.19227932235357031,-12.538023529131058,-2.929536138346325,-2.5833914448300934,0.04999694278376432,-1.0396209917089134,-0.47355413572921307,1,right
5.502999999999999,0.676670204766038,0.9788115196267877,-0.1839604471664027,-11.525326411088562,-2.5780902106642136,-2.130640754845093,0.05988004565409245,-1.1648744352412577,-0.37980644119232465,1,right
5.507999999999999,0.6115553144240216,0.9707673071237906,-0.17224579633784798,-13.204501383413508,-3.160854294916732,-2.881372951369264,0.052385102367025954,-1.0699130060912878,-0.4508800799935918,1,right
5.5089999999999995,0.567317099638383,0.9684501917680497,-0.1665209036947092,-10.989467513878367,-2.392060755620025,-1.891067103758156,0.05691122163251988,-1.1271999452273764,-0.4080085490211854,1,right
5.51,0.5528394862410073,0.9676699761862714,-0.16492056484211898,-1.6900204833240857,0.836005881807895,2.266025036788502,0.05505884172393036,-1.1038616479922567,-0.4254650730159737,1,right
5.513,0.5006597179112046,0.9645056621253596,-0.16146965285322043,0.5253290542206875,1.604995431135476,3.2564765838825585,0.055052060343610626,-1.1035875960538544,-0.42568624835979973,1,right
5.513999999999999,0.42696462497021037,0.9624780884446588,-0.16033495328798503,-1.1543345530905296,1.021931274577764,2.5055396436426935,0.0559972003562108,-1.1157492552101484,-0.41656774836791893,1,right
5.517,0.3641004934271055,0.9607564579022166,-0.16295349448904534,-0.14124628918022308,1.3736082512008425,2.958397231059746,0.05485032840890724,-1.1011373428775582,-0.4275110282577791,1,right
5.517,0.29508545710794054,0.960279662765051,-0.1673963827465635,-0.553442622325347,1.2305439937817257,2.7743113440806724,0.055766561898980646,-1.1125888500398748,-0.4189539676115965,1,right
5.523,0.2298042848079371,0.9602470732125352,-0.17634126442875975,-0.5593098455013717,1.2284447312774716,2.771328647934666,0.05522801757053876,-1.1062738857998191,-0.4236357663087248,1,right
5.524,0.16858288034350782,0.9586229082754062,-0.1890551866153103,-0.3430821905354062,1.303603156652359,2.86848777927974,0.055430940633800156,-1.1079687276939905,-0.4224442240630477,1,right
5.528,0.10452003918593279,0.9564466139624211,-0.20595526901469577,-0.602093083933761,1.2135890879448676,2.752214304683389,0.05544651290655826,-1.1092412704505878,-0.4213973158617028,1,right
5.53,0.04522425484248757,0.9554155341904711,-0.22260120138799605,-0.40040276996346397,1.2836483935786132,2.842584180327883,0.05531407959186619,-1.1067060290700474,-0.42337013521086825,1,right
5.532,-0.008131454692480302,0.954207404414069,-0.23231942342360482,-0.5090495733353795,1.2460229926858577,2.79442905962604,0.0555236274646424,-1.1093539192411568,-0.42138901853570465,1,right
5.5329999999999995,-0.05599994432862778,0.9508917198604033,-0.2407022627526128,-0.48449667470836455,1.2542538965069385,2.8040782430253257,0.05521649815407872,-1.1070518687839295,-0.42297214856987264,1,right
5.537999999999999,-0.09601619564250977,0.949148678791138,-0.25093529935588943,-0.45516158417330255,1.2649428994456997,2.8194741006937103,0.055659857789906717,-1.1090364687361767,-0.42180630952378884,1,right
5.539,-0.12705150476217386,0.9491303650779735,-0.2566698507288835,-0.5056799800425377,1.246784141117712,2.7940924640157254,0.05508946300240334,-1.1072295244219226,-0.42268206400963093,1,right
5.542000000000001,-0.14913803883966928,0.9498158697622084,-0.25627748121554816,-0.45837694292692116,1.2637012550569156,2.8174683686529387,0.05566424128749632,-1.1087336155908634,-0.4220643939204767,1,right
5.542999999999999,-0.1606083673701251,0.952841706794058,-0.2563169880364945,-0.4897391518223888,1.2528184856846445,2.8034682421595973,0.05535440642934883,-1.1081476768970853,-0.4222094837640636,1,right
5.547000000000001,-0.16058135356277797,0.9562045888669143,-0.2616606509922712,-0.476963674017561,1.2563316665274407,2.805042872522111,0.05501807073802437,-1.1067622153881045,-0.4229931294487814,1,right
5.547999999999999,-0.1491532013776531,0.9588029545456561,-0.2715768380570946,-0.4748559924191562,1.259170349098011,2.8154376795486638,0.05636233745511747,-1.1112015106627806,-0.4207784054935333,1,right
5.551,-0.12839828693169253,0.9592035929703967,-0.2837822016928502,-0.48549811123904035,1.2523321644957002,2.796578889126139,0.053899464650731074,-1.1033525319499904,-0.4245987222097348,1,right
5.5520000000000005,-0.09967559103358528,0.9607986805252957,-0.2980511195924107,-0.4727571484712977,1.2601069993541238,2.81730696768077,0.05705120291904639,-1.1132926652153157,-0.4197964837306686,1,right
5.555,-0.06810801591572602,0.9652462012087775,-0.3093219627800392,-0.4823228011808419,1.254849067913743,2.804344671420404,0.05442427696543485,-1.1050526764589277,-0.42376228869510163,1,right
5.558,-0.03183987983103691,0.9673588716976897,-0.3078322013820067,-0.47965072601796244,1.254108168319498,2.7980529740943387,0.05448901033016894,-1.105185398079505,-0.4237214329183081,1,right
5.559,0.010124340122502507,0.9693266798436143,-0.3025276394988179,-0.47347538185401744,1.263557308309649,2.833579653012081,0.05951512536690663,-1.1211375685115779,-0.41598238958551975,1,right
5.565,0.0484873880425437,0.9692979293657359,-0.3014243919778543,-0.488151028057686,1.2449133493306785,2.766252907155068,0.04717040107927202,-1.0820598103456132,-0.4349083074386754,1,right
5.566,0.09192459664619071,0.9671663438698449,-0.2929778519626379,-0.46858624824541256,1.2691047090889953,2.8530271405617933,0.06763559477821296,-1.146803037334342,-0.4035638681946484,1,right
5.57,0.12189024370513377,0.968438176972022,-0.2855166251254939,-0.4852076433389716,1.2488064601509374,2.7804529465496577,0.0406427957836859,-1.0614251386823566,-0.44489457449510433,1,right
5.571000000000001,0.12811897208931408,0.9691953199043059,-0.2835405763260124,-0.4836462570176041,1.249746939174853,2.782919327417306,-0.07264286890938049,-0.7029746699169286,-0.618405651565775,1,right
5.571000000000001,0.15073136836414636,0.9685730330996981,-0.2752994814631257,-0.45561000359678644,1.2871692177778724,2.9196559870037566,-0.09963462514138328,-0.6175995115791302,-0.6597331304296796,1,right
5.5729999999999995,0.18053786192432403,0.9690447021512415,-0.269878446351167,-0.5258192161335826,1.1947285956611404,2.5829831343355574,-0.07917416272795975,-0.6823302940296603,-0.6284033387642181,1,right
5.574,0.19839786041784718,0.9727565974871115,-0.26730588216007956,-0.40908520481019406,1.3481186067288198,3.1413535209582726,-0.09150655388444319,-0.6432849855813256,-0.6472910708904827,1,right
5.577999999999999,0.2112629994112018,0.9769028872388787,-0.26405378010913827,-0.5630697576729069,1.1457883387500898,2.4048550884004207,-0.08650300705903101,-0.6591777677198969,-0.6396219062111752,1,right
5.579,0.21423520060940868,0.977744249041762,-0.26177165987261297,-1.2081741260335837,0.29709602931157364,-0.6858751233274563,-0.08640729236840876,-0.6593920256750458,-0.639485118872697,1,right
5.58,0.21728757277825228,0.9812630056792923,-0.2495003299323166,-1.3620274406725175,0.09481701771792292,-1.4223089529876396,-0.08906456690553041,-0.65107215464414,-0.6435449000708335,1,right
5.582999999999999,0.21899777071396873,0.9841753972137064,-0.23144273401065327,-1.2453919987020408,0.24814693562527196,-0.8640095411706881,-0.08590018543156558,-0.6610455872771788,-0.6387035039778306,1,right
5.584,0.20956020792657631,0.9841242909043512,-0.21273558916546964,-1.3158090161491998,0.15570164658659502,-1.200705156739693,-0.08833587256498424,-0.6532681187536112,-0.6424396549948128,1,right
5.587000000000001,0.19604304499340103,0.9852200525371917,-0.19004106691722972,-1.2869846887610328,0.1932740168225127,-1.0637445222134247,-0.08707767521694502,-0.6574809357742604,-0.6404914255860161,1,right
5.587999999999999,0.17863773632800045,0.9837705993797549,-0.16770647768179198,-1.2869071166216999,0.19386893362449772,-1.0617653136924439,-0.08726615187669541,-0.6564845878580375,-0.6408172429695251,1,right
5.593,0.1550296399403099,0.9818693359053922,-0.14928971073518987,-1.3015706137116614,0.17408426149516068,-1.1336367886144312,-0.08775729398474974,-0.6554214631796083,-0.6415237465440834,1,right
5.593999999999999,0.1281218452545813,0.9815212904037853,-0.13666157608409812,-1.283743657754738,0.19774158402439118,-1.0475675789312069,-0.08703802585389629,-0.6573059119808798,-0.640458641738638,1,right
5.598,0.09794630324000721,0.9798996307916656,-0.1273810238092891,-1.298062832207684,0.1793700601652397,-1.1145803484957275,-0.08760704269876801,-0.6555024291911116,-0.6413301872585973,1,right
5.599,0.06863490077588916,0.9779082011128166,-0.11792373279200624,-1.2894887879644474,0.18918098802757893,-1.0784707735110868,-0.08743206744226653,-0.6567809095305439,-0.6409953080411037,1,right
5.603,0.044432185179346786,0.9756314066572277,-0.1088874563897366,-1.292984214392142,0.18710814429929876,-1.0866788751668275,-0.08712593748026262,-0.6560926457599059,-0.6406795865610567,1,right
5.604,0.019807114172336115,0.973096207282852,-0.10282173152001382,-1.2928082975743047,0.18423974822244576,-1.096317136431428,-0.08783127294299095,-0.6563327864175343,-0.6415313328461518,1,right
5.61,-0.003246746364850283,0.9724978162896127,-0.09810393265068386,-1.291082440122105,0.18898161625010174,-1.0796918370929478,-0.0869883709497754,-0.6563646861416066,-0.6404840006532628,1,right
5.611000000000001,-0.022121602277918807,0.9728909023808396,-0.09411088387280626,-1.294347640243646,0.18471148258964987,-1.0952447987309526,-0.08753644353965617,-0.6561531732250236,-0.6411826116898498,1,right
5.612,-0.04065012970807247,0.9722519318172522,-0.09370264750272023,-1.2889396715385697,0.18722763535397155,-1.084900874225096,-0.08781910128302356,-0.6565710995909626,-0.6414942763283136,1,right
5.6129999999999995,-0.055250380708887575,0.9732331411391298,-0.09175133949035183,-1.2972752325906138,0.18676772356742646,-1.089276647347936,-0.08623188032496763,-0.655849551576011,-0.6395941908013234,1,right
5.617000000000001,-0.06731828417604571,0.9751119901689181,-0.0927920049677105,-1.2862561159240118,0.18559104619115513,-1.0895324586017594,-0.08925817567709086,-0.6569258989949585,-0.6432446401609516,1,right
5.617999999999999,-0.07981599562649838,0.9759576869863704,-0.09928175777035843,-1.2974848426927803,0.18752695746276205,-1.0867774362074536,-0.08534236516962285,-0.6556383014486968,-0.6385115295207204,1,right
5.622000000000001,-0.08958881768847962,0.9757901627220685,-0.10429886499560573,-1.2913445099094605,0.18595119909208674,-1.090034218463031,-0.08862421986686433,-0.6566731116249094,-0.6424824311343402,1,right
5.622999999999999,-0.09590247085874498,0.9754492574384308,-0.11578059372011687,-1.2849696372939996,0.18601467542400646,-1.0876647588570336,-0.08851564069483428,-0.6567071833006819,-0.6423448184484172,1,right
5.627999999999999,-0.09949515939243259,0.9788716534336541,-0.12534233860055577,-1.3108738393092674,0.18835982564260806,-1.0884838081156936,-0.08231023865120296,-0.6545690953382965,-0.6348531332793905,1,right
5.63,-0.09791123147993099,0.9799394222479454,-0.12338449242372607,-1.2633055304921763,0.18339098889791466,-1.0892217943563407,-0.0975911442406582,-0.6597340179254104,-0.6533106352992071,1,right
5.632000000000001,-0.08991997003559266,0.9769254358388156,-0.12208985011016392,-1.3242156753443777,0.1899946992298321,-1.0874600883763605,-0.07224352332531983,-0.6512050353220535,-0.6226903114109014,1,right
5.632999999999999,-0.08492843146769129,0.977574438903675,-0.12059484486645054,-1.2734368230120148,0.18438689009396603,-1.0892760373627084,-0.1056814269504037,-0.6624412076580823,-0.6630850809212614,1,right
5.6370000000000005,-0.08293953869449908,0.9775915844274041,-0.12013462728135685,-1.2746999789128481,0.18468499422186996,-1.0886934939647053,-0.24601801634278098,-0.7096599267817485,-0.8326142189028569,1,right
5.638,-0.07501912805039612,0.9755975906772338,-0.12225061948386887,-1.37182093360044,0.1949889236381792,-1.0866486820247991,-0.27945841027132773,-0.7208904777098368,-0.8730122533307234,1,right
5.638,-0.06518663175965261,0.9752470821982722,-0.12468020438020042,-1.1332707017905228,0.1694510159869237,-1.0924482502365498,-0.25410496440842534,-0.7123763950770973,-0.8423838671588366,1,right
5.641,-0.05670309835339973,0.9765005746403389,-0.13514172670387742,-1.5287366050604065,0.21187477003162541,-1.0825372715740604,-0.26939593392375266,-0.7175123973481065,-0.8608560705502133,1,right
5.642,-0.05183158581106567,0.9781058597792888,-0.14400748042135414,-1.0071418795085716,0.1558878518464376,-1.0957208158873037,-0.2631766089269742,-0.7154185256694485,-0.8533430247520665,1,right
5.648,-0.05187912156138996,0.9795261211092706,-0.14622117320275246,1.1823424471270996,-0.07898671191054071,-1.15057456925013,-0.2630827145991025,-0.7154004774872054,-0.8532292739776054,1,right
5.648,-0.050928307774435015,0.9853634586670421,-0.15036969529945948,1.703932486452657,-0.1349810619740051,-1.1637866707862938,-0.26635574136700974,-0.7164755768336151,-0.8571836546280736,1,right
5.649,-0.04894902386230479,0.9930017869702452,-0.15191470319034467,1.3084844216462588,-0.09253245303393162,-1.1537835480500744,-0.2624334485568286,-0.7151908790158681,-0.852444895978842,1,right
5.654,-0.04789978430209,0.9979974325180426,-0.15145310072917215,1.5469913562467972,-0.11812685846397458,-1.159788303736982,-0.2654909028538638,-0.7161860892006877,-0.8561388206857272,1,right
5.655,-0.045217270855741766,1.0032963797606218,-0.15043621072991492,1.4499468201537062,-0.10772682077508654,-1.1573987401988886,-0.2638438948172386,-0.7156461291611012,-0.8541490220824786,1,right
5.6610000000000005,-0.041404791135055276,1.0097880670200219,-0.14811365282654965,1.4485815278245977,-0.10755348109131287,-1.1572591903261569,-0.2642067128004508,-0.715795790030537,-0.8545869958248847,1,right
5.662999999999999,-0.03952264935817354,1.0161545110178491,-0.14716323526235053,1.4994569547936183,-0.11304807310140746,-1.158679185286336,-0.26468049181411224,-0.715866730275216,-0.855160324730894,1,right
5.664,-0.041123421040860655,1.0210914562214035,-0.1449202111940005,1.4385129317863459,-0.10647507586601493,-1.157012973276764,-0.26386098604179664,-0.7157429141232761,-0.854168667516022,1,right
5.665,-0.04742327929699609,1.0253399554549447,-0.14170079322828044,1.4859801883468968,-0.11158298226871151,-1.1582646032017747,-0.26464892926179084,-0.7158219562393624,-0.8551225522312049,1,right
5.666,-0.05507439219887972,1.028895813125549,-0.13513574838897044,1.4603716089394023,-0.10886047309556879,-1.1577231512857094,-0.2641104191790441,-0.7157889509336255,-0.8544704126059218,1,right
5.667000000000001,-0.060760660693082974,1.0305569688401204,-0.1247147454663845,1.4662527344426792,-0.10940874576847635,-1.157536735540031,-0.2643169625569075,-0.7158597506069302,-0.8547199033736741,1,right
5.67,-0.0680652371670586,1.0301380429095657,-0.1181653632890406,1.4729834933920953,-0.11027324222468413,-1.158280751914638,-0.26443683633222953,-0.7156254013793574,-0.8548676885600222,1,right
5.671,-0.07747861951568899,1.0286960270252212,-0.11444775388443662,1.4613066440784572,-0.10884614293170972,-1.1572833077436968,-0.264049018388551,-0.7161225512607412,-0.8543924120679056,1,right
5.675,-0.08767078583829582,1.0291458903719124,-0.11100546322667333,1.4722699284339131,-0.11016116431493948,-1.158119444270531,-0.264601060273269,-0.7153720582421168,-0.8550693986129783,1,right
5.678999999999999,-0.09971517937321703,1.0306466973105368,-0.10800363616742203,1.4648849872358443,-0.10936981493458671,-1.157938052213915,-0.2640477291849965,-0.7161838665051903,-0.8543901992685052,1,right
5.681,-0.11304810728392706,1.0305115032796381,-0.10292514079630499,1.4682142978882147,-0.1094706872950166,-1.156985142417509,-0.2643677668639418,-0.7157149561691087,-0.854783015073449,1,right
5.682,-0.12624223712603555,1.0290905801901489,-0.09837765971412371,1.4679750924627357,-0.11003089002004605,-1.1593482838664193,-0.2645659200910479,-0.7152845089142572,-0.8550277814365072,1,right
5.688,-0.13822316003008428,1.0270385010979286,-0.09543334797093195,1.4665670110470166,-0.10900589979631253,-1.1557787651453244,-0.26359821846113407,-0.7171343301186102,-0.8538352728358458,1,right
5.689,-0.1504354293299619,1.0244105485706798,-0.09210316662097126,1.4683966645937123,-0.11013371131359329,-1.1595920020087715,-0.2653977043334138,-0.713705558009017,-0.8560526376475576,1,right
5.69,-0.16330509854969383,1.0217513090281483,-0.09013298626398261,1.4668205816161006,-0.10942647597944183,-1.1573756961011759,-0.2630936744611664,-0.718110395191726,-0.8532134443695425,1,right
5.691,-0.17463966788199914,1.0186865376346215,-0.08975407325865245,1.468032630562606,-0.10909246604403902,-1.1555300887935185,-0.26501405240675036,-0.7144320830702959,-0.855579890595086,1,right
5.695,-0.18503624375548836,1.0134687887383085,-0.0873295230101025,1.4669356832339742,-0.11100524714010987,-1.163713420733325,-0.26495433756508413,-0.7145287724750953,-0.8555066296243745,1,right
5.696000000000001,-0.19326111060671364,1.0066881080706649,-0.08093612834740099,1.4682108650188748,-0.1073767583181871,-1.1485182882682081,-0.261326419101812,-0.7215545920325421,-0.8510348641730433,1,right
5.7,-0.1963897095801632,0.9998312782903542,-0.07511079487849193,1.4667434032318074,-0.11205391539075374,-1.168033808469103,-0.2702486832749835,-0.7042883102404789,-0.8620320230098308,1,right
5.7,-0.19937025800541383,0.992096414287922,-0.0723751044192884,1.467900220437321,-0.10814217632462474,-1.1517395710411131,-0.25545644994693695,-0.7329166128336135,-0.8437999979670432,1,right
5.705,-0.20339890203450864,0.986899216517319,-0.07087180413673785,1.4681320298853815,-0.10827561372052569,-1.1521872818952548,-0.2749646635651507,-0.6951555427434297,-0.8678445128950247,1,right
5.705,-0.20469697648402024,0.9859974603434987,-0.07116435672764257,1.465061439667922,-0.11564326380592521,-1.1832351436855175,-0.35683648548402525,-0.5366446459836346,-0.9687569851747919,1,right
5.705,-0.20609596986801781,0.9840325836919912,-0.07511717447045047,1.4723001477402167,-0.09750285052563795,-1.106915436688817,-0.37634066752219014,-0.49888285542333843,-0.9927962765908752,1,right
5.709,-0.20591153127398823,0.9815580230974699,-0.08176451225293163,1.4603753845207013,-0.1275875018412473,-1.233459035346693,-0.3615543139825502,-0.5275124468386436,-0.974571736360339,1,right
5.71,-0.20427749127317352,0.9806954460814786,-0.08593293148332909,1.4761014810530797,-0.08790732710355219,-1.066548438977774,-0.37047286075479474,-0.5102446574915733,-0.9855645510036042,1,right
5.715,-0.20301676343215905,0.9809518739805853,-0.08743239357644114,1.5424851559873316,0.07861015862970382,-0.3659514865244395,-0.36684155731640067,-0.5172716105273399,-0.9810874262222791,1,right
5.715,-0.19947901672575585,0.9812311577220358,-0.0888924987088237,1.5582558326522151,0.11828024147112375,-0.1990410172916611,-0.3667965304745484,-0.5173683457694025,-0.9810346401168503,1,right
5.716,-0.19679817868886246,0.9792596707479717,-0.09016134241063103,1.5462754668146528,0.08821095019635189,-0.3255849787446455,-0.36868992024685165,-0.5136879786145879,-0.983364568963377,1,right
5.721,-0.19243733306503888,0.9763309752696295,-0.08980673029864569,1.5535219345190459,0.10633978517490153,-0.2492634471908434,-0.36642017069466515,-0.5180973471539367,-0.9805706840913017,1,right
5.722,-0.18391527357777593,0.9715747969508156,-0.08533999999749861,1.5505575211043179,0.09896834744349184,-0.2803154188858191,-0.36819111229988677,-0.5146620050864701,-0.9827518882208577,1,right
5.724,-0.17542251262670927,0.9671319512476536,-0.0825281176866493,1.550524924897835,0.09886472592349735,-0.2807567276637013,-0.3672256653142982,-0.5165185691744512,-0.9815587501427187,1,right
5.725,-0.16690498534215342,0.9640219997023429,-0.08316381809135946,1.55208963178363,0.10271636798925869,-0.26446971520577855,-0.3674710729705646,-0.5160846943532555,-0.9818713907174069,1,right
5.73,-0.15921775130806437,0.9587398405186792,-0.08194453663056414,1.550180038280033,0.09812072479493072,-0.28398048215085003,-0.3676787445661283,-0.5156113064300208,-0.9821098810733556,1,right
5.731,-0.15521239402643466,0.9553426869113704,-0.08253400269069354,1.5517127710670056,0.10167379863845447,-0.26878286684169095,-0.36729616854567715,-0.5164396337991695,-0.9816597587800971,1,right
5.734,-0.15258329832932482,0.9532186361706058,-0.08434862961039102,1.550841601570982,0.09978375686728769,-0.2769807280951192,-0.3676630111705935,-0.5156595072812908,-0.9820948527669471,1,right
5.735,-0.14754689086407313,0.952275066422169,-0.08425902211207603,1.5510616451271044,0.10020404127129809,-0.27510628977704676,-0.36738646559870203,-0.5161942840544584,-0.9817538098636485,1,right
5.74,-0.1445096518790817,0.9549510263130124,-0.08436443955497455,1.5513450713396266,0.10067208111324531,-0.27292946063792356,-0.36759101527429305,-0.5159280182785936,-0.9820376550023788,1,right
5.7410000000000005,-0.14254807080336346,0.9568804215778051,-0.08229379997740113,1.550733153264845,0.09993393499856443,-0.2767050774667416,-0.3673991374085912,-0.5160030012440586,-0.9817287128781347,1,right
5.744,-0.13800635464950134,0.9589003591448017,-0.07903279015564565,1.5515097503373283,0.10050475400308642,-0.2731493837606048,-0.3676193684520305,-0.5160189062794346,-0.9821081816596605,1,right
5.745,-0.13504157705578484,0.9608690907613939,-0.07688474693463895,1.550742026837544,0.10027073990162799,-0.27554985131025783,-0.3673969223407326,-0.5159781779184214,-0.9817189092629381,1,right
5.747999999999999,-0.1302538867134888,0.9632463411022647,-0.0745509213540477,1.5512738656746117,0.10025534943016648,-0.27448596825354504,-0.36750597220015857,-0.516039248156531,-0.9819197231228332,1,right
5.749,-0.12152855615114343,0.9684906457824333,-0.07482965398753694,1.551276793682073,0.1002518946048993,-0.27449065412560014,-0.3676963482590695,-0.5159058761447404,-0.9822119212418292,1,right
5.754,-0.11359155772558249,0.9707264479192104,-0.07442317181709604,1.5504200253367637,0.10060382555402299,-0.275103410580662,-0.3670210215359694,-0.5161851589651731,-0.9811283286088321,1,right
5.755,-0.10661477751867113,0.9709659354395569,-0.07025541537589462,1.5523241985204175,0.09966299585105602,-0.27427751330042394,-0.36824482194645514,-0.5157220989281124,-0.9831023419807643,1,right
5.76,-0.09791813909075733,0.9748641800654284,-0.06822462357981493,1.5495280821679907,0.10117900025666601,-0.2750364868976649,-0.3666799700349098,-0.5163044753681496,-0.9805759744364204,1,right
5.7620000000000005,-0.0906533236242198,0.9810790503984725,-0.06589183773733362,1.5524827022614847,0.09949718209167188,-0.2745039539830185,-0.36798351917944716,-0.5158230912746611,-0.9826811864506658,1,right
5.763999999999999,-0.08579418943964605,0.987978942655249,-0.060724960387212826,1.5507838423278835,0.1004899326517893,-0.27472329441883636,-0.36795880176820894,-0.5158173806478042,-0.9826381352068957,1,right
5.763999999999999,-0.07767683867721469,0.9915082173925702,-0.054475734198694614,1.5493229998559062,0.10135448114661985,-0.2748754803858749,-0.3654391213544616,-0.5167971422561151,-0.978579746038812,1,right
5.768,-0.06842957190242349,0.9935130948602041,-0.04839864040627181,1.5557065302710575,0.09754560596150322,-0.2743155579158354,-0.3716191781622865,-0.5144107241937554,-0.988536898556608,1,right
5.769,-0.05673252761031165,0.999169721842376,-0.0479033140988058,1.5438777471593392,0.10463332707002723,-0.2752523941484283,-0.36137638650000636,-0.5183623561178884,-0.9720338392438991,1,right
5.774,-0.04679735221491881,1.0020837693146585,-0.04931471618608328,1.5590599238634417,0.09551564310621874,-0.2741197249209422,-0.374885315882859,-0.5131499641938753,-0.9937983343357962,1,right
5.774,-0.04505102588443856,1.0027529493401195,-0.050840053691176126,1.5463877612876713,0.10313486469228364,-0.2750346433690431,-0.43161482941172347,-0.4912511280496686,-1.0852025734932602,1,right
5.774,-0.03936366917663416,1.008084365189183,-0.05530399537761657,1.5467319021907144,0.10292953544719136,-0.2750055959056113,-0.44512329202560186,-0.48603522715943603,-1.106964152038553,1,right
5.78,-0.03302779273929489,1.0154734022438503,-0.05904732940579554,1.5708868399038056,0.08838614738832422,-0.2733259940947731,-0.43488100545953823,-0.4899906564346512,-1.0904642491231888,1,right
5.78,-0.033519460482065555,1.021476094770973,-0.06204071454033899,1.5115177607474144,0.12413615327179586,-0.27743727854106526,-0.4410612540467601,-0.48760567917502284,-1.100422598647294,1,right
5.7829999999999995,-0.033902276319406295,1.0262835765209637,-0.05975197740414034,1.609951954777819,0.06485676444550857,-0.2706392116285755,-0.4385398990608038,-0.4885728539563104,-1.096353748813544,1,right
5.7829999999999995,-0.03472768586462961,1.0304129725266655,-0.05463895322747202,1.4801222756367665,0.1430486885941588,-0.27959156846141375,-0.43851878510478615,-0.4885942297522015,-1.096333209317182,1,right
5.784,-0.03562493294497525,1.0307857266846088,-0.05348169927764751,0.9352712985776864,0.47125169511513665,-0.3171119779544743,-0.4398171673042142,-0.48807400580191324,-1.0984061406074601,1,right
5.787999999999999,-0.037079243353328156,1.0282668070753638,-0.051171331780030554,0.8054688158923828,0.5494415894628075,-0.3260509016303588,-0.4382574609930783,-0.4886950629087056,-1.0959119222314517,1,right
5.789,-0.041016723882687234,1.0270606060440568,-0.047835404143810586,0.9038443537174072,0.49016795215181547,-0.3192764693116983,-0.4394790404272867,-0.4882153049421875,-1.0978720558409,1,right
5.792000000000001,-0.044856253915190485,1.0244362029268168,-0.04392079868128382,0.844567622009039,0.5259061998982171,-0.32336104624302503,-0.43879929683267477,-0.4884613905106417,-1.09676087475331,1,right
5.792999999999999,-0.05070218131396828,1.0208141972555413,-0.045318139820115066,0.8686067089444909,0.5113814898372813,-0.32169969006447563,-0.4390039038000756,-0.48843498742066294,-1.0971419745326731,1,right
5.797999999999999,-0.06002561670830418,1.0194179336074716,-0.053254049102440866,0.8690575182927847,0.5111533164974453,-0.3216757821999231,-0.4390884315390956,-0.48831172793838884,-1.097189589183651,1,right
5.7989999999999995,-0.0711405390138638,1.018050455736872,-0.05584884202540999,0.8563465780497486,0.5187914072080895,-0.3225477846703804,-0.43889608199411945,-0.4884972372454873,-1.09698834966373,1,right
5.8020000000000005,-0.08281270995370718,1.0151876746334878,-0.05818299031724873,0.871424775252003,0.5096722745170013,-0.3215022557955962,-0.4390923159415212,-0.48833274649176694,-1.09721788112069,1,right
5.803,-0.09321087320685098,1.011562355721706,-0.061596415715907,0.8599056364014983,0.51672842352428,-0.322319027097971,-0.4389002303653273,-0.48840618675970005,-1.096907668304583,1,right
5.808,-0.10178318079186505,1.0080068386049827,-0.06378390656022052,0.8657683653536852,0.5129949740565387,-0.3218743099055526,-0.43914929817965986,-0.48847453892313636,-1.0974696071748224,1,right
5.809,-0.11091939923274755,1.0063951518995502,-0.07213103349289185,0.8649355171431601,0.5137441989488374,-0.3219822799988663,-0.4387710027954996,-0.48824448478640897,-1.0964929090023,1,right
5.812,-0.12395462363817418,1.007339788855898,-0.08119273791570489,0.8627505976687051,0.5148631589489696,-0.3220922756020871,-0.43928964831581896,-0.4886054557772107,-1.0978763920783208,1,right
5.813,-0.1367301759083545,1.0094872581458025,-0.08945314043859903,0.8656685637475603,0.513103510642271,-0.32189087719881104,-0.43874523644178903,-0.4882172313047249,-1.0964151491655194,1,right
5.819,-0.14660647954012804,1.0141184342781036,-0.09782785263367327,0.863848063451121,0.5145663028387805,-0.3220918034817927,-0.4390464327132358,-0.4884469534310606,-1.0972380532978967,1,right
5.82,-0.1610145219890589,1.0234466634929933,-0.0998058242913919,0.8635812666413538,0.5138906202307048,-0.3219375533674896,-0.4393724134794812,-0.48861860312737665,-1.098053892648749,1,right
5.822,-0.17745963471441228,1.0329167000455806,-0.09735359367637178,0.865916426565482,0.5137313784094983,-0.3220342350855344,-0.43805423753676087,-0.4878238900215546,-1.094657288151506,1,right
5.8229999999999995,-0.18762334696962668,1.0373046438297866,-0.09051850558528991,0.862573961434385,0.5144154666613328,-0.32199001329644344,-0.44047936628872575,-0.4893058825955762,-1.1009253673457726,1,right
5.827000000000001,-0.19345619494245408,1.0376494931154885,-0.08065523565543613,0.8649404901387373,0.5137573082155416,-0.32198536202115025,-0.4373695510670157,-0.4874006229146204,-1.0928831877945262,1,right
5.827999999999999,-0.19640143235258373,1.0340849759610227,-0.07611440522751609,0.8660643268127373,0.5137440347591444,-0.32204522400644364,-0.43996437303162605,-0.48899283619074435,-1.0995955081071522,1,right
5.832000000000001,-0.19330127332781308,1.0313208392765008,-0.07191760905309882,0.8592119504133904,0.5149717216089699,-0.3219180238145928,-0.4399000842927442,-0.4889449062355104,-1.0994220322813784,1,right
5.832999999999999,-0.1859404877962179,1.03177941568649,-0.0675133929022434,0.8724832409402264,0.5123535907322531,-0.3221144579451513,-0.43493202083009047,-0.4859229134242429,-1.0865937094612348,1,right
5.837000000000001,-0.1787527570100821,1.0351319682099185,-0.06865555737096063,0.855192791616159,0.5158675978757048,-0.32188006185426543,-0.447136599642212,-0.4933579485973862,-1.1181166397264013,1,right
5.837000000000001,-0.16966059296866115,1.050238522839278,-0.06241597131856325,0.869733276327056,0.5128675215210776,-0.322067503266804,-0.42690174586744833,-0.48102668086343653,-1.0658498440677018,1,right
5.8420000000000005,-0.16127539939056698,1.0645790692462094,-0.055371485996740244,0.8692505771587624,0.5130089580166084,-0.32207084327416097,-0.45359214953029237,-0.49729376390633984,-1.134792008146467,1,right
5.8420000000000005,-0.15965253595573312,1.067270183401314,-0.05222932923829135,0.8416880134915239,0.5186155135766062,-0.32169672735446725,-0.5656076471744276,-0.5655065074924995,-1.4241077681799346,1,right
5.843,-0.154284301921306,1.0749489214132741,-0.03450103833113319,0.9095924109294293,0.5047262754430428,-0.3226007104296631,-0.59229793704341,-0.5817708888263762,-1.4930482613793716,1,right
5.847,-0.14078246862900556,1.0841367590077886,-0.020233182030109084,0.7969298299298135,0.5278098812243591,-0.3211104486973417,-0.5720666266861598,-0.5694507054846993,-1.4407939305179664,1,right
5.848,-0.13433177504146476,1.0856658399068466,-0.018050713252302508,0.9455645959353618,0.4973325011223468,-0.3230702857206357,-0.5842591375307374,-0.5768579447829988,-1.472279800909777,1,right
5.853,-0.1325256926642569,1.0872190051170274,-0.019237154498240365,1.5695332717122765,0.36947402366964455,-0.33133168646903544,-0.5793156414973275,-0.5738858517157177,-1.459523301498581,1,right
5.854,-0.12161578552506774,1.0899751966643398,-0.035943976261623545,1.718180437510931,0.33897234292314316,-0.33328480598556365,-0.5792151781825567,-0.5737703697578553,-1.4592472769650517,1,right
5.854,-0.10751815015510617,1.0952671628246966,-0.054431289773618816,1.6054796884062472,0.36209713769922136,-0.3318035157414111,-0.5818485086856646,-0.5754275637230528,-1.4660650088480465,1,right
5.857,-0.09552436551115229,1.1092295320021095,-0.06473863148988321,1.6734666569933845,0.3481651324535313,-0.3327042288731973,-0.5787170329348258,-0.5734974118378036,-1.4579698516295747,1,right
5.858,-0.08041958107448324,1.1274710520767024,-0.07530685255990763,1.6457678464968764,0.3537932599429129,-0.33231844468220983,-0.5811205226948508,-0.5749162101014662,-1.464164245914169,1,right
5.861000000000001,-0.06546527819698134,1.14500935620322,-0.08086534117677197,1.6454575507208382,0.35396095479028916,-0.3323552009927614,-0.5798923438872936,-0.5743132354856586,-1.4610355935796466,1,right
5.861000000000001,-0.056104903392121014,1.1666102901515727,-0.08102183650222189,1.6598475138862092,0.3508650481859387,-0.3324880768958906,-0.580051249074615,-0.574160332309436,-1.4613710003983622,1,right
5.8660000000000005,-0.04670141691439421,1.1913253604584928,-0.07481233774954636,1.6425862088690595,0.3545471522471415,-0.33231632685557266,-0.5805705901112246,-0.5747828788296245,-1.4628044335491617,1,right
5.867000000000001,-0.03518716806765737,1.2151175089901796,-0.06393595466890176,1.656069129185913,0.35172155220016266,-0.33247029946105355,-0.5798325216162115,-0.5740892819369636,-1.460824680828351,1,right
5.871,-0.027524655854607706,1.236816466469123,-0.054300623637184325,1.6486751265664519,0.35311580928889186,-0.33232485934923994,-0.5803949009964926,-0.5744296637498301,-1.4622767536385095,1,right
5.871,-0.021206740694270032,1.2561404803004315,-0.043467142914555223,1.6506548834824843,0.3531008982058269,-0.33250464923479084,-0.5802717763022921,-0.574807369239523,-1.4620945165258763,1,right
5.875,-0.014160295968743054,1.2746118424267734,-0.034117890716410276,1.6520513049790009,0.35214181904699,-0.33225862273320106,-0.5798551095495135,-0.5735190488246141,-1.4607077410385543,1,right
5.876,-0.0077160886728653314,1.2921622521352063,-0.023509597262415458,1.6493632375898946,0.35351790599757016,-0.3325475304336979,-0.580722516738739,-0.5755907024053305,-1.463411694772267,1,right
5.881,0.0013428997108064456,1.3100692829890073,-0.0029055195732747233,1.6519781087713428,0.3523246272415552,-0.3323234671174784,-0.5797079215158394,-0.5733275053904219,-1.4602966875767933,1,right
5.882000000000001,0.012206618466330064,1.3252800247019694,0.023859217411240995,1.6498679627595902,0.3527506554077477,-0.33229339825261445,-0.5803544098915931,-0.57467190681678,-1.462252663696435,1,right
5.886,0.02682618390142333,1.3390153832577618,0.05162635770703418,1.6517647690698392,0.35358266914101066,-0.3327979749038805,-0.5807243613021706,-0.5757166070678176,-1.463453330719842,1,right
5.8870000000000005,0.0452820342650108,1.354763868137815,0.07837444198731841,1.6495316481952464,0.3512518476128105,-0.331672471262615,-0.578759719612721,-0.5709338290552461,-1.4573028323533581,1,right
5.89,0.06299817114815902,1.367350446455672,0.10262360054074857,1.652359118801955,0.3548311675983391,-0.33334499432446657,-0.582484730244674,-0.5798532939690328,-1.4689210083582998,1,right
5.891,0.08453570295750118,1.383390243183396,0.1255746370563708,1.6494396935690763,0.35099752173045146,-0.331563129369365,-0.577672352694321,-0.5683823501409702,-1.4539257497148919,1,right
5.896,0.10666100693860775,1.4032990661485223,0.14715701206386775,1.650976845307328,0.3532409379732549,-0.3325910239940565,-0.5817021568068164,-0.5779664165414182,-1.4664779330460926,1,right
5.897,0.1319767176820344,1.425538843176191,0.17114303546737333,1.653040240340904,0.35503079846999436,-0.3334858554600145,-0.5815744816182751,-0.5776953818577479,-1.466085793068841,1,right
5.9,0.16189526687779007,1.4525227490415547,0.1952491821031445,1.645220928296978,0.34696472292985464,-0.3295835723947366,-0.5739401106793566,-0.5594514475748207,-1.4422898432230753,1,right
5.901,0.19055199478390192,1.478758440554674,0.21279713504921527,1.6595006500043756,0.3619622463321697,-0.3368183305254049,-0.5927309944898552,-0.6043095845644932,-1.5008549619554836,1,right
5.905,0.23524015588741115,1.5142949005867643,0.23211301704139087,1.6412180749215004,0.34270017745133374,-0.3275283930296614,-0.5615653585324771,-0.5299264588416834,-1.40371946614478,1,right
5.905,0.2674042851299788,1.5374485042961639,0.24676113674244132,1.6564547202991882,0.35877717243691754,-0.3352850157979087,-0.6026753783873853,-0.6280396543924622,-1.531855968899505,1,right
5.91,0.2757371819521127,1.5437565218409681,0.2500944128163267,1.6561337379554242,0.35834502321799955,-0.33507331906253957,-0.7752253336826052,-1.0398603227570753,-2.069639909478655,1,right
5.9110000000000005,0.3105592483109456,1.5703544288594782,0.26247588705671465,1.6267947008340553,0.3276959253557822,-0.3202863253284652,-0.8163332695493386,-1.1379738928294287,-2.197792494288647,1,right
5.9110000000000005,0.3511832158350102,1.60181913613952,0.2776834074678186,1.6987852610661407,0.4030084945979717,-0.35663533318884055,-0.7851689807213189,-1.0635890188956603,-2.1006269250403955,1,right
5.914,0.3807552663447008,1.636571831286684,0.28176595656335446,1.579469021955941,0.27816048997635423,-0.29636310109773845,-0.803963936865042,-1.1084517587247198,-2.1592303166661906,1,right
5.915,0.40464517783343423,1.6662572406181324,0.2844541498955788,1.7368201044070881,0.44280619892137474,-0.3758660999160038,-0.7963154591225416,-1.090199361633927,-2.1353995372809713,1,right
5.92,0.4087488160291267,1.674314878683103,0.2839733198690131,2.3976897433114166,1.1342092077316848,-0.7095316146513164,-0.7962137089484145,-1.0899399841400847,-2.1350205106254956,1,right
5.921,0.4193026466625588,1.703126047120098,0.2776817752131788,2.5550091910765627,1.2988054252778638,-0.7890419555378476,-0.800209886420133,-1.099512581780836,-2.1476033922435263,1,right
5.921,0.4328079458604547,1.7463232828382416,0.26775504319591414,2.4357271762227137,1.174010960058907,-0.728761778702174,-0.795426566856752,-1.0880465066068448,-2.132515732429512,1,right
5.9239999999999995,0.4358495995552721,1.7807275857813036,0.252568491617409,2.5077307624392886,1.2493439196732352,-0.7651077692701715,-0.7991472598117395,-1.096976037276875,-2.1442886011543107,1,right
5.925,0.44349356876497115,1.8161468619257324,0.2347568674187555,2.478278174773309,1.218517151779631,-0.7503471172300784,-0.7971387254974496,-1.0921610440453142,-2.1379528617576566,1,right
5.931,0.4502550270910712,1.8442834497044274,0.21238999321934307,2.4782014989100256,1.2184672474638583,-0.750078737642477,-0.7976174791214834,-1.0932612884500108,-2.139295070371114,1,right
5.932,0.4572801095524376,1.8639140009958854,0.18426418757555346,2.493087867856465,1.2339962085234566,-0.7579166364201197,-0.7980950028770757,-1.094537366267202,-2.1412655481198213,1,right
5.935,0.46879208009994666,1.8768130539315018,0.15759104013728198,2.4751540831451857,1.2152798324539265,-0.7485457596085343,-0.797268104691609,-1.0923289385779853,-2.1378583760907617,1,right
5.935,0.47832424194945244,1.8811479655865333,0.13745061965304872,2.489283330278221,1.2300419637852131,-0.755815451531475,-0.7980152727302812,-1.0944003784317728,-2.1412050965167904,1,right
5.94,0.4793634605823082,1.8809948438522819,0.126999989584301,2.4811644571295184,1.2215071473181032,-0.751982649017671,-0.7975298002535218,-1.0930120139418014,-2.138880639142326,1,right
5.941,0.4674786111977586,1.879373406514545,0.12926218427186453,2.4841927333802447,1.224806696125229,-0.7526536250245588,-0.7977852949021744,-1.0936196559267095,-2.1396697790223826,1,right
5.944,0.44517791019231107,1.8734168389433479,0.1392625788386742,2.484067404634346,1.224449001913742,-0.7540672542613527,-0.7976050591702728,-1.0936159374432148,-2.140613179662571,1,right
5.945,0.4158751245372978,1.8574985458651803,0.14583362452515536,2.483188206280171,1.2238074158570265,-0.75181197259315,-0.7978769623550399,-1.0932904944714796,-2.1380209368497773,1,right
5.949,0.38112277959787033,1.8316707554524412,0.14253200536266633,2.4843891897381516,1.2248421033434198,-0.7538619615459314,-0.7974387175023225,-1.0936980295366878,-2.141786444592596,1,right
5.949,0.34049719743792584,1.7935228644593435,0.1243519886841071,2.4821413893146462,1.2224880715441495,-0.7527397406929108,-0.797949152057947,-1.0933669916432824,-2.1379071260941798,1,right
5.954,0.30198120233908327,1.7431581330876282,0.08782770682455265,2.4870569504807434,1.2280434745460846,-0.7525440262484967,-0.7976545539177522,-1.0935587676763556,-2.1401497234375784,1,right
5.955,0.2693992902544674,1.6840356321319572,0.04348632933072424,2.4780482807755275,1.2176759555559298,-0.7541145024921936,-0.7973052572020354,-1.0934974295123392,-2.141785381069972,1,right
5.957999999999999,0.23527830730078853,1.6158781399938285,0.007357597697746741,2.4909543608416307,1.232584119061729,-0.7515025679007044,-0.7987108490825291,-1.0934739933279132,-2.1342426110277044,1,right
5.959,0.19507213037330098,1.5425856275231915,-0.012506020476563958,2.4772959458696087,1.2167966372623082,-0.7543371480375114,-0.7961099659937833,-1.0935304963647137,-2.1482491152725345,1,right
5.9639999999999995,0.13405063862365663,1.470810565799332,-0.02610996929649772,2.485030402473685,1.225752917679037,-0.75262000226033,-0.7994579420556008,-1.0934786074159168,-2.1302896895103123,1,right
5.965,0.042807976935865764,1.4065809503133497,-0.04328168125286367,2.4924757696231996,1.2342909343415218,-0.7515323528112519,-0.7966586997791942,-1.093510700224845,-2.145270569231333,1,right
5.968999999999999,-0.08932760445900345,1.3550028584867173,-0.042534432421371254,2.461165990665659,1.1982653299077866,-0.7569353114287234,-0.7967257444355966,-1.0934919634585771,-2.144836676207637,1,right
5.968999999999999,-0.2484797602884294,1.3192675751530776,-0.01740156650191281,2.518999140721048,1.2648303530649632,-0.7467991063756811,-0.8021029981936482,-1.0935182219367783,-2.116397808144968,1,right
5.974,-0.3986708327186301,1.295677588898879,0.011327697725486988,2.4447918127106414,1.1794163083229432,-0.7598410605727861,-0.7888913753225884,-1.0934599363111606,-2.1863150395746063,1,right
5.975,-0.5434918127215942,1.2814153866787608,0.03860200182990881,2.5067203783034095,1.250695343330645,-0.7489415789374196,-0.8107993542676013,-1.0935663871685808,-2.0703953198154332,1,right
5.978,-0.6276874928120177,1.275945707057537,0.054345376026704376,2.5051299707262498,1.248865971002723,-0.7492790213043996,-0.7818990321157384,-1.0934139845169477,-2.223282123730426,1,right
5.98,-0.6431676866655551,1.2731205110936943,0.05749648547488283,2.386768477712822,1.1126378987899632,-0.769924762374496,-0.6606019524983524,-1.09288814196151,-2.8650210467672927,1,right
5.98,-0.6835159747931447,1.2668273873206883,0.07062946003676006,2.6775804852848077,1.4473383204787238,-0.7191283113881228,-0.6316990766126306,-1.0927327886089224,-3.0178984364516097,1,right
5.983,-0.7118197201278529,1.2467383111343886,0.0922003955593863,2.195434183831394,0.8924401518306867,-0.8033665821448877,-0.6536071010767612,-1.0928251246052811,-2.901985464386649,1,right
5.984,-0.703495470192778,1.2284340355935577,0.10437106375660604,2.831371769289273,1.6243208886751948,-0.6922525536409905,-0.6404061543564051,-1.0928293562112612,-2.9719187468382535,1,right
5.9879999999999995,-0.7053812849373393,1.221102622681307,0.10718795486110247,5.500929601636855,4.696788692596698,-0.22594760010871778,-0.6457543995274828,-1.092718642710115,-2.9434209877803044,1,right
5.989,-0.696118782963011,1.1913233176151563,0.11168387910392363,6.136862777442381,5.428638645941678,-0.11483307712819907,-0.6458706032782822,-1.0929101878420706,-2.943097035302139,1,right
5.99,-0.6839786805961399,1.1433175840881016,0.11986151256394406,5.6547212720617575,4.873773801842226,-0.19907188539445125,-0.6430114899092532,-1.0927083744945154,-2.957933708734945,1,right
5.992000000000001,-0.6885174318328002,1.0936002329018568,0.12824358134857555,5.945535005210644,5.20848682409494,-0.14827562896272659,-0.6464058289012866,-1.0928049756469758,-2.940101113460839,1,right
5.992999999999999,-0.7067094582835541,1.037176676593432,0.13409528470996562,5.8271578699111135,5.07214841109596,-0.16891961380509773,-0.6438095562728421,-1.092954191677094,-2.954084028752112,1,right
5.997999999999999,-0.7470231843445845,0.9798630342926976,0.12466736157978872,5.825601241202385,5.070556542571829,-0.1692608472002179,-0.6451186184260396,-1.0924419832149619,-2.946360608985482,1,right
5.997999999999999,-0.8014231505834035,0.9212025655863698,0.10122194296320276,5.887481276662509,5.14149497192235,-0.1583559201660094,-0.6449826899075151,-1.093333594459076,-2.948454754587593,1,right
6.002999999999999,-0.864627425718565,0.8637042171019945,0.08552491840788956,5.813322397064322,5.056420191012512,-0.17140330912770949,-0.644375855593344,-1.0922362680876914,-2.9499774575661375,1,right
6.002999999999999,-0.9360790142042192,0.8068885205402261,0.0787658649440788,5.871134414986999,5.1228386578563905,-0.16126473626288373,-0.6452106226784708,-1.0931124763549867,-2.9469071344933866,1,right
6.007999999999999,-1.0080132100839445,0.7495581794274389,0.07392935650831566,5.839783557135476,5.086522115904792,-0.1666630805493333,-0.6446017769305619,-1.0931176160217673,-2.9501390667235183,1,right
6.0089999999999995,-1.074916359678514,0.6983528015390015,0.07872133986882904,5.84736215265259,5.095997996997843,-0.16559038555232247,-0.6446695556439335,-1.091498924481766,-2.947285420620042,1,right
6.0120000000000005,-1.1310358731747363,0.6484656479722559,0.0990951574243594,5.8548665393007155,5.103337915326316,-0.1638474213098643,-0.6452708787237174,-1.095201239426123,-2.949808194609565,1,right
6.013,-1.1774134518590524,0.6002370393677998,0.13297439802783567,5.841491021350555,5.089534520983927,-0.16671374166297598,-0.6441073708225278,-1.0896770842992751,-2.9474525939913496,1,right
6.017,-1.2198436575355878,0.5583084612990428,0.16984590465603047,5.854170750525839,5.102860268166038,-0.16407642086339674,-0.6454453692092323,-1.095566086861929,-2.949448937420967,1,right
6.019,-1.2559022822363688,0.5211397225066619,0.203759126031736,5.845161931972609,5.092480041963519,-0.16564685817132355,-0.6446065188866257,-1.092163640443429,-2.948640037671598,1,right
6.022,-1.2823369002454459,0.4900572316363505,0.23457012411557898,5.85049325507989,5.100968792525697,-0.16549782420233944,-0.6440878580465306,-1.089229962439088,-2.946871409629905,1,right
6.023,-1.301937225557803,0.4684777063963776,0.26215774740617914,5.84729191071036,5.091908555686498,-0.16426858312906992,-0.6467352932283084,-1.1020674342302283,-2.9526360832890934,1,right
6.027,-1.3114837862249122,0.45756183249255356,0.290500620731049,5.849918144639106,5.102949840528422,-0.1664785013235366,-0.6417359005001613,-1.0782612244456047,-2.9424110594053867,1,right
6.028,-1.3097148186794465,0.45303650665277273,0.31567194226806483,5.847516264649912,5.091638496651632,-0.1640523973745437,-0.6481884190399854,-1.108828335022368,-2.9553743635509973,1,right
6.032,-1.3057995245818117,0.4535075944755832,0.338480565369624,5.848276423563873,5.097449963669905,-0.16556529723633429,-0.6427863988144891,-1.0833112764595576,-2.9446194306232414,1,right
6.0329999999999995,-1.2916802662553106,0.46051175480612566,0.3568551415050483,5.852050168704061,5.10605444803698,-0.16632005873556624,-0.6429571667705574,-1.0839976088006555,-2.94480937675187,1,right
6.037999999999999,-1.2703779636414816,0.46802205411791425,0.3629014043102418,5.840631238631393,5.074275272636404,-0.16211680975082132,-0.6531935338685448,-1.1326636972989044,-2.9655885142982594,1,right
6.037999999999999,-1.2553414377451366,0.476572130557914,0.3580338059809904,5.860896083720918,5.132155720593029,-0.1700750627487612,-0.627995882117137,-1.0130574688944296,-2.9146566609256808,1,right
6.042000000000001,-1.226560151377073,0.4901862873990869,0.3348934327471649,5.835068371959277,5.0580619509705596,-0.15981848446690256,-0.669792459695542,-1.2113626696521886,-2.9990587885272415,1,right
6.042999999999999,-1.204380791804966,0.4978826868455231,0.3152876899066834,5.856567777706546,5.11983943325914,-0.16839809539464978,-0.6146516498237988,-0.9498074548349519,-2.887737880794271,1,right
6.047000000000001,-1.1983866364756643,0.50151254407726,0.3091708615134046,5.8562592311597035,5.118498945499997,-0.1681043404514153,-0.3832536167809757,0.14811331427392738,-2.420473855790193,1,right
6.047999999999999,-1.1691107635028382,0.5139978156615699,0.28453300585195873,5.81432367069749,4.999578559839721,-0.15194209692443994,-0.3280933218576716,0.4096474319829223,-2.3091134353292917,1,right
6.047999999999999,-1.1302565062293428,0.5290885474275938,0.260724756495346,5.917115901690076,5.291513377007204,-0.19174375446753344,-0.3699224272956026,0.21137519914277197,-2.3935663841986097,1,right
6.053,-1.082354212935169,0.5382759282329289,0.2515526207363533,5.746703706112745,4.807523557637731,-0.12572578554541927,-0.34469225044968055,0.3309541849031399,-2.3426222022131857,1,right
6.055,-1.0429810327719102,0.5412817778817892,0.2435116614767631,5.97154534344498,5.445956637263466,-0.21281243754944285,-0.35494227132944356,0.282286441962847,-2.363318469519902,1,right
6.056,-1.0327563839388887,0.5399547495398734,0.24051588956097117,6.914902200213186,8.12559651185043,-0.5781855772010221,-0.3551395007328339,0.2816531469592977,-2.3637260958079835,1,right
6.057,-0.9920816436643762,0.5311974801562767,0.2223355428202421,7.139912348557354,8.764180098901484,-0.6652786062051697,-0.3496548334411712,0.30705454710390584,-2.352627527376832,1,right
6.057,-0.9286522725554505,0.5109032492117934,0.18684292963501925,6.969317843771576,8.280027432902765,-0.5992537400115737,-0.35624549646701464,0.27665209201234897,-2.365972405738687,1,right
6.061,-0.8728106466232449,0.48085601346369866,0.15693452105493783,7.072040702821911,8.571900343597633,-0.6390527655778141,-0.3510827898101473,0.30029536117051053,-2.355509592385373,1,right
6.062,-0.8075031074299596,0.4412608309433771,0.13631696923012904,7.030709971004237,8.453520056191321,-0.6229134245687455,-0.35385057352502636,0.2875282553964743,-2.361115173358633,1,right
6.066,-0.7427022020533822,0.3982750016395229,0.12415089136272953,7.029100102280043,8.451017443134276,-0.6225704028482721,-0.35335533910934536,0.2905995401972973,-2.3601489720517805,1,right
6.067,-0.6842727042291457,0.3572120296624741,0.11796279669180526,7.052465305536601,8.514461205885802,-0.6312206436254766,-0.352242767410282,0.2935581168809149,-2.3577929306006,1,right
6.072,-0.6331492838140016,0.3151282748087988,0.1156084121565189,7.024779691863725,8.438708132949575,-0.6208937436370036,-0.3541644616079117,0.2884333767004124,-2.361862583325469,1,right
6.072,-0.589913281855124,0.2705182105307571,0.1174854485227935,7.045846107306799,8.497304605878487,-0.6288823189372479,-0.3521655353568647,0.293020380560148,-2.3575935101317325,1,right
6.077000000000001,-0.5524565107533674,0.22166665066497432,0.1244003719830607,7.036022763569452,8.466950140880034,-0.6247395026029818,-0.3536111924226074,0.29006424447910406,-2.3606984630834704,1,right
6.077999999999999,-0.5218788366645977,0.1710773060157682,0.13258016993407784,7.0346570042942975,8.47096497940171,-0.6252996740805475,-0.35327546737013277,0.2916914157058267,-2.360022030606383,1,right
6.081,-0.4949201523357758,0.12629665002248425,0.13605925446667777,7.044272560951581,8.484684744226628,-0.6271478150794689,-0.35204340677173196,0.2902977320126925,-2.357189492499498,1,right
6.082000000000001,-0.4793256710563009,0.09596704624793165,0.13985217844213155,7.031003083126079,8.463667781872996,-0.6243103346532264,-0.35504693309976554,0.29259124333223785,-2.3640425706377126,1,right
6.087000000000001,-0.4781537745928942,0.08456300436310411,0.1456356830659212,7.04229319751316,8.48244708344086,-0.6268481496330367,-0.3506098109003346,0.28896282032720133,-2.353906660880753,1,right
6.0889999999999995,-0.48346538253251675,0.08950837648667823,0.15004274642276488,7.039169737944542,8.473455278513502,-0.6256219973050783,-0.35528206797899675,0.29310536449423796,-2.3645954228657855,1,right
6.09,-0.4892785178672646,0.10679351526357088,0.1569109176922121,7.028421638290908,8.467585521168697,-0.6248640913058396,-0.3525815963870996,0.29071494162221373,-2.358417172916509,1,right
6.091,-0.4917728437970922,0.12958202502171196,0.16453184737301796,7.056158421698971,8.49002021617325,-0.6278257012223505,-0.3503828885115696,0.28804451251861307,-2.3533539386048545,1,right
6.097,-0.48559212952486763,0.15410216989387346,0.16880136057392614,7.014020666560814,8.454390664117927,-0.6231132196077391,-0.36017325815419016,0.2989416294257389,-2.375855586829763,1,right
6.097,-0.4689655288171631,0.17700554005569968,0.17199491818658813,7.059080685399762,8.492775729633056,-0.6281914130244454,-0.3420080163175586,0.2787725731581917,-2.334106484790672,1,right
6.1,-0.45374996101949694,0.1935787222949133,0.1749977393523375,7.032823499272918,8.46995990399071,-0.6251709539314315,-0.3653230888523803,0.30472063977205144,-2.387695830279975,1,right
6.101,-0.4428071279445217,0.20741480861953313,0.17638467636429317,7.01129050893688,8.453444310907141,-0.6229953563319162,-0.3458623101387924,0.28303564918069524,-2.342962006188754,1,right
6.105,-0.4391370842915552,0.2172744584794024,0.17270649680647504,7.1073285540983715,8.530886338158487,-0.6332170223282719,-0.34640508961385785,0.2835566832769608,-2.3442110274738104,1,right
6.105,-0.4502572068726052,0.22149918195744794,0.16598078051899418,6.928903654021902,8.386335263720921,-0.6141350002297732,-0.3834490209144508,0.32518342612626566,-2.4293662107998744,1,right
6.11,-0.4713982924420485,0.22597979730376938,0.15616971199171173,7.15807764692283,8.572158801133853,-0.6386647900610387,-0.2923844646806638,0.22292199863748002,-2.2200234010963227,1,right
6.111000000000001,-0.5049809323913272,0.2286166525747675,0.13879462865844663,6.966730116666794,8.416933282232094,-0.6181758466756222,-0.4433759091258044,0.3924785229501233,-2.5671354611451234,1,right
6.115,-0.5302882858962291,0.22816372652436717,0.12849822008991021,6.9720051025781276,8.421473251223162,-0.6187717495893175,-0.2442198552250132,0.16882032606104674,-2.1092925038310777,1,right
6.1160000000000005,-0.5360767705525502,0.22771631454395092,0.12619526685157034,7.336535036843999,8.71635960778543,-0.657701791413557,0.5916215123827253,-0.7702132823795353,-0.18790370696668435,1,right
6.117000000000001,-0.5548436779175965,0.22743398701758366,0.11696183372308179,6.440468551717217,7.991153022697209,-0.5619703861138681,0.7907693396354711,-0.993898876411428,0.26991633212148425,1,right
6.12,-0.5793211276579453,0.22926319452116783,0.11196893673980007,7.926191732277934,9.19370161381654,-0.7207060434195316,0.6397997440760301,-0.8242914368080363,-0.0771230054371114,1,right
6.12,-0.5879026572257297,0.2314370972358143,0.11305171859118479,5.966561877093103,7.607510277850978,-0.511338836017578,0.7308218227051552,-0.9266169413260512,0.1320594781812861,1,right
6.125,-0.5898546576855807,0.23231702058625686,0.11264762871811179,-2.25898976840163,0.9500982941145888,0.3674442745783174,0.6938429175612522,-0.884933180819412,0.04717201412481453,1,right
6.125,-0.5905114111345777,0.2349069003594188,0.11698975071385348,-4.218520953537376,-0.636128923004958,0.5767925814344286,0.6932233917454702,-0.8844310483386801,0.04558076232466478,1,right
6.126,-0.587439210987737,0.24068061461599236,0.12235713622510691,-2.7329449841896034,0.566495705042195,0.41808374890140537,0.7127436377361254,-0.9061720260393826,0.09061809112749769,1,right
6.131,-0.5791048246291417,0.2496100787838811,0.1259478542055666,-3.6289087730594543,-0.1588279345191842,0.5138003490862915,0.6894325171858293,-0.8800644199572136,0.03696033006591558,1,right
6.132999999999999,-0.5708946110055322,0.2609521069591667,0.12805690671513728,-3.2643201465296228,0.1362014063798649,0.4748490315190935,0.7074787502646098,-0.9004950508955709,0.07830477052965198,1,right
6.135,-0.5629525812363747,0.27628380381024825,0.12350161829545071,-3.259368807252729,0.14061527967305273,0.4743300086954082,0.6979552845305503,-0.8892908104690334,0.05686233334329632,1,right
6.136,-0.5533756360005362,0.2932354090231414,0.11496221605056674,-3.4500942777641566,-0.014574801911695905,0.4946838196785671,0.6997592289313177,-0.8921865437159446,0.06023471779707973,1,right
6.14,-0.5473531934533697,0.30985909476201495,0.10478857550693843,-3.2217371142431137,0.1713950233680959,0.4703197000814619,0.7028759087810375,-0.8946224662887194,0.06834924979941655,1,right
6.141,-0.5404769573690826,0.33001672715773,0.09301237985511752,-3.3994430052940032,0.026443629460692536,0.48927247155498993,0.6979732114425745,-0.8899635463450825,0.05632191684823527,1,right
6.144,-0.5291983687450081,0.34780058609093245,0.08434977721280285,-3.3035482259109212,0.104537061092575,0.47904165777867486,0.7021752050360341,-0.8946915750444543,0.06597455873824024,1,right
6.145,-0.515640276249465,0.36111192495842515,0.08062711922720082,-3.326072786403074,0.08725978694956947,0.48147571369138975,0.7001338645750461,-0.8908243293307194,0.06268677020690668,1,right
6.149,-0.4976219658475303,0.37448978740625427,0.08024776718194976,-3.3497966743388865,0.06499765587382893,0.48392086009237156,0.6995899347370005,-0.8938100479155474,0.05822624357140656,1,right
6.15,-0.4809737565731062,0.38450928433987736,0.0824373199710013,-3.308721309802716,0.1035087185925331,0.47968671616906117,0.7022358070410022,-0.8914169382135491,0.06909729988205304,1,right
6.154,-0.46940556735295946,0.39302349750306387,0.08760310282191791,-3.3463745562553626,0.06657571951945156,0.48352019105992117,0.698744027294737,-0.8932138250884307,0.055965744034645055,1,right
6.155,-0.45685253143194615,0.40050146324974706,0.09604647012338427,-3.3216075823392153,0.09176748264470388,0.4810250612519434,0.7012116518560514,-0.8926812759182222,0.06458744799005778,1,right
6.159,-0.44718885920886986,0.4066426863278486,0.1051974985404189,-3.333774387948564,0.08196619571736188,0.4823262639635347,0.701939445189569,-0.8906500964662453,0.06880375005718047,1,right
6.159,-0.44105040393640604,0.4154673351502498,0.11268924985548276,-3.328194125129067,0.07693521553211874,0.4814501178238322,0.6961726884925552,-0.8966390852610254,0.04441884212554653,1,right
6.165,-0.4349805445583726,0.4225074118732006,0.1204555953548711,-3.3342693361225844,0.093835483462614,0.4827389632317353,0.7074770683066777,-0.8862177252306362,0.09104197216510536,1,right
6.166,-0.4332032152940242,0.42835056532055815,0.1255090471847342,-3.323654888391793,0.06987985956915731,0.4806505416986971,0.692741971004101,-0.899352304422109,0.03067134549861298,1,right
6.169,-0.43067702425286386,0.4352462249244975,0.12700154752673776,-3.3370283120504043,0.09375050888887693,0.48309665838177734,0.7051362893153743,-0.8884911867102963,0.08128375068946317,1,right
6.17,-0.4271734934569955,0.4408449514401863,0.134073818652241,-3.3293230149340802,0.07994099782518087,0.48168577042290095,0.7046580152312905,-0.8886245341932535,0.07958812850850797,1,right
6.172999999999999,-0.42802423205932005,0.447586148775705,0.1429498149994391,-3.3181169964960224,0.07172914106900868,0.4799815142380068,0.6814045184171117,-0.9097617953984807,-0.01605198496605055,1,right
6.175,-0.4300123396336671,0.4536924080538933,0.149746375083476,-3.3612521483001605,0.11244602383284512,0.4868080393772731,0.738765052846295,-0.8580411680336633,0.21948841327267904,1,right
6.178,-0.43557072006420705,0.4593680039069983,0.15996115151394358,-3.281550932857596,0.036700323719678046,0.4741799272193142,0.6435811628571603,-0.9437089117294062,-0.171221703352743,1,right
6.178999999999999,-0.44060714853801153,0.4645707783877843,0.16577768380887759,-3.384270392129661,0.1336531178363125,0.4904351363292975,0.7691558556631132,-0.8307449912685189,0.3441804814601581,1,right
6.184,-0.4410901245837666,0.4647966062450286,0.16764954037459323,-3.2983416460515143,0.052854416379845906,0.4768465826595333,1.296144303420157,-0.3564550317821652,2.5073250436433505,1,right
6.186,-0.44814365506351406,0.469377134459269,0.17341970173735505,-3.300189554209683,0.05542376390608026,0.4771618165611158,1.4217219087207633,-0.24349497435582268,3.0227143272534205,1,right
6.187,-0.45873190301867584,0.47906396952268965,0.17671528339679354,-3.4660811480425946,0.20784780473985995,0.5032943779138176,1.3265195983064546,-0.3291409787572256,2.63199654691204,1,right
6.189,-0.4670552802763488,0.48569091243074425,0.1781938471253144,-3.0586988564497366,-0.16707376845476485,0.4391050026224698,1.3839330185267915,-0.27748095886473717,2.8676188396673608,1,right
6.19,-0.4806567341065304,0.4995431275148989,0.1809128228948929,-3.7341960430295984,0.4545260591910798,0.5455360961220728,1.360578474290453,-0.29850385865710405,2.7717745357911694,1,right
6.194,-0.49073572622175415,0.5116141094005893,0.1807333928779254,-2.843098036207583,-0.36525866938393486,0.40514262297682413,1.3602431279448775,-0.29879760703933916,2.770412777146274,1,right
6.195,-0.4942593736836219,0.5153011661856539,0.18096187469218106,0.8985464291220072,-3.8053828269027203,-0.18433699778478307,1.3724921529346505,-0.2877750887614935,2.820630933346199,1,right
6.196000000000001,-0.5021925716846465,0.5325994668671825,0.18262361919088183,1.789833092645054,-4.625018721218687,-0.3247522198441877,1.357827247090542,-0.30098472474759547,2.760547425041029,1,right
6.2,-0.5050746547001317,0.553945554724081,0.17949719865231178,1.114029781158835,-4.003649186871723,-0.21828118986484024,1.3692396652073304,-0.2906900537813801,2.8072425126064138,1,right
6.2010000000000005,-0.5007175413624153,0.5668545075991813,0.16887184986410864,1.5216957657381878,-4.378386668658258,-0.28251972454466484,1.36309390365563,-0.29624804641996527,2.7821598060754127,1,right
6.202999999999999,-0.4990348915913569,0.5780473596554314,0.15178485798560254,1.3557363353995548,-4.2259342615658095,-0.2563454204236376,1.3644942329876422,-0.2949746250308317,2.7878475288130624,1,right
6.205,-0.4964180589194043,0.583813113053316,0.13511238308245543,1.3535367401221103,-4.223763845391408,-0.2560399691109887,1.3661143641280364,-0.2934944386839703,2.7943747737169993,1,right
6.209,-0.4925327364071488,0.5902982349989692,0.12504412640342705,1.440368166578304,-4.303720026127891,-0.2696785724524054,1.3633320201825072,-0.2960740696443844,2.783345241877016,1,right
6.21,-0.49261418217,0.5997362144453628,0.11816496074055038,1.336252123160755,-4.207944148391308,-0.2532934850348423,1.3659063626445465,-0.29362507918881,2.793240672103879,1,right
6.212000000000001,-0.4950420846715998,0.609178642346559,0.11172208534694872,1.4174801997468496,-4.282554449114617,-0.266126271980503,1.3642241991359825,-0.29530211927337024,2.787158599615958,1,right
6.212999999999999,-0.4975041294211646,0.6247030790654584,0.10413232055113808,1.3734145062300884,-4.242273103517703,-0.2590687758966037,1.3649258356013938,-0.2945401830015074,2.789383227484929,1,right
6.218,-0.5020246833973105,0.6403365202968405,0.09195036485204941,1.383954231186034,-4.2515697336719125,-0.260927851303803,1.364921531779884,-0.29454318215651576,2.789359709097816,1,right
6.218999999999999,-0.507206008266922,0.6524578527902773,0.07462891155047346,1.3948872679249709,-4.262098060010658,-0.2624064453935585,1.3646435351818267,-0.29503515092010935,2.7894341997541385,1,right
6.223,-0.5094726052671235,0.6677407398173656,0.052952031337976095,1.3753445131892854,-4.243753411918055,-0.25952208366140994,1.3648465589717753,-0.2942993571100167,2.7874897401747525,1,right
6.224,-0.5100587027379374,0.6829700130789285,0.030367972254352806,1.3941752923371824,-4.261064567944997,-0.26249039929316254,1.364899646238811,-0.2950769519757489,2.791851669332128,1,right
6.227,-0.5097870614274437,0.6959033774871838,0.009055787391228623,1.3805829618169279,-4.249257750018489,-0.2599882408324922,1.3646350303368753,-0.29443510076452284,2.78634763350978,1,right
6.228,-0.5061052875661034,0.7118196743295283,-0.008857056816758245,1.3883262007887267,-4.254800878583571,-0.2620328332383658,1.3648543110511515,-0.2947462747931363,2.78980099442478,1,right
6.232,-0.4989488726088294,0.7257076326284403,-0.02015831487550903,1.384988144277165,-4.2540814475290425,-0.2602764485937291,1.3650713749644552,-0.29498920093291287,2.79289083435674,1,right
6.233,-0.49045680785133305,0.7345744929411753,-0.027380062472051755,1.3855402768111045,-4.2520855551448395,-0.2616753941189777,1.3640421743383584,-0.29399714211475336,2.779038598483841,1,right
6.237,-0.4812855667180899,0.7459290843148108,-0.03068285610637174,1.3872376964842263,-4.255092071519977,-0.26118440246910635,1.3660269622556098,-0.2957684836847968,2.8050420495570045,1,right
6.2379999999999995,-0.47230297532646265,0.7558342475146063,-0.03149630659004897,1.3824323924312503,-4.251921111948397,-0.25977468985310326,1.363425817133697,-0.2935412811529866,2.7714345593117717,1,right
6.242000000000001,-0.46330711371705047,0.7612728543990447,-0.03671744912598486,1.3918964647403653,-4.255167000359462,-0.2641244066737348,1.3656200247263077,-0.29538029867486626,2.799587754940025,1,right
6.242999999999999,-0.45625602019553035,0.7686800993238327,-0.047467531404200305,1.3770797219918487,-4.251660189342421,-0.256487636060201,1.3655649273687471,-0.2953266497666705,2.798836031346984,1,right
6.247000000000001,-0.4532182342005273,0.7757192991083945,-0.06023999197456045,1.395117233520084,-4.25525617392144,-0.266138957473322,1.3613295218116677,-0.29186636828830026,2.7449601708763476,1,right
6.247999999999999,-0.449287253634138,0.7806954365819445,-0.07468410462591052,1.3804798123782915,-4.252639559347081,-0.25814647917437356,1.3717503336162422,-0.3003617048492486,2.8774385361332433,1,right
6.252999999999999,-0.4460966771385192,0.7855009115329642,-0.09111033781295873,1.3802228984495681,-4.252113680086337,-0.2582632343428905,1.354459514066532,-0.28628741379650924,2.6577219921751736,1,right
6.254,-0.44854072628839226,0.7871907567236933,-0.10075407077857361,1.4098673498294048,-4.258688373545676,-0.27376848558371725,1.377275724556413,-0.3048425958058255,2.947573995872227,1,right
6.254,-0.44842828962321646,0.7874111255406573,-0.10294756069111867,1.3379566199848023,-4.243395833584119,-0.23580169259433584,1.4731214669587949,-0.3826599322877987,4.16431504045635,1,right
6.257999999999999,-0.4441539755387669,0.7890111415306034,-0.10831131466971526,1.4568191948975722,-4.268418510521361,-0.2986993814084063,1.495949173068789,-0.4012047493993417,4.454206220906805,1,right
6.2589999999999995,-0.44392601533797454,0.7898422322234542,-0.11290342610491391,1.3001860692761333,-4.235542007138438,-0.2157555146588899,1.478634883882348,-0.38715167887732077,4.23442964356482,1,right
6.263,-0.44376057992513707,0.7898103105357807,-0.1113471810449069,0.6420023655404887,-4.096950411032925,0.13245463821901443,1.4890900413353059,-0.3956158376908095,4.3669543926444465,1,right
6.263999999999999,-0.440442544504347,0.7875572849351662,-0.10708767769516553,0.4854230223134257,-4.064113545986842,0.2153987014366365,1.484815333394611,-0.39219142648051186,4.313090274076987,1,right
6.263999999999999,-0.43798798388223403,0.7832395290914476,-0.09876043267723303,0.6041532373085456,-4.089025177085915,0.15251248122622668,1.484790981218974,-0.3921094130794538,4.312227197780629,1,right
6.267,-0.43345565820304655,0.7811857407124801,-0.08463304342674188,0.532483091593347,-4.073957749844591,0.19043781835990914,1.4869841957403818,-0.3939500165899852,4.340608979478602,1,right
6.267,-0.426104106191647,0.7778103783610555,-0.06830358717445444,0.5617789484015472,-4.080176982146657,0.1750185708179311,1.484330214309498,-0.39177005537993265,4.306687755420636,1,right
6.271,-0.42014561531600836,0.7726248463761674,-0.05025585230519489,0.5619102498978923,-4.080083416878342,0.17477375242618717,1.4864377566209446,-0.39343035049694675,4.332986500952215,1,right
6.272,-0.41410017853351533,0.7707234441342238,-0.02868137665542548,0.5470058912837857,-4.077113159139978,0.1829042249493873,1.485223593670566,-0.39260664233893716,4.319035127417057,1,right
6.276,-0.4060459593936536,0.7680782739050922,-0.007965304658657836,0.5649473742486885,-4.0807287812196975,0.17317247669069508,1.4856402390559773,-0.39266665666630984,4.321810395511441,1,right
6.277,-0.3983250924470725,0.7645046774478659,0.009561715160318174,0.5508439929883803,-4.077830968039658,0.18073812819686627,1.485740543924639,-0.39308899559265453,4.326165507262365,1,right
6.281000000000001,-0.39218011027753585,0.7621912517433279,0.026122398101846814,0.558842248317963,-4.079637194877222,0.17670131318937854,1.4853831472451868,-0.39252730941942626,4.319173056135094,1,right
6.282,-0.3856471197980351,0.7600007548042536,0.04029273881305573,0.5560951180460629,-4.078656027069353,0.17752257762011003,1.4858668437375382,-0.3929175101419825,4.325291373536677,1,right
6.287000000000001,-0.3776850384962525,0.7609089854243332,0.05161204784413963,0.5557584202891133,-4.0792790876292315,0.1787893331407831,1.4852528720071514,-0.3929227855434376,4.3220519856531245,1,right
6.287999999999999,-0.3690245851193964,0.7623263397282929,0.06353419404469823,0.5572008629318124,-4.078732392735731,0.1766912698890959,1.4860585371443655,-0.392425929085981,4.321871725503884,1,right
6.291,-0.35963236470885673,0.7626360511910233,0.07530535408427388,0.5555526891398173,-4.079062793352795,0.17862709855448144,1.4850670676284667,-0.39333783330390426,4.324811256305991,1,right
6.292000000000001,-0.348826834347666,0.7657430376036883,0.08624141232251534,0.5577859474086251,-4.079538006095133,0.17745424548707217,1.486046970477389,-0.3923033145780399,4.320700508193536,1,right
6.295,-0.33532333091278216,0.7719275352092134,0.09872628020356408,0.5537344375629407,-4.0774324039981575,0.1776269306780659,1.4855324316706635,-0.39294286525237326,4.323730716631825,1,right
6.297000000000001,-0.3196869107748844,0.7817337755927962,0.11172495464513317,0.5607784764314927,-4.081778429961119,0.17840462355579434,1.484928342808452,-0.3933641646080329,4.324306423104803,1,right
6.3,-0.3029693748895562,0.7930077132364839,0.12714541814955427,0.5508011667323733,-4.075407047066524,0.1769633771637275,1.4872758997319955,-0.39128060010224064,4.318030124754845,1,right
6.301,-0.28599294309166035,0.8063180359678208,0.14502691625281347,0.5613376280808766,-4.082177717746158,0.1785525166840266,1.482992352159945,-0.39520112161950716,4.330556826240031,1,right
6.305,-0.2691207409421923,0.8246865728533266,0.1639162108216478,0.5554065458309216,-4.078299043910007,0.17755099806873414,1.4884673643491153,-0.3901467697414589,4.3141526917211275,1,right
6.306,-0.2498208324555564,0.8437295926244259,0.18632319181598972,0.5495188069546328,-4.074791528034542,0.1770989255544962,1.483907281848548,-0.3943746661337606,4.327981661795624,1,right
6.31,-0.2306318496858066,0.86474424374007,0.207502461507372,0.5740163193059711,-4.0898726028301535,0.1797517155883746,1.4840141191607796,-0.3942477875385967,4.327401934019339,1,right
6.311,-0.21537045418776712,0.8850818706508699,0.22483617091027847,0.5288160912557622,-4.06195422608581,0.17470919479231944,1.492753357017952,-0.38621933740226344,4.301579925487397,1,right
6.315,-0.20364273719121004,0.9024551412180088,0.2392227311360703,0.5868018037769858,-4.097790390406523,0.18121323009431328,1.4712974591103998,-0.40596984683915527,4.36534289667445,1,right
6.316,-0.19813493182873346,0.9266836082868972,0.24638790288176704,0.5384165537311575,-4.067879239282206,0.17576929599209312,1.5068631273490203,-0.3732164813245923,4.259511126903849,1,right
6.32,-0.19920183998999363,0.9448512153267002,0.24573655278476678,0.5396389436717475,-4.068666875110871,0.17596585617300403,1.4599556210878437,-0.41641976470663533,4.399140992751134,1,right
6.321000000000001,-0.19924124359131698,0.9488860952501854,0.24291959765280932,0.6321791677813315,-4.125768740628738,0.18619117849762068,1.263044351321681,-0.5977801392312753,4.985158299498533,1,right
6.321000000000001,-0.19765489304122408,0.961378373650279,0.23419418723973123,0.40483594043894133,-3.9854496801890518,0.16099459258074722,1.216137231694519,-0.6409847891456657,5.124798199087484,1,right
6.3260000000000005,-0.20304931874597837,0.9830549963909443,0.20924047250890204,0.7817454062478454,-4.218091931808409,0.2027953791637667,1.2517011525086228,-0.6082252266332467,5.018920962576176,1,right
6.3260000000000005,-0.20914495531578597,0.9943110979934596,0.18819422400432317,0.28461750266687164,-3.9112464917182472,0.14764835981907032,1.2302498032528013,-0.6279918867999899,5.082802397625641,1,right
6.33,-0.21107552663057563,0.9994088699159356,0.18185223856556004,-1.8023204134295294,-2.6231500493228683,-0.08364424527233899,1.2389807232101915,-0.6199338854072343,5.056763662244901,1,right
6.331,-0.21780887460680196,1.0121681460147143,0.1657130907593405,-2.299438964354463,-2.316315723758245,-0.13880448277598367,1.2390989736900115,-0.6198475716825781,5.056481406366492,1,right
6.332000000000001,-0.2266597581558374,1.0263368054238806,0.1455693143551005,-1.922539626426216,-2.5489459376082015,-0.09698939315438318,1.2345277180556926,-0.6240357350407895,5.070019039772099,1,right
6.334,-0.23541692384062163,1.0377657140835423,0.13358727198216988,-2.1498866707357283,-2.408622348171569,-0.12218054645618795,1.2400073722802205,-0.6189979297719397,5.0537361665305,1,right
6.335,-0.24406039346017125,1.0524194140453575,0.12158214214237867,-2.0573129462231936,-2.4657640104900547,-0.11200264892611791,1.2357338624191523,-0.6229540574523266,5.066524092203135,1,right
6.3389999999999995,-0.24694616756589807,1.0703469011435183,0.11127481266257203,-2.0561626801006785,-2.466465957152028,-0.11170403931276648,1.238049688647166,-0.6207577879827111,5.059421181149947,1,right
6.34,-0.24547757538894713,1.087764585563575,0.09814845573982388,-2.104444484422914,-2.436677716003736,-0.11729429879903579,1.2375000819661541,-0.6213726901437051,5.061416687172951,1,right
6.343999999999999,-0.24108971874887578,1.1025500121004224,0.07512950301245905,-2.0465618257249716,-2.472391426310117,-0.11064454495255086,1.236918766140815,-0.6217748563140071,5.0627061717825645,1,right
6.345,-0.23341359704954362,1.120071215401007,0.05159284581305888,-2.0917175072372656,-2.444526000091436,-0.11574995731253668,1.237951841163071,-0.6209294955955645,5.05998227953345,1,right
6.35,-0.22305476039672706,1.1435268735637072,0.03648673093467186,-2.0671316873560253,-2.4597119651627546,-0.11322225899828137,1.236960981481352,-0.6218432536310798,5.062935922892921,1,right
6.351,-0.21287031025349096,1.1682052924210757,0.02634476326430062,-2.0733042090028,-2.4558661174821,-0.11327131053236611,1.237667645771438,-0.6209949289806034,5.060177598007286,1,right
6.354,-0.20912725079298472,1.1904735705901714,0.01719356524743256,-2.078744417139501,-2.4525706595561765,-0.11496728848368794,1.2372797047788504,-0.6218032199374104,5.062827487825543,1,right
6.355,-0.20995183552185268,1.2085992191475587,0.011208199675604942,-2.068810574136715,-2.4586253062159145,-0.11252583365945354,1.2374263501353586,-0.6209955244520089,5.060161252404923,1,right
6.359,-0.21120181398427013,1.2208116220703369,0.00714542783537566,-2.078307159443722,-2.4528251783152664,-0.11464664599259816,1.2374280908902793,-0.6217107975368387,5.062532211543621,1,right
6.359,-0.21747579889169383,1.2272633142765463,-0.0005413319477089969,-2.0712594995888827,-2.4571753602842135,-0.11387487330207909,1.2373211682003746,-0.6213953366482186,5.061478955382958,1,right
6.364,-0.22356111836439735,1.224590505114825,-0.013645687522884305,-2.076201585386463,-2.454011804474872,-0.11244140493191862,1.237558286050482,-0.6208192536090205,5.059586295085326,1,right
6.365,-0.22448233257753375,1.2104515513764116,-0.03325666886652403,-2.071931863185918,-2.456906488487265,-0.11649581314311262,1.2371279556344832,-0.6227792266124881,5.066052003724945,1,right
6.369,-0.22170325147074854,1.1882237993063716,-0.05606428170650429,-2.0766190714462502,-2.453626073343841,-0.110260975151212,1.2377826305397308,-0.619277213484278,5.054491835057643,1,right
6.37,-0.20349303196058505,1.1531333180637189,-0.07341454902910716,-2.071935772517377,-2.4569302549446954,-0.11694212586180354,1.2369934776752132,-0.6237258700925534,5.069178838469128,1,right
6.375,-0.17673353142327958,1.1085985419688527,-0.08204096553704107,-2.074147010014563,-2.4553254733359635,-0.11302688385558356,1.2376308530186888,-0.6200326166187297,5.05698624116473,1,right
6.376,-0.13518603828386097,1.0557217792793179,-0.07165762085075697,-2.07850388469684,-2.4524326243048877,-0.10992370868977752,1.237646355317277,-0.6201002927271398,5.0572075980004385,1,right
6.377999999999999,-0.07517206474876795,0.9947821523227022,-0.04433628430570019,-2.063447632532095,-2.4626237625318566,-0.1239496852664477,1.236343560831406,-0.6272280521965476,5.080742666507268,1,right
6.379,-0.014512922498918855,0.9360263798576135,-0.016517642176660203,-2.090645617381008,-2.444168309842424,-0.097858006979355,1.23949898797275,-0.6097564587197855,5.023059359987078,1,right
6.382999999999999,0.07444477936443425,0.869824198625274,0.01891558775590762,-2.05588442959108,-2.467768490248586,-0.13137912558499773,1.2342837266968791,-0.6387058935688292,5.1186305385882935,1,right
6.3839999999999995,0.13802323463145583,0.8272712320410456,0.04492067113165282,-2.0848392172645394,-2.4481025031809915,-0.10338651751081879,1.2411582504108372,-0.6005308029176581,4.992612193192229,1,right
6.39,0.15496113729247377,0.8168747186351464,0.05131860900225256,-2.0843073554245373,-2.448488149243799,-0.10417269240351588,1.2700398002389814,-0.4402665479278265,4.463570149121047,1,right
6.391,0.2217679238989923,0.7823136416924051,0.07872166676982054,-2.028269728753139,-2.486476662167691,-0.15745589066433194,1.2769208994021763,-0.40210228186078173,4.337621336516303,1,right
6.391,0.30429586101538264,0.7449867537984413,0.11551285276162865,-2.165707101367602,-2.393270082174387,-0.026458233536552536,1.271697126698422,-0.4310296831206955,4.43306015825466,1,right
6.393,0.3703272871159878,0.7256805230058194,0.12969845214883258,-1.9379053869948635,-2.547778957221895,-0.24366774483487347,1.274854797032606,-0.41359019647603873,4.375550584116701,1,right
6.394,0.4205190370723184,0.7094211643407093,0.13440399807112177,-2.2383696793975947,-2.3439688521281434,0.042832265100141174,1.2735653984836097,-0.4206814300810301,4.39891804573761,1,right
6.398,0.43134678622318456,0.7073200532717876,0.1343447932400988,-3.499919762334957,-1.4883497103337424,1.245367867651938,1.2735452612410667,-0.42077734113122645,4.399221342721539,1,right
6.399,0.4593712115593419,0.7020569590007436,0.12272015776805717,-3.8004181711144263,-1.2844751717221699,1.5318678325089512,1.2742391948106304,-0.4170839205377605,4.387134388346137,1,right
6.4,0.49464261682134286,0.6958127001263392,0.09417052853865177,-3.5725786594853126,-1.4390751799877752,1.3146566689943988,1.2733869017212534,-0.4214823825267784,4.401437468020001,1,right
6.404,0.5028173136767149,0.7053187657486604,0.049004788628732476,-3.7100051301335752,-1.3458192426055224,1.4456603696034775,1.2740814889305438,-0.4180955508391734,4.390560570936975,1,right
6.405,0.49742480921097215,0.7194052882491375,-0.005888055833187657,-3.654083476340135,-1.3837329271951677,1.3923645886260219,1.2736761790801365,-0.4198831170511701,4.396163186305433,1,right
6.4079999999999995,0.4720062895244356,0.7436393897617183,-0.0673423858587219,-3.6532977641999387,-1.3843840723954104,1.3915971889651417,1.273782486829297,-0.41949167195466985,4.394998943045362,1,right
6.409,0.43705385960120724,0.7809814274603418,-0.1282231119910311,-3.6826199804593607,-1.3642537495614364,1.4195695209170403,1.2739294326519666,-0.4190685080937788,4.393855222099532,1,right
6.412999999999999,0.393224714023871,0.8209101429817441,-0.18249459839946697,-3.647488589922385,-1.3884208211863112,1.3860602939794084,1.2735894257934457,-0.4196925353065869,4.395100782881524,1,right
6.414,0.33843926468173996,0.8648680537062214,-0.2258111657337942,-3.6748543339640385,-1.3695266838668603,1.412162253255786,1.274053520128301,-0.41929126967467145,4.3951781873808,1,right
6.417999999999999,0.28106315647231056,0.9110217690823716,-0.2511866652034559,-3.66009749016592,-1.3796782572681878,1.3980905505088879,1.273565040737119,-0.4193351861086888,4.393603219361806,1,right
6.417999999999999,0.21852670118860876,0.9512971250147175,-0.26455490898949624,-3.6634580826379697,-1.3776822050174564,1.4012799282903872,1.273919339847043,-0.4194941972548032,4.395499432368999,1,right
6.422000000000001,0.15335101015648633,0.9847687841798787,-0.27221413620840434,-3.6674040087446027,-1.3740955131890087,1.4050813174021282,1.2739220143429342,-0.4194993594360348,4.395527456570271,1,right
6.422999999999999,0.08741357273256756,1.011709189468211,-0.27090315206521165,-3.660572645778587,-1.3802956269444562,1.398503075627909,1.2733205359516948,-0.41889191141363213,4.390980977376817,1,right
6.4270000000000005,0.023920806881364044,1.0312298257200476,-0.2678445553383676,-3.667001017664785,-1.3740140288457887,1.4047108538442807,1.2746711851100327,-0.4204105308936309,4.4018035858229245,1,right
6.428,-0.034471889888091994,1.041755309953964,-0.2680093012175482,-3.662680936115779,-1.378475533155436,1.4005296589052452,1.272675957188783,-0.41803755816660526,4.385301795614334,1,right
6.432,-0.08483755449119616,1.0421013938503991,-0.2691938519189411,-3.6645429781622174,-1.377226303443274,1.402303593849936,1.2747912629329834,-0.4206295693313242,4.403101037107147,1,right
6.433,-0.12004515611670016,1.0334188198977101,-0.2717364817530412,-3.6646537807135395,-1.3743099441033335,1.402526915773852,1.2735731067483016,-0.4191131632078128,4.39275109544165,1,right
6.437,-0.14069116478508487,1.017384251016804,-0.2632565378277817,-3.6633752184770065,-1.3816697820150807,1.4010401128874828,1.2725232182275579,-0.4177929653206169,4.3837978423018615,1,right
6.437,-0.14966421021986887,0.9972699126342555,-0.2422722533900665,-3.665045522220699,-1.37085127302122,1.4030315677860279,1.2771108494111494,-0.4235853963907269,4.423054168093541,1,right
6.442,-0.14396706752258964,0.974252165561102,-0.22035538058342918,-3.663579806886891,-1.3821702561527576,1.4012092427430787,1.2686084003914333,-0.41282406693809437,4.350179393811805,1,right
6.443,-0.1251584967806965,0.9445082526852596,-0.18819104827555452,-3.6644312246451785,-1.375627331424932,1.4022659294833737,1.2795218999666207,-0.4266542312550567,4.443804168219676,1,right
6.4479999999999995,-0.10077222214472935,0.9127109643058915,-0.14389037515101122,-3.6644616380312756,-1.3704636473451153,1.4025078262265,1.270413732649935,-0.4151069300699197,4.365622739470515,1,right
6.4479999999999995,-0.07067484487631569,0.8892749781661755,-0.09219064787020786,-3.663414925513061,-1.3936805026369257,1.4005817886921734,1.2706565004484742,-0.415404993006676,4.367725589533784,1,right
6.452000000000001,-0.039746196950783276,0.8674106424095702,-0.04025475151077537,-3.6654041780475706,-1.350592642128746,1.4041980586655152,1.2880306921338005,-0.4374705896900207,4.516874836022533,1,right
6.452999999999999,-0.00918648588678271,0.8521466410956839,0.003362264475303002,-3.662904970523119,-1.405881571661232,1.3996085019680105,1.2453357221474448,-0.3832595015457246,4.150291711476872,1,right
6.457000000000001,0.02349993792863169,0.8576575128361938,0.05264488451261971,-3.66496930398186,-1.3597394795268734,1.4034169994452244,1.3161191182271428,-0.4731274913127058,4.758101964907999,1,right
6.457000000000001,0.04451255934247503,0.8742079962469278,0.08879151321083437,-3.664829803859873,-1.3610431990503145,1.4032387947082847,1.222762845569537,-0.3546096577157316,3.9564079401684,1,right
6.457999999999999,0.05302750707077184,0.8869971076913434,0.10050040220652551,-3.661231564762812,-1.4488021446873107,1.396287991877033,0.8308338735699904,0.14311965050358938,0.5910870774339132,1,right
6.462999999999999,0.07197536115764708,0.9253444072353391,0.13762812328144847,-3.670151611598738,-1.2330537094861542,1.4134353723028203,0.7374882279208376,0.2616058669795531,-0.210592545454369,1,right
6.4639999999999995,0.12160629630323508,1.0346729916532174,0.20351302121044096,-3.6553517141548353,-1.5907783484454154,1.3850017059496809,0.8082597363087478,0.17176992560662446,0.39720927924697524,1,right
6.4670000000000005,0.1608422273748678,1.1206917460718377,0.24059749199232883,-3.6748704837033315,-1.1189457901748052,1.422496355049484,0.7655617746359693,0.226001672135767,0.030594891920181083,1,right
6.468,0.175730158194998,1.14902264139102,0.25572161506369046,-3.7564285739433014,0.8613465003558,1.5796064361182363,0.7829712577599475,0.20380683819143938,0.17984805829258238,1,right
6.468,0.23991877548484786,1.2599715281284087,0.327893443167519,-3.775947314771807,1.3331746999859548,1.6170892008588713,0.7831361892117293,0.20377631165481325,0.1817622075434852,1,right
6.471,0.3534554634616525,1.4147865766268004,0.4551114319463403,-3.7611610783027096,0.9754640413850939,1.5886814066540484,0.7741411465457707,0.21494845387335265,0.10382339806943597,1,right
6.472,0.48928026509595357,1.5274675774305653,0.5475009931607517,-3.770032859575582,1.1911814547611974,1.6057875813969575,0.7849400949066736,0.2014813339893351,0.19724147594021868,1,right
6.476,0.6453054868076494,1.6384515092205316,0.581320790646129,-3.7665340455537875,1.1034745183430585,1.5988891581420992,0.7764906060857755,0.212105582289688,0.12439107116695393,1,right
6.478,0.8076444761884001,1.741236856318928,0.6092337603069905,-3.7662471117267273,1.102104090652368,1.5986617396182243,0.781168461236129,0.20595631341702536,0.16397425172842073,1,right
6.481,1.0039768370272002,1.8242574942169973,0.6544753468375187,-3.7684695992714725,1.1483056429503877,1.6024899691979733,0.7798139299087887,0.20834842500264217,0.1542250409441569,1,right
6.482,1.2400690781773007,1.8883386241828977,0.701362130441978,-3.7658794035667595,1.0930027054249016,1.597944258926942,0.7791286355695007,0.20806189968999955,0.1451007406894086,1,right
6.487,1.4983971693197127,1.9308648668071609,0.744161229662313,-3.767784420292933,1.1360126671143433,1.6014236945862297,0.7805815475442434,0.20763580771555018,0.161550613579943,1,right
6.4879999999999995,1.7589898887430295,1.9594868316987504,0.7864032752322612,-3.767100416967046,1.1130012744649818,1.5997317236060082,0.7791270121103194,0.20835178010608424,0.14589346324725225,1,right
6.4910000000000005,1.9942660641389203,1.9642495397196587,0.827751096909846,-3.7664519860871017,1.1178358607175478,1.599687049450817,0.7804534852486015,0.20665783356545359,0.15725548351568197,1,right
6.492000000000001,2.191502739213206,1.9353955098927296,0.8533047656454424,-3.768195209864942,1.1247569588011344,1.6009721945151791,0.7789151182647054,0.21070845420492776,0.14992178945713158,1,right
6.496,2.2904461326026735,1.8809847540119613,0.8479022851461177,-3.765930038003817,1.1131743901686768,1.5991511766911541,0.781111526025694,0.20312595024572608,0.1553540402729799,1,right
6.496,2.2352949872074817,1.8209099574616145,0.8064095099713005,-3.7677971223813462,1.12390356499981,1.6007209123500246,0.7781508794050305,0.21403712469203232,0.14996311138748358,1,right
6.501,2.0334638173200146,1.7605057833331224,0.72103898589349,-3.7675343150978104,1.1172321757173704,1.600198535886915,0.7812480937285642,0.20247943554950115,0.15520466099512958,1,right
6.502000000000001,1.7151255237817922,1.7156647458814804,0.5998330609675447,-3.7649541845897785,1.1187334304676138,1.5989837832064262,0.77955151674865,0.20904107078499262,0.15297401903697316,1,right
6.505,1.3344644444942946,1.7066949355697636,0.4712963807297587,-3.771125905063993,1.121965950192351,1.6022873393339079,0.7776285528719049,0.21527670623719167,0.14709882820390985,1,right
6.506,0.9428167074797905,1.7368721260822046,0.36255380519368746,-3.7618523855475825,1.1155489018054152,1.5972334064402514,0.785290510266412,0.18893260080552293,0.16634200010896116,1,right
6.51,0.5622498132530103,1.8061584231146632,0.27962860003626755,-3.7717513652596546,1.1226849580383647,1.6026434635352125,0.7712175064283568,0.23761976231553725,0.1318230366115342,1,right
6.511,0.1961444100704537,1.8901120543149852,0.21328444772388333,-3.7660105368981958,1.11809539855268,1.599482037806883,0.789257237870401,0.17513737022683246,0.1758850562193322,1,right
6.516,-0.15202178498548044,1.9768588332514547,0.15992286189839094,-3.761163606679606,1.1164549899570266,1.5969359626158517,0.774209375988458,0.22729168892330448,0.1392059741528071,1,right
6.517,-0.4868262042086988,2.023386542300236,0.0958508207143182,-3.7825454275479045,1.1274202864172582,1.608369423849098,0.7745687175630309,0.2259248620266568,0.13979184575503156,1,right
6.52,-0.793374106347345,2.009868470721906,0.009783504068967289,-3.742859073767001,1.1064067272061768,1.5871162720732328,0.8034187739640227,0.12631652229996482,0.21106644031171273,1,right
6.521,-1.0458507909912085,1.9489579121306166,-0.08023102466192973,-3.7938300494338733,1.1335343932120447,1.6144136909811193,0.7325658360608516,0.3711018290731296,0.036361557947227244,1,right
6.525,-1.249488391634769,1.7800460119484351,-0.1788421798247318,-3.7512660593217877,1.1108379594881779,1.5916268784422183,0.8500280021068913,-0.03476872509322994,0.3259068330905649,1,right
6.526,-1.3483884513637436,1.623646395476369,-0.23438136405951734,-3.752447889249604,1.1116595730350187,1.5922450878645789,0.6950979754117736,0.5005948508479455,-0.05599240551778016,1,right
6.527,-1.3604041672781233,1.572322719436562,-0.23975066086161145,-3.8335277081226193,1.1542301460373139,1.635675534212714,0.04470348028661031,2.7475902090376207,-1.659591577090805,1,right
6.531000000000001,-1.388101871653818,1.412400018753087,-0.25782963504709144,-3.6341933650394727,1.049377013232522,1.5289403867156217,-0.11023122274255037,3.2830017791588784,-2.0415422709746247,1,right
6.532,-1.3861659200548848,1.1319502522377758,-0.22323649627834433,-3.9647275747507127,1.223259080236882,1.7058950722212778,0.007236002734502943,2.8770792987499183,-1.7519413231012804,1,right
6.5360000000000005,-1.3591915744948855,0.9789846405159994,-0.16591506642865958,-3.5287349687022784,0.9939356454521862,1.4725095833411102,-0.06361501068742274,3.1218448550940674,-1.9266250372246194,1,right
6.537000000000001,-1.3556028156058548,0.9311803896143855,-0.1505447955179694,-1.6992631215928646,0.030757215349030143,0.4923909717066829,-0.03478173748524414,3.0224087629019114,-1.85553509844005,1,right
6.537000000000001,-1.3234870792115931,0.7795824650276755,-0.07197603859890822,-1.2632934129178621,-0.19856973010620396,0.25898921200847885,-0.034386285033294044,3.0206713254381543,-1.8545519095715568,1,right
6.54,-1.2748625273264158,0.5899743331065661,0.05121928874070673,-1.5937280866780723,-0.024565918041201194,0.43602611816472325,-0.04948592235084851,3.0733570230850544,-1.891800669628618,1,right
6.54,-1.222523725221939,0.4634134389648177,0.15042747660864836,-1.3946491321929664,-0.12983537671494177,0.3290687919803795,-0.03139463367408038,3.010345490209574,-1.8471713625742225,1,right
6.545,-1.1523622959189468,0.3440467627579494,0.2318255990296594,-1.4752651939201193,-0.08641612867431965,0.3729126903794137,-0.04548988295821143,3.059260962913906,-1.881935113199248,1,right
6.546,-1.0858111894573614,0.2562323765261826,0.2644943583948469,-1.4770801399266356,-0.08684516355528898,0.3729565269523869,-0.037872199624090684,3.0333712443895458,-1.8631790475001815,1,right
6.55,-1.0285268583404257,0.21546151327697913,0.23821168698301542,-1.4339003851850611,-0.1082090788120245,0.3507408790041534,-0.039652546773915574,3.0381431878994265,-1.8674850837161387,1,right
6.551,-0.9909915948178402,0.2126663201882419,0.148665274333576,-1.4851198050921914,-0.08183291975857462,0.37778476972741404,-0.04159485701177899,3.0472268172361194,-1.8724194731223414,1,right
6.553999999999999,-0.977847656899608,0.25954724115105593,-0.002404684475369609,-1.4460035387835748,-0.10359071822148733,0.3560556366697669,-0.03819606780455253,3.032574018102963,-1.8638597175703224,1,right
6.555,-0.9806416396778715,0.34110262858253715,-0.19146283851879248,-1.4656113900549996,-0.08951801711964419,0.36905564497563503,-0.04139714229707443,3.045952749678258,-1.8718961247667352,1,right
6.559,-1.006813752758267,0.45188400421542624,-0.39937459059359837,-1.4637940312835318,-0.09693252284599876,0.3637838072201801,-0.039202882199163146,3.038392268104052,-1.8664873475868426,1,right
6.56,-1.0568324725230511,0.5758490968959478,-0.5817941167413183,-1.454357389619676,-0.0939777824973908,0.3640015728457632,-0.04029506694200603,3.037863680085237,-1.868911966575895,1,right
6.564,-1.1150909923412704,0.692355491052065,-0.7036681795265392,-1.4671731847207305,-0.09354650537354084,0.36666369645274255,-0.03998825945129261,3.0466346893571075,-1.868768999841903,1,right
6.565,-1.1703245079628475,0.7917726377863846,-0.761467508893892,-1.4579930642319274,-0.09843416703944681,0.36170997536516103,-0.039921626665859494,3.0317386947251617,-1.867688997603874,1,right
6.57,-1.2092032669155586,0.8672987946575832,-0.7513256951852274,-1.4585964975702752,-0.0864020640039452,0.3698277750387696,-0.040090307479971374,3.0479552745841003,-1.8690815076468321,1,right
6.571000000000001,-1.221094830689816,0.9217823922249819,-0.6871062209020513,-1.4686209788712075,-0.10789767220017182,0.3573831767387907,-0.03983867171023832,3.038052827600374,-1.8678963004873215,1,right
6.574,-1.2048207266020259,0.9613444888676786,-0.6000434034883332,-1.4496495623323602,-0.0779430028903354,0.37379786175575225,-0.04038545111554423,3.032154970788966,-1.8687588729066653,1,right
6.574,-1.1590225093312791,0.98965044418218,-0.5118853550327014,-1.4713444387632006,-0.10910297414079817,0.3570858278045041,-0.039242505866053046,3.0622848897178434,-1.8680687686047854,1,right
