time,gFx,gFy,gFz,ax,ay,az,wx,wy,wz,subject_number,foot
8.58,-0.43828007490987547,0.8945226649981272,-0.09975102184676717,-0.8153960299537863,6.448129779843539,0.10654560834215918,-0.059097355196279164,1.2109709598646186,1.0273367016237698,4,left
8.58,-0.4304639735717526,0.893232294820586,-0.09832141943505449,6.127314336640946,-1.0487219319714574,-0.8362685015457275,-0.058369719782656856,1.1456786009513744,1.0581744614349158,4,left
8.581,-0.38819197732184946,0.8985888350804452,-0.09134739030403963,7.781158933507368,-2.834639192232302,-1.060927804333567,-0.0583528285671545,1.1448096303827775,1.0586210778504315,4,left
8.585,-0.3108749756097225,0.9106190168556565,-0.09102341561085162,6.527332032045906,-1.480642094258073,-0.890625211421308,-0.058749087098574404,1.1789374691320482,1.042431428836332,4,left
8.586,-0.2307695296168335,0.9204702041015093,-0.09828411834306408,7.283533263615693,-2.2972742407215465,-0.9933209788908592,-0.0582709522044387,1.1380738373019288,1.0618256895629252,4,left
8.591000000000001,-0.13998712251870882,0.9307409347592148,-0.09974222084925546,6.975784420741304,-1.9649710023579097,-0.9515550651149547,-0.05864784751048363,1.1698715536155433,1.0467179940022036,4,left
8.592,-0.0484453082263437,0.9448355841645031,-0.10527402341310432,6.971698035804769,-1.9604055817531045,-0.9509379000115866,-0.05844680156968953,1.1527087521057238,1.0548619931372483,4,left
8.594,0.03950544333379291,0.9579197169453201,-0.1119965714983241,7.132503049061494,-2.13437298718819,-0.972876845049452,-0.0584730620306807,1.1567615573946108,1.0530201465289524,4,left
8.595,0.12144240409113279,0.9668956234996955,-0.11577206779604221,6.9399975578809165,-1.926038447834553,-0.946604156335095,-0.058580912442775884,1.1609507030987083,1.0508093345387723,4,left
8.601,0.19036570926173896,0.976159595159772,-0.12137554116760732,7.089758908823173,-2.0882116070004972,-0.9670648201378658,-0.0583946514941371,1.1536951970472336,1.0546347583711226,4,left
8.602,0.24875690095930736,0.982739900317981,-0.12465355402963679,7.008916410463135,-2.000718544090085,-0.9560368293806596,-0.05859777155270235,1.1603163741662814,1.0510195396389914,4,left
8.605,0.2925668119957072,0.9867337754737354,-0.12810859973152475,7.028124853776335,-2.0210736338193858,-0.9585359769206683,-0.05844631911965219,1.1559776229308305,1.0534572909048598,4,left
8.606,0.321839357042956,0.9875019421086648,-0.1365763742693006,7.047521406234019,-2.0432658594294084,-0.9615118720811892,-0.05846972567597451,1.1581573181140685,1.052431160659712,4,left
8.609,0.3382627696766714,0.9810977763263378,-0.1483742531138021,7.013929765914882,-2.0048441883694403,-0.9563653392914508,-0.0586477959070314,1.1569797440127507,1.0522675264507444,4,left
8.611,0.33990329700083793,0.9721740370789238,-0.1628275186775816,7.044389908156217,-2.0403719422848945,-0.9612174675538278,-0.05822749183255261,1.1584746879723542,1.0532061716019183,4,left
8.613999999999999,0.33196108993686024,0.9613157458708476,-0.17445204351889265,7.024537828952008,-2.0168337128351936,-0.9579519293546128,-0.05885142607729445,1.1559669960665653,1.0519372300246896,4,left
8.613999999999999,0.31795745734563796,0.9477858931494535,-0.17895303364164847,7.034816546699606,-2.027914863512452,-0.9593419198298945,-0.058190402855020334,1.1590086490970801,1.0531157389123464,4,left
8.619,0.2955338940083141,0.933256798234389,-0.1784692419248962,7.028154563565925,-2.024618415243793,-0.9594955947332059,-0.058572389190997776,1.1572551638313837,1.0524330641989208,4,left
8.62,0.2659636821442903,0.9183482756390298,-0.17219629631376,7.037742968398835,-2.0260648615117764,-0.9583802925168377,-0.05889254913453135,1.1549263121941924,1.0522303285693644,4,left
8.625,0.2329488417085283,0.9071717431834803,-0.1639228032746559,7.022129393092328,-2.0224936190223683,-0.9598656827732359,-0.057479564144946996,1.16406038800765,1.0536166347192142,4,left
8.626,0.1949345127411687,0.899538016257849,-0.1601875768525447,7.040511298815122,-2.0281762836841057,-0.9585185441465814,-0.060100549624280214,1.1471737781125895,1.0510212076603305,4,left
8.63,0.1537916710994511,0.895761986065091,-0.15828574468287587,7.029907920998337,-2.0249129116260183,-0.9592989881356847,-0.0567358286137565,1.168924849192112,1.0543214832844527,4,left
8.631,0.11593048788904857,0.8989692195065341,-0.15512742040092112,7.01691804178995,-2.01793988869908,-0.9594498912644446,-0.059544527697128216,1.1507349679095744,1.05158135586397,4,left
8.635,0.07488133230271465,0.9077606215876138,-0.15130306120323084,7.068786939473263,-2.0430720687053237,-0.958114983608203,-0.059467528628499744,1.15114165073108,1.0516949286834585,4,left
8.636000000000001,0.03209181016923043,0.9194216855111279,-0.1465986035339273,6.972840884264692,-1.9967317894125,-0.9606231391727716,-0.054116042080935345,1.1861920585392585,1.0567494748689008,4,left
8.639,-0.006840492156153875,0.9318450272364314,-0.1388835870047221,7.096362760173858,-2.056580410196143,-0.9574470158239464,-0.0672701006558075,1.1001068869195225,1.0442976332485383,4,left
8.64,-0.0499191578166199,0.9468455355705766,-0.12925220759508502,6.99309044300041,-2.0064579672332057,-0.9600772744670265,-0.04546012233759859,1.2428468553337941,1.0649387397643562,4,left
8.644,-0.07763919702348335,0.9579127285511678,-0.12486198438449088,6.995491275960896,-2.0073785174294505,-0.9599547067638682,-0.07422714794264865,1.0545520470890137,1.0377244542319966,4,left
8.644,-0.0855617110124809,0.9613092895539398,-0.1249285793229674,7.1941129934205295,-2.1048150654396,-0.9551651801861217,-0.19497295789748337,0.2639571967412293,0.9235712531004449,4,left
8.645,-0.10826151525798595,0.9690787262120177,-0.12302530422030035,6.7062107761466825,-1.8656561243999819,-0.9669718138122929,-0.2237395660203169,0.07562854741178293,0.8963718884382448,4,left
8.649,-0.13986110859948683,0.97810713590807,-0.11860741222124256,7.515219227572321,-2.2622272276839883,-0.9474047382050663,-0.2019303849442443,0.21842362034724566,0.9169918075369895,4,left
8.65,-0.15515136267422752,0.9809304521955019,-0.1149618057038213,6.4480306290548395,-1.7390424525559403,-0.9731964312302304,-0.21508339135121896,0.13228687973791162,0.9045516920479341,4,left
8.65,-0.16070017071598625,0.9823813451490248,-0.1145560341174556,1.9677122339622188,0.4581953713352311,-1.0814092338871513,-0.20973292981731,0.16735085866050023,0.9096229551580184,4,left
8.654,-0.1708858325067239,0.9831241069033013,-0.11247318941137355,0.9003742470837219,0.9815527879250925,-1.1071828636036396,-0.20965541103520513,0.167818545891753,0.9096759526989929,4,left
8.655,-0.18050372705869455,0.9818594203575289,-0.10420955000574735,1.709596480442201,0.5846994709711149,-1.0876347267226574,-0.21246350564337857,0.1494689759715903,0.9070423793291308,4,left
8.658,-0.18113962783804372,0.9791785876085537,-0.09262631798404342,1.2215710069370849,0.8241253752399802,-1.0994509348320967,-0.2091010724347301,0.1714692782171126,0.9102119384505981,4,left
8.658999999999999,-0.17761791970711638,0.9757383217567219,-0.08049934910577342,1.420037421896514,0.7266115900849529,-1.0945921659876663,-0.21171794008306855,0.15430759642479597,0.9077186185657982,4,left
8.663,-0.1706438698572651,0.9712236488905417,-0.06973012201891249,1.4230268332722407,0.7253916977234393,-1.0946156328524934,-0.21031020455004013,0.1636137067201794,0.9091118488292618,4,left
8.665,-0.15862692667274442,0.9676994001438073,-0.06496944329955012,1.3187069083317526,0.7763160537255922,-1.0970388671136968,-0.21062586490700524,0.16139479654048478,0.9087056330761293,4,left
8.668,-0.14302352684724245,0.9676166981376159,-0.06730758001858952,1.443526450646917,0.7152033149564867,-1.0940659523502303,-0.2110085592673473,0.1590749084865442,0.9084763911133993,4,left
8.669,-0.1242561633156064,0.9678253591107282,-0.07205755183556584,1.3465479006108527,0.7629536435751418,-1.0964918895882028,-0.21035414797691665,0.163211923933558,0.9089892720005803,4,left
8.674,-0.1023719668665892,0.9667616219554925,-0.07859206302151284,1.3983914788864125,0.7369146390520507,-1.0949699079914526,-0.21096163610522375,0.1592331762628213,0.9084139762050151,4,left
8.675,-0.07556766259797056,0.9657377614360124,-0.08549373178899823,1.387356447117911,0.7433814429897194,-1.0957017630248247,-0.21056690907487513,0.1620908716467139,0.9089837910469554,4,left
8.677,-0.04313812763632288,0.9637637873918015,-0.08924931526518452,1.372321572678,0.749462518855476,-1.095493542384413,-0.21071648831177148,0.1604873005636056,0.9083929339397734,4,left
8.677999999999999,-0.008306280756733557,0.9594467674256832,-0.09018719315471466,1.3972706616465493,0.7382562306565865,-1.0953465586963804,-0.21075834770345958,0.16114420958039385,0.9090239269293106,4,left
8.683,0.025810937369445848,0.9537151444644403,-0.08811652218100155,1.3747362215895738,0.749316233550374,-1.0958949813340562,-0.21061675483329337,0.1610789925809081,0.9084429006521415,4,left
8.684,0.060994935678426794,0.9473642678638018,-0.08379761894600118,1.3881407174967788,0.7408358603482658,-1.0947253152732632,-0.2107635896488576,0.16069085336576755,0.9087171660939293,4,left
8.687999999999999,0.09672768901539407,0.9410097090662968,-0.07702442130159934,1.3854291346662422,0.7465223956884771,-1.0967239222766598,-0.21068800334288684,0.16168003835159706,0.9091447047170507,4,left
8.687999999999999,0.12998995512274164,0.9357536802742392,-0.07086847378593251,1.3796406920947841,0.742862258119463,-1.0939798893455508,-0.2106458432626203,0.15979321110607111,0.9076261380032233,4,left
8.693,0.16026409622308924,0.9300709177130938,-0.0687417019860984,1.3894095923081222,0.744998905633697,-1.0968180732971,-0.21081214452749167,0.16271523314215425,0.9103590667663464,4,left
8.693999999999999,0.18651950301121595,0.9241822666980963,-0.06447542722185802,1.3813528382321023,0.7449477254505368,-1.0952367075451614,-0.2105668523710822,0.1591712924466493,0.9068798379734305,4,left
8.697000000000001,0.20843153092529132,0.9188160372229013,-0.05821425146952323,1.3819070838323109,0.7412251341778353,-1.0936914661219042,-0.2107850450572955,0.16204192708102316,0.9097718340569134,4,left
8.698,0.22602409336411025,0.9135231705350066,-0.0558584315201633,1.3933167202578312,0.7507302112437022,-1.1001180887280615,-0.21075847770850548,0.16209996902409607,0.909713008160457,4,left
8.702,0.23946373085130668,0.9108864634620686,-0.055651174350789354,1.3688892227261806,0.7347065823957708,-1.0882795788066648,-0.21039739279045383,0.15626531178745195,0.9041467771890258,4,left
8.702,0.24675605006790688,0.9089859109975609,-0.05140093164627989,1.4014322091243554,0.7547037141063451,-1.1034515938481457,-0.21131476547994218,0.17040964271870773,0.9177998315952307,4,left
8.707,0.24928101514621587,0.9053325898745802,-0.04486090214731554,1.373768160682335,0.738253245300526,-1.0907983669559158,-0.2097824623701402,0.14703218956542335,0.8951729378469988,4,left
8.708,0.25112114832994337,0.9047651411751854,-0.04244128131264949,1.375278666601144,0.738322484364267,-1.0911197553385044,-0.21180762772958145,0.17783943538471816,0.9250140254764898,4,left
8.712,0.25029530308534975,0.9059248665222712,-0.04037410360008276,1.426000875946229,0.7706903468284103,-1.1153023454298392,-0.22029233640653564,0.3072614039309901,1.0502858688601475,4,left
8.713,0.24866539611286512,0.9020080691418557,-0.03526853973767416,1.3002334284150079,0.691677814465727,-1.0558964740424028,-0.2223181485326266,0.33806223810601266,1.0801268477330477,4,left
8.714,0.24381864303191153,0.898204620496087,-0.024269050831404862,1.5091718706793922,0.8224791828381239,-1.15438008365481,-0.22078277487670123,0.3147082929050432,1.0575020706377825,4,left
8.717,0.23666025861251622,0.9000611293071645,-0.012999123817590925,1.2334396793905062,0.650027004868572,-1.0244883129808506,-0.22170827881597607,0.3287965673692661,1.0711480893355778,4,left
8.718,0.23460825428413715,0.9012053475027996,-0.008661089390661698,0.07655799568612204,-0.07412773235318934,-0.47920963390124216,-0.22133220302855244,0.32305990456958134,1.065596065114622,4,left
8.718,0.22716732512138332,0.9010584740030605,0.0014655904582838604,-0.19918663888340354,-0.2465678055078026,-0.34932493903821615,-0.22132632495191273,0.3229879377980225,1.065516423295667,4,left
8.722000000000001,0.21416169996143786,0.9037816872827955,0.014258994310047114,0.009854075312983865,-0.11582309906384279,-0.44779875095627303,-0.22152411285618517,0.3259802581405703,1.0684304579162456,4,left
8.724,0.20253671986936683,0.908262541313893,0.019405930839051073,-0.11622281612598592,-0.19468630299819786,-0.3883975553989617,-0.22128757373012806,0.3223959858147785,1.0649390352619832,4,left
8.725,0.18728498976031435,0.9149982360487763,0.019361131581863193,-0.06489675947994751,-0.16259312181561253,-0.4125898973759466,-0.22147157557007263,0.3251852895347997,1.0676591166667713,4,left
8.729,0.1738343901318546,0.9226562475886372,0.013704272853498541,-0.06425226718530631,-0.16214539718723078,-0.41287985335799876,-0.22137241032334415,0.3236790097986111,1.0661927475978166,4,left
8.73,0.1625020750074756,0.9305636228020857,0.006248175083788328,-0.09102148428994325,-0.17896838707212195,-0.40028006051737786,-0.22139531367244836,0.3240374480291806,1.0665239296511742,4,left
8.734,0.15120506190134544,0.9426247918743729,-0.003302472845444688,-0.05893630778576907,-0.15881283550722763,-0.4153884160399625,-0.22142078255902342,0.324398262410225,1.0669234656374087,4,left
8.735,0.14430104854001574,0.9556231037815993,-0.012887378652407973,-0.08397080642079578,-0.17451015371286177,-0.40359677990420506,-0.22137679993833742,0.32377270387864854,1.0662319885355074,4,left
8.738999999999999,0.14038901220017613,0.9662434002800138,-0.022051216222536085,-0.07031419927799423,-0.1660505167196269,-0.4100333519686882,-0.22141754349476256,0.3243402420441255,1.0668863566270903,4,left
8.74,0.14305350226008717,0.9761047991611645,-0.03434012052315853,-0.07380874826964064,-0.16796997677155573,-0.40837913262099956,-0.2213905088747551,0.323970172928493,1.06644463902344,4,left
8.744,0.14967425396901568,0.984934308305638,-0.0399764851369113,-0.07669990940768268,-0.17023981362833332,-0.4070292141047297,-0.2214030584855973,0.32416176266058666,1.0666293489470349,4,left
8.745,0.155942004848714,0.993406600297864,-0.042088865274342774,-0.07134745303399653,-0.1663236619501357,-0.4095369698081255,-0.22139997424205204,0.3240379981955166,1.0666641554574583,4,left
8.749,0.1657238747201567,0.999728010630076,-0.048781937615355556,-0.07648817500473418,-0.1699930186560079,-0.40712567508415143,-0.22140014073991074,0.32421561716709496,1.066482922837376,4,left
8.75,0.17547399197363572,1.0031994847086798,-0.0565390098543504,-0.07257852359916842,-0.16755177811076322,-0.4089676793504911,-0.22139828406918532,0.32392637969267474,1.0667296624730482,4,left
8.753,0.18546555517659907,1.0059619678354794,-0.06725993265178103,-0.07555471493056194,-0.16856914298279344,-0.4075466561393044,-0.22140238526277956,0.3242669923301841,1.0664979886111803,4,left
8.754,0.19487119083463733,1.0081583096749092,-0.07865313999753598,-0.07264804001168654,-0.1686808425740528,-0.4089588188580705,-0.2214000555794342,0.32407060345556704,1.0666321540898178,4,left
8.758,0.20313268455023886,1.0090438603727878,-0.08737823537604436,-0.07605198449284176,-0.16793052511904136,-0.4072916960434758,-0.22139327159865407,0.3238293646018358,1.0666784010694816,4,left
8.759,0.21763721457149193,1.0069545568597045,-0.0966744744019839,-0.07259647147118575,-0.1688390518164425,-0.408987022531227,-0.2214167324702898,0.32479183973164305,1.0663862342111596,4,left
8.763,0.23538086491675908,1.0033989759027073,-0.10357781887713816,-0.07431928609906263,-0.16814267911633127,-0.4081367179521974,-0.22137358060933077,0.3230117025061996,1.0669324438181302,4,left
8.764,0.2561047483775606,0.9981540616431224,-0.10287525176155134,-0.07716200059314521,-0.16839174039346522,-0.4067634666113797,-0.22142932480158936,0.3253032886753864,1.0662369450391855,4,left
8.769,0.2800131341580423,0.9906375085082715,-0.0977472847800003,-0.06694218192027977,-0.168691716740056,-0.4117254647451999,-0.22138269610873296,0.3233876574813312,1.06681481009233,4,left
8.77,0.3018028138740545,0.984848880682433,-0.0943725977245432,-0.08549495829553178,-0.16788487929568735,-0.40271250414816806,-0.22138325159485944,0.32343146711117243,1.0667922032202457,4,left
8.774,0.3226433134004344,0.9802905181238101,-0.09595706446738246,-0.06176082305564496,-0.16897660707060735,-0.4142432134125726,-0.2214747955774845,0.32711758966893956,1.0657206777523756,4,left
8.775,0.3400155451884207,0.9768305792849903,-0.09845477857174267,-0.08154102069126182,-0.16804334086508033,-0.40463386792396205,-0.22125057380775232,0.31806421422044273,1.0683592193270783,4,left
8.777999999999999,0.354113872568664,0.9784939037921413,-0.09383368346303037,-0.08114044894866618,-0.16815382274647897,-0.40482832487128406,-0.22162210760978007,0.33307504920732967,1.0639853936374248,4,left
8.777999999999999,0.36247770731184314,0.9821374165967764,-0.08950602571864417,-0.04297671890589869,-0.1696517639663756,-0.4233670014599875,-0.2211321404963798,0.3132744541147825,1.0697523003727052,4,left
8.779,0.3641462510593796,0.9832869868183732,-0.0891787880552925,-0.13662405556583468,-0.16587155204668452,-0.3778782771208238,-0.2190679291696097,0.2301263963152166,1.0939484628122567,4,left
8.783999999999999,0.3713924787883838,0.9860929218870431,-0.08043447295295118,0.01861297614533579,-0.1721623317032922,-0.4532811145487159,-0.218577536697577,0.21032227683616472,1.0997128206549507,4,left
8.785,0.378401880088551,0.9890782998079025,-0.0714576678099112,-0.18614857377170885,-0.1638663250965602,-0.3538262410425121,-0.21895042968816858,0.22534045928200414,1.0953421862417554,4,left
8.789,0.37756815582018854,0.9887624186792944,-0.07084690254282985,-1.0457417450122344,-0.12912841508253955,0.06372339500164198,-0.21872319874629315,0.21627601550923675,1.0979802410630408,4,left
8.79,0.3803447664055888,0.9909784009297922,-0.06691184434055408,-1.2505343978131658,-0.12084930401295832,0.1631874109626805,-0.21881978071332522,0.2199752977225357,1.0969027336995536,4,left
8.79,0.3859677284415459,0.994741853797178,-0.060839577634106135,-1.0952637034954766,-0.12712180974772172,0.0877746832747974,-0.21881388185588943,0.22000803425081755,1.0968951126532316,4,left
8.793,0.38527098427039774,0.996529490298937,-0.06065003691657365,-1.1888982816193328,-0.1233346243700628,0.13325964102622784,-0.21877299628042138,0.2180944756801426,1.0974497975825448,4,left
8.794,0.3805556331849323,0.9990334982262221,-0.06347146569911258,-1.1508460933236813,-0.12489324499436294,0.1147537849131364,-0.2188274072377021,0.22040124073478115,1.0967794970657982,4,left
8.797,0.37733145976773325,1.0017694018575631,-0.06294191636347474,-1.150205470323912,-0.12487319653893923,0.11448871683918985,-0.21877668650689513,0.21858253421222745,1.0973109046119993,4,left
8.798,0.37350136846849574,1.0041453412954515,-0.060568802241182086,-1.1703298968705673,-0.12412706108247835,0.12419929933529425,-0.21882005834251989,0.2196057578318722,1.0970061555231378,4,left
8.802,0.3672132934000275,1.0068430951144003,-0.06111046233924732,-1.1462529263692223,-0.12503247474809404,0.1125677854102443,-0.21878142023393735,0.21929576187681465,1.0971085089701766,4,left
8.802999999999999,0.35983664855231323,1.00974794285532,-0.05934494602098153,-1.1649537321341432,-0.1243059744215344,0.12162422970525977,-0.21881564820602778,0.2191457884628608,1.0971371633405016,4,left
8.807,0.34826409779900597,1.0117898317056544,-0.05442222410461158,-1.1550280743517896,-0.1247660652386826,0.11674882055331746,-0.21879434923380237,0.21950595522218863,1.0970443534565526,4,left
8.809,0.3317520053921854,1.0118511909417964,-0.05231421578191701,-1.156922810310009,-0.12449956784012414,0.11784319120233498,-0.21878366039437194,0.2190868214960966,1.0971663963609601,4,left
8.812000000000001,0.3126472642949455,1.0121015008110699,-0.0523520342612343,-1.160279261254633,-0.1246914024777414,0.11917399247863708,-0.21885070498307285,0.21952642212938617,1.0970162176725209,4,left
8.812000000000001,0.2921176409808021,1.0122928060586653,-0.05655112294308802,-1.1548186231019177,-0.12451000556063112,0.11688900414951617,-0.2187103888057807,0.21904003824105117,1.097208706285987,4,left
8.817,0.2731589926563405,1.0127288107942842,-0.06549912146121703,-1.159821514191216,-0.12462843420134274,0.11902619183578653,-0.2189151521107383,0.2195830882441223,1.0969745882399096,4,left
8.817,0.2574275613491454,1.0145470693060459,-0.07360546345047585,-1.1569282503303646,-0.12474832168155911,0.11761831492238918,-0.21869856873132454,0.2190710290637583,1.0972048009231679,4,left
8.822000000000001,0.24411423059238418,1.0143031067816022,-0.08179042635578596,-1.1569391424493278,-0.1241524999867358,0.11816679992621486,-0.2188225310796172,0.21932202156603603,1.097084705760805,4,left
8.823,0.23362679467215192,1.0133642433416203,-0.08887473287679233,-1.1598077050113524,-0.12539711887788246,0.11831866010930461,-0.21893305639444896,0.21967788989471912,1.0969410004268196,4,left
8.827,0.22713167399062129,1.0116175959257718,-0.09024891045839989,-1.1548352177455747,-0.12356841873934285,0.11775557363232438,-0.21845616684730157,0.21837790317450928,1.0974958860862492,4,left
8.827,0.22133280267374242,1.0066033120042834,-0.08535958817722916,-1.1602651669868624,-0.12551253716442062,0.11841840700994347,-0.21933887004907243,0.2207277933282975,1.096484209371555,4,left
8.831,0.2135664995697184,1.002485069157673,-0.07701623434754411,-1.1569238055561002,-0.12439769503731377,0.1179366754305556,-0.21820616452376101,0.21773255389410806,1.097777179914345,4,left
8.832,0.2076615180435465,1.0004367592581889,-0.07456609896806216,-1.1550533510936907,-0.12339508946784761,0.11801094824658037,-0.21915130267130986,0.22022350501120955,1.096700004321008,4,left
8.836,0.20250688893983662,0.9979952113886676,-0.08107682918277684,-1.1648925736943199,-0.1277145638833405,0.11848683745125907,-0.21912670286917824,0.2201712078708292,1.0967260082162325,4,left
8.837,0.1960151409347773,0.9945636981493274,-0.09237478544303745,-1.1463470593800187,-0.11971677170233846,0.11746013262467404,-0.2173220691540145,0.21538147210868464,1.0987886102157676,4,left
8.842,0.19265367439818387,0.9933367388260259,-0.10293497762837925,-1.170227660249893,-0.12998296575587828,0.11881027113158542,-0.2217558546273456,0.22713167054714462,1.093722970618494,4,left
8.843,0.19093490805226293,0.9946446550515553,-0.1084794170230593,-1.1502633485000555,-0.12141429950713889,0.11767099077502202,-0.21440559403790188,0.20765843677317175,1.1021212954801607,4,left
8.846,0.18996610211916437,0.9949799143901739,-0.11154134855242001,-1.1509088229478066,-0.12163977085115751,0.11774988498560358,-0.2240995096028351,0.23333934569526169,1.0910432330066282,4,left
8.847000000000001,0.19056992436640996,0.9955636371990005,-0.11129372920618649,-1.1886329378061542,-0.1379976787274999,0.1197624546785592,-0.26480099334156626,0.3411613942022733,1.044557559843048,4,left
8.847000000000001,0.1930840026967073,0.9968813676423824,-0.11240123424304453,-1.0957868611754602,-0.09780144575047958,0.11476124138691128,-0.27449328418029195,0.36683955676450775,1.0334770580991828,4,left
8.852,0.2041748748409985,1.0012143996416183,-0.11746447221676959,-1.2497632241029508,-0.16444390814474918,0.1230650672177854,-0.26714482178633203,0.3473709422942367,1.0418775416808574,4,left
8.853,0.21380244554825184,1.0066068812480005,-0.11808674005536843,-1.046664908843356,-0.07654640678082619,0.11211492786897184,-0.27157913291021746,0.3591164338586805,1.036814607455662,4,left
8.856,0.2172547970198283,1.0076446808869188,-0.11689076317386787,-0.19433207470681396,0.2924480183028631,0.0661811553855191,-0.2697689628835981,0.35432887525714485,1.038864947143195,4,left
8.857000000000001,0.23028323028881253,1.0120770927663072,-0.11500200375738551,0.008756551755591,0.3803403429564514,0.05524359834691795,-0.2697564719791097,0.3542799327766253,1.0389149913385891,4,left
8.857000000000001,0.2472656517666397,1.0204182065868972,-0.11313952248136253,-0.145209334651344,0.31370348048377594,0.0635338109760025,-0.27068409084476575,0.3567596378092628,1.0378052231531016,4,left
8.86,0.25986294023432066,1.0263942960059862,-0.11733382134880285,-0.05235924945152903,0.3539018469741978,0.05852742002228183,-0.26956902769930646,0.3537836365075623,1.0391283054204434,4,left
8.861,0.27025509505870343,1.0328115140784655,-0.12279208599077591,-0.09011818092808839,0.33752535365628966,0.06058514632874045,-0.2704437530335634,0.3561102969633446,1.0381079882015785,4,left
8.866,0.27559874571910026,1.0386871722374962,-0.1285245345371682,-0.09068877293984418,0.3373398666288835,0.0605668806025524,-0.2699525559822177,0.3548281897021604,1.0386269881971923,4,left
8.866,0.27531019808634016,1.0430576219181789,-0.1372821693073364,-0.0708318034584002,0.3458512071696465,0.059566907705654426,-0.27011061862143126,0.3551856435160152,1.038581627828312,4,left
8.871,0.2695240966929284,1.0450111890988518,-0.14764154700461588,-0.09460554374899728,0.3356420929499479,0.06077832527383554,-0.2701518496122044,0.3554003062503047,1.038301874938658,4,left
8.872,0.26066147384748417,1.042066451091398,-0.15851837185838052,-0.07610608223438449,0.34361526479640214,0.059811475557565816,-0.2700376719607573,0.3549685160758438,1.0387176249681473,4,left
8.876,0.2504857391972542,1.0376207272527451,-0.16385726284025529,-0.0860371953022556,0.3392467555409184,0.060406486994734415,-0.2701594871870454,0.35539425596916097,1.0383511307153628,4,left
8.877,0.2395838362085797,1.0334386088594414,-0.1607939247967175,-0.08387095668925591,0.34040728185835467,0.06009703603864747,-0.27002143711646354,0.35502958124701434,1.0385066530614662,4,left
8.881,0.2298635822744152,1.0287354360989929,-0.154064900623254,-0.08103911850627069,0.3412500392973383,0.060276475386741094,-0.2702355159436284,0.3554052271091769,1.0386842392740245,4,left
8.881,0.22006106844104864,1.0239777328998536,-0.1490360462386207,-0.08584388795475364,0.33963981640896695,0.06012788759029966,-0.269883356229107,0.35490969037699893,1.0381221135240157,4,left
8.885,0.210835384487633,1.020303925990192,-0.14532169157137823,-0.08136962553606908,0.3412023497174853,0.06021170315085904,-0.270375837779778,0.35556199091235474,1.0389980351027268,4,left
8.886000000000001,0.2023577371565265,1.0189317654336723,-0.13907052158253264,-0.08424308534371278,0.3399552878803067,0.060369333200850944,-0.2698570329467921,0.35488285178512513,1.0380574779998786,4,left
8.89,0.19326055061641906,1.01921034278672,-0.13484754265842544,-0.08332835502851463,0.34104520773034797,0.05971732756556124,-0.270147016158231,0.35524964066580894,1.0386116654678126,4,left
8.891,0.18588900865070507,1.0196692496773636,-0.1319690062222061,-0.08254961642376069,0.3397962703206549,0.06105296217820501,-0.27044519848972026,0.3556926005422725,1.0390356918335193,4,left
8.895,0.17932780088173714,1.0204349368601093,-0.1240714117138359,-0.0843986451422957,0.34136209776365956,0.059097283191190564,-0.2692193195892532,0.35396160305923186,1.0370924818798741,4,left
8.896,0.1718587169413423,1.0235645571554235,-0.11818451366893162,-0.08229928266368561,0.33974816341406305,0.06117538041121366,-0.27147823982322083,0.3571341978890181,1.0407115228876211,4,left
8.901,0.16526261566721967,1.0270464979825715,-0.11493792379577042,-0.08371500999663395,0.34059344408775144,0.059985234121780404,-0.2685812039680944,0.3530689720080717,1.03606166171472,4,left
8.902000000000001,0.15911959476672155,1.0281323302935235,-0.10900946499579062,-0.08393229680532571,0.341754687342963,0.05890631618335735,-0.2709979857514552,0.3564592147727678,1.0399439176775034,4,left
8.906,0.15206542707725795,1.0312729292493847,-0.10516967559844961,-0.08133851081784838,0.33738028985487156,0.06354190242546348,-0.2709387080267447,0.35638097464610546,1.0398358682990634,4,left
8.907,0.14292448930185558,1.0359766570886293,-0.10197825088701974,-0.08644619736259818,0.3453652727913583,0.05496025830403194,-0.2663113355223495,0.3498725340876534,1.0324452776057877,4,left
8.911,0.13105950360137547,1.038896506176107,-0.09607294073316816,-0.07981960096278917,0.3351402545913047,0.06597675824978158,-0.27767659363752994,0.3658531422666529,1.0506117007672386,4,left
8.912,0.11603796083019086,1.0433928184904466,-0.08894397360104278,-0.08538118737370484,0.3436659019298943,0.05677989266876916,-0.2588358355355672,0.3393612654723924,1.0204933079860763,4,left
8.915,0.10423646821138526,1.047302292058765,-0.08262413925013115,-0.08512184476864537,0.343477641694453,0.057025983410591945,-0.2836847077361866,0.3743028607974764,1.0602153527208407,4,left
8.916,0.10052465299167782,1.0484649800210761,-0.0799408318695664,-0.07486875830040143,0.3270795832502162,0.07457435105291588,-0.38801606873984923,0.5209970084019131,1.226986983910073,4,left
8.917,0.09022948859022464,1.051640539454724,-0.07737145265557607,-0.10020296439881649,0.3673358477795948,0.031443493413481606,-0.4128624466187537,0.5559390242587827,1.2667015227917777,4,left
8.92,0.07153232885929643,1.0578675915403268,-0.07111607412964316,-0.0581567291450634,0.3005990859753266,0.10295933338502045,-0.3940243869306927,0.5294466909494956,1.2365912488974762,4,left
8.921,0.06300709564042958,1.062909652448739,-0.06621984545733267,-0.11362891920696411,0.38862752607355194,0.008625230052157463,-0.4053906724313634,0.5454271314915717,1.254760767593861,4,left
8.924,0.05969560146446344,1.064146088991774,-0.06488498798221726,-0.3462671392121152,0.7581678083538085,-0.3873212336434787,-0.40075434607647087,0.5389201890183363,1.247343225042799,4,left
8.925,0.04881683415045497,1.0669259524883157,-0.05923522641884106,-0.40175511670946173,0.8462123584610997,-0.48166964199014156,-0.4007143323207026,0.53883871812383,1.2472931564221263,4,left
8.925,0.03765086846881997,1.0734172141549898,-0.05113809115822497,-0.3596778612324363,0.7794531619011664,-0.4101317829593505,-0.4031034945790549,0.5422335991174849,1.2510922874029529,4,left
8.929,0.0306405972067945,1.0782027111624612,-0.048349857287754594,-0.3850549440060296,0.819720524295217,-0.4532799259660358,-0.40023396063569655,0.538163747079205,1.2465251917960631,4,left
8.93,0.02416857990395832,1.0822112042774692,-0.04930162824432374,-0.37475672962106554,0.8033437368280978,-0.4357351265372952,-0.40248101685038074,0.541338351843942,1.2501085387639588,4,left
8.935,0.019750646934768745,1.087149406069487,-0.05335234469386284,-0.37452648446665215,0.8030852942241867,-0.4354494441454648,-0.40123151586785805,0.5396112950188376,1.2480942161014281,4,left
8.935,0.018774126330350034,1.0897210092939056,-0.05557845323480132,-0.3801007951795467,0.8117311165518407,-0.44472862782569034,-0.40160578131046754,0.5400415061177467,1.2487472455678885,4,left
8.941,0.015991472365277037,1.0920579392954415,-0.05481550581724291,-0.37339351849994556,0.8013620108903403,-0.4335982380222846,-0.4017646759211486,0.5404302927933955,1.2489068912559884,4,left
8.942,0.011324727774269284,1.095928468789747,-0.05611504275594646,-0.3786623153808325,0.8094545112398721,-0.4422882977788837,-0.4014067435167487,0.539724123820368,1.2484504931793519,4,left
8.943,0.010972653340836898,1.0979300427652006,-0.05414086622054423,-0.37584677538790445,0.8050993496317767,-0.43761392159517765,-0.4017709790087769,0.5403980231884971,1.2489404835842324,4,left
8.943999999999999,0.012059994024249673,1.0994284972520063,-0.05086691186872383,-0.37627774084861554,0.8060188740037528,-0.43858282683128075,-0.40141765520693584,0.5399025653941043,1.2483747717279092,4,left
8.951,0.012317643072409212,1.1017470917868046,-0.05440682716530325,-0.37760946805835177,0.8073826776241348,-0.4400958993791985,-0.4018697734855635,0.5402383899584979,1.2492688810625323,4,left
8.952,0.015642438919211896,1.1039965659071505,-0.06142158178301488,-0.3753114866084174,0.8050240600944101,-0.43747989327997405,-0.40118776258284994,0.5399649261722321,1.2477871761802666,4,left
8.954,0.02203281626086121,1.1057706142154775,-0.06924607836778873,-0.37776944750239727,0.8073453626804845,-0.44007588657403374,-0.402121048155177,0.5402544289191777,1.24986294541679,4,left
8.955,0.03046832973637996,1.106646046357922,-0.07928907316076483,-0.37595912165287926,0.8057308278055959,-0.4382592680369048,-0.4011418615656127,0.5399680734085239,1.2476754460018316,4,left
8.959,0.04175169160327632,1.1086292542417076,-0.09048630080783848,-0.3762929174969612,0.8062727788567894,-0.43883931479816984,-0.4016828240458606,0.5400983584796073,1.2488993852060764,4,left
8.96,0.055899728724524936,1.1114535460907442,-0.10220404888031198,-0.3781948352294692,0.8069536342883615,-0.43972927804432044,-0.4022718966520108,0.5403841616436128,1.2501517280269927,4,left
8.963,0.07189791953909483,1.1143408887119801,-0.11286720710472826,-0.3736605622147823,0.8050980950401897,-0.43737423657418273,-0.3998948746361028,0.5394179130804602,1.2449944754333044,4,left
8.964,0.0895208682369602,1.1182560243284145,-0.12368185321877226,-0.3803802442488228,0.807796180757538,-0.4408126863950088,-0.4042666825923358,0.5411578631640512,1.2544995323942263,4,left
8.968,0.1068882362957333,1.123688633513532,-0.13423520937172956,-0.37327592398157383,0.8050128860272473,-0.43724649650835756,-0.39866139065329387,0.5389361652785587,1.2423088025895166,4,left
8.969,0.12182923910566862,1.1283852374432153,-0.13754854848132592,-0.37738023910369867,0.80662127345683,-0.43930779672250336,-0.4033373899291657,0.5407847679185166,1.252479157454088,4,left
8.974,0.13296446653631167,1.1349863798906896,-0.14075495560580548,-0.38079274856908424,0.8078051578556404,-0.4408658938736775,-0.40322410533246683,0.5407560789229996,1.2522282481158924,4,left
8.975,0.14080964458644482,1.1441741958939797,-0.14705720122706872,-0.36569849093059215,0.802363679493217,-0.43376445741467107,-0.3942649423773997,0.5371643248974289,1.2327592059326369,4,left
8.979,0.14654092730943594,1.1519527028939365,-0.15349362280617435,-0.3936960609839075,0.8124659724778882,-0.44694745465123653,-0.4162692626979194,0.545964215348868,1.2805794661385215,4,left
8.98,0.14953011662997617,1.1685022451045617,-0.1705855434119115,-0.35775966086071304,0.7995133190942565,-0.4300388899204049,-0.37978994126863463,0.5313845183614221,1.2013038619055756,4,left
8.984,0.15229054981672635,1.181350790628053,-0.18341862537009795,-0.3877517304305129,0.810315902415717,-0.4441455088037676,-0.4279046615842306,0.5506090691070804,1.3058610187574398,4,left
8.985,0.15090861965953933,1.1850693437975677,-0.18638301235104507,-0.38693686198209054,0.810009331317359,-0.44374332304368735,-0.6298953617126972,0.6313931399710745,1.7448415368615742,4,left
8.985,0.14587546284742983,1.2034462271188553,-0.20148984678777349,-0.3297808300783626,0.7894852856745441,-0.4169368610833553,-0.6780100074167498,0.6506105930258912,1.8493904840895545,4,left
8.987,0.14238758216121933,1.227743834345104,-0.21684719099313104,-0.47025240237483296,0.8399322664125459,-0.4828358187922017,-0.6415307656932014,0.6360385804282102,1.770123761445205,4,left
8.988,0.13367032021768785,1.2570488089527871,-0.2204347770477324,-0.23736121687613979,0.7563017654753941,-0.3735782133086788,-0.6635351203254636,0.6448413732827731,1.8179474022927717,4,left
8.994,0.12740309563539237,1.2804094454201613,-0.22062846488648574,-0.5445240521726045,0.8665933836498249,-0.5176786661654273,-0.654575682157299,0.6412241841452986,1.798448891762359,4,left
8.995,0.1262467623650104,1.2868069975291494,-0.22134593779032125,-1.8339855814724373,1.3296146059235747,-1.1225257144996645,-0.6544629847446171,0.6412502471129983,1.7982613839083195,4,left
8.996,0.11499925709846215,1.3129804740016264,-0.2220010927827257,-2.1411169026449515,1.4398796590243048,-1.2666111343276978,-0.6591381460982677,0.6430203264447343,1.8083408366198914,4,left
8.999,0.0980445289538643,1.3511170246242439,-0.2162389953781007,-1.9082623404378742,1.356281909515917,-1.1573740770424226,-0.6535336835826375,0.6408768464980006,1.7962406230029035,4,left
9.0,0.08178805163236585,1.3841225426318533,-0.2061662867063077,-2.0487379296559247,1.4067256189710924,-1.223264048699476,-0.6579051428917326,0.6425830003573674,1.8057066301933071,4,left
9.003,0.06253468829943984,1.4220908607559453,-0.19647720390147988,-1.9914872506044394,1.386135514566884,-1.196434913584631,-0.6555273873627467,0.6415496925877348,1.8004716357966215,4,left
9.004,0.04003819749588036,1.4572217036378117,-0.18704027377916643,-1.990888355344543,1.385990638263893,-1.1961024082089886,-0.6561187862126887,0.6420516967006207,1.8019743813597842,4,left
9.007,0.014359578564140434,1.4940994784483514,-0.17464792128387424,-2.0205608930033367,1.3965457227604006,-1.2100923892476976,-0.6566557612563486,0.64180935371366,1.8027668804874923,4,left
9.008,-0.013306736256173509,1.5326839557001266,-0.15373370716966903,-1.984955009427507,1.38385909004061,-1.1933208703312954,-0.6556814461886851,0.6419804174733157,1.8011088509711777,4,left
9.012,-0.03840872913816462,1.5658719699063157,-0.1293931653306778,-2.0127870711005293,1.3938102693332441,-1.2064059242388798,-0.6566108809013143,0.6419050774418582,1.8027625240828344,4,left
9.013,-0.05811589001962496,1.5972497721776997,-0.10771666163177143,-1.9974617567531612,1.3882240744348815,-1.1992762380217257,-0.6559287598344248,0.6416287444758845,1.8012770050254998,4,left
9.017000000000001,-0.07459442684041803,1.6266916105141362,-0.08779270660119409,-2.001709326404019,1.3900181469632464,-1.201079182262402,-0.656388198268721,0.6426407442587181,1.802954533952846,4,left
9.017999999999999,-0.08469914778634108,1.656010040647574,-0.07041677721681464,-2.004323279992756,1.3904934092954297,-1.2026312752258805,-0.6560182830847713,0.6405993078725427,1.8005985432524123,4,left
9.023,-0.08677927175561984,1.6874790071773602,-0.06052047166153546,-1.9991027030120727,1.389187531556922,-1.19978272289707,-0.656407159890233,0.6435801120873119,1.8037592623322896,4,left
9.023,-0.0918562989736473,1.7235822209104188,-0.061719482541396226,-2.0042388887185174,1.3905781355975715,-1.2025105766394182,-0.6560230944700742,0.6404140462314993,1.8004558975663436,4,left
9.027000000000001,-0.10503467593187789,1.7651741253756859,-0.07055639225818366,-1.9998785021627008,1.389009249363492,-1.200467868757189,-0.6561968574443178,0.6422253086117726,1.802260340400312,4,left
9.027999999999999,-0.12671565874704221,1.811193572599211,-0.078144123768349,-2.004287769186198,1.3914322383908555,-1.2019456029521756,-0.6565846668038552,0.6438781435580591,1.8043318148930991,4,left
9.032,-0.15798645211293952,1.8623499778145756,-0.07660492063971443,-1.9985502999658733,1.3874515360776427,-1.2006041491887078,-0.6552774201489964,0.636792756828287,1.7961109344780288,4,left
9.033,-0.1974235218339678,1.9167871996391874,-0.06775156755231579,-2.0060709465811124,1.3930182473534714,-1.2021179216562463,-0.6576309304644199,0.649907578636122,1.8112038950100762,4,left
9.037,-0.25082692337851886,1.9715783307688401,-0.05433054001274332,-1.9982463243356576,1.3871517501074948,-1.20059486040426,-0.6546253362916405,0.6330708766262462,1.7918583960421803,4,left
9.038,-0.3158277880829034,2.0230905728121056,-0.034629099496578226,-2.002463490787377,1.3904346809423802,-1.2013317176373044,-0.6571271603142415,0.6471287545863659,1.8079945413671972,4,left
9.041,-0.39576801788978555,2.070055564058114,-0.009555684324353688,-2.0076073756219603,1.3937988359727813,-1.2026765131474382,-0.6570862501100527,0.6467480095964795,1.8076122468597342,4,left
9.042,-0.48962121325035496,2.110132316940193,0.02294346066211699,-1.9875619702591825,1.379945603382505,-1.1979522310876014,-0.6522299396705864,0.619934441367068,1.7766664407648556,4,left
9.046,-0.5811643751036779,2.1349112096914244,0.05791061139776542,-2.0242940600892654,1.4054843947574054,-1.2065042474692063,-0.6641325616768863,0.6858476666578412,1.8526621233522453,4,left
9.047,-0.6752887769235107,2.141940960656979,0.079977143999016,-1.977223445749068,1.3727187155121392,-1.1955694700062913,-0.6444085376514106,0.5765481193254429,1.7266760293897958,4,left
9.051,-0.7335449580642084,2.1418787849441943,0.08678070804876045,-2.0164876379324466,1.4000717462302772,-1.2046803002325086,-0.6704201701791732,0.7207289230156789,1.8928476805060206,4,left
9.052999999999999,-0.7468183596006892,2.1407506881284064,0.08622688275563706,-2.0155618187475435,1.3993558609953336,-1.2045044538163117,-0.779680786724489,1.3257625748771698,2.5904512944986435,4,left
9.052999999999999,-0.7827492913215015,2.133991133341193,0.0758999474630245,-1.9402278832878614,1.34709262399367,-1.186897824200392,-0.8056893450142839,1.4699706905388792,2.7566262375217883,4,left
9.056000000000001,-0.8212412280557883,2.123029724691847,0.056158259686766285,-2.125242501714733,1.4755442384307627,-1.2300912175735275,-0.7859686481853727,1.360641595915928,2.6306365856386478,4,left
9.057,-0.8327603484121116,2.1116783731154882,0.04513171683081678,-1.818502470630774,1.262541683372643,-1.1584936800349324,-0.7978725314229076,1.4265435737380838,2.7066309004965596,4,left
9.062000000000001,-0.8399801455172988,2.10509025802304,0.045415382950616284,-2.223105988269519,1.5435205568615034,-1.2529311136371617,-0.7930051957518627,1.3998280428856058,2.675696935720724,4,left
9.062999999999999,-0.8397304779467845,2.103031755674656,0.047468730120486524,-3.9210892391786607,2.7220795998140948,-1.6493661497785221,-0.7929880129440059,1.3992363702861057,2.675289181218461,4,left
9.064,-0.8385090789658836,2.0967490044599613,0.06115518754032877,-4.325692253735728,3.003031665601764,-1.7438104198853503,-0.795455812516658,1.4135966658833237,2.6914618165199187,4,left
9.067,-0.8422297122616597,2.089507254589682,0.08713423192964798,-4.019023390796877,2.790175434632863,-1.6722142034474725,-0.7924841048143858,1.3964588312064894,2.6720799992509523,4,left
9.068,-0.8471718955721075,2.0834928781492925,0.1169466504924283,-4.203788064718095,2.9182225300426134,-1.7153739051372836,-0.794822984053443,1.4097035635506305,2.6871885968442237,4,left
9.072000000000001,-0.8508664305559883,2.073165155972219,0.14205844235107928,-4.128968035395486,2.8667197806173013,-1.697855469930106,-0.7934866610218463,1.4028768151301307,2.6789989808361367,4,left
9.073,-0.8443075676962205,2.056175612443686,0.14418734888801102,-4.127281008649763,2.8649399354185947,-1.6975323901990493,-0.7939681717846963,1.403696594865334,2.6809698773439306,4,left
9.077,-0.8165041072814666,2.031561847718523,0.12359760347418469,-4.1673607866510505,2.8933602594857506,-1.7068202746959906,-0.7939804615782176,1.4069431947173132,2.6829475445492723,4,left
9.077,-0.762972081587582,2.0013098669753138,0.08622652079628082,-4.119822557574745,2.860104124064428,-1.6957517177206292,-0.7937945873071746,1.4020156647290882,2.67943167044412,4,left
9.08,-0.6975008550404596,1.9666527768468904,0.03844806143065823,-4.15611662047859,2.884791716347059,-1.704282481765017,-0.7940254221265783,1.4064007110924979,2.6827616921243,4,left
9.081,-0.6208968826833297,1.9299869892566326,-0.0012258577223597704,-4.137946997394704,2.8738086359193815,-1.6998550563878814,-0.793654177770929,1.4043719778885,2.680407486643042,4,left
9.086,-0.5252325785329692,1.8907354034037556,-0.030189546339833978,-4.139584717830889,2.8721404376882314,-1.7005566673579948,-0.7944067186251403,1.4027776414145208,2.6817702005268647,4,left
9.087,-0.42074740683056366,1.8454374740737383,-0.041149635232386836,-4.148403265565008,2.881702393527328,-1.7022240197289724,-0.7930546172935529,1.4084573104561295,2.6810036369626618,4,left
9.09,-0.31438289382375584,1.7951001607859887,-0.024446452593478225,-4.136460853203483,2.8706703521112114,-1.6997477784043797,-0.7949836689931697,1.399496858049067,2.6815851474304777,4,left
9.091000000000001,-0.2092341237466604,1.7395822316798024,0.007461068042568221,-4.144979474625146,2.876559580552205,-1.701739422026227,-0.792943597110263,1.4091393264565277,2.6810695760297234,4,left
9.096,-0.10593516001736235,1.6758535127618124,0.04443092872557969,-4.144511728173575,2.881321006041688,-1.70105162071575,-0.7940966004414798,1.4034250482512425,2.681202813223866,4,left
9.097000000000001,0.0015907799678495198,1.5957801540033387,0.08211045632497883,-4.1349984329636795,2.863093915380201,-1.7001525659843704,-0.7952183041798602,1.3992080139734409,2.682134577328756,4,left
9.101,0.11210411614499075,1.502831355714864,0.12103096579418954,-4.15291755457897,2.892872574579992,-1.7023642239947696,-0.7905181512632872,1.4188230796304606,2.67939283286184,4,left
9.101,0.22820306019285275,1.4029369704399086,0.15003267781792629,-4.132451337426459,2.860180949910051,-1.6996877155622558,-0.7991971574329251,1.3822384325086472,2.6842374261506836,4,left
9.107000000000001,0.3419893422999706,1.297210714493569,0.1644873787399671,-4.145191790239109,2.879705714231847,-1.701448437255735,-0.7880609588492871,1.4292604219882121,2.6780690061818495,4,left
9.107999999999999,0.4475506592848154,1.197074782995473,0.16904454830064503,-4.1533292956113055,2.89456032335975,-1.7023001723379394,-0.7973552242008415,1.389987328766948,2.6831997180032356,4,left
9.11,0.5676401492447356,1.0847821541903706,0.15177666530035971,-4.112466374475747,2.8259031118188926,-1.697343157123521,-0.79711533201571,1.391118252266263,2.683138233518439,4,left
9.111,0.6628126794941331,0.9776702531775436,0.13893264003291997,-4.189488076522676,2.954091024551838,-1.7068273623634833,-0.7793533983796168,1.465776597085764,2.673094965173342,4,left
9.115,0.7265647525246879,0.8996274321269193,0.12307651619614306,-4.090139994707783,2.789179172898418,-1.6945428503279802,-0.8229976052047194,1.2821999206274732,2.6976948110572083,4,left
9.116,0.8303603363403993,0.7993529166788774,0.08330116382116944,-4.173272205066429,2.9269903153604453,-1.7048456587273975,-0.7506351650924796,1.5865925898339461,2.656922037132813,4,left
9.12,0.9115149955213725,0.723474113231428,0.07446904780218755,-4.170724757674938,2.9230500169323337,-1.704491872720841,-0.8460829280091181,1.1851065384100212,2.7107099007224953,4,left
9.121,0.933366243698666,0.7032544114139938,0.0766616350414683,-4.012997615723876,2.6608290086107393,-1.6850439343021164,-1.2467152805714115,-0.5001134312290625,2.9364811874281243,4,left
9.122,1.0013314581319959,0.6382847952331294,0.03677704373412542,-4.401105427216444,3.3056449906928433,-1.7329570125640918,-1.342168797580821,-0.9015773386035205,2.9902976780557653,4,left
9.124,1.1213906961596942,0.5439922905254629,-0.022397542783212997,-3.7574361938850322,2.236387655638872,-1.6534670804042995,-1.269800135210303,-0.5972086334639134,2.949493939406813,4,left
9.125,1.191080963928084,0.5009786206975779,-0.05771599985733025,-4.606500432589554,3.646785660255846,-1.7583382327077675,-1.3134419625973008,-0.7807944020283653,2.974081977617922,4,left
9.129,1.2164465230878292,0.4865956770906665,-0.06742903560869913,-8.170093168527691,9.566606484096132,-2.19835587683591,-1.2957007037416701,-0.7060566262324807,2.964141505560935,4,left
9.131,1.3031424015665962,0.4477121096393358,-0.10176923560935949,-9.019185514265068,10.977034967441158,-2.303247713376288,-1.2954163432462638,-0.7050966360033927,2.9638588803283525,4,left
9.131,1.4189440503449133,0.40050402973333116,-0.14814226306307787,-8.375452192865907,9.90772127253646,-2.2237275458358994,-1.304774354249279,-0.7441246235853776,2.969306632329947,4,left
9.135,1.5003840440777072,0.3723770263363432,-0.1709609287571754,-8.76366772720591,10.552607539072612,-2.2716599402074786,-1.2935746943922473,-0.6973467356686363,2.9628225449558063,4,left
9.135,1.5739297329446615,0.34603856242137143,-0.18582710949304987,-8.605795532680595,10.290325160790285,-2.2522288657923735,-1.302281053042024,-0.7338260064222528,2.9678032714798093,4,left
9.141,1.6268893202096173,0.32373970808653163,-0.19959158477932187,-8.603395891470992,10.286402833520217,-2.2518004687776276,-1.29763546392851,-0.7140014455567738,2.9653327588581657,4,left
9.142000000000001,1.6578868094132073,0.30801575389338975,-0.21742572969606122,-8.686447712225021,10.42427953786068,-2.262240938393468,-1.2985815211549094,-0.7188935237802043,2.9653910938522934,4,left
9.144,1.6776188146325723,0.29185802127606075,-0.23507547928855158,-8.587015383125461,10.25918832216055,-2.249781017190425,-1.3000371034084846,-0.723444558595184,2.967029124665125,4,left
9.145,1.6780671405512044,0.2794126985035763,-0.2433293772373056,-8.664378532056888,10.387665465557557,-2.259412080517282,-1.2976257628781873,-0.7152298028749031,2.9646669655827615,4,left
9.151,1.6689556286431686,0.26618674281676247,-0.24429348875388796,-8.622884942626534,10.318674150465792,-2.2544416935344573,-1.2998507009492126,-0.7230518326681581,2.96672040870375,4,left
9.152000000000001,1.6505401166379867,0.25205411598926125,-0.23578875002968122,-8.631844555769916,10.33376523785213,-2.255054364565667,-1.2985014825666648,-0.7173624352241825,2.9659675522783346,4,left
9.154,1.6213307673407926,0.23889756219271704,-0.22183016131601685,-8.64385511413565,10.353359291771838,-2.257387179772203,-1.298704371923257,-0.7210684273116519,2.964597395028296,4,left
9.155,1.5820898855082484,0.22581080096953057,-0.2069797672955235,-8.623555410949027,10.320076288955583,-2.25383845117243,-1.2995888174946262,-0.7182705690160466,2.9684876387990604,4,left
9.158999999999999,1.530129342290048,0.2134648701767211,-0.19033947808203683,-8.642431379841732,10.351082969170797,-2.2569996652023487,-1.2979467249545837,-0.7210866194095404,2.9625028146007644,4,left
9.16,1.466272556897869,0.2011439997253161,-0.1681519644475955,-8.630417910020924,10.33112494725974,-2.2555238468826504,-1.2997569971713783,-0.7183368654425841,2.9689157369391497,4,left
9.163,1.3963625580268786,0.18937864399579957,-0.13902537488463684,-8.633930536955924,10.337604091810647,-2.254416677785099,-1.2986166774161862,-0.719527416614768,2.96515841217204,4,left
9.164,1.328971980178054,0.17756333168658112,-0.10931267692124519,-8.637901101014368,10.342725880900677,-2.258427762630256,-1.2981021937315818,-0.7225288103878159,2.962179658204855,4,left
9.168,1.2641578584755464,0.16432817493630597,-0.07637706904116966,-8.629102780682551,10.330310753599868,-2.2520895102813236,-1.3011197386976718,-0.7126243590142581,2.975639586473797,4,left
9.169,1.2022913148284897,0.14944988875992632,-0.03527138237758419,-8.63901965182897,10.34443690361804,-2.2589119382629796,-1.2953864359202742,-0.7304111077812778,2.9506040687845765,4,left
9.173,1.147134807510633,0.13640363524057753,0.006760552440525119,-8.632439931233993,10.334866506700777,-2.2548660954987767,-1.3027777098697444,-0.7076997093657194,2.9827641204910464,4,left
9.174,1.0968224210876558,0.12879331636113994,0.045578229238740685,-8.630968798345357,10.333584233177048,-2.251893860037913,-1.2965970480683897,-0.7266123921316905,2.955914560115854,4,left
9.179,1.0490714936638392,0.12049914715193646,0.0809904565595271,-8.644290134669609,10.350607921647343,-2.26574462467811,-1.2968068270596622,-0.7262922053840231,2.956653833832172,4,left
9.18,1.010054024399818,0.10947978786574827,0.10740660419132089,-8.618335924386699,10.316970386730759,-2.239906881124072,-1.308447438217675,-0.6895898945074046,3.0077963231879714,4,left
9.183,0.9811010834502635,0.0978695759967069,0.12045480628903135,-8.651952740155284,10.360636171504485,-2.2731167811815105,-1.279791222606392,-0.7795840334619202,2.882092040156311,4,left
9.184,0.95322598395283,0.08041761954321713,0.12449865458889325,-8.623756769535026,10.323976857108276,-2.2453794361205226,-1.327310086513029,-0.630412928465641,3.0905011094454893,4,left
9.187999999999999,0.9337433839912926,0.06604311179214056,0.1257501695507257,-8.6249934562119,10.325726832905422,-2.246179332411889,-1.2646410055695583,-0.8271827237025118,2.8156327424252954,4,left
9.187999999999999,0.9276132445927472,0.061055390799901466,0.12580350167824983,-8.677242940937308,10.393181129654186,-2.2989038872820764,-1.0015523405772697,-1.6531995502188033,1.661654431756209,4,left
9.189,0.9106286045304925,0.04764150455314113,0.11970651846176453,-8.548223766874909,10.226456166752708,-2.169259169988,-0.9389046340796676,-1.850026289873095,1.3868272654718687,4,left
9.193,0.8729945672293455,0.02226683599738298,0.10370108918957721,-8.762346083019384,10.503181709843336,-2.384225323415947,-0.9864003752309156,-1.7007935728837,1.5951917647848228,4,left
9.193,0.848313717897919,0.00671443425392262,0.09494047043315368,-8.479828298873134,10.138085064887356,-2.1006924802750353,-0.9577353535592901,-1.7907642861634838,1.469470504807175,4,left
9.198,0.8413230002253087,0.002607108783600991,0.09339024213076969,-7.295013624497227,8.60704505955517,-0.9106001095534323,-0.9694526968506285,-1.754266328206346,1.5207609061677565,4,left
9.2,0.8122796235399086,-0.014547405568948596,0.07689978129567362,-7.012338207783587,8.24182886362388,-0.6270931272268416,-0.9694973916717512,-1.7535064415061823,1.5211819605213872,4,left
9.2,0.7687258671846698,-0.040846694376177106,0.056750482736773515,-7.226733458450993,8.518785344569999,-0.8420221307152261,-0.9635534153015312,-1.773049571865785,1.494788636529359,4,left
9.203,0.7315407394970048,-0.05979269075605058,0.04086678063236235,-7.097416494523762,8.351749736942288,-0.7123992530007592,-0.9707090146612825,-1.749710370372988,1.5264944040071478,4,left
9.204,0.6957470352659645,-0.07777856792030045,0.025282152399404297,-7.149847900453119,8.419516820696424,-0.7651496563697062,-0.9650773737962834,-1.7677680209637492,1.501654842131308,4,left
9.208,0.6704363759964997,-0.09597551041331431,0.020357971510537243,-7.151192640259588,8.421089397765906,-0.7658492005469081,-0.9682973582269055,-1.7584026336198941,1.5155050065192956,4,left
9.209,0.6552980792178725,-0.11247246121803446,0.02197335012549658,-7.1224418411282215,8.384287639425354,-0.7382915572340936,-0.9671308697585431,-1.759667489209405,1.5112694305238743,4,left
9.212,0.6475149923467178,-0.1290487362948819,0.026694641129689264,-7.157110692833955,8.428590933115128,-0.7712777704093101,-0.9671139196195336,-1.7638502040615485,1.5096775281143893,4,left
9.213,0.6511384216526965,-0.14371234885480288,0.034974933808992886,-7.1297748643161105,8.393757842509563,-0.7456196314836054,-0.967545601489329,-1.7574282773732004,1.513433077380534,4,left
9.217,0.6594826623460452,-0.1565645642414431,0.04232035084949712,-7.14433051155855,8.412355205629513,-0.759471015349175,-0.9670024892373091,-1.763172016960267,1.509566625247093,4,left
9.218,0.6715313955721696,-0.16662346886604806,0.05065459859275967,-7.142560704521099,8.409652526018842,-0.7561674212817969,-0.9678969553157745,-1.7604001209591105,1.513476240019806,4,left
9.222999999999999,0.686627969023992,-0.17300755425855835,0.05642341074500257,-7.134408279545738,8.400458419363934,-0.7528794745951758,-0.9660599073071727,-1.7586733892663804,1.5081738132592748,4,left
9.224,0.7008456240136267,-0.176161294231911,0.05558820871559335,-7.148471354089412,8.416321664750793,-0.758573289674028,-0.9693722127004768,-1.765399804879027,1.5164066061592583,4,left
9.227,0.7183109467345083,-0.17575433629155468,0.04957923693956469,-7.133057863823803,8.399237715883167,-0.7534312467268586,-0.9646432444811873,-1.754699272048831,1.5050556371414903,4,left
9.228,0.7355535102116981,-0.1729568656360428,0.041906221880437605,-7.14458652644422,8.411875821225635,-0.7567707731381011,-0.9696445296250866,-1.766230238468498,1.5169820225548483,4,left
9.232000000000001,0.7476373163829644,-0.16999598649935233,0.03491100378661999,-7.142904339144783,8.409683859993013,-0.7550085238521931,-0.9668178396513258,-1.7593719424410312,1.5103657339815753,4,left
9.232999999999999,0.7616796364770414,-0.16789402344820553,0.029941742563733775,-7.128940917784691,8.39582766198998,-0.7562677290625015,-0.9640700781812788,-1.7544295300129074,1.5033034935458014,4,left
9.236,0.7762862116964664,-0.16857352326019703,0.029220826013390128,-7.1618126675233285,8.428732117865747,-0.7543557497997075,-0.9755853792282652,-1.7776467601146226,1.5319852132498004,4,left
9.237,0.7891610497301637,-0.17238309402410973,0.03056345875211384,-7.112997629346316,8.379936085346893,-0.757432841589198,-0.9543232851772696,-1.7343040059219832,1.4791982884832602,4,left
9.242,0.8035546761218288,-0.17438132906063047,0.03750851620498148,-7.164739460939025,8.431568229872301,-0.753854452599747,-0.9816025258793436,-1.7900221157386804,1.5468862594014758,4,left
9.243,0.8184408614394156,-0.17627042831064507,0.04965883111426772,-7.1348381551742674,8.401733905375004,-0.7559194823144133,-0.9588394404597045,-1.7434803941539438,1.4904179583913706,4,left
9.247,0.8332224802951955,-0.17961061124326816,0.060785381409946465,-7.109726134888772,8.376857673789644,-0.7583580162517034,-0.9594175276109741,-1.744838711647854,1.491796192828108,4,left
9.248,0.8442363716891642,-0.18057356423923235,0.07233446509832578,-7.220491809543535,8.486810466607501,-0.7485366187962559,-1.0029414132880627,-1.833259789142406,1.5999531067015038,4,left
9.251,0.8526681104919573,-0.18131841568787438,0.0825778841317695,-7.015028429292587,8.282854553940048,-0.7667096967477913,-0.8960150958318355,-1.61581653977128,1.3343025646967972,4,left
9.252,0.8603799054423211,-0.17932038184783888,0.09383232940233183,-7.278804090056315,8.54466638951586,-0.7433180778414379,-1.073284611456609,-1.9763756993420827,1.7747046309349865,4,left
9.256,0.8647332441419031,-0.17659052659721064,0.102185651907442,-7.058607879873547,8.326134842522997,-0.7628740688523445,-0.8394773650489077,-1.500799597022926,1.1938362236878626,4,left
9.257,0.8642311562922105,-0.17592998336908677,0.1043755516435616,-7.064655927940196,8.332116550004955,-0.7624082859656214,0.14208103790828583,0.4953043212745869,-1.244739115915516,4,left
9.257,0.859648614470073,-0.17071872414209033,0.11256418042212143,-7.484185143336839,8.748484822900647,-0.7248368743994887,0.3758764858915721,0.9708652479885086,-1.8255982328348463,4,left
9.262,0.8517284283874094,-0.16307096487213182,0.12362837345494361,-6.4529430165849435,7.725080582050237,-0.8171421835842376,0.19861973350123194,0.6103225039532119,-1.385206214618123,4,left
9.264,0.8324232874249924,-0.15095856095553745,0.13495410122611243,-8.162813616752242,9.421890437861443,-0.6640816649709003,0.3055509126232375,0.8277720103015765,-1.6508605919487962,4,left
9.267000000000001,0.8160618231248113,-0.1403257930999109,0.14496870822389382,-5.907490141544388,7.183862999614782,-0.8659935587760026,0.2619846700623754,0.739296444044458,-1.542670310637119,4,left
9.267999999999999,0.8108916262825356,-0.13767325918265827,0.1480004201085689,3.5586806283061545,-2.210388852761686,-1.713594873605065,0.26149770983338094,0.7380553489834859,-1.5413638533195988,4,left
9.267999999999999,0.7901072720311728,-0.12597591771720412,0.15593012124078814,5.814031788934699,-4.448329523063181,-1.9155468143123981,0.2841301451518199,0.7844290110113459,-1.597729254225659,4,left
9.271,0.7555861017349004,-0.1077858708003448,0.1685324909976762,4.1041440590534695,-2.751630119088011,-1.762430093112838,0.25698099542229974,0.728878236418697,-1.530143733197209,4,left
9.272,0.7182481774777292,-0.09060366754018842,0.1770002747992171,5.135329370218214,-3.7750113568394554,-1.8547645248414248,0.2781869748289545,0.7721488201716113,-1.5828864845623594,4,left
9.276,0.6771038037689789,-0.0686551415994684,0.18505660462985773,4.715993158413443,-3.3584527153544927,-1.8172428249160264,0.2665599234997144,0.7487878245077297,-1.5541167165915781,4,left
9.277999999999999,0.638258836531966,-0.047643174826333096,0.19324004909291642,4.70959239974664,-3.3529614668352714,-1.8166072747624096,0.2696675950913144,0.7541932199347607,-1.5614624584716736,4,left
9.281,0.5990585696895345,-0.02627278504092083,0.19755352908194052,4.930244236659295,-3.570725058093369,-1.8364569627633336,0.27187418382480216,0.7602538483373212,-1.5675903340130672,4,left
9.281,0.561778180570689,-0.0032967090563333365,0.19782823869838342,4.666077435644174,-3.3097588132633984,-1.8127100686375242,0.2676338769588371,0.7497017441514957,-1.5562632775498266,4,left
9.286,0.526318713816374,0.01697233072585425,0.1958313722826793,4.871593391020941,-3.513199693513111,-1.831153091679913,0.27175621851332,0.759621994291237,-1.5671365466248517,4,left
9.287,0.4874954704443087,0.037576174197475956,0.19287637985526795,4.761431345911732,-3.402866838892175,-1.8213679701751087,0.26843836442546637,0.7528883636821668,-1.55889923413305,4,left
9.292,0.45517437499730923,0.05927160231637619,0.19000955875240216,4.785059510426712,-3.4295626565466684,-1.8232272421018074,0.2714014785270783,0.756063693555818,-1.5650887479447257,4,left
9.292,0.4307130386575974,0.08142407386996747,0.18227773531404096,4.817256117430555,-3.4559238572515496,-1.8265528329112224,0.2679338357840544,0.7555255352490556,-1.55915232052291,4,left
9.295,0.4085179273220474,0.10032308266341552,0.16888776370314718,4.762974948859031,-3.4089128521726977,-1.8211487592755637,0.27231550208165756,0.7547194787115284,-1.5660420660106655,4,left
9.296,0.3952075526770431,0.11699964228991384,0.1541431905279277,4.81339992958242,-3.4534889241265643,-1.8260975374347095,0.2677920843533913,0.7558781834880779,-1.5590640818777557,4,left
9.301,0.3909733585165003,0.13616056561510642,0.13642259124779665,4.78149658582611,-3.4217799192231446,-1.8232444440942004,0.2701727761720101,0.7547357249481621,-1.5625170847568117,4,left
9.301,0.39357734808142014,0.15600269121597465,0.11958795130600812,4.790284105628768,-3.4406390512074365,-1.8232271346509439,0.2733783572415748,0.7560943064473893,-1.5683595856146595,4,left
9.307,0.4054666310484458,0.17804379030336673,0.1119625600710177,4.802063722500323,-3.4291601484847,-1.8261201493420776,0.2612374550672259,0.7539838689845717,-1.5474822356261617,4,left
9.308,0.41851260089232967,0.20171043735134278,0.11208581030188242,4.776859988296575,-3.4387114942229102,-1.8211206910712723,0.28341173281088905,0.7572059330341969,-1.585351506674379,4,left
9.31,0.4279487033880036,0.22740725620816699,0.11032058875061428,4.805148549987704,-3.429940095593996,-1.8265777460962174,0.25501586029253887,0.7532232373059353,-1.5369172148055816,4,left
9.311,0.4391698207680827,0.25211189741409423,0.10265445205545118,4.786559157416104,-3.4327805073991318,-1.823223282388149,0.2786904015956896,0.7564864259685942,-1.5772730333218372,4,left
9.315,0.45063347361864914,0.27108465284059935,0.08974218413570052,4.781651970639295,-3.4462630121145894,-1.8213283866915297,0.27817013863284257,0.756636812276666,-1.5764817366353356,4,left
9.316,0.4597386684526078,0.2883568340200797,0.07566754265841921,4.821325359058572,-3.405318882725087,-1.8312534516028247,0.23263378256767958,0.7496290445343876,-1.498549274267197,4,left
9.318999999999999,0.467495259249475,0.30220656579163824,0.06158065807601424,4.744466468177743,-3.4779896040295135,-1.8125521197935146,0.3444130225183339,0.766574320320965,-1.6897379288290173,4,left
9.32,0.47001130167153454,0.31831517336535525,0.039132866962446,4.843893839209606,-3.3854093363674505,-1.836632657412351,0.1591167692037264,0.7385474009621842,-1.3728372818139674,4,left
9.326,0.4688824414362034,0.3319889592723613,0.022307189962318008,4.76058851308421,-3.4624020815560113,-1.8165005814493296,0.40351596503090226,0.775513205281964,-1.790811227914245,4,left
9.326,0.46846451786888377,0.3351641650279085,0.018758820513474557,4.763988221540232,-3.4614582563678766,-1.817152114516789,1.4295807965761536,0.93097524196746,-3.5457820644776374,4,left
9.328,0.46594739412568914,0.3453788575179578,0.007131608808452173,4.919078491093799,-3.310911599310198,-1.8551935349899968,1.6739903952687736,0.9679781587789886,-3.9637775580979056,4,left
9.331,0.45863954091568043,0.3605740899971792,-0.009370528146199474,4.536536773574067,-3.679590658719237,-1.7615636636050587,1.4886828880020686,0.9399110863553534,-3.6468535993355147,4,left
9.331,0.4456552080907294,0.37362758734040724,-0.018394252209810634,5.171155529945281,-3.068653711440013,-1.9168426669830416,1.6004578427506218,0.9568410898012178,-3.838033382770866,4,left
9.336,0.4363619916675132,0.3838309747690233,-0.020975442480762264,4.334070327963593,-3.8744461638511987,-1.7120240916314071,1.55495883054423,0.949966515846387,-3.7601782609932797,4,left
9.336,0.4336990807629124,0.38673627680533074,-0.02121857957769365,0.8220839399712809,-7.258508223987578,-0.8525714995996918,1.554358223779562,0.9498303201385785,-3.75922056249066,4,left
9.337,0.426440007002311,0.39345196325337495,-0.023070740342431485,-0.014852699128329733,-8.06445138581074,-0.6477707074530645,1.5781479568077303,0.9535044082729627,-3.799814962459106,4,left
9.34,0.41686281521059576,0.40203099330238334,-0.02077523444654805,0.6195979571007242,-7.453332724314545,-0.803014323750687,1.5496373835973007,0.9491125436587514,-3.7511430994849597,4,left
9.341000000000001,0.40859386130539466,0.4070497579482264,-0.0152787568463756,0.23702119331501192,-7.822015849567633,-0.7094343271409169,1.5718611410025958,0.9525111542089026,-3.789114866494197,4,left
9.345,0.40168961119202184,0.41144235346274194,-0.010835232573897522,0.39259085709570724,-7.671873835983769,-0.7474216615607936,1.5598187603035183,0.9507520801629793,-3.7684415482667233,4,left
9.346,0.39495003700941217,0.41182036062955485,-0.0027441059761343567,0.39492316089333174,-7.669968357343231,-0.7481107981821924,1.562707022516387,0.9509788328334174,-3.773626852733619,4,left
9.349,0.3832912193146923,0.41056592290578686,0.008308496808692256,0.31317704034889543,-7.748412783540973,-0.7279878699602484,1.565634441760811,0.9517865567593442,-3.7782122059927046,4,left
9.35,0.37460802074769656,0.4075437096439236,0.01843820994440437,0.4110158393002583,-7.654295929413729,-0.7519805261435933,1.5604400803127771,0.9505519051930883,-3.769844572270269,4,left
9.354,0.3675667219765144,0.40248940581897663,0.028007857620858063,0.3349091060188115,-7.727798670720981,-0.7334633903009978,1.5653566135664454,0.9516539378690395,-3.7778421711557284,4,left
9.355,0.3564046654822659,0.39848144877236635,0.03814865661045061,0.375792885566516,-7.687784584120546,-0.7431268639668676,1.5618938335496662,0.9511328069677906,-3.7719157140823634,4,left
9.36,0.34986927697674985,0.3928278580405269,0.04789914029357331,0.3667222156409272,-7.697601178003202,-0.7414947612033107,1.5638641552212245,0.9507671740039475,-3.7760491208146334,4,left
9.36,0.3431068895089166,0.38627301768414024,0.05634401591499119,0.3554568279000666,-7.707138472452663,-0.7380166966665478,1.562814987472209,0.9521257788944028,-3.772510519737877,4,left
9.363999999999999,0.33624096340886056,0.3818335766366897,0.06291788775451886,0.37459753139329144,-7.689744346858467,-0.7432758054253645,1.5635529574804097,0.9499737620195973,-3.7763742166132372,4,left
9.365,0.337168432413567,0.3798397729841815,0.06673327596412457,0.35692517754136877,-7.706773737645819,-0.7389565637834421,1.5629202999399705,0.9522909410638586,-3.772519357393659,4,left
9.369,0.3365706002643968,0.3802099008529791,0.07227229586556837,0.3682233266999436,-7.693971765864383,-0.7406528531548191,1.563042707205755,0.950915858317788,-3.7743301468934733,4,left
9.37,0.33486809528927947,0.3829264891086641,0.0794872475245538,0.36429328033319897,-7.702142209872525,-0.7421329480481931,1.564352733513839,0.9499108782065523,-3.777953295315844,4,left
9.373,0.3375014404327593,0.3898290283223683,0.08090324460432735,0.36244841984028375,-7.697380034675113,-0.7380385074048286,1.5605908768528765,0.9546034857525559,-3.765472948330083,4,left
9.375,0.3402670651056865,0.4018540471227275,0.08260352242284263,0.36723486703466623,-7.6997389360334125,-0.7430935792040453,1.5672116674152368,0.9458488893508289,-3.788007804466103,4,left
9.379,0.3440381115622903,0.41809192062012335,0.08753893222611113,0.36257855863069144,-7.700197535265313,-0.7397097128385128,1.5587897298490392,0.9571005016838751,-3.759209714453384,4,left
9.38,0.3481980339389643,0.43606212196957117,0.08437943531655258,0.36444410580748376,-7.6949306032861715,-0.7382325256694451,1.5657890453032752,0.9477048931084336,-3.7831948642274096,4,left
9.385,0.3491039607195251,0.4548666427526806,0.07937511436359987,0.36712517765643365,-7.707534911929483,-0.747353710800716,1.565722235101208,0.947971705813891,-3.782761530034778,4,left
9.386000000000001,0.3491732809547621,0.4741135584930058,0.08096398643543454,0.3595918036095364,-7.686627669535124,-0.7298106010929385,1.5519723578991704,0.9658406792999404,-3.7363217730126275,4,left
9.388,0.35054657157652325,0.4918432744794009,0.0841920761606314,0.37018675346616225,-7.712585315753262,-0.752563379665103,1.5856245991200475,0.9219115015128744,-3.8502075917189327,4,left
9.389,0.3485756925445341,0.5108766300714582,0.09340184308997401,0.3609541321066998,-7.691287999768827,-0.733471959895472,1.5298630912886524,0.9947441437586677,-3.661449713952015,4,left
9.394,0.3452193506054631,0.5248317154908881,0.10463841174025315,0.3617991780445294,-7.691291144512928,-0.7341376529405326,1.6034115269968785,0.8986875148268817,-3.91040974489493,4,left
9.395,0.34467516223808414,0.5290587309315598,0.10733312509573684,0.37781875072151855,-7.733427392391922,-0.7701454214755719,1.9122824640873604,0.4954067356681358,-4.955784846309038,4,left
9.396,0.3391911408848456,0.5397517913174104,0.11338026897404432,0.3375880737325603,-7.630686978467262,-0.681426208535548,1.9858502028883596,0.39936857483160626,-5.204762252208735,4,left
9.398,0.33249487419380047,0.5594882845474376,0.12894179467896869,0.40460975356439405,-7.800729262462953,-0.8286100123273406,1.9300678112695702,0.47218124408600515,-5.015985578047605,4,left
9.399,0.33223294603170517,0.5711734407304787,0.13761675716404892,0.31610163612533604,-7.576547559848642,-0.6344427775349152,1.963712106218644,0.4282444374713739,-5.129864239377303,4,left
9.402999999999999,0.3320249432070446,0.5736003418822975,0.14040479546701665,-0.055008740422255155,-6.635159281830337,0.18043984028377608,1.9500315119805243,0.4461797511324979,-5.08348685479573,4,left
9.404,0.33306776692268447,0.581828278615459,0.15199138418732516,-0.14350633261672427,-6.410967449357198,0.37462133634876504,1.949815635181386,0.446303865038096,-5.082919329087522,4,left
9.404,0.33638066296114966,0.5960255313175258,0.1653656982683733,-0.07644119513587015,-6.580967847198641,0.22740058053733994,1.957028678328084,0.43711282519043215,-5.107096873727388,4,left
9.408,0.33985172750121684,0.6089781829796665,0.1734237968857502,-0.11687046670642323,-6.478418783664171,0.31619015742472983,1.9483939170316313,0.4481607702313781,-5.078107209245445,4,left
9.408999999999999,0.34496904929380845,0.624561201905308,0.1803177255313784,-0.10041262675592977,-6.52013278245766,0.28007641053077403,1.955106528832363,0.4394939773406912,-5.100724706411734,4,left
9.413,0.3492806308040666,0.6415089149545994,0.18727639698281906,-0.10024301563306073,-6.520786649966343,0.2795337504608004,1.951527445439177,0.44436164956191276,-5.088408912306362,4,left
9.414,0.35652522949957244,0.659838493977696,0.19518093734763323,-0.10872140387626601,-6.498762724561681,0.2985328248652774,1.9522487416680805,0.442793036030529,-5.091502069283662,4,left
9.419,0.3658058578948133,0.6839531555974254,0.20046352738968,-0.09860995732508171,-6.525186119881363,0.27576700446862923,1.953385536487943,0.442388947756136,-5.094226011266497,4,left
9.421,0.371860083999365,0.7120966397847655,0.20181519184772617,-0.10643154049577155,-6.50455663612191,0.2935107218599896,1.9515079913636797,0.4435146531638975,-5.089250532833553,4,left
9.422,0.3792879758648041,0.745196643528833,0.20175503990161053,-0.10219047609983618,-6.51565792970419,0.2839514506653607,1.9532384153957125,0.4423122675825767,-5.094007569816039,4,left
9.423,0.38588609820116654,0.7835009648058224,0.20017172135139683,-0.10338055727222192,-6.513334881736992,0.2860669048172699,1.9521981622654279,0.4436799544434577,-5.090477094907136,4,left
9.427,0.38936973693435106,0.8239754461450393,0.19503373990832895,-0.10389010030997839,-6.509798493689813,0.2887898024852615,1.9523265902415745,0.44155063641253167,-5.09295231958764,4,left
9.427999999999999,0.39446939161271083,0.864000367354669,0.18343135301457208,-0.10300504458636181,-6.515915812620603,0.28407991242895914,1.9530730225471482,0.4450589887534049,-5.0908150608459835,4,left
9.432,0.39830407129718626,0.9036625079021507,0.1672965838734474,-0.10351438410124819,-6.50986740470175,0.2885953477374788,1.951710196593455,0.44015058839446275,-5.09316003045786,4,left
9.433,0.3982870605097003,0.9469182178660884,0.14754052276895185,-0.10334565119870687,-6.514088482864427,0.285516224672372,1.9532096576260802,0.44532209632866937,-5.090817942794287,4,left
9.437000000000001,0.39437145589695244,0.9913982376773107,0.12349582084130195,-0.10390376960269197,-6.512709474207659,0.28671588034405515,1.95226964434259,0.44243027733571205,-5.091922273289572,4,left
9.437999999999999,0.38563187254807674,1.034747452136271,0.09654602647869838,-0.10188866433022334,-6.510771607576242,0.28732336652819523,1.9518232211270703,0.43946179378502964,-5.0941051171655545,4,left
9.441,0.37495810512277644,1.078359029936283,0.06899986187554416,-0.10619182641636982,-6.515962976041245,0.2852740789637144,1.9543732071437583,0.45167370474579843,-5.086568353747226,4,left
9.443,0.3614299407909679,1.1232113095385055,0.040672618977223775,-0.0997027441814063,-6.508396991950092,0.288177128411527,1.9495360260151815,0.4291683246781996,-5.100179778474894,4,left
9.447000000000001,0.34452698059040326,1.1711586883259133,0.007270917292222236,-0.1067122699172203,-6.516225373916014,0.2852867524036665,1.9557722668275754,0.45803317562871004,-5.082786230411941,4,left
9.448,0.32633065549228113,1.2145644845674473,-0.027201372575851875,-0.10266495177467738,-6.511702644598708,0.28695838292473164,1.950554752637348,0.4339505826597018,-5.097270289477209,4,left
9.452,0.3120763329378712,1.2593775297720424,-0.05850189158761157,-0.09896418527246861,-6.5083165134213266,0.2879489737022082,1.9507366196747453,0.4345479549518274,-5.097013700366548,4,left
9.453,0.3045056479154055,1.305672460138372,-0.08371324721030357,-0.11488158630119438,-6.523791605723252,0.2830321568690782,1.9605550519130879,0.48064205270592575,-5.068959474511983,4,left
9.457,0.30106890347241777,1.3422219001496467,-0.09525514107719597,-0.08538091966002495,-6.4950677255572185,0.2921779135867183,1.9363716685925922,0.36741770911634974,-5.137745571041356,4,left
9.458,0.31234851521434537,1.389857802521542,-0.09703619893930876,-0.12327327420392797,-6.531898834214493,0.28047344938609037,1.976485737099161,0.5551244446991934,-5.023748708356075,4,left
9.462,0.32454066544596083,1.4223227831852592,-0.09589597861302743,-0.09163848228442767,-6.501182541923387,0.29022547540204513,1.9235682786403014,0.3075521777455795,-5.174089751955016,4,left
9.463,0.32855522580791785,1.4304102990816352,-0.09556986104368288,-0.09245582193170648,-6.502040036180212,0.28991938970720554,1.7015348454733341,-0.7317579280044224,-5.805417676469143,4,left
9.464,0.3468419111745929,1.4647745156276453,-0.09471346148152579,-0.152910778203301,-6.560444601622045,0.2715141344695942,1.6486055591785482,-0.97930873406019,-5.955730014680725,4,left
9.468,0.373457953484215,1.5042665588432336,-0.09007071786420695,-0.004371180459593449,-6.416910037994066,0.31677703049285316,1.6887404162131834,-0.7916385468291891,-5.84178580508676,4,left
9.468,0.4104624639986386,1.544926107280943,-0.09267987716792057,-0.25063172267242256,-6.654848695755982,0.2417408522456171,1.6645335936241445,-0.9048245096295037,-5.910507221158452,4,left
9.472999999999999,0.439520558243524,1.5814791880790104,-0.09807662274880252,0.07416327635049114,-6.341066516253271,0.3406933838379181,1.6743679332876118,-0.8587507227362198,-5.882507671431418,4,left
9.472999999999999,0.44844457602503457,1.5909022046388186,-0.0996614718893516,1.4378483731075908,-5.023605100754713,0.7560155442060388,1.6745545594594922,-0.858174673275441,-5.882238791935253,4,left
9.474,0.48603219132573194,1.625750186595552,-0.1139869118262452,1.7626068497306568,-4.709916378606364,0.8549374184868226,1.6692990079941608,-0.8821746327861328,-5.89665612395398,4,left
9.476,0.5432961742761876,1.6764447121702661,-0.13470412511996754,1.516381804682137,-4.947743758716455,0.7799432247419318,1.6756121168776035,-0.8534570999203801,-5.879434387595325,4,left
9.477,0.5975991389211888,1.7095308697832574,-0.15722602204973626,1.6649506618693262,-4.804206735215615,0.8251875120941855,1.6706693598957696,-0.8757781453988712,-5.892776007914962,4,left
9.481,0.6568643614903169,1.7395456111553411,-0.20358228831561453,1.6043352933182833,-4.862872496078232,0.8067366025292786,1.6733201931950723,-0.8637180256683552,-5.885542601335157,4,left
9.482000000000001,0.7034142719094845,1.754952111303937,-0.2730970228378494,1.6038435009992549,-4.863118417202715,0.8065717521691116,1.6728359444182355,-0.8666762837549615,-5.8875238971892125,4,left
9.486,0.7263900607555047,1.753240215332882,-0.34678148277846066,1.6350272165642767,-4.833318690877624,0.8160868445149543,1.6717981832202669,-0.8693139845200925,-5.88853523486537,4,left
9.487,0.7176189960809223,1.7358360174135932,-0.4083275347798227,1.5975644375169558,-4.86918750665936,0.8046613265082596,1.6735905791599113,-0.8647428441300811,-5.886774701468253,4,left
9.492,0.6724991476880349,1.700821764712409,-0.44154979851842663,1.6269161532975427,-4.840970919727823,0.8136068511835954,1.6717358853053446,-0.8687417434240734,-5.8879579506806135,4,left
9.492,0.5923212621006607,1.6530591156677161,-0.44089881745219384,1.6105459855716615,-4.857060156053734,0.8086345526270491,1.6730724691464616,-0.8662169042353625,-5.887416956923223,4,left
9.495,0.47879521350294074,1.5935125033638073,-0.41351279854678474,1.6155609346910755,-4.8513306828297615,0.8101204809781455,1.6727500212037985,-0.8677595935461166,-5.888363014970021,4,left
9.496,0.34480635335845683,1.5289933146951915,-0.3666288082117425,1.617425770577992,-4.851052816269613,0.8107589089645131,1.6716613317614182,-0.865933167986402,-5.885411839122805,4,left
9.501,0.19758472165639146,1.4621642301571303,-0.2987695969349801,1.6130077351655432,-4.853451719944692,0.8093273333170393,1.6743293729474371,-0.8692632347733134,-5.891643124242398,4,left
9.502,0.046388130748371476,1.3989319511163474,-0.20059711114646206,1.617560630107186,-4.8505428857951625,0.8107824055247993,1.6703911323499763,-0.8640994608661472,-5.882228437009543,4,left
9.507,-0.09628921767946733,1.3433999000064132,-0.0682772550934187,1.6129413096495937,-4.855019700131036,0.8093760264521757,1.6745337375217848,-0.8698641672681166,-5.892422450443906,4,left
9.508,-0.22888702774085973,1.2889983759056474,0.07861452529800383,1.6192350468331247,-4.846173520634871,0.8111663741120241,1.6721396081258977,-0.8665360650122507,-5.886534141791593,4,left
9.51,-0.34797460151043225,1.2369685648261792,0.21468526850623462,1.6094412195988783,-4.861954238442608,0.8084727670796581,1.6701989007418776,-0.863090620546757,-5.881107861254682,4,left
9.511000000000001,-0.45081735220607455,1.1905283954016457,0.3533504785368897,1.622953069595466,-4.8394753354629945,0.8121563071620079,1.6788515421554036,-0.8774233107548268,-5.904401932528725,4,left
9.515,-0.5414156360322668,1.1543854919245744,0.5005316923215941,1.6087531546589657,-4.863239215131019,0.8082920387925421,1.6627973881480758,-0.8508800720050607,-5.861225785043299,4,left
9.516,-0.62568850617526,1.1350838121400924,0.62541012958151,1.6166359602139462,-4.849822909776716,0.8104261147140952,1.683401230281572,-0.8850112080842976,-5.916694406792068,4,left
9.52,-0.7051552038878293,1.1281126360248661,0.7261771229215244,1.6250280359746916,-4.836704080831149,0.8127542258757544,1.666205282221581,-0.8564938978130948,-5.8703749334843085,4,left
9.521,-0.7634250813714549,1.1298506902339285,0.7705207632639237,1.590912223558525,-4.891572016995058,0.803365241346082,1.6666822113724349,-0.8572085393715145,-5.871586399420699,4,left
9.525,-0.7983918538227227,1.1356925003008167,0.743979384538734,1.6537111175513033,-4.7902817802032125,0.820632448233191,1.699420218669191,-0.9118344453967386,-5.9600810901289085,4,left
9.526,-0.8092766894992631,1.1438400613725355,0.6734479722757508,1.5731764956482404,-4.920235102374086,0.7984935030592251,1.6189463090259792,-0.7776121000088544,-5.742605940103809,4,left
9.53,-0.779580883746193,1.1632853486888604,0.525809882526882,1.6403736889181664,-4.81179342316395,0.8169621417672523,1.7523752891328581,-1.0001621133683647,-6.103196832004729,4,left
9.531,-0.7447309839273217,1.1817699055238926,0.40209685437678144,1.6387060838327607,-4.8145501463575195,0.8165147040102649,1.5763819678000466,-0.7066151041318388,-5.6275482937237955,4,left
9.532,-0.7299308266227977,1.1885593264054166,0.36458680709626534,1.5100664884600845,-5.021894977349257,0.7811286414935783,0.8375258750643322,0.5253301007935267,-3.6301986361465373,4,left
9.535,-0.6804972153264892,1.2107978516716993,0.23948330417786368,1.8260803263770526,-4.512493149009913,0.8680395840073858,0.6614982563056917,0.8188090120999456,-3.154352899032724,4,left
9.536,-0.5793896495522189,1.257102635859159,0.03987539277143912,1.3021439462755402,-5.3570269378390405,0.7239559258027134,0.7950049427945605,0.5964215303799673,-3.5153642710037345,4,left
9.541,-0.5136004147531061,1.285858209377328,-0.05942543894455992,1.9932307087969463,-4.243124394453279,0.9139969286391338,0.7144013439975054,0.7303571732887224,-3.2972366278321843,4,left
9.542,-0.4931882170571101,1.294401743590623,-0.09004104740465266,4.894051558215083,0.43303313415253586,1.7118028319259322,0.7473127255352254,0.6761357094976281,-3.3865360689539106,4,left
9.543,-0.42558001183273275,1.326173513345583,-0.15986088436117274,5.585195286112756,1.5469076043243342,1.9018446047244442,0.7476146702133948,0.6749843135802036,-3.3870264212927443,4,left
9.545,-0.3371204461081265,1.3689544491859507,-0.21560150017938662,5.061197276858401,0.7024041774427623,1.7577601099421636,0.730511057103856,0.7037808261349874,-3.340931957225886,4,left
9.546,-0.2752957286191454,1.4012232138242755,-0.20538154997305644,5.377187660937075,1.2118175982250508,1.844670748121347,0.7512209946065949,0.6698050893706208,-3.3971868879431133,4,left
9.549,-0.21701042840592905,1.4305863389455644,-0.1697934221019958,5.248752533984391,1.0043719324405456,1.809287423134204,0.7347533277372367,0.6954764719980117,-3.35179533148772,4,left
9.55,-0.17159181440153354,1.445170989507973,-0.1085371353263303,5.246645007343362,1.0018321121491829,1.808834078024062,0.7441621713012503,0.6828646986043274,-3.3787370709780555,4,left
9.554,-0.13432726155914568,1.4389421257613766,-0.022222116314000766,5.314472944395683,1.1099628413519134,1.8273112004587881,0.7412433289138591,0.6839570707456633,-3.3689981042068835,4,left
9.555,-0.09637836575358283,1.4131791555627506,0.06897854194072733,5.233310251385231,0.9803191046073829,1.8051637900493427,0.7397067867893339,0.6895279298092059,-3.366317674527297,4,left
9.559,-0.06354376218983551,1.3666712993285384,0.15675425949901575,5.296380112876861,1.0814758648025464,1.8224346814958783,0.74367637875,0.6829356789681233,-3.377061263137609,4,left
9.56,-0.030729076021821636,1.3062602073296143,0.232186100130287,5.262803709805751,1.0263418448633765,1.8130528925015414,0.7385614416039328,0.6858817054918371,-3.36050256017782,4,left
9.564,-0.0005835275104762484,1.233714142388838,0.29637382541909374,5.269458333135322,1.0403173912177743,1.815357698149954,0.7442469726607747,0.6891599329755174,-3.3821146896470804,4,left
9.566,0.031282742851651,1.150996615913176,0.3500473311150248,5.2803347651889325,1.0522577708048897,1.8175320023637513,0.7383921782468024,0.6798886984529553,-3.356975079870875,4,left
9.57,0.06746407507468205,1.0648166277118438,0.393736024859334,5.262461001729513,1.0303049732549383,1.8136182874309865,0.7434764550085828,0.691701886255089,-3.380646141703605,4,left
9.57,0.10472768776967055,0.9770414505975298,0.4360112742211758,5.2789016984942005,1.0513403661986092,1.8173413627602224,0.7411292290541915,0.6838906907873552,-3.36856584418994,4,left
9.574,0.1541174206437026,0.8846360931312383,0.4683278157744899,5.269134254726574,1.0355459275396672,1.8146478455038872,0.7378627692984454,0.6792330769783111,-3.354790085224155,4,left
9.575,0.2158345437501873,0.7895465282252094,0.4860588303737566,5.269992177338207,1.0470728463760324,1.8163654284667188,0.7495342677793875,0.703998896276443,-3.4079817196271405,4,left
9.579,0.28624141485688664,0.6956919997687196,0.5000950086080325,5.277794988439354,1.0364712044713045,1.815125817169135,0.7286541541311141,0.6567924993182913,-3.311406538718005,4,left
9.579,0.3740131961724473,0.6042080158656618,0.49089086282687777,5.263816491070271,1.0485160433445735,1.816331717277413,0.7551263019531611,0.717975729571062,-3.4344957614322738,4,left
9.585,0.4657577542749049,0.5220503370435242,0.4700587282304041,5.2791528610995515,1.0363794593280096,1.8151662324098734,0.7331700888437185,0.6666525776071399,-3.332126737532224,4,left
9.586,0.5633612645274026,0.44555233989950516,0.4155751745636125,5.269604592417501,1.0422811030436179,1.8156501168385757,0.7336414177890592,0.6682564277509067,-3.3345592563135025,4,left
9.589,0.660384551838867,0.3850236207918908,0.31777520661999314,5.264777896627509,1.0528668130486458,1.8170053235922523,0.775733766547927,0.7657187713138015,-3.5303821091582863,4,left
9.59,0.7446684996137971,0.3613146842783285,0.2212499325088606,5.29147261300292,1.0155420574912157,1.812610383510284,0.6724957263552336,0.5257821221388608,-3.049679637395136,4,left
9.593,0.8329461896655799,0.36116713781454945,0.04458629783989801,5.2409629197143595,1.0831327108762343,1.8204829985609257,0.8435655887092444,0.9237955663534563,-3.846417356698801,4,left
9.595,0.8727695136511947,0.3702007097275185,-0.1015553764991171,5.3060432381927605,0.9967131701777676,1.8104373396103424,0.6179737671830556,0.3987219705079183,-2.795664454408122,4,left
9.597999999999999,0.8858104811890646,0.3689328018684676,-0.14624576554847954,5.2516231172309595,1.0687038883832178,1.818797218551751,-0.3288781498578105,-1.805206463830097,1.6147808803385455,4,left
9.599,0.8894136187981544,0.40372362075480284,-0.31852958098550166,5.253438324093159,1.0673426564393982,1.8186711882964404,-0.5544483691043177,-2.3303424195105062,2.665460678060203,4,left
9.6,0.8329998772326298,0.48673206057688334,-0.5322677084911818,5.356076545884121,0.9281623022352884,1.8024048601279716,-0.38343543314495004,-1.9322055517833108,1.8688927590337774,4,left
9.603,0.7314302458812258,0.5759633727077397,-0.6444996441616268,5.103407678528427,1.2695421555730864,1.8422645600978464,-0.486563512689581,-2.1723147320443177,2.3493040295848524,4,left
9.604,0.4851589542392346,0.7721581673987294,-0.6860297600668561,5.522439366143613,0.7037186459908512,1.7762095084028915,-0.4446386572591597,-2.0746675974465214,2.1538811721335644,4,left
9.607999999999999,0.2684267570469121,0.9422325987656723,-0.6689010572008905,4.9697391450210295,1.4500023908676332,1.863329850979317,-0.44397063177044505,-2.0731883881390427,2.1510305015699287,4,left
9.609,0.20522180853552693,0.9935748530398663,-0.6492159539989487,2.65004748618962,4.583973415777452,2.229266018119448,-0.4660778225748713,-2.1245513589086285,2.2536448196191183,4,left
9.61,-0.07061418537627676,1.2162118385843197,-0.5611935421519336,2.097383673637649,5.330353312582139,2.31640282632095,-0.4396190120242218,-2.063055528622016,2.130753805137294,4,left
9.613999999999999,-0.49223896782326904,1.5617182819993314,-0.39897550550261923,2.516405129132509,4.764343563760774,2.250315708378439,-0.4601894398082364,-2.1109036362310736,2.226421855092875,4,left
9.615,-0.8487010844064762,1.876837694683397,-0.2573647018541251,2.263617995914294,5.105975038162008,2.290219112105164,-0.44920678807322834,-2.0852384442957357,2.1749531159111664,4,left
9.619,-1.1947141330256614,2.2178813240029447,-0.1476683213983959,2.366599813506456,4.966539451198958,2.2739078091522975,-0.451459144519962,-2.0907839814124447,2.1864360214177117,4,left
9.62,-1.426282886318683,2.52276585005975,-0.08452838408211723,2.36781798076019,4.965326341847279,2.2738090242858657,-0.45486957264235667,-2.0982061062205686,2.2006175858238386,4,left
9.623,-1.5338183612674228,2.7513620808631876,-0.05456197656887219,2.314140006522613,5.03742576140077,2.282185500128681,-0.44920730536512343,-2.085658367075792,2.176332546827147,4,left
9.624,-1.575470405859577,2.8907673922898915,-0.0720212423059628,2.378623556908341,4.950496919782084,2.2720537881383156,-0.4544364890915154,-2.097326900453603,2.199024782835398,4,left
9.629,-1.5415588082515388,2.945365221292021,-0.17361509155097338,2.3281071959460586,5.0190520737224515,2.280092640413006,-0.45124759695039085,-2.0898973969064016,2.1841550020802396,4,left
9.63,-1.443458769566806,2.960482314650602,-0.32404583380373675,2.3559230556450608,4.980448589289799,2.2754741023318825,-0.4517806899246023,-2.0920792104266406,2.189731015498808,4,left
9.633,-1.2705149843528993,2.935642400568142,-0.4782899401432522,2.3485320299032733,4.992201142165294,2.277037779255341,-0.45374876340401993,-2.0945123984498517,2.1918315987385846,4,left
9.634,-1.0348066154137605,2.8778219682729578,-0.5955953290590706,2.3428076991053626,4.9977683521887135,2.2774530217602935,-0.4500496824839877,-2.0891055306242263,2.1851429581097506,4,left
9.638,-0.7557664586670104,2.7817552955774243,-0.6488409867314053,2.3540825489797754,4.984262085053407,2.2760631822061685,-0.4541350020935071,-2.095200407144974,2.1929351255443343,4,left
9.638,-0.45681166455134137,2.635126535237232,-0.6256162989909722,2.3423986758683846,5.000058644828603,2.277909033549952,-0.4515501902306399,-2.0911558995997277,2.1873873825324637,4,left
9.642000000000001,-0.17848405988663185,2.4396956206524782,-0.5176278926609335,2.3523940621159247,4.983366627092165,2.2756135205394488,-0.4504334319844089,-2.090259072716317,2.1877838785622252,4,left
9.642999999999999,0.06382160978508097,2.1998177266618795,-0.3671201004523036,2.344009985242894,5.001981972207483,2.278579296856892,-0.4571399022259913,-2.0984232680855666,2.1945253091696775,4,left
9.648,0.2688533989159133,1.9378566269840072,-0.21294022671027268,2.351425396410625,4.9810909318896615,2.274957991086014,-0.4443745975695378,-2.0825171285310544,2.1804935711056754,4,left
9.649,0.4373156019900646,1.6726867222131745,-0.04902816483713113,2.3453844599495586,5.000842181422119,2.27852447712318,-0.46083920892063995,-2.1031137546413805,2.198853924223692,4,left
9.652000000000001,0.5859014043627313,1.427461348813066,0.11200791724911761,2.347623692451166,4.991120831592626,2.27666078049517,-0.4470643911068576,-2.0858480465618694,2.18338731367895,4,left
9.652999999999999,0.7215346218105746,1.2018906144388277,0.2666721615746917,2.3534444401992065,4.977484198646281,2.2744418093586845,-0.44755057867317605,-2.086584527259267,2.184338000633817,4,left
9.657,0.8416432122464326,1.0001156704169236,0.4097179936465717,2.335149003480478,5.02746369565409,2.283023187706382,-0.47344346721889546,-2.1186261008607303,2.212083040459624,4,left
9.657,0.9434278632502748,0.8414412927050172,0.5219336125330326,2.367379704204043,4.9370722361803985,2.267375887684704,-0.4096693878081486,-2.039552360368961,2.143263371963101,4,left
9.662,0.9973820599323084,0.6919145679344361,0.6259556926472938,2.326609290574061,5.052306199687147,2.2873716207191945,-0.5154425791111711,-2.1707455595538976,2.257529354770118,4,left
9.663,1.0174958566181822,0.5968021539751875,0.6902213291005563,2.360381150981997,4.956463956824523,2.270718713776148,-0.3759276424368203,-1.9976909737648438,2.1068025818571767,4,left
9.666,1.0156430990323488,0.5777256906491293,0.7061574376741395,2.3598815120221097,4.9584929799266195,2.2711071337044,0.20953346334946882,-1.2717025288518047,1.474875470200414,4,left
9.667,0.9805794727680581,0.5175036948103903,0.7663384123750493,2.2943879751650202,5.142739424255093,2.3030267081520517,0.34902921012336924,-1.0986672167216387,1.3242194814243642,4,left
9.668,0.9254989256798822,0.4439368726598514,0.8504825414770861,2.4547528252855653,4.690719592167579,2.224662216208436,0.24327896895654363,-1.2298466938861967,1.4384076421125722,4,left
9.673,0.8061419833883468,0.4357038660601269,0.887516949816175,2.18910630212138,5.439848215740764,2.354560498342526,0.3070531952334524,-1.1507397649116522,1.369563232533118,4,left
9.674,0.705684988213627,0.4413346867691066,0.8981414200369644,2.539381423970733,4.45191174890406,2.183237059286472,0.2811074131062299,-1.1829025798921267,1.3975532654975793,4,left
9.676,0.6755303715859831,0.44799633022725444,0.893617418710619,4.0101428758312805,0.30434849966668787,1.4640633448755906,0.2807457061950079,-1.18341298139898,1.3979707780898785,4,left
9.677,0.5520711882074953,0.4832268812884444,0.8506987506670849,4.360320552044048,-0.6834313912839879,1.2927400182955902,0.29433349845016354,-1.166443573259784,1.3832734678030745,4,left
9.677999999999999,0.37912743338131105,0.5254097186355849,0.7644215211575068,4.094865912672128,0.06539903477947724,1.4226318863397418,0.2780658003076958,-1.1867799377982444,1.4008617169541782,4,left
9.681000000000001,0.2572601175089095,0.5472880388692879,0.6381618825282125,4.254964638998058,-0.38622904076384224,1.3442896359600747,0.29072631676598015,-1.170921486433201,1.3871743468536126,4,left
9.682,0.15324967001129802,0.5507211157737719,0.47090083704421004,4.189752687159627,-0.20236113588707114,1.3761636654854517,0.28389643575288226,-1.1794580550244174,1.3945529387926594,4,left
9.686,0.09196645976830548,0.5343635343420168,0.2773477883962975,4.189068935356175,-0.20014593335261838,1.3766193847255703,0.2854893163076483,-1.1776178280995584,1.3928524892562175,4,left
9.687999999999999,0.07566410492053363,0.49718004931869125,0.06848375015057007,4.222767111084258,-0.2957520905404407,1.3598945599011047,0.28720914541443554,-1.1750534625040687,1.3909431138234596,4,left
9.691,0.0971980420266932,0.4610610725580301,-0.1351536568490619,4.182491857701265,-0.1813815667730992,1.379931211140234,0.28423273215200806,-1.1794861779186308,1.3942432925756831,4,left
9.691,0.15869420306277518,0.4412460364475345,-0.2968032383467111,4.213725645724208,-0.27023361672852647,1.3643232582366391,0.2869770167378723,-1.17517396106644,1.3911759048038794,4,left
9.696,0.24707625529496785,0.446073465909712,-0.42131034298605097,4.19680986602822,-0.22220144138243303,1.372738153287301,0.2851632017720109,-1.1781474071656173,1.3932166483958406,4,left
9.696,0.36442309667263384,0.49396442312693667,-0.5170471950144075,4.201291285223923,-0.23419073045950622,1.3708295023134078,0.28602862818258745,-1.1770810516863022,1.392283842109058,4,left
9.7,0.4940361609840853,0.5868796086918764,-0.5754630993683458,4.204075657242579,-0.24412477255458473,1.3685594023520973,0.2857260818659261,-1.176112047977385,1.3924560240984567,4,left
9.702,0.6294201036361391,0.7034728275748818,-0.6226045378223406,4.199237366013527,-0.22690070876288224,1.372488385631022,0.2859424696961394,-1.1789147248258707,1.3925740215451405,4,left
9.708,0.783744973209233,0.824278855797748,-0.6804480295392006,4.202898048708524,-0.24161198338440792,1.3687816879008428,0.28550910429435516,-1.1748713123636554,1.3925180775636734,4,left
9.709,0.9523519491744865,0.9407701177886122,-0.740022418898558,4.200916660140278,-0.23252904893370527,1.3712778856369776,0.2861176391193194,-1.1789993686504205,1.3924189882890095,4,left
9.71,1.1245123390394076,1.0476660636390462,-0.791281059614986,4.203114909673777,-0.23869517476604923,1.3702165606363614,0.2857675721428169,-1.1766130719786658,1.3924751263118322,4,left
9.711,1.291100839261955,1.1354404793828414,-0.8203845623389635,4.197576366063528,-0.2295635248891846,1.3700917647486057,0.2851409407383524,-1.1749564502784715,1.3928726780927214,4,left
9.716000000000001,1.4369214555883159,1.1988832931487274,-0.8211342351351016,4.209036853291645,-0.24706204029388873,1.370961720984687,0.28746286154499856,-1.1827229089211837,1.391583456759311,4,left
9.716000000000001,1.5442559214677491,1.232858982965032,-0.7976656793196022,4.191664766344344,-0.22017770851485385,1.3697987733885144,0.28317772752188963,-1.1682961860111174,1.3939531240245677,4,left
9.721,1.5943817091545065,1.2288975799004143,-0.7488812256858699,4.210549341833781,-0.24987217499697986,1.3708594523955524,0.2887070122060189,-1.186785256084218,1.3908799819671949,4,left
9.722000000000001,1.5887263444820756,1.195017559145151,-0.6840021595684344,4.199645406127797,-0.2327294486655185,1.370243172850987,0.2840786047233853,-1.1713679409211708,1.3934606382043657,4,left
9.725,1.5257065134369237,1.138549414013408,-0.6069163926412514,4.189418888181738,-0.21563977564418538,1.3701156510016927,0.2841697180281334,-1.1718205778166682,1.393423591076834,4,left
9.725,1.4256197164422648,1.0726914731015573,-0.5257993122609493,4.233095115008774,-0.287429858548662,1.3712001901913418,0.293140908017153,-1.2010543551845005,1.3883552016424505,4,left
9.731,1.3273413125683842,1.0152486807359635,-0.45525955337531954,4.152159604878275,-0.15445244754366877,1.369159066938522,0.27111668749295487,-1.1291834464091024,1.4007930133570814,4,left
9.732000000000001,1.2095960142932505,0.9592065484202809,-0.38349854866295835,4.2561423869894375,-0.32538294752368613,1.371751091727022,0.3076363237539956,-1.2483348455662076,1.3801616286501774,4,left
9.735,1.1320310542252097,0.9233510794667701,-0.3389060932511643,4.169316658328752,-0.18260946390084398,1.3695957973218849,0.2594588932440833,-1.0911957759699136,1.4073894743406363,4,left
9.736,1.112375496520066,0.9163336953936149,-0.3303553290776782,4.171545019863039,-0.18619676521454626,1.3697114339806855,0.05714443279564234,-0.43159453937053066,1.521703674486469,4,left
9.736,1.0410605003559747,0.8997710679673157,-0.3006155220388984,4.337558086867664,-0.4595553053296215,1.3736045608133456,0.008954897244917836,-0.27448834330825883,1.5489550641576861,4,left
9.741,0.9598039267602911,0.888025616747714,-0.266940448831768,3.929652657409388,0.21207559711040086,1.363974347952103,0.04549396516055158,-0.39359631622408364,1.5282913602457233,4,left
9.742,0.8989565982119049,0.9088885364680137,-0.25593358156735224,4.6059382108017495,-0.9014915764514976,1.3799584279011463,0.02345228782239037,-0.3217397177437773,1.540743732992377,4,left
9.745,0.8505363751126198,0.9264001624873273,-0.2490287840049304,3.713935191028045,0.5673230065015257,1.3588708489569958,0.032426292177566006,-0.35103408458573,1.535709848046285,4,left
9.745,0.8393781527269192,0.9329385452978902,-0.2487858572404334,-0.03152324652997407,6.734348285293978,1.2709234613389833,0.032542253521908135,-0.35131801537210144,1.5355651620577855,4,left
9.746,0.7862112589916224,0.9648612541863096,-0.24480815923281354,-0.9235986142913435,8.20329626337497,1.2498691227560816,0.02785347647758802,-0.3361732871572899,1.5383268903624367,4,left
9.753,0.6955818555321642,1.0146764788879015,-0.23699302939076622,-0.24708324479216934,7.089401135716292,1.2657505046695605,0.033473784045696106,-0.35435257247852087,1.5350400360050118,4,left
9.754,0.6082106017248003,1.0643346544492294,-0.2356013156806911,-0.6554956632248274,7.761627566443485,1.2563429876483134,0.02909197820604288,-0.34013072527804944,1.5375639465160873,4,left
9.754,0.4987720161643198,1.1159490901750209,-0.2310036556132737,-0.48863566243002987,7.487406863218805,1.2598681022353442,0.031467999505642705,-0.3479991087098697,1.5363153029836751,4,left
9.755,0.3846458354565685,1.1618344142233537,-0.22300152745004198,-0.48749032168995265,7.484778808551045,1.2604500122891316,0.030894620241769987,-0.34573188250060327,1.5363362516012398,4,left
9.759,0.27126690034348994,1.1969607287880528,-0.21183435095099618,-0.5733550829508672,7.626894124775264,1.2578868173101556,0.030323651455693622,-0.34455790677536785,1.5371808634844468,4,left
9.76,0.1589816980430414,1.216680336783659,-0.1977218427040022,-0.4695899265109225,7.455723164571717,1.2605594595997014,0.03134040139282532,-0.3470280333079747,1.5359659381529607,4,left
9.764,0.054869731095529034,1.221706538124784,-0.18637439525582167,-0.5518043886056916,7.590467924477499,1.2590881189425107,0.030376816699471634,-0.3445604485966097,1.5370208919070185,4,left
9.765,-0.043945642251117786,1.2156870211368438,-0.17637147233648842,-0.504777890557016,7.5150509682504545,1.2587103571169842,0.031059756725313515,-0.3467924840963536,1.5366394710975282,4,left
9.769,-0.13301663653693674,1.193896108082833,-0.16821580383957763,-0.5203543594137996,7.537229088949861,1.2608967145635623,0.030660213759138306,-0.344240219970502,1.5359183159649579,4,left
9.77,-0.21461974143357426,1.162118959346922,-0.16399886562379828,-0.5251297040728949,7.549348000731953,1.2576540962622926,0.03089213425499703,-0.3478531044080079,1.5379512866335725,4,left
9.775,-0.2841897198467914,1.1241264199965715,-0.16365495180624162,-0.5104852041088532,7.521843194690163,1.2604929906251008,0.030709360925219857,-0.3429948641195928,1.5348262485833026,4,left
9.776,-0.339975604252553,1.07691918753486,-0.16733813337012332,-0.5293792926769867,7.5529215760648025,1.260071219897389,0.03087374380243502,-0.34807500306656947,1.5381747812404267,4,left
9.78,-0.38614436769391824,1.0268636844455155,-0.1720225260583274,-0.5066455352447136,7.521786039595302,1.2559774475379157,0.03082681857490029,-0.34529580052171627,1.5362128970384257,4,left
9.781,-0.41333721922091277,0.9802234924529618,-0.17385129162865615,-0.5352555304527473,7.554506935353956,1.2658808360585163,0.030548528029537992,-0.3421263215426123,1.5346559537053737,4,left
9.785,-0.4224690845147836,0.9351155402600194,-0.17276109474463414,-0.5007968175191497,7.51922910316302,1.250914155180709,0.0313770215104539,-0.35473135975714115,1.5416896050507418,4,left
9.786,-0.4193133501901266,0.8931385382113168,-0.1725075473833715,-0.5345200704217365,7.5518823157359005,1.2669390284906494,0.029910982542720236,-0.33158328752991306,1.528605992523278,4,left
9.789,-0.3965155939603431,0.8627593076113915,-0.1707791564526832,-0.5170556639281918,7.536337329172803,1.257633298424497,0.03177749439874851,-0.361255946942024,1.5454148583814318,4,left
9.79,-0.36157848745343435,0.8451809818296234,-0.16196217748550706,-0.4957181441022496,7.5126093912185254,1.24975646503984,0.030225901219167923,-0.33650340534811074,1.5313784164522364,4,left
9.794,-0.3174684625820865,0.8442442666422336,-0.14604917276800428,-0.5775068524713356,7.597399381487507,1.2844958249497946,0.030242779957099303,-0.3370962304777406,1.5317720755480768,4,left
9.794,-0.26297129237572464,0.8584176378061303,-0.12244032490375402,-0.42857289227848505,7.444658726813857,1.2200093522405662,0.03328317693650958,-0.38454972651272723,1.5584915837124036,4,left
9.799,-0.2066084194668816,0.8775797921595432,-0.09799995724630095,-0.6188158948736822,7.639160675975404,1.302834113258054,0.025840398620797414,-0.2680035096738525,1.4928021869690264,4,left
9.8,-0.14098005536957842,0.9064936430336579,-0.08238179868366331,-0.4604224932913168,7.477469397361224,1.2336811265864753,0.038172439367578526,-0.46122227946780137,1.601722269805915,4,left
9.802999999999999,-0.09594683815021646,0.9291096804998504,-0.07600489044271258,-0.46403490217820453,7.48078241440364,1.2355611250014196,0.02190812511671454,-0.20636552173256476,1.4580570282436929,4,left
9.804,-0.083063141259163,0.9363049225534246,-0.0761037119802038,-0.7678440912462963,7.791921434903061,1.3673978981883246,-0.04640769198724155,0.8634602076316887,0.8550424251005835,4,left
9.804,-0.0420974197235664,0.958511173758325,-0.07556943442555669,-0.022115320285175433,7.0287223784623025,1.0433516204873914,-0.06267339731975965,1.1183340370701664,0.7113789391833585,4,left
9.808,0.02106584616567566,0.9913385631892577,-0.0749783732899931,-1.2581614246114996,8.29355260477426,1.58063191938025,-0.050339852948355496,0.9250967947491631,0.8202971245558368,4,left
9.81,0.05030131353396301,1.0077175095629718,-0.07742967034712789,0.3719868472155855,6.625470756499805,0.8719717564021641,-0.05778205376117611,1.041635993992872,0.7546069981905067,4,left
9.814,0.059784182007819375,1.0128177899968804,-0.07908581265253334,7.215359414299003,-0.37718253898580967,-2.1026805341267956,-0.054746659678889975,0.9942437511461514,0.781332821961638,4,left
9.815,0.08935089932134875,1.0242646295253546,-0.08383230475602943,8.845325044141493,-2.0451955224894647,-2.8113094660440163,-0.054719023580735535,0.9935191220607663,0.7817129021353004,4,left
9.815,0.12442387377187977,1.0394295599074836,-0.09209925383937931,7.60962832118564,-0.7805781294879637,-2.274076485117766,-0.056286035023877634,1.0184606517792143,0.767695921696296,4,left
9.818,0.14434336052076951,1.0446415278747105,-0.10193333790986905,8.35489465868638,-1.543315568621892,-2.5980876977591087,-0.05440417680078226,0.9885997896472073,0.7844854178761972,4,left
9.82,0.15570964839079082,1.042225350091035,-0.1144266112467382,8.051538280844907,-1.2329394897170936,-2.4662376241325674,-0.05587682443123394,1.0118290864116066,0.7714101446129005,4,left
9.823,0.1614687220102448,1.0368922614157805,-0.12611073202974976,8.047692001917067,-1.22865970857644,-2.4644522380570084,-0.05506153903702789,0.9993856173383381,0.7784604713127272,4,left
9.823,0.1627666052089778,1.0243893148167784,-0.13641896200225778,8.205827935001608,-1.3911968758881863,-2.5334167316913216,-0.05529733428613766,1.0020345642730568,0.7768498850014867,4,left
9.827,0.15282262988798873,1.0064392162275224,-0.14064806426933635,8.016581788236904,-1.1965274301202857,-2.4508456742563958,-0.05541745138544532,1.0057107066775992,0.7749803884712245,4,left
9.828,0.1306853349519759,0.9889010299776115,-0.13542881231555853,8.163710558265107,-1.348087212414458,-2.515100104032399,-0.05516327484232472,0.9995297538002398,0.7782155822801258,4,left
9.833,0.10096785920184027,0.9716319656048741,-0.12757691383179634,8.084234390844308,-1.2663286086325376,-2.480425341934298,-0.05541758955061065,1.005265681423268,0.7751808377201903,4,left
9.834,0.06182532882101154,0.9561106908483572,-0.12214514002510837,8.103573477473551,-1.285259263861344,-2.488579976921508,-0.05518641353996208,1.0016604683654031,0.7772147642978899,4,left
9.838,0.01924660184783019,0.9450099044569603,-0.12136655325230389,8.121386971769123,-1.3062499833979144,-2.497131252897787,-0.05545294936374368,1.0025843212132977,0.7763257013817632,4,left
9.838,-0.026832292940703308,0.937395690736213,-0.12254453184539968,8.090521057273076,-1.2699085975288975,-2.4823250743591214,-0.055073780787566605,1.0040740196990163,0.7763277312613858,4,left
9.842,-0.07664110702403543,0.935752506511439,-0.12216438478550425,8.117793554673959,-1.3036519548906944,-2.495882914037269,-0.055584343633693384,1.0009891630582737,0.7768108589735041,4,left
9.843,-0.12407269879075153,0.9414847651257832,-0.11924636024467661,8.100417910884435,-1.281219864897404,-2.4869732198648036,-0.0550503345017579,1.0044383400275425,0.7762052440115385,4,left
9.847000000000001,-0.16994345765315752,0.9514465290489111,-0.1142141002154907,8.11056855554531,-1.2915656338840793,-2.491373549995873,-0.055342706674898524,1.0021917237622966,0.7766982620437837,4,left
9.847000000000001,-0.21141913198211698,0.9601003636463973,-0.1123252302535818,8.099937594147889,-1.289317974388241,-2.4892686040204164,-0.05567488331997017,1.0015115837537514,0.776414659394748,4,left
9.852,-0.24583254089640977,0.9685410109830864,-0.11399497160294556,8.118676512299096,-1.2887690086618404,-2.49166432566488,-0.054352284544840035,1.0065449561908104,0.7764957905579639,4,left
9.853,-0.2767818884063996,0.9816216924059409,-0.11555574780567711,8.089431344455697,-1.2882681297176264,-2.4875292505747026,-0.05678141478048131,0.9968392541754949,0.7765549019733746,4,left
9.857999999999999,-0.3022876406813205,0.991872833874911,-0.11498813421512999,8.122319524782652,-1.2905538392076674,-2.492681769800058,-0.053667547669200094,1.0093852152987703,0.7764317004015134,4,left
9.859,-0.3216966468442229,0.9970876117635419,-0.11422209456907369,8.103334343120391,-1.289251750326573,-2.489712312736204,-0.05626510946847972,0.9988773671263933,0.7765541107513265,4,left
9.863,-0.33351069861619725,1.0018652209684042,-0.11633440193572925,8.083174214732578,-1.2842446784726542,-2.485502879763697,-0.05620280682181833,0.999291467013031,0.7764765675943499,4,left
9.863999999999999,-0.33899739244264127,1.0046489367021532,-0.11916399366586887,8.166494394346898,-1.3011297270501807,-2.5017905322954856,-0.05122331132006355,1.0189025980166437,0.7764856019978513,4,left
9.866,-0.34328078219671254,1.0048357741791798,-0.11831769532833077,8.012218443795682,-1.27006562713443,-2.471690323834035,-0.06345306250010638,0.9705478248159253,0.776551828227392,4,left
9.867,-0.33625927593702404,0.9990612755675372,-0.10862809137582694,8.210633850903756,-1.3102766677697777,-2.510478299037689,-0.04317775342978068,1.0507618650265929,0.7764182201713299,4,left
9.873,-0.32792076940977344,0.992958388846513,-0.09976607328098205,8.044839105853203,-1.2765581433295945,-2.4780323717821084,-0.06992083750583471,0.9449566901958351,0.7765974063981665,4,left
9.874,-0.32427900589972414,0.9916770700091332,-0.09749944854475555,8.048937386671907,-1.2770657386226834,-2.478740324686132,-0.18217885337423131,0.5010381195775544,0.7772056026350851,4,left
9.875,-0.307226727278994,0.9847341105501151,-0.09057320299868736,8.36675342031208,-1.3430947834920555,-2.5413406114372066,-0.20892271429248083,0.3952500561807041,0.7773739612297252,4,left
9.878,-0.2843502567681443,0.9731385389189489,-0.08270914275360834,7.58588305204197,-1.181105623595079,-2.3876015984771852,-0.18864752894593767,0.4754436288332732,0.7772572474073214,4,left
9.878,-0.2538695836141261,0.963898065885747,-0.07422149920853006,8.880644708904011,-1.4497263514138568,-2.6425252536902812,-0.20087354518113487,0.4270887358836994,0.7773095834099083,4,left
9.882,-0.22929538770421937,0.9593775936716171,-0.06557936851177326,7.172752316173698,-1.0953124662883118,-2.306236093424898,-0.19590387859997171,0.446747008379505,0.7773175802739145,4,left
9.882,-0.22283453059158315,0.9587744616033405,-0.0645618636516774,0.003089939654362217,0.3933686610402168,-0.8942823733394565,-0.19582513155714926,0.44705014468756576,0.7772675365061092,4,left
9.883,-0.19794080152644572,0.953961563316466,-0.05919223139255611,-1.7049498419470077,0.7479414276622462,-0.5579277696433029,-0.1984425053990443,0.43670902775368503,0.7773302892977143,4,left
9.886000000000001,-0.16082096089690115,0.948152344186409,-0.04764778095346925,-0.40997678470215726,0.47906780681001,-0.8129495261523392,-0.1953136135615244,0.4490794263179112,0.7772917620867061,4,left
9.887,-0.12622509947188276,0.9469499188666679,-0.040631501055089864,-1.1909704590018948,0.6412784691405142,-0.6591407605613072,-0.19774049167498342,0.43946717876362906,0.7772674166537185,4,left
9.892000000000001,-0.08225793843937593,0.9460996267294113,-0.04089710348839181,-0.8733041454813251,0.5752281990527321,-0.7217054977565891,-0.1964509223355075,0.4446105181796244,0.7773839549672041,4,left
9.892999999999999,-0.039441201259630645,0.9473918835840511,-0.049787008295206346,-0.8686303621065711,0.5743711552713087,-0.7226230993567373,-0.19671132908456235,0.4435059689853209,0.7771723001501849,4,left
9.896,0.0008068465293112666,0.953201778331836,-0.061845378710749625,-1.035453114269937,0.6089070630334128,-0.6897699653493696,-0.19710770521599322,0.442030467385496,0.7774357503956252,4,left
9.897,0.041736459703247554,0.961795031983884,-0.07514759372652022,-0.8357606240967979,0.5674869145008576,-0.7290966117777069,-0.19646693590732672,0.4444909807043035,0.7772240256359397,4,left
9.902000000000001,0.07783261462458432,0.9711291992433048,-0.09008666905461306,-0.9910582095772715,0.5998065668096935,-0.6985166530233937,-0.1970314173320798,0.4422575553209609,0.777225552905093,4,left
9.902000000000001,0.10894366715177531,0.9790335640438999,-0.10012981060809015,-0.9077502343981902,0.5822687656750943,-0.7149116667197142,-0.19672455463990934,0.44360928135443434,0.7776091101113752,4,left
9.907,0.13379777783067304,0.9862857927380837,-0.10569659870732968,-0.9260056044911136,0.5864695351642337,-0.711336790344605,-0.19672623380128812,0.4432870796722973,0.776728536782511,4,left
9.908,0.15146861349115343,0.990058433159675,-0.11024574637304238,-0.9493315291483632,0.5908121244330202,-0.7067174985405457,-0.1969701198863923,0.4427934239768873,0.7780435501485984,4,left
9.912,0.16523630287353713,0.9899961324488883,-0.110442386812353,-0.9099922586892102,0.5830418467808931,-0.7144855368474603,-0.196619958888002,0.4436761636281398,0.7766412440053114,4,left
9.912,0.17719938598357438,0.9902524107613152,-0.10613605293830825,-0.9460587067855516,0.5905335374196394,-0.7073830548723326,-0.19688276260190002,0.4429270204676631,0.7774518471693745,4,left
9.915,0.1849279880334044,0.9877411901854344,-0.10150804866203429,-0.9235189626945357,0.5851187709566938,-0.7117825366295041,-0.19692127124802222,0.4430247366852096,0.7781494343156932,4,left
9.916,0.1888683389029937,0.9825453021673375,-0.09395314655669867,-0.9303473282148189,0.5882152245586788,-0.7105280252404198,-0.1964058123861318,0.44396868991690863,0.7750943359965421,4,left
9.921,0.19322074490854702,0.975768966203629,-0.08065327053456722,-0.935896652321351,0.5868638565339048,-0.7093002817629154,-0.197443736095254,0.4418940672620062,0.7807605422397286,4,left
9.922,0.19740238725820478,0.966860854338719,-0.0673839711491235,-0.9242228897125805,0.5871084140448448,-0.7117432973542344,-0.1960813907106516,0.44467479025774764,0.7734846631007073,4,left
9.925,0.19876853297012442,0.9597762885478274,-0.05853264192045387,-0.9348284348490071,0.5877688704905034,-0.7095711961377076,-0.19723132722712,0.4423039022797538,0.7795590520740405,4,left
9.925,0.1994505415336746,0.9539531758927259,-0.050501610182607445,-0.9319688676046348,0.5858461238549351,-0.7100630677585513,-0.19718073185798327,0.44244428212403597,0.7793943903124081,4,left
9.931000000000001,0.20045682865262915,0.9495888609283316,-0.040613542267668085,-0.9223420256574494,0.5896630554743203,-0.7122724436270154,-0.19503975206465451,0.4467624037259401,0.7678123920470448,4,left
9.932,0.20060731588742559,0.9481659201653747,-0.0334063465343117,-0.9454256960898562,0.583670950963884,-0.7071443544081077,-0.20033033422211147,0.4360386800137037,0.7962799665831415,4,left
9.935,0.2027383361607143,0.9483241507617266,-0.03126142234321376,-0.913901173080854,0.5909735686774394,-0.7141007674229336,-0.19154739818561592,0.4538608787004982,0.7490791406663453,4,left
9.936,0.2061357586887835,0.9491816154781438,-0.03096843251574436,-0.9410134599284774,0.5850422661876076,-0.7081358820164091,-0.2031363284850991,0.43033810618572627,0.8113370800117593,4,left
9.942,0.20664891354522963,0.9500971973849249,-0.03130866733236232,-0.9390580505313995,0.5849483476793346,-0.7085400355172644,-0.2517632725102817,0.3316623476035827,1.0726626941849822,4,left
9.943,0.2060129988056291,0.9517359573148128,-0.03260554754181334,-0.8906114735992199,0.5969350181817357,-0.7192685970340502,-0.2633541208603955,0.30813603791572103,1.1349214493674693,4,left
9.943999999999999,0.20918325758313827,0.9543440589981851,-0.033992411814552204,-1.0114499556585455,0.5678410061005261,-0.6925475052483836,-0.25456627179262326,0.32597133790545585,1.0877193373218383,4,left
9.945,0.21574651931599523,0.9586203370850028,-0.034792439652179874,-0.8104346068956326,0.61594181140431,-0.7369858185550426,-0.2598661163351983,0.31521621985825904,1.1161880051617974,4,left
9.945,0.21873416183338848,0.9618205322188059,-0.035545791498839276,-1.0758042895606013,0.5525467460774727,-0.6783222380803612,-0.2577112977521916,0.3195893701411874,1.1046059887912325,4,left
9.95,0.21912632904804438,0.96189586473752,-0.036083295043204386,-2.188800645431042,0.2862532054616602,-0.4322797242353134,-0.25767663441011884,0.3196565919978208,1.1044393978219909,4,left
9.951,0.22090054886260407,0.9633382685291355,-0.03363647718006161,-2.454183293314498,0.2228646973597457,-0.3736030243645013,-0.2588148112647806,0.3173543755192773,1.1105181286721368,4,left
9.951,0.21970069361321043,0.9648950720535489,-0.030880956411906635,-2.253025383533458,0.2709298567058782,-0.41808593004541295,-0.2574503314133483,0.3201119610084363,1.103235957523305,4,left
9.955,0.21721647636506597,0.9639838308383675,-0.03385536755339663,-2.3743137996329367,0.24193427643409074,-0.3912625661403231,-0.2585148853539859,0.3179633034284488,1.1089085341106317,4,left
9.956,0.21390785333210566,0.9632265559617956,-0.038894363754721856,-2.3249751713944393,0.25373599054017126,-0.4021660172250876,-0.25794201860315613,0.31912072360302673,1.1058504153794515,4,left
9.959,0.20679745662698854,0.9612935495211268,-0.044620943134342526,-2.324312095040017,0.25390074567389675,-0.4023421655041196,-0.2580635389152511,0.3188638657104665,1.1065432416968326,4,left
9.959,0.20244577167727848,0.9587298195781134,-0.05482430474052266,-2.3500734417633007,0.24771006926327538,-0.3965854690819915,-0.25824116713250866,0.31853658358985726,1.1073702729626502,4,left
9.964,0.1991183469307627,0.957613299095459,-0.06448018468617672,-2.319267129101882,0.2551316813846659,-0.4034828673807616,-0.2579340943685399,0.3191024114893888,1.1059390729413976,4,left
9.965,0.19226428871910783,0.9563998612497991,-0.07073621573413938,-2.3432052932421814,0.2493468844235377,-0.3981048571757634,-0.258235424288098,0.3185613709165168,1.1072901635038752,4,left
9.969,0.18820784854978156,0.9594758510359838,-0.07855185356171598,-2.3302787049822182,0.2524656413374953,-0.40099946338320963,-0.2580262821387803,0.31892955192928296,1.1063798962466582,4,left
9.969,0.18600501162450248,0.9662217376320822,-0.08983793967361028,-2.3334326924021567,0.2517665706959349,-0.4003756863300174,-0.2580976718363264,0.31878423852323046,1.1067653491226013,4,left
9.974,0.18374790408956168,0.9702746309904857,-0.10040989607858887,-2.336297202670173,0.250900693632526,-0.3995061392395037,-0.25818094965208577,0.31871952344041016,1.1068170086764146,4,left
9.975,0.1856611779506745,0.9753210466749621,-0.10819905547791973,-2.3313402997378354,0.2524001954746594,-0.40100879822570135,-0.2579511588647624,0.3189473844165978,1.1064868099592289,4,left
9.98,0.19067052970810716,0.9830364962054692,-0.11691780057917844,-2.335693510260871,0.2509720910750746,-0.399547340204609,-0.25828479250374947,0.3186261881215138,1.1069301214032643,4,left
9.981,0.1975340053180282,0.9915040011653468,-0.12487553794586871,-2.332935356705063,0.2519409481393147,-0.40055488924478644,-0.2579412895238711,0.31894379381368865,1.1065229291650653,4,left
9.984,0.20685431377983238,1.0010906504278039,-0.12668589006038816,-2.33458717400762,0.25154868374591066,-0.4001933138651612,-0.2581399303800336,0.3187601372207276,1.1067589090564085,4,left
9.985,0.2185379803801448,1.0094681581699767,-0.1231220182474964,-2.3327278781499996,0.25141838925312227,-0.39986613723733044,-0.25828405534954013,0.31865625326507335,1.1068172987737614,4,left
9.988,0.23210774458523156,1.0164144261892751,-0.11898343648867213,-2.336074543938494,0.25193240183772864,-0.4008132147695874,-0.2576181123353181,0.3191810667253927,1.1063739983231888,4,left
9.988999999999999,0.24670274785050209,1.0228712617370395,-0.11430454337825587,-2.330870895498454,0.25121570689195966,-0.39944707008444064,-0.2588549497355309,0.3182045844317192,1.1072054509674658,4,left
9.993,0.2614188684440729,1.0262682201699078,-0.10753553588302589,-2.3366973360526555,0.25191308061325524,-0.4008415889634858,-0.25726892221578024,0.31945357605859465,1.106149842011237,4,left
9.994,0.2727576839710184,1.0269760487722004,-0.104135120155891,-2.333333370113567,0.25150962270661037,-0.40003541695719125,-0.25859216386276307,0.3184133938702848,1.1070256584843507,4,left
9.999,0.2810280820136434,1.029472956509283,-0.09856452838174559,-2.3298165455509734,0.2513088237314004,-0.39947642955044793,-0.2585531067888934,0.3184462044453291,1.106986642993765,4,left
10.0,0.28805298277195746,1.032019963532528,-0.08311609739378872,-2.3444100481897294,0.2523773651791076,-0.4020982387942597,-0.2560430508753576,0.3204077404008536,1.1053818524988643,4,left
10.004,0.2931979608158791,1.033119344795294,-0.07130648962854501,-2.31738511253412,0.2503868484785548,-0.39722787973960594,-0.2622153857307826,0.31558430617190025,1.1093378791694741,4,left
10.005,0.29858544360347705,1.0354010072309472,-0.06912311287660503,-2.3521385708983926,0.25292987062724775,-0.4034697328832317,-0.25198106489158395,0.32357991086648086,1.102779676474788,4,left
10.009,0.30195753468229536,1.0350686621756116,-0.06855406834472086,-2.3231001005789054,0.25081341895090653,-0.39826475051181187,-0.26547977248383947,0.31303626069403084,1.1114261968927703,4,left
10.01,0.3035094427557349,1.0356013223750877,-0.0689681232638655,-2.3238238393726776,0.2508838171219966,-0.3984179732068584,-0.3221205647177481,0.2687632002433503,1.1476754531856943,4,left
10.01,0.3085511514765396,1.0414355226965788,-0.06772331266307147,-2.379464935141871,0.25485912684117085,-0.4082864664375784,-0.3356176996137803,0.2582206683147694,1.1563158246906502,4,left
10.014,0.31666246153909683,1.0442339204977031,-0.06026634744194929,-2.2427497449334735,0.24508122985507105,-0.3840239760819499,-0.32538726334386,0.26621779924606925,1.149768057455367,4,left
10.014,0.3251122451621651,1.0451241935693374,-0.05254806002961236,-2.469438214647836,0.26128912161786483,-0.42424857418225115,-0.3315525130607907,0.26138421350925567,1.153713215825459,4,left
