time,gFx,gFy,gFz,ax,ay,az,wx,wy,wz,subject_number,foot
5.162000000000001,-0.37970302700690006,0.9851770526538518,-0.11478659204226563,5.288016153869842,-1.5459473612336496,-1.8983793560601316,-0.125885614220677,0.550079184499062,0.6206503453827225,3,left
5.165,-0.38560836834050916,0.9791709824398652,-0.12107286977519674,5.791599611163633,-1.8445569494770042,-2.2374005921443887,-0.12609463523997394,0.5588999793901497,0.5596444583060022,3,left
5.165,-0.3924806415496911,0.9737343856457981,-0.12854427685647574,5.127305686128553,-1.4505863103709085,-1.7902161275117834,-0.1259371629738221,0.5522040529342942,0.6059057544859423,3,left
5.166,-0.3911694926448275,0.972803823433365,-0.12853785760114378,2.338038879956774,0.20404568009955404,0.0869145598128086,-0.12602969316976298,0.5562583549710994,0.5779893103748303,3,left
5.17,-0.38902939611548426,0.9648906144959514,-0.1324054034294811,1.6735715487732057,0.5981600062168944,0.5341000021608323,-0.12599652262880973,0.5545815550726639,0.5893724384936327,3,left
5.17,-0.3826188800440851,0.9542264904950724,-0.1361754608710959,2.177477494118707,0.2993362427995254,0.19509580925981623,-0.1259881100225876,0.5546054072947761,0.5894906108807761,3,left
5.175,-0.3700397081259489,0.9468335995863233,-0.13307738580272865,1.8733637092569941,0.47955977254480686,0.39949781225411274,-0.1260161978083273,0.555420884865786,0.5835788702107565,3,left
5.176,-0.355546926288059,0.9397578295183542,-0.13199628732117866,1.9973618625659082,0.4062582497707192,0.3164213528670229,-0.1259885227935908,0.5544086125177848,0.5906921266568127,3,left
5.178999999999999,-0.33588517812176005,0.9360329523022195,-0.12804345322714256,1.998748200799227,0.4051797686952054,0.31512079643664986,-0.12600083700764653,0.5552510229993206,0.5851042173616245,3,left
5.178999999999999,-0.30878788289917525,0.9376921527727471,-0.11969986487310721,1.934077844834868,0.4436494432477295,0.35880265868475303,-0.12601197464851197,0.5546931761924214,0.5882093795218519,3,left
5.184,-0.2758115410387615,0.9435482684214356,-0.10808327549201363,2.012027827831881,0.39764907467031463,0.30664834348792336,-0.12597753086989016,0.5550063194242953,0.5873351034550881,3,left
5.185,-0.23623741393381015,0.9510783504964179,-0.0907427845490711,1.950592856642573,0.4333345606669319,0.34700549700508904,-0.1260253653377638,0.5548586686591246,0.5867741861336742,3,left
5.19,-0.19115778909028347,0.9607908752857022,-0.07931803561308196,1.9848528345354668,0.4143154888892303,0.32565067487044813,-0.12598470166320053,0.5548690448068909,0.5879624779238102,3,left
5.191,-0.14638361030031602,0.9746693172958056,-0.07858409198778452,1.975379918169557,0.41833405415854674,0.3299383832789834,-0.1259887912249075,0.5550573846472651,0.5866721694429908,3,left
5.194,-0.1004801325998714,0.9897383226405478,-0.0812960391805929,1.968346331639993,0.42378275083994166,0.3363356462165456,-0.1260525668972679,0.5545444218527018,0.587879842931766,3,left
5.195,-0.05301471305022325,1.00417053451973,-0.07867879609023835,1.9833201257731974,0.41491326665858513,0.3262727569900409,-0.12590135245519818,0.5554856627973632,0.5867161391429117,3,left
5.2,-0.013335290146010445,1.0178275574665054,-0.06618871544771734,1.9663028575547086,0.4226334904635557,0.3346403973752008,-0.12612887362210978,0.554162887588846,0.5878900152505624,3,left
5.2010000000000005,0.018005578873369538,1.030544167482009,-0.05275670091476124,1.9825278189279154,0.418433915309224,0.33077092960277465,-0.1258856071417001,0.5555432019045679,0.5868443376453172,3,left
5.205,0.04652651649095279,1.0413304040949947,-0.04245752035865902,1.968241456393949,0.4188154331366085,0.3298688177069954,-0.12602667534885964,0.5547656227941046,0.587310653928264,3,left
5.206,0.07193734916353837,1.0494488494189096,-0.03651171158433333,1.9791013879534776,0.42100077901716987,0.3337707634619146,-0.12614669584043847,0.5540332860474508,0.588141241926661,3,left
5.207999999999999,0.09478614353544004,1.0562935439301868,-0.03973859688601773,1.9750580905053916,0.41841467669139326,0.33001502369265046,-0.12561847715266727,0.5571238551580544,0.5852969134476484,3,left
5.209,0.11242277137595086,1.0593902510808912,-0.04315266376221041,1.966872482394068,0.4189719568527285,0.3299388899243131,-0.126598805812538,0.551419420064475,0.5903849906840444,3,left
5.2139999999999995,0.12303780701884279,1.0593449582558296,-0.040318829341128945,1.992774503247568,0.4224158642149394,0.3369456274337773,-0.12533968364582193,0.5587344432528567,0.5839188541587583,3,left
5.215,0.1320866078500741,1.0560336127511227,-0.033435545983732495,1.9476330117749865,0.4143133285248798,0.3220056372296426,-0.12639110692891203,0.5526316067312158,0.5892888937126504,3,left
5.218999999999999,0.13508725532534557,1.0463941538572357,-0.026328864042516102,2.004310399536629,0.4254796600772895,0.3420533544874043,-0.1263621598607862,0.552790476563247,0.5891868233968425,3,left
5.22,0.12975995424144554,1.0390876907484163,-0.025593376057941982,1.9575473633432632,0.4158300429504336,0.32494616360042,-0.12435850747162627,0.5644441521270669,0.5788319592210556,3,left
5.224,0.11739673817499713,1.0310350080572328,-0.030145208519076615,1.958325196830885,0.416377644071353,0.325731758236006,-0.12928416223675407,0.5358099529465921,0.6042207267557018,3,left
5.225,0.09621698949607844,1.0175668738970551,-0.03637034822899186,2.048403897465998,0.43424436284237466,0.3577524154237755,-0.12111654723372398,0.5832833587114703,0.5621479448819671,3,left
5.231,0.08411620784732424,1.0134737031599084,-0.04046389042990266,1.8278793490428442,0.38981538913322944,0.27847048282591935,-0.1318902686325588,0.5206673553200329,0.6176341633388908,3,left
5.232,0.07883005171762114,1.0128686176219104,-0.04325081244326605,2.1930917769197986,0.46372965121087795,0.41020223652654986,-0.17710925971936722,0.25783271741112956,0.8505651230044808,3,left
5.233,0.06759697238045265,1.0080692956096005,-0.04765390423496429,1.711598193017902,0.3661112488116676,0.2363097614541851,-0.18788468326019603,0.1952166110374698,0.9060528132990313,3,left
5.233,0.062978786645613,1.006978284447833,-0.05081043203814084,-0.30963405849359166,-0.043592169365661154,-0.493590089269934,-0.17971439261603633,0.24268954545616528,0.8639820995816301,3,left
5.234,0.05593249888569175,1.0034213548342052,-0.055409557607063765,-0.7909840250529383,-0.1412887141672101,-0.6675648742711016,-0.1846423011288034,0.21405745282652386,0.8893572955545354,3,left
5.234,0.046409972067992133,0.9988337546486159,-0.06176954863799393,-0.4260536554707345,-0.06721475102060584,-0.5356588155812301,-0.18263866723476635,0.2257065033002262,0.8790344441416005,3,left
5.2410000000000005,0.04859600520172032,0.9982563887559076,-0.0672620197506093,-0.646188619094304,-0.11187777496411803,-0.6152088400671998,-0.1826056116372031,0.2258724816798284,0.8788813518092102,3,left
5.242000000000001,0.054181345161394834,0.9962577389325246,-0.07267094132241322,-0.5565194986962481,-0.09374268983465947,-0.5828610574057841,-0.1836661832986719,0.21976172899241966,0.8843102498858861,3,left
5.242999999999999,0.06729955912235419,0.9962125673508658,-0.07938243329797942,-0.5554783512894479,-0.09340588041673034,-0.5823634362268941,-0.18239388201614154,0.2270817920783781,0.8778033600436672,3,left
5.242999999999999,0.09048136633904327,0.9989819989985141,-0.09039437278964527,-0.602124203919878,-0.10304678604080447,-0.5993906782502219,-0.1833874540651714,0.22138046152807433,0.8828758616994148,3,left
5.247000000000001,0.11566505194435071,1.0028081989553637,-0.10411280406647441,-0.5461814299512862,-0.0915225124981417,-0.5790067127411191,-0.1828531388619743,0.22445453853144487,0.8801429353122714,3,left
5.25,0.1455275076012812,1.009538751097229,-0.11686338557827233,-0.5898585478481334,-0.10046025206033243,-0.5948639855422739,-0.18296284222851336,0.22375439977938144,0.8807461191209602,3,left
5.252999999999999,0.17881202134442892,1.014393831733239,-0.12621696054375886,-0.5659694782725497,-0.09575515102732773,-0.5863667370920521,-0.18313869059225724,0.22293322386863512,0.8815296280536434,3,left
5.254,0.21003193976411846,1.01645301627706,-0.1322077590928244,-0.5722194122951545,-0.096561819630816,-0.5881830250360469,-0.1828346877501437,0.22435442205928524,0.8801739531643216,3,left
5.257000000000001,0.23892582723634578,1.0172578748775487,-0.13939158307418809,-0.5770151905264883,-0.09833014871423112,-0.5906786009803185,-0.1831375913144913,0.22301791106545374,0.8814765008160687,3,left
5.257000000000001,0.26472334837710176,1.014162232437092,-0.15066322673020582,-0.5679756867069203,-0.09552044084877914,-0.5864765482863344,-0.18292499896023035,0.2239156044949499,0.8805867591652952,3,left
5.2620000000000005,0.28713119549493715,1.0081670187792287,-0.160643679730967,-0.5767092915188321,-0.09807008891459543,-0.5903781673479189,-0.18299120587226744,0.22352777611456204,0.8809296152900079,3,left
5.263,0.3075676170396826,0.9982940783056381,-0.1637936520271084,-0.5698812045095721,-0.09669121752369869,-0.587916992823426,-0.18310233209321655,0.22350885717541635,0.881121233898708,3,left
5.267,0.3217581642898652,0.9843153787596404,-0.1668862253270376,-0.5755226591944835,-0.09639452464716826,-0.588573817006566,-0.18281167790490738,0.2237654544817444,0.8804942217375034,3,left
5.268,0.33219909769063904,0.9697227081505008,-0.17246447328202608,-0.5694319970230961,-0.09845281663917055,-0.5895307370152552,-0.18323674525403477,0.2234322305213176,0.8813857007522969,3,left
5.272,0.3421249952632863,0.953802132253964,-0.17353382006700205,-0.576888709416761,-0.09505168108539486,-0.5875146510383669,-0.18279493620909146,0.22372168135116077,0.8804936431974231,3,left
5.273,0.34657208293234054,0.9389814606840083,-0.17230368648037153,-0.5692437369837754,-0.09873888052192706,-0.5897732328940266,-0.18305032768728352,0.22355374984336254,0.8810096825380226,3,left
5.278,0.3502327820969992,0.9291522990971641,-0.17215063309950024,-0.5731808344466703,-0.0965112269077236,-0.5882954681921893,-0.18324540453647514,0.2235547818427136,0.8813253315524305,3,left
5.278,0.35358175591983887,0.9226884362706957,-0.1708879368841929,-0.5789510921049341,-0.09507247260553105,-0.5878780856531033,-0.18235921109933353,0.22373895871738064,0.8797767051531559,3,left
5.282,0.35506729867086784,0.9197889262652268,-0.1686760140767924,-0.5575891443498161,-0.10215728015369162,-0.5911061025941553,-0.18400425933731823,0.22338805201961148,0.8826569158075743,3,left
5.282,0.3585901355412484,0.9220273336636845,-0.16337473259209415,-0.5965010399938958,-0.08887624882714071,-0.5848674041968527,-0.18189404687671573,0.2238265108519258,0.8789693636703191,3,left
5.287000000000001,0.36204307877865594,0.9282537041561159,-0.15294551547722568,-0.5466964691850436,-0.1059615756943726,-0.5929339905025444,-0.1836547549205223,0.2234659758283415,0.8820429407786041,3,left
5.287999999999999,0.36487078694469444,0.93827660007778,-0.1406624036089834,-0.588207979688628,-0.09168507812405846,-0.5861780979349598,-0.1836046107511703,0.22349114159879227,0.8819463746208187,3,left
5.291,0.36387976250656356,0.9523664362500257,-0.12971724913656374,-0.5873381069677651,-0.09212084974278326,-0.5864458216768402,-0.18025813958198822,0.22411288224402057,0.8761431312525074,3,left
5.292000000000001,0.3598732014774385,0.9690442819457268,-0.11988755834134632,-0.5073602929452206,-0.11918110691880734,-0.5990463631205394,-0.18848514291067242,0.22257319369111894,0.8904166739255638,3,left
5.297000000000001,0.35288090114392406,0.9900557269100829,-0.10686382829379203,-0.7036286087726846,-0.05261236832188045,-0.5679789068936281,-0.17484457125757424,0.22512446088825544,0.8667517363089484,3,left
5.297999999999999,0.3420163531496344,1.007453071913082,-0.09519081195394372,-0.3782967230773473,-0.1630010423250515,-0.6195111580159188,-0.1928361375348859,0.22176437014797618,0.8979622283751916,3,left
5.297999999999999,0.3402776803847458,1.007670172399043,-0.09434802324162397,-0.8073842172061213,-0.017398161943680386,-0.5515448197759754,-0.26836331473665204,0.20773195550450188,1.0289390020823193,3,left
5.3020000000000005,0.34136675445387643,1.0079669905447801,-0.09487035553312767,-2.6089189473985983,0.5937002763495806,-0.2663471329345353,-0.2863573976962624,0.2043864302978387,1.0601452093638128,3,left
5.303,0.3302261576425277,1.0239348818533518,-0.08829282222026094,-3.0379912662307795,0.7392963101764723,-0.19840840651032654,-0.27271072625667603,0.2069096201910852,1.036486388398711,3,left
5.303,0.3121060276913111,1.0398109860254106,-0.083590437357552,-2.7126981405997057,0.6289152852020667,-0.24990293208415432,-0.2809486550843515,0.2054075699696915,1.0507564492415309,3,left
5.307,0.2928347371348333,1.0515298888476508,-0.08268071328397217,-2.908893567331721,0.6954859856972007,-0.2188519234827278,-0.277586556914598,0.20599163287278419,1.044948641278208,3,left
5.308,0.2755135824130909,1.0627239108498927,-0.0775939270315759,-2.829024432115206,0.6684029205954434,-0.2314942281213398,-0.2775535627926667,0.20603777444086,1.0448691203972915,3,left
5.311,0.25940890859260196,1.0693797904817706,-0.06777819376357815,-2.8280297130267025,0.6680174012340664,-0.23163379118463598,-0.2793028694251757,0.20569527444293284,1.0479124739907464,3,left
5.312,0.24383983206390336,1.0740585315746265,-0.05750039635491949,-2.8696329665282496,0.6822209040136895,-0.22509232096745407,-0.2771875380758726,0.20605568174789785,1.044262243905719,3,left
5.316,0.23177200375830154,1.0755957541481387,-0.047493258745962996,-2.8198460423746416,0.6652094429934396,-0.2329070806473253,-0.2788653814301073,0.20585003920371203,1.0471129310823992,3,left
5.317,0.2215601929658842,1.0731195570434326,-0.04010289004947088,-2.858547896898231,0.6784564144557763,-0.22684817892136472,-0.2779131092061701,0.2058441239374469,1.0455631814087436,3,left
5.322,0.21292903773296962,1.0714070780620455,-0.035147739845427586,-2.837637257631464,0.6713132196131333,-0.23012851536744144,-0.278199790598429,0.20601514332486814,1.0459356430569724,3,left
5.3229999999999995,0.2043081158727566,1.0687478818891218,-0.02964054581269296,-2.8427561558343,0.6729487292134348,-0.22926060268978904,-0.27836619685132685,0.20580547027069374,1.0463236056283542,3,left
5.327000000000001,0.1941886542586969,1.0655725385783208,-0.02691443900014094,-2.84736010245431,0.67483244193743,-0.22871918411792433,-0.27796043886382005,0.20587936529367473,1.0456207639424866,3,left
5.327999999999999,0.18509390803305809,1.064668668025658,-0.028026228341506858,-2.8393803077458646,0.671572571259079,-0.22965869622087498,-0.2784661274927621,0.20611668380587286,1.0463135798590835,3,left
5.331,0.17756394312391188,1.064615027896092,-0.031898714961675054,-2.846381774501447,0.6746252132911983,-0.22894802926280647,-0.27792428134397723,0.2054602608187565,1.0457947768647486,3,left
5.331,0.17459077479599683,1.0651628449326869,-0.040233602229031856,-2.8419491512851307,0.6725817823077697,-0.22933248035939136,-0.2784640061201081,0.20648939525829027,1.0461029193981604,3,left
5.337000000000001,0.17579842997059336,1.06393148318209,-0.05137249114399743,-2.844623159691035,0.6734839773281576,-0.22890651677308033,-0.2780070163694239,0.20537038925515874,1.0459796911863681,3,left
5.337999999999999,0.1781279280071709,1.0612643371775783,-0.06197531410895114,-2.8415606526184747,0.673446474068027,-0.22997977752725085,-0.2782105479720477,0.2060281003397193,1.0459459563106441,3,left
5.341,0.18243619593650684,1.0603693168765695,-0.0722403374039117,-2.847095831483144,0.6730359743279085,-0.2277584249101663,-0.27851356835310914,0.20657162571128518,1.0461380915071308,3,left
5.3420000000000005,0.18583934189913892,1.0601793018182022,-0.08214532434670807,-2.838499305841251,0.6735332396527893,-0.23112614580984522,-0.27745669433802944,0.2041434563622178,1.0457641565719134,3,left
5.345,0.18829416171693958,1.0614489220112904,-0.08802941609989068,-2.8481135668498037,0.6731558525330321,-0.2274646906957693,-0.2793380643080093,0.2086608614250378,1.0463213264790605,3,left
5.346,0.19191215628700567,1.061800798553304,-0.0930549615725196,-2.8425639401210785,0.6733759246183864,-0.2295795375499861,-0.27695737165827816,0.20285404470312574,1.0456666886190107,3,left
5.352,0.19431184649837813,1.0598287398366495,-0.09786976762137065,-2.8367784856824887,0.6732252997785773,-0.2315607889158113,-0.27892953311070856,0.20770432769045336,1.046186627448641,3,left
5.353,0.19364184292860767,1.058066041341379,-0.10118311021988546,-2.8608002024593695,0.6734429476163664,-0.22309465249768648,-0.2788901927625313,0.20757133443739145,1.0461967903672358,3,left
5.355,0.18953866264894165,1.055064912725189,-0.11011356617634627,-2.8163177629468903,0.6730622292079944,-0.23878503556888092,-0.2751030210889698,0.1983256360470229,1.045159404082081,3,left
5.355,0.18341600705124567,1.0545804210525414,-0.11659040878687148,-2.8735166440922333,0.673578109936406,-0.2186246520748103,-0.28438598002774224,0.2210533407692174,1.0476652727276132,3,left
5.361000000000001,0.17483775427961823,1.0540137400590006,-0.11673672586410548,-2.8257288176957176,0.6731363120862653,-0.23546158841920603,-0.26900725097777545,0.1833687648391864,1.0435325223272545,3,left
5.3629999999999995,0.16706002538087,1.049368562272917,-0.1186182791543969,-2.8269114215829827,0.6731085311026449,-0.23502235626900103,-0.28928448945872975,0.23307448399190067,1.0489712393233344,3,left
5.365,0.16610293523846167,1.04578198500349,-0.12182619738744323,-2.9184956617642994,0.6741130904852888,-0.20284709367728201,-0.37441714412202265,0.4417259155216422,1.0718315146175343,3,left
5.3660000000000005,0.16419460892077692,1.036205544325533,-0.13165417846261612,-2.6934834060485113,0.6716788571466583,-0.2819176600843798,-0.39468836568004817,0.4914304940130423,1.0772600508716215,3,left
5.367000000000001,0.155624926822035,1.0217612114637338,-0.14377476548687518,-3.0665644127954597,0.6757123162310371,-0.15081361688973316,-0.3793195769813974,0.4537465155130103,1.0731442645385665,3,left
5.37,0.1509277201755778,1.0159996289453685,-0.14865305563116338,-2.574452172562726,0.6703873836870491,-0.3237434182012517,-0.388592861136349,0.4764769447896406,1.0756332503404589,3,left
5.372000000000001,0.15017755424886325,1.0148779422447185,-0.14885242275542693,-0.5083595807355332,0.6478167723479935,-1.049654803005755,-0.38480914541040645,0.467222503420296,1.0746027690497075,3,left
5.372999999999999,0.14135305996999054,1.0103213297129692,-0.1444686763975324,-0.01619956447512101,0.6424732371347293,-1.2225909841926617,-0.3847791037593624,0.467105215827714,1.074627096696465,3,left
5.376,0.1251505552153387,1.0082821784953475,-0.13368553004837924,-0.38937694841923565,0.6465502458938185,-1.0914770697332101,-0.38672453526460615,0.4719354666770155,1.0751034917961282,3,left
5.376,0.10895341806330064,1.0137219699562174,-0.12021771730444097,-0.16422607102533612,0.644040703287806,-1.1705555259039837,-0.38438719395825743,0.46614549195377086,1.0745212348674977,3,left
5.38,0.09619998794835122,1.0228893750283672,-0.11384965259719515,-0.2559651604842866,0.6451495384469454,-1.138381482202028,-0.38621878601707815,0.4706613971177663,1.0749932866134668,3,left
5.38,0.08671164839789323,1.035126380601686,-0.11320707977110397,-0.25703258373362786,0.6450116594069151,-1.1379251452255046,-0.3851962813235913,0.4682054771178594,1.074681360791907,3,left
5.3839999999999995,0.07820908491751523,1.0481035954303508,-0.11203861794991149,-0.20923536963281955,0.6446362376517791,-1.1547982014585467,-0.3855117685094316,0.4688155326310232,1.0748873700688857,3,left
5.385,0.07211839110168361,1.0600595091678997,-0.11343076262772922,-0.26666161241790076,0.6452002930413054,-1.1345873659838133,-0.38562387580746527,0.46937159114212634,1.0747084313143003,3,left
5.39,0.06783594858583382,1.072507328030823,-0.11252086911850417,-0.2216762181943544,0.644586587332368,-1.1503264161830389,-0.38535339396381896,0.4683635467224056,1.0748922709129909,3,left
5.391,0.06310586437619667,1.0819245928621362,-0.10825333179982122,-0.24643559175057417,0.6452518343687341,-1.1418416209449498,-0.38563335569040474,0.46932483209755516,1.0747629830660825,3,left
5.394,0.05895697594896049,1.0891716099496755,-0.10947365694189601,-0.23987882101791885,0.6445005604933954,-1.1437763526618303,-0.3853450096982196,0.4686203244763102,1.0746839246301514,3,left
5.395,0.05249489185198402,1.0920945098367565,-0.11200632947364533,-0.23474715389095907,0.6452780381881715,-1.1460318760588473,-0.3857456308037145,0.4690925239570154,1.0751702948189268,3,left
5.398,0.04371656176326604,1.088007988759173,-0.10849285058723786,-0.24481592174681088,0.644723701542973,-1.1421335216651611,-0.38511651542928815,0.46871565931522574,1.0741354827157001,3,left
5.399,0.03751001891834481,1.0827375690319443,-0.10222356058195288,-0.23441183299372356,0.6446044209510193,-1.1457860676956786,-0.3859864737201385,0.4691097109394539,1.0756609454766504,3,left
5.404,0.031250901024683336,1.0751066297315646,-0.09486285521061308,-0.24325778393195446,0.6459325771015216,-1.1433464114192349,-0.38507179951141357,0.4687209164880109,1.0740380544269017,3,left
5.405,0.02436782714771968,1.0654933332619452,-0.0843341874637993,-0.23591748405061372,0.6430377792317441,-1.1443976383313708,-0.3855802277352772,0.468896184293552,1.074970609844053,3,left
5.409,0.022247729838040194,1.057422477835187,-0.07298854312489061,-0.2423336285435868,0.6473068461787166,-1.1444227807897507,-0.3861181101651834,0.4692920203799926,1.0758004642689332,3,left
5.409,0.021812079667527507,1.0492148624889668,-0.06426844634202275,-0.23715274708368128,0.6427739405432251,-1.1438127774218985,-0.3839269645739546,0.46796014255339147,1.0722107604507196,3,left
5.412999999999999,0.020942904264123187,1.0441959816594486,-0.058899828008715696,-0.2390345797609515,0.6453811820312942,-1.1445564969281574,-0.38796123485069267,0.4703579825220938,1.078860697271045,3,left
5.414,0.025070610726566238,1.0440544423678886,-0.05689681042554845,-0.24411279712813366,0.6476654880507972,-1.1439811594047868,-0.38278736487377274,0.4672950323053323,1.07032292669752,3,left
5.419,0.031190808133335718,1.0451360285908646,-0.05605252881897978,-0.22826342700719138,0.6377360010052613,-1.1442546345511178,-0.38710451696502635,0.4698459206009751,1.0774509847205433,3,left
5.42,0.037732922967911545,1.0498141621467563,-0.05454881574478751,-0.256151066913969,0.6561346442282712,-1.1442781579192338,-0.38699697075392414,0.46980127873600874,1.077258474180378,3,left
5.4239999999999995,0.04755626710685737,1.0571099567696618,-0.05288552286269485,-0.22088278898767094,0.632515056594839,-1.1440561283381143,-0.3787336043818167,0.46485643426249923,1.0636631832237562,3,left
5.425,0.056706969198024426,1.0634117511957966,-0.05157950176182591,-0.25010072084527457,0.6522324885454598,-1.1443234397609228,-0.39903387847217664,0.47698225671377714,1.0970803613505602,3,left
5.428999999999999,0.0686570123642887,1.074747427479743,-0.05380101849703209,-0.24965494720989317,0.6517000539327837,-1.1441889720198044,-0.36537655197591923,0.4568833476078452,1.0416700422437022,3,left
5.43,0.07788266411534545,1.0838155182531015,-0.056232827732693835,-0.19302186085750736,0.6140988122614481,-1.144016832331232,-0.4097720413906649,0.48339468791855683,1.114760380639658,3,left
5.433,0.07930752757204244,1.0844341299316484,-0.0567892934655357,-0.33172559285649805,0.7065179134986048,-1.1446257910730522,-0.5961261832652611,0.594703195010688,1.4215362651662293,3,left
5.434,0.08871246640973118,1.0927717063336975,-0.06259728194798625,-0.10192678603266545,0.553280516537768,-1.1435433380833275,-0.640527906391696,0.6212217684239497,1.494638639055657,3,left
5.434,0.09722817464356573,1.1035790895238673,-0.06690598025446665,-0.4049769098039733,0.7554041246248994,-1.1450012808967784,-0.6068614692568228,0.6011131062148418,1.4392096771158778,3,left
5.439,0.0980894278941212,1.1047067620167597,-0.06789028629294538,-1.6772118831191025,1.6037921741147407,-1.1509943824272417,-0.6271675592375144,0.613242779036459,1.4726418131746293,3,left
5.441,0.10801925531635696,1.1087065752686505,-0.0745703925469333,-1.9802935064468545,1.8059290142940527,-1.1524710536010117,-0.6189092866594634,0.6083098193291664,1.4590486689233826,3,left
5.441,0.11958350576900281,1.118103385902633,-0.07813521909119506,-1.7504807008721532,1.6526713156112298,-1.1513469425374356,-0.6187792374434519,0.6082302035177428,1.4588241170695189,3,left
5.444,0.12490059387352491,1.1248353097584698,-0.07522552202899532,-1.8891003409269878,1.7451061725567665,-1.152023977044358,-0.6231378960914997,0.6108387652503504,1.4660200712510325,3,left
5.445,0.13072566171114497,1.1296816928391809,-0.07580513790769625,-1.8327269447115178,1.70750871224861,-1.1517628186183684,-0.6179111497272962,0.6077089807702734,1.4573872644107349,3,left
5.4479999999999995,0.13957347314942908,1.1329603812063436,-0.07954131953916455,-1.8318203791311207,1.7069389421904448,-1.151715512720239,-0.6219896741370314,0.6101531215242288,1.4641291392983964,3,left
5.45,0.1503277408210067,1.135120766941062,-0.08095750140276214,-1.8616205648164421,1.7267332837708516,-1.151941414955021,-0.6197945313328719,0.6088383941609649,1.4605036799676825,3,left
5.452000000000001,0.15808812856876656,1.136978865200593,-0.08307789493013654,-1.8258704419796756,1.7030079069541175,-1.151656240288796,-0.6202603049639512,0.6091097596705684,1.4612468173559767,3,left
5.452999999999999,0.165226848647338,1.1373639978166818,-0.09025380237921679,-1.853784095319008,1.721506428878784,-1.1519008426923953,-0.6209412182420109,0.6095387880443435,1.4624433884195123,3,left
5.457000000000001,0.17478472108326765,1.1405980811528242,-0.09787893052111082,-1.8387675958836502,1.7115428129906465,-1.1517818970783984,-0.6197636472046106,0.6087968492364626,1.4603748157935108,3,left
5.457999999999999,0.1814409044939776,1.1466984288334725,-0.10477257910166089,-1.8418839856972484,1.7137220773827604,-1.1517022766969658,-0.6209196852467704,0.6095347457316564,1.4624373016890577,3,left
5.462999999999999,0.1833094436112836,1.1536044407082722,-0.1146369118360535,-1.8467366742351112,1.7166323338259617,-1.1520280534038916,-0.6201170882020579,0.6090175598305774,1.460989084713375,3,left
5.4639999999999995,0.18376437417432268,1.1668901832522673,-0.12906938854070082,-1.838344838009149,1.7115980047747859,-1.1514677518971435,-0.6203905740046006,0.609180549709944,1.4614380633575186,3,left
5.468,0.18362262847624455,1.1863624455352713,-0.14720153920527898,-1.84667059898511,1.716460296391372,-1.1521452772730094,-0.620712198896088,0.6094428747475142,1.4622033018363991,3,left
5.468999999999999,0.17916787462141653,1.2109764004567367,-0.16119074825002494,-1.840845216551402,1.7131255388208326,-1.151609242608635,-0.6198259663038779,0.6087531026156695,1.4602057754323599,3,left
5.472,0.1715073746959596,1.2412430330344266,-0.16789561172752349,-1.8427093933977508,1.7143740385417492,-1.15161372349701,-0.6211128694120401,0.609761049811023,1.4631276204057,3,left
5.473,0.1630066790246954,1.2743605008084864,-0.1687855991602276,-1.8455475872076903,1.7152447900408254,-1.152569737963007,-0.619787696761093,0.6087145194391488,1.4600899211859453,3,left
5.477,0.15275555726459494,1.3103942680540848,-0.1621518739377455,-1.8380283509124298,1.7125652814408312,-1.150379947987596,-0.6205537755738146,0.6093193015362007,1.4618454622126036,3,left
5.477,0.1395095090914093,1.347842865884549,-0.15337393271327687,-1.8490060853499704,1.7164033193205337,-1.153645689617845,-0.6211110654789991,0.6097795075361583,1.4631899714658048,3,left
5.482,0.12283339382431317,1.3856600209619871,-0.1466643125515068,-1.837621647955272,1.712523302404271,-1.1501656306052581,-0.6185389164241577,0.6076868076937955,1.4570884055363122,3,left
5.483,0.10513459391502585,1.423467284896406,-0.14442820948811186,-1.8442033057535308,1.7147689604175218,-1.1521769135642392,-0.6233153593122971,0.61157115540156,1.468413512148144,3,left
5.487,0.08230713831422642,1.4612179541518668,-0.1540087753151378,-1.8491699726413557,1.7162292153324372,-1.1539057128392995,-0.617191039805199,0.606589146910429,1.4538868979798565,3,left
5.4879999999999995,0.0585161311940863,1.4962103660810206,-0.1609927737090764,-1.8265176067959747,1.709218957898721,-1.146331959674927,-0.6222995996701879,0.6107452195947844,1.4660061783355762,3,left
5.4910000000000005,0.03566094580002812,1.5255774592955293,-0.14713988726497407,-1.868572930611609,1.722254077542071,-1.160379180399749,-0.6221514188166573,0.6106281373303861,1.4656644686159197,3,left
5.492000000000001,0.007926797605980567,1.5510110343858665,-0.12152616286291315,-1.8146295333784965,1.7055510824022646,-1.1423406858213503,-0.6124545064917732,0.6027264912685144,1.4426217080764447,3,left
5.497000000000001,-0.01270920521104921,1.5705162788595537,-0.10156506273090213,-1.8596388378117883,1.7194843720386546,-1.1574022436637537,-0.6362946119168615,0.622148836137421,1.4992630082571043,3,left
5.497999999999999,-0.037162925676901194,1.5944857401883477,-0.10786324732832651,-1.858343076949128,1.7190419818244722,-1.1569888200135074,-0.596768896940832,0.5899490942525714,1.405356921185016,3,left
5.502000000000001,-0.056139840933699336,1.6108186912161664,-0.12261468775709458,-1.7728441825038532,1.6927238179063706,-1.1282842246466065,-0.648899012820051,0.6324158903989787,1.5292077576405214,3,left
5.502999999999999,-0.05708740111882373,1.6133099826176105,-0.12452742266012555,-1.9830524575409776,1.7574785370440966,-1.1988473125251402,-0.8677027952041747,0.8106862523588187,2.049097320985061,3,left
5.504,-0.08966020279097947,1.6433727734111598,-0.1462038161657011,-1.6345189201548966,1.6500955444235141,-1.081843523676345,-0.9198266509114905,0.8531458967111896,2.172931098824211,3,left
5.507999999999999,-0.1247156816728743,1.671256123322077,-0.1702169566993424,-2.094217644370994,1.791736350165659,-1.2361761073408275,-0.8803097249838147,0.8209550892787417,2.0790467855837518,3,left
5.5089999999999995,-0.1321279501090893,1.6762951147584189,-0.1747036333579764,-4.023490623381871,2.385670182381734,-1.8838243476252043,-0.9041452658875709,0.8403761384033708,2.1356833545363076,3,left
5.51,-0.17279673337789958,1.710664956206164,-0.18799544721539918,-4.4831560017654954,2.5272742513288096,-2.038150881887632,-0.8944406074438536,0.8324575638144998,2.1126035979259483,3,left
5.5120000000000005,-0.23521885847313956,1.756948272152108,-0.18691325882889043,-4.134688809223018,2.420001257987841,-1.9211741003137883,-0.8943189279064352,0.8323827432456826,2.112357674017277,3,left
5.513,-0.29145115556814355,1.7955922278643723,-0.15820336615684463,-4.344803600018233,2.4845222580318387,-1.9916671997667494,-0.8993816163377932,0.8364735472448707,2.1243266593583368,3,left
5.517,-0.35670625220262997,1.8415509328013306,-0.13097780088040273,-4.2594060463649,2.4585852497035456,-1.9630903136835465,-0.8933128110085284,0.8315623713094293,2.1099658937918684,3,left
5.518,-0.42553838746383865,1.8871340224492292,-0.1122330155519505,-4.258039890205598,2.4576654701716976,-1.9625019288054093,-0.8980470348067193,0.8354053134712456,2.1211893810624707,3,left
5.521,-0.49786726344173676,1.9349844344177765,-0.10298723316176699,-4.303031913481687,2.4720088567853504,-1.9777344274803328,-0.8954693057065044,0.833276774015979,2.1150146647669885,3,left
5.522,-0.5794883244382922,1.9832701650676532,-0.09627851357420238,-4.249253388179314,2.455240221844299,-1.9596255364792916,-0.8961169766827035,0.8338954098114613,2.1167139655452423,3,left
5.527,-0.6676562135388826,2.0278864286863665,-0.07125504293285873,-4.290963360438441,2.4676672211173036,-1.9735177610106769,-0.8966862264121032,0.8342028144643461,2.117790552623687,3,left
5.528,-0.7555503206860019,2.070138551139535,-0.019019334844703334,-4.268801280897831,2.462179852477313,-1.9664315964404664,-0.8956462464943324,0.8335471420747986,2.1156579057104055,3,left
5.531000000000001,-0.8350408556947368,2.098817245927921,0.04611347902844144,-4.273275607988532,2.4612574150349147,-1.9673245788232805,-0.8966406152495151,0.8342047963341687,2.1177509619580457,3,left
5.532,-0.902412430099596,2.111042196306977,0.09957261876481471,-4.280088522577647,2.4661762493046306,-1.9703588236293454,-0.8959017521640212,0.8336009290502694,2.1159928553516214,3,left
5.537000000000001,-0.9515510055734937,2.1132919410641504,0.13154694619271534,-4.269075534781855,2.4605367074962237,-1.9660664131319594,-0.8964222505304795,0.834309109631713,2.1177300217867705,3,left
5.539,-0.9759203275692439,2.1067850727662747,0.14392521947470494,-4.278778289842105,2.4635048771146932,-1.9693177793194225,-0.8959690983977147,0.833291625038246,2.115509970644207,3,left
5.541,-0.9795039254650648,2.093814752084608,0.13805017240374273,-4.273500976305925,2.466049901208236,-1.968652101225685,-0.8964688208670608,0.8346650939941235,2.11840274291213,3,left
5.542000000000001,-0.9683466878733383,2.0812182322438386,0.11895031771722953,-4.2735359958826,2.4565303385595882,-1.9661375405200674,-0.8959688656856084,0.8332286090142556,2.115397113499651,3,left
5.546,-0.9464790764420496,2.072404867273403,0.08647231987637485,-4.2777194579537055,2.472036691537007,-1.9713098997918712,-0.8962060031063536,0.8340148073773291,2.117010373468281,3,left
5.546,-0.9129246115251799,2.0626361634191404,0.03848948852641758,-4.271708575770048,2.4550279917582323,-1.9652763707526615,-0.8966669531764426,0.8349067186776779,2.119012006145971,3,left
5.551,-0.861503864363544,2.0527434015905834,-0.03769282114093729,-4.276223865551274,2.4651783833356693,-1.9691105776472353,-0.895069321322338,0.831356133505545,2.111252175441809,3,left
5.5520000000000005,-0.7903933920298112,2.042128347713868,-0.14748169506822975,-4.276875588384462,2.4729244281460208,-1.9713336727076687,-0.8979566043738143,0.8378746830543797,2.125462112409422,3,left
5.555,-0.7083152878607073,2.0244616411146987,-0.24401223797030341,-4.268042352350488,2.4371699010906154,-1.9596086677944229,-0.8942658597051708,0.8295225300506779,2.1072566883110504,3,left
5.556,-0.6394382696140587,2.009778079167578,-0.2858921667902669,-4.285840532395834,2.503918433076006,-1.9818234299951714,-0.8973407056000232,0.8364838035478559,2.1224385927310805,3,left
5.56,-0.5742249089816343,1.9928038148288005,-0.25910428776643313,-4.262470675742675,2.4180460521617935,-1.953130233576987,-0.8972827388747711,0.8363303899468788,2.1220916673706736,3,left
5.561,-0.5112290853139013,1.970509235137688,-0.1837362944987472,-4.282207921901791,2.489813877740567,-1.9771538743529586,-0.8913356610048105,0.8229541217062611,2.0929339187752114,3,left
5.566,-0.45654309409925975,1.944770156136161,-0.09397656238847608,-4.281314681085197,2.4877438258929825,-1.9763991722569734,-0.9059241760916605,0.8557779618132523,2.1645236778138806,3,left
5.567,-0.37779433231801773,1.8982633631707286,0.014665738183318946,-4.244626303978496,2.3512287390164053,-1.9308707178780629,-0.8817417574142381,0.8013837625312157,2.0458455693576005,3,left
5.569,-0.3248835485527697,1.8663083350264138,0.0865310569566759,-4.33533924004124,2.6869669725378484,-2.04292106531367,-0.9136399033753905,0.8731033057539757,2.202377765306596,3,left
5.57,-0.298501055551205,1.8505708473048856,0.105554802138769,-4.184704445173534,2.130198542395586,-1.8570868092604622,-1.04755742321132,1.1743142076377149,2.8595212692172707,3,left
5.571000000000001,-0.2534666032097438,1.8221762657379712,0.1338891372426026,-4.383511015092015,2.864642803830722,-2.1022109877068003,-1.0794647866116374,1.2459703525178991,3.01605596895453,3,left
5.575,-0.2275586018192126,1.8062281634995572,0.15059635078702677,-5.217448806441615,5.947121107829444,-3.1310973560488193,-1.0552695887441463,1.1916765803163096,2.897377817567669,3,left
5.5760000000000005,-0.1659076920366924,1.7733676760928454,0.16642993808968948,-5.416408325547911,6.68169786662604,-3.3761942652870003,-1.0698642516776915,1.2244137509887607,2.96895710327295,3,left
5.5760000000000005,-0.06400620649357083,1.7160874892977747,0.2009562725226896,-5.265501550910824,6.124712198783543,-3.190391588332207,-1.0639297602861975,1.211042413485262,2.939827808139709,3,left
5.579,0.0147612336454078,1.6643478261324682,0.22194495187310806,-5.3565287703219635,6.460657609957602,-3.3024458051422974,-1.0638310208975104,1.2110336900956815,2.9394326673669635,3,left
5.58,0.09976890026412596,1.5990761300355114,0.23983502551547572,-5.31961163319496,6.32407852257772,-3.2568346408462743,-1.0669752882642438,1.2176631686796004,2.954673289966026,3,left
5.585,0.1832839742273791,1.5276062036959042,0.2543998910341971,-5.318691059293656,6.3217857414277105,-3.256268025745549,-1.0632017213057117,1.2097967330552337,2.936422402258443,3,left
5.586,0.25512942607898714,1.4559964053667254,0.2567212471746396,-5.338883453120621,6.394161491525688,-3.2800138788186564,-1.066150169451796,1.2158172668857727,2.950627800232055,3,left
5.591,0.32800125437361394,1.3725090408753666,0.25295743470120546,-5.31454077667024,6.307323269975752,-3.2516074341058046,-1.064565061261632,1.2125142510239315,2.9429626727798577,3,left
5.5920000000000005,0.39579807604806694,1.2830203090459957,0.24954211306699114,-5.33372359970841,6.375157963922563,-3.2736796435799063,-1.064884868285361,1.2137520529024926,2.9447549945356317,3,left
5.596,0.465456450186858,1.1859455927426028,0.252023437533218,-5.323502334305889,6.3386902522669,-3.261751793206737,-1.0654224169746147,1.2132932695231526,2.9466745543891406,3,left
5.597,0.5359888085418861,1.0795196287865294,0.25030991051572876,-5.324800378121591,6.346080040002941,-3.2647029175115563,-1.0644930363062448,1.2140737239777606,2.9433507228264517,3,left
5.599,0.6107185909735182,0.969972960828143,0.24110157299770352,-5.330373247833548,6.358350555195838,-3.267240401501654,-1.0654258373569077,1.2126507090237824,2.9464110026935133,3,left
5.6,0.6960033299700541,0.8616794478786225,0.2232437408839709,-5.320758993988147,6.3371406409184345,-3.262843085045458,-1.0647677538260154,1.2139766122552376,2.944390783429497,3,left
5.604,0.7915786618348865,0.7555312193091471,0.19195274603163018,-5.331258879137314,6.35838503034719,-3.2666442520970516,-1.0649634651119073,1.2144422640719026,2.9453621800734604,3,left
5.604,0.9000598968774236,0.653580826552042,0.14557930730013313,-5.323423547971499,6.343418855621705,-3.2642706573306093,-1.0653457184796489,1.2100951441630716,2.9449942079558156,3,left
5.609,1.0155012834988466,0.5614974434416051,0.08153890554521716,-5.324607754164331,6.347926173133045,-3.2657989417701727,-1.0643636642374665,1.2197842439027422,2.9453020954236764,3,left
5.61,1.132494473161811,0.48552297113169135,0.0063631906867070535,-5.333923024229543,6.356384665086534,-3.263756937371892,-1.0658032646746043,1.205273696557665,2.944718471411544,3,left
5.614,1.2502916182947663,0.4273636235410526,-0.07262570593036217,-5.3119627567691285,6.33455607990012,-3.2675883818958553,-1.0643023783845076,1.2208169355009986,2.945505581427642,3,left
5.614,1.363818342337368,0.38264985971383036,-0.1492139998790029,-5.344562306747829,6.366535923001566,-3.2616784109947847,-1.0651695173791194,1.211837814656855,2.945051585394892,3,left
5.619,1.4640799655376524,0.3482196178733906,-0.21109569149734195,-5.31002358345771,6.333219597252615,-3.2682361181287547,-1.065844051394338,1.2039276354563,2.944298637347375,3,left
5.621,1.5478389196894025,0.3219430958841899,-0.2482807014476017,-5.329975410236429,6.352472379993272,-3.264449646106259,-1.0627986264306126,1.2383238930246203,2.947128274467723,3,left
5.622999999999999,1.6135415751984798,0.2989561130401564,-0.2594304432527933,-5.34673257422534,6.367375502194491,-3.2606152510163198,-1.0684499714783309,1.1745490517407657,2.941901441597615,3,left
5.624,1.6513411777686176,0.27768343754298785,-0.25458770301615485,-5.272840842349865,6.29997476461644,-3.2766584866939956,-1.0612007681625628,1.2564503299155534,2.9486459912409266,3,left
5.63,1.6628847787627477,0.2587303197327416,-0.24414182993997133,-5.409884613067042,6.425064612867456,-3.246942389834002,-1.06724808297778,1.188072587674534,2.9429972637573325,3,left
5.631,1.6453181222130937,0.23912478179367572,-0.22742550597356964,-5.2339713515127295,6.26460086514542,-3.285147215802438,-1.0670810442811944,1.1898967126286755,2.9431219686403045,3,left
5.6339999999999995,1.6093990528733353,0.21902253806208666,-0.21046320780534028,-5.38078604115488,6.398475521677538,-3.253229491871675,-1.0555724742860764,1.3203763624146418,2.9540316929152732,3,left
5.635,1.5728030461088927,0.1961408737795583,-0.19418790929874363,-5.3768323758870284,6.3947286146803854,-3.2540354026619607,-1.083856420709028,0.9997041886020959,2.927226283356867,3,left
5.638999999999999,1.5235379910628437,0.17022131685061737,-0.17033923577295662,-5.0969258572505804,6.140085976722116,-3.3151472159986235,-1.03696672754241,1.5313827727045277,2.9716869446464664,3,left
5.64,1.4916510454681382,0.156381607924612,-0.15610610715523424,-5.784805534629061,6.765993097591728,-3.1649833163507015,-1.0988076740531691,0.8301061077493288,2.9130241106121413,3,left
5.64,1.4752121650519276,0.1515007779450935,-0.14757811597087306,-4.6443627872088475,5.728297590259475,-3.4139690565349428,-1.358492835547165,-2.1138035552741883,2.66697925944037,3,left
5.644,1.4462374384296846,0.14332202452010845,-0.1318005464929494,-6.1485211041715475,7.096912436679496,-3.085541332110064,-1.4203354210368713,-2.815096567207724,2.6083120848287784,3,left
5.645,1.4299711080841493,0.13835861675048372,-0.1237529651056005,-12.464079011657319,12.842802754454743,-1.7068649797428161,-1.3734293431691682,-2.283363959069602,2.6527485163293374,3,left
5.646,1.394448562016136,0.13374351906154303,-0.11108822534940792,-13.968291030253223,14.211405882857552,-1.3784156980613227,-1.4017643692546156,-2.604158115188413,2.6260473496281684,3,left
5.647,1.3328934012787022,0.1282425931686069,-0.09443006452240287,-12.827549007552062,13.173557661826237,-1.6274304742294805,-1.3901549852324742,-2.4734717867211553,2.6367302714123837,3,left
5.648,1.2745191437604024,0.12989871234016104,-0.08520396062081147,-13.51626083047677,13.80005542702774,-1.4772552117044473,-1.390133581343882,-2.471915089780564,2.637201860254436,3,left
5.657,1.2004978734334522,0.1360537686553977,-0.07194780094595167,-13.234785934433315,13.544163003856575,-1.538331371836413,-1.3960291521430896,-2.540051316949781,2.6311687449153736,3,left
5.6579999999999995,1.118852061038249,0.14045019241020645,-0.060297468571446716,-13.233030307462037,13.54229833348862,-1.5392418626996465,-1.3888597730239542,-2.4582132624239645,2.6381549525697308,3,left
5.6579999999999995,1.0342494928979789,0.14306265278958846,-0.0447053488159639,-13.377635391984377,13.67412019979593,-1.5071518795003267,-1.3946090408878211,-2.5222900179778587,2.6330858843752,3,left
5.659,0.9466024254642404,0.14519872720129884,-0.018366796138761805,-13.202745874783357,13.514893754976157,-1.5455561133628937,-1.3911900701945108,-2.487080925523331,2.6351042223397725,3,left
5.664,0.8676466241029057,0.1426202707125902,0.008191030151614154,-13.3415327402761,13.640947995779063,-1.51570220965041,-1.3925431782365465,-2.496304494703883,2.635925933241162,3,left
5.665,0.795757574282768,0.13679153076106398,0.03717278044223802,-13.261727573290994,13.569032448311262,-1.5316935038432322,-1.3925390070191432,-2.5037614415127925,2.63334848956067,3,left
5.669,0.7389107001537678,0.12825646765583792,0.06699181507691071,-13.288872545898029,13.592539613598895,-1.5282316236435887,-1.391791034181653,-2.4892994814558698,2.6361151867188606,3,left
5.67,0.6977073127623881,0.1137802304144586,0.0888837609859671,-13.295842827375788,13.600339338550137,-1.5236868415615445,-1.393103147311765,-2.5041235365053858,2.634889399976384,3,left
5.6739999999999995,0.6675032058293333,0.09749839333883147,0.10222728475904705,-13.272013365666773,13.577497161632682,-1.5312987787408616,-1.3910314017302121,-2.4917307206634893,2.633036164848696,3,left
5.676,0.6506231540108712,0.07845573592535812,0.10924822464385478,-13.303878032778213,13.606478460184624,-1.5243638271246938,-1.394147931187883,-2.5017057516100616,2.6388056943429343,3,left
5.678,0.642883930638689,0.05528877857481122,0.10952098351533562,-13.263945138650124,13.572299796075654,-1.5286105964117587,-1.3900683588955494,-2.493285877032629,2.6296579093451005,3,left
5.678999999999999,0.6379745348945736,0.031029772893646,0.10393608696829207,-13.31584652123178,13.614599760871211,-1.5274974409519018,-1.3942089450394102,-2.499897418544177,2.639607977939167,3,left
5.682,0.6300259563420249,0.007949494199281372,0.0947960244552476,-13.252279766996047,13.564107187138482,-1.5261321581093297,-1.3919559594825262,-2.4976624599100283,2.633725094731091,3,left
5.684,0.6164741128235489,-0.012820135120774016,0.08378954286907733,-13.314971149037707,13.613317592457548,-1.5286948093092647,-1.3895803218419542,-2.490807510045066,2.6290697492234045,3,left
5.687,0.5959683608149015,-0.035385927826918,0.07497514544143005,-13.282148958286875,13.587980166742998,-1.5264717517388422,-1.3991777731766015,-2.5117158478048864,2.6502119094578287,3,left
5.689,0.5722212455588198,-0.061193170732388016,0.06855923324350394,-13.2432823534416,13.556512024697199,-1.5268633805756804,-1.3815676144383957,-2.475089106431872,2.610820600897223,3,left
5.692,0.5535392908068129,-0.0879672353663093,0.06005502080025434,-13.393874676683883,13.676469597960642,-1.5294072949309496,-1.4041127498662496,-2.52134582900766,2.661469154284145,3,left
5.693,0.5374188165826315,-0.11451207320064902,0.04603084454993335,-13.119208441539048,13.45820615430496,-1.5236837060252872,-1.3853180638566531,-2.4830547422764266,2.619152561332244,3,left
5.6979999999999995,0.5244112223435755,-0.1444941879616335,0.029343887037313714,-13.470232542386153,13.73695029687871,-1.5313954174021043,-1.3857864769002584,-2.4835890005399204,2.6203527851721593,3,left
5.699,0.5163432308534733,-0.17455736623371998,0.013932393098728346,-13.177881227899833,13.504886879019654,-1.524804490312955,-1.4217322113328286,-2.5579384877234617,2.7008987508601474,3,left
5.702000000000001,0.5112068331260583,-0.19806642670732622,-0.0011262759264646718,-13.184714549268321,13.510167373570894,-1.5252180766380248,-1.3334382449737254,-2.375921789570822,2.50284111652394,3,left
5.702999999999999,0.5131646383379291,-0.22219520789872732,-0.01083833484862813,-13.745041927355818,13.95532162651266,-1.5371597522624025,-1.4798148024522786,-2.6774412382135955,2.8312691670929366,3,left
5.707000000000001,0.5161935114090747,-0.2374765966384739,-0.013745911345641198,-12.369385690192615,12.862645893781167,-1.507469070875708,-1.2867496096529942,-2.2798364844978876,2.3980535122899855,3,left
5.707999999999999,0.5203364497830512,-0.2416099163008575,-0.013294540697202609,-14.649700301689727,14.67378395829179,-1.556824746772787,-0.47644996447425153,-0.6105621733448621,0.5800456102955354,3,left
5.71,0.5268879706569585,-0.24933621512683707,-0.010511270811632115,-11.642185324396428,12.285135762303014,-1.491680181900013,-0.2833908394741821,-0.21297651803606704,0.1468424619475041,3,left
5.712000000000001,0.5308982414866186,-0.2529599138423409,-0.010011436070585168,0.9826812988553892,2.2580285451886937,-1.2184186740386391,-0.4297398708782154,-0.5144093529933264,0.4752137728514497,3,left
5.712000000000001,0.5459025800360755,-0.25810086203051086,-0.00820560766200711,3.9901849960301226,-0.13045991143165403,-1.1532726541065297,-0.3415176524742851,-0.33261839423744366,0.2773040378354623,3,left
5.712999999999999,0.5702102651556424,-0.26730693424494334,-0.0015610810124272487,1.7099905762992007,1.6803042682482365,-1.2026527858405598,-0.3773321005984487,-0.4065548377509931,0.3575793691979383,3,left
5.724,0.5961536591211376,-0.2673722261636508,0.004761098233191907,3.0852689607167547,0.5882749532004212,-1.1728816560768724,-0.37798073751982253,-0.4076560836273437,0.3591511117128194,3,left
5.724,0.6287456417106396,-0.2665782171032552,0.009820845025830149,2.525689649719155,1.0325343291701043,-1.1849851963492841,-0.3590095135976382,-0.3688096304525177,0.3164705932048444,3,left
5.725,0.6638522022192901,-0.26412019553687033,0.012523734050272285,2.517773564387238,1.0387594347411877,-1.1851621338786265,-0.3816281851473506,-0.41529764276356246,0.36727074781768043,3,left
5.726,0.7019030962882009,-0.2551338370382662,0.01148924614872146,2.8112555869714067,0.8061269152609059,-1.1788211471154537,-0.36417618735552015,-0.3791685610095608,0.32820545955556757,3,left
5.727,0.7415929522598534,-0.24711725145195124,0.00855150633481329,2.4596323415414263,1.08445684557142,-1.186395594687908,-0.3732729401380823,-0.39850160634471515,0.34831548331527024,3,left
5.728,0.7792416112643266,-0.2354233162629644,0.0003453853353331108,2.733578854339534,0.8681937177492648,-1.1805239535379335,-0.371757434170378,-0.3943526918806697,0.3454332284330472,3,left
5.731,0.8117878553919184,-0.2177259877154884,-0.01625571022622857,2.5857550992225526,0.9843094813940703,-1.1836633512755843,-0.3684497629972604,-0.38879972551212116,0.3373761750532015,3,left
5.732,0.8321754023133405,-0.20083334942857578,-0.033772786793104435,2.6195813187881307,0.957995915574846,-1.1829584582630401,-0.37343083013866607,-0.398055232323699,0.34905887777805755,3,left
5.736000000000001,0.8445557841247571,-0.1807302728661328,-0.04949742989875533,2.6588866154773743,0.9278759594593684,-1.1821582343141022,-0.3693593501198382,-0.38966118565256586,0.33992769722215466,3,left
5.737,0.851859660550361,-0.1561507308480388,-0.06476953576147,2.590577367534809,0.9786032341264295,-1.1834702356809848,-0.37091454174453775,-0.3947237451573962,0.3424787391537718,3,left
5.742000000000001,0.8523473434413533,-0.13632070927951678,-0.07344104148470201,2.655128498348562,0.9334027197671355,-1.1823615548613144,-0.37241031912917977,-0.39355483115287215,0.3479796127283107,3,left
5.742999999999999,0.8520242381237266,-0.11959559257323787,-0.07691270659996524,2.6112822648749816,0.9607846572046566,-1.1829557489666365,-0.36840037893057015,-0.3916355396613571,0.3357828070099708,3,left
5.746,0.8524452182798521,-0.10155567374340177,-0.07873950234193533,2.6309251967053546,0.951114732628547,-1.1828138291099015,-0.3733259825251461,-0.39502216405757584,0.3502453009128525,3,left
5.746,0.8506274820580937,-0.08484398414730934,-0.07664810954216128,2.6308440708867797,0.9512321442340081,-1.1828178318129638,-0.3700432956914136,-0.39216632138819785,0.3409091216554543,3,left
5.752000000000001,0.8466572250477123,-0.06731832323187531,-0.07045311647063951,2.6189277029042053,0.9496927376217218,-1.1825505555329374,-0.36857121544173893,-0.3924994869046495,0.3359073909399194,3,left
5.754,0.8426225540021706,-0.048829865820597534,-0.06205390909095518,2.635810421081426,0.9614296642640406,-1.1833858809064093,-0.37751873326060265,-0.39619817164082244,0.3634178245371389,3,left
5.756,0.8390827137712416,-0.030628226524461073,-0.055107409917340214,2.6191494393382184,0.9371501845295465,-1.181954935503096,-0.3603332636136857,-0.3881201502879949,0.3110707798056731,3,left
5.757000000000001,0.8308122745760458,-0.01082215042066901,-0.050408159876107056,2.6319268195993235,0.9669902054263069,-1.1835883672777738,-0.38261422267192324,-0.3989325036115701,0.3787669468094338,3,left
5.763,0.8202869557134533,0.00693247966608247,-0.04424030046806564,2.6261372055371908,0.9484837250309308,-1.182609987538731,-0.3639216758027306,-0.38971918815162987,0.32204610901812825,3,left
5.763999999999999,0.8081035882733087,0.0255282752224862,-0.0302162586860465,2.6218077922157943,0.9320045079996865,-1.1817525108945444,-0.3645692477596623,-0.3902569787580934,0.3238988590961528,3,left
5.766,0.7930066913623421,0.04478152021188666,-0.013161197505694973,2.638836099281531,1.0056475475416633,-1.1855472783358845,-0.3998362801726936,-0.40705855281164016,0.43121127935616665,3,left
5.767,0.777670730749955,0.059277428196319586,0.0021674523333809867,2.609089834140014,0.8676210429860224,-1.1784699754731116,-0.31294758180294757,-0.36534353333771824,0.1669873847035731,3,left
5.77,0.7520163474717121,0.0778465100210199,0.02460193598735764,2.646015893408426,1.0458613211539958,-1.1875852296321847,-0.4570935916933517,-0.43466938105129316,0.6052630090637015,3,left
5.771,0.7349880838528882,0.09047039837644594,0.0399353810857856,2.615746295218914,0.8966151959313865,-1.1799630477521112,-0.2669327336037336,-0.3431672610682737,0.027106130598809314,3,left
5.776,0.7297008772835213,0.09457634243620425,0.043346695874372974,2.6166306187388453,0.900601011187847,-1.1801684860921222,0.531128296118088,0.040662797490874286,-2.399396449831806,3,left
5.778,0.7055735863192998,0.10886227742631643,0.05600343005623781,2.6732077420991507,1.1860944525018011,-1.1947258334053767,0.7213086071210765,0.13218814479461136,-2.977595982588334,3,left
5.778,0.6782223893557469,0.12415540061653871,0.06921355220565673,2.534477583819337,0.4841290339657789,-1.1589374816704696,0.577118368045498,0.06279752387869603,-2.539222671040987,3,left
5.781000000000001,0.6480880257891233,0.13969463830142706,0.07532560847290695,2.7641466001315904,1.6482962711266838,-1.2182845111773846,0.6640811743131381,0.10464340112382471,-2.803611562704811,3,left
5.782,0.6220038630311406,0.1528868293168798,0.07973757542306245,2.4614841809063415,0.11255374323446898,-1.1399997286111498,0.628714673007257,0.08763570671624231,-2.6960758814169736,3,left
5.782,0.6167903564381179,0.15629733542156932,0.07991354805013412,1.1917513922367915,-6.334302487222036,-0.811401625414262,0.628168029205725,0.08734801935912706,-2.6944520854348566,3,left
5.7860000000000005,0.595081423628256,0.16847958284393166,0.0819164957877778,0.8893239717601806,-7.870232923515545,-0.7331123633849137,0.6468064089375749,0.0963575689868522,-2.7510459411911667,3,left
5.787000000000001,0.5650433899053044,0.18441703965553102,0.08554047746975998,1.1186137135028114,-6.7057586785968,-0.7924648179994348,0.6244662901749072,0.08555472347370473,-2.683224785864375,3,left
5.79,0.5468458982989072,0.19531324085674157,0.0881298915252969,0.9802296819025217,-7.40801409211055,-0.7566762600763335,0.6418873098941129,0.09398778256697782,-2.736092675216086,3,left
5.791,0.526263595630311,0.20969920776559559,0.09163309708377304,1.0367372619857615,-7.1224377740542355,-0.7712217561688697,0.6325066418272236,0.08945338322296176,-2.707613674002779,3,left
5.795,0.511816628991698,0.2259435797648388,0.09085507207406499,1.0371613093348597,-7.118124370677605,-0.7714555168808371,0.6345414578703744,0.09038860197507778,-2.7138845200135497,3,left
5.796,0.5009915961456068,0.24300015344484766,0.08598415866218297,1.0080399841479806,-7.268245251511767,-0.7637904656637164,0.6373271632694382,0.0918671974755324,-2.7220847028152386,3,left
5.801,0.490851068989694,0.263171399324981,0.08268466081366752,1.0432125679087019,-7.0886278890612715,-0.7729512341173934,0.6325095637210929,0.08931245333016388,-2.7079005206499,3,left
5.8020000000000005,0.4851101927895669,0.2881051434403885,0.0863050067628564,1.0153558324670064,-7.2281883211948825,-0.7658490433090948,0.6371832240838917,0.09185092187988234,-2.721542430484771,3,left
5.805,0.4758341155343921,0.3155337703689267,0.09496099517528425,1.0312790713969984,-7.1535622217670145,-0.7696168281568345,0.6339671676900979,0.09007295937440607,-2.7122168111417824,3,left
5.805,0.46683278761154284,0.3399338647324579,0.09414159331885853,1.0260184936525611,-7.169483061192717,-0.7688670737261571,0.6351404981982842,0.09063504274554778,-2.7157882835254408,3,left
5.81,0.4639164506406964,0.35457352979878687,0.08124065400481907,1.0243819565305143,-7.191065717717165,-0.7676912937247012,0.636106896620294,0.09152851224634855,-2.717887079934399,3,left
5.811,0.46647783046612057,0.3609784713109572,0.06551613387027991,1.0293574897330258,-7.155206642823888,-0.7695794671506462,0.6332506545069627,0.08917580278062293,-2.711121158736176,3,left
5.814,0.4703197788483554,0.36732708804993447,0.04730748493642015,1.022954503565892,-7.187634490914501,-0.7679268582788041,0.6373610214620257,0.09261260731800011,-2.720756805053881,3,left
5.815,0.4690765020450489,0.370855254036176,0.03074453320218422,1.0306386653903026,-7.168263486478419,-0.7688028122653595,0.6331790217181532,0.0890455349451844,-2.7110922542870712,3,left
5.82,0.4654216107680874,0.3731915715046681,0.022360898411530192,1.0209873865828527,-7.172353044876479,-0.7688494353213666,0.6355975808936951,0.09110685625842828,-2.71668308971688,3,left
5.821000000000001,0.46130360142057625,0.37920848978582145,0.02017817455769179,1.0326004547658045,-7.180402144469042,-0.7680582351773018,0.6372392509227252,0.09267294323700251,-2.720155218281741,3,left
5.825,0.45585310005676677,0.38380552959776937,0.022900744829110906,1.0212395169461557,-7.166644281630214,-0.7691660983166545,0.629480623926683,0.0855479776890099,-2.7032149472154154,3,left
5.8260000000000005,0.452261685382611,0.3854697434624006,0.028463374596405605,1.027120568978726,-7.17806420739127,-0.7683481344575818,0.6438977945946345,0.0987730119442103,-2.734718051136225,3,left
5.83,0.445736137743352,0.3868813711208021,0.03576067253072775,1.0343151542303364,-7.177118515304222,-0.7681959759870823,0.6254219675705313,0.0818110303120585,-2.694377708445016,3,left
5.831,0.4369657242345475,0.3888151106562602,0.04468591792541855,1.006748191336811,-7.161352058106338,-0.7698827184851533,0.6408301062941796,0.0959609491733868,-2.7280057475360877,3,left
5.835,0.4295713124782228,0.39017566385849745,0.057066849795899294,1.056945492715767,-7.195292417677782,-0.7665124328510597,0.6403656911827359,0.09556174700818335,-2.7269520569,3,left
5.836,0.4190059654233409,0.3904069082658995,0.07265760194483718,0.9928231558408765,-7.150019399878046,-0.7709288111073049,0.6111860458915842,0.06866165884192937,-2.663438717278381,3,left
5.84,0.4081461632652731,0.38907349508421496,0.08744492567822687,1.046215124024053,-7.188526472034763,-0.7672019200173725,0.6829430025082727,0.1347828697033977,-2.819658006089316,3,left
5.841,0.390504815528691,0.38796046118736127,0.10943380973378208,1.0449863067972642,-7.18639285276665,-0.7673667356628127,0.5639686187262077,0.02516290382943235,-2.5606460498158365,3,left
5.845,0.3761093819907887,0.38928507372320376,0.12463369282757572,0.9426027737667808,-7.115874306142235,-0.7743053456276765,0.720885802218832,0.1697340313305425,-2.9022518078002975,3,left
5.846,0.3730129237790374,0.3893346382195825,0.12721664709243746,1.1939368583002228,-7.2907705480393314,-0.7571537461109374,1.3794171740443404,0.7765763422137961,-4.335758060853472,3,left
5.847,0.3516656953333901,0.39060907545409296,0.14702906965908247,0.7773302321099924,-7.000203439718861,-0.7856355310811018,1.5363236398109759,0.9211101145358482,-4.6773282816225255,3,left
5.848,0.3314128562073821,0.39404626684359806,0.16353408303158867,1.3267913930814799,-7.383654575171293,-0.7480424311318901,1.417366010674514,0.8115485420818738,-4.418371877532729,3,left
5.849,0.3295013890049392,0.39448494421387414,0.1650442980020814,3.633307356104517,-8.992459502243204,-0.5903682341027201,1.4891091051103666,0.8776214474841479,-4.574545209657869,3,left
5.851,0.313534008017875,0.3978499062619944,0.18062374075686455,4.1827675817252326,-9.375887583672316,-0.5527353199794309,1.4599286655270578,0.8507185717673733,-4.511029222491766,3,left
5.854,0.29220835473450224,0.4047324856542811,0.19740697790036993,3.766184060658497,-9.08524654319563,-0.5812849469036814,1.45949112584219,0.8504130686680205,-4.510064664426047,3,left
5.855,0.2785620132235266,0.4119957234769128,0.207566304212962,4.017440275593657,-9.260502490087378,-0.5640620102938589,1.47484058147983,0.8643584251023362,-4.543498103442527,3,left
5.858,0.266274135007568,0.42359024735800155,0.21477699561782135,3.9152147150089918,-9.189179195410938,-0.5710385756679965,1.456448360140974,0.8476878573090705,-4.503434988373697,3,left
5.859,0.2594895649525893,0.43613873540180437,0.2124146605837309,3.913753777540203,-9.188294749349481,-0.5712425411674722,1.470782714898068,0.8606242641295372,-4.534663507814477,3,left
5.8629999999999995,0.2546230587834055,0.4486561410079748,0.20759354679161446,3.9673922717522996,-9.225396926159089,-0.5673627883765304,1.4630600036069699,0.8536244080506219,-4.5178422733600785,3,left
5.864,0.25145560534551037,0.46408687464805276,0.19756266745995565,3.9031322262569113,-9.181040542873118,-0.5720522130388193,1.464771265024286,0.8554331771585255,-4.52154524378169,3,left
5.87,0.2532237763142639,0.481790741704973,0.18331162794027983,3.953188805180458,-9.215481077084696,-0.5683397305234721,1.4669647446019873,0.8567098422014778,-4.52638964877811,3,left
5.87,0.25639965787966973,0.5021256051419056,0.17526178496597353,3.926201263541436,-9.196863654232455,-0.5703090532560693,1.4631706327023515,0.854494854415685,-4.518011345760867,3,left
5.874,0.25859722353922643,0.5242750272656485,0.16809704831984673,3.9323227685435653,-9.201551035279213,-0.5701360946420362,1.4668050009673455,0.8562725920628574,-4.5260686755947965,3,left
5.875,0.26007673341161686,0.5478766962930426,0.15929384322796974,3.9396023416911397,-9.205280853396854,-0.5688490701661052,1.4643283037709962,0.855242539251962,-4.520561085723759,3,left
5.88,0.2634726629509615,0.5712598057903552,0.1541857015045172,3.9270034908704146,-9.198819420274969,-0.5710686860882879,1.4652977585617952,0.8561471799901962,-4.522670392050725,3,left
5.881,0.269470652226325,0.5945805370141037,0.15125470000654895,3.938888605383367,-9.204251233538086,-0.5685904138874484,1.465767688328539,0.85425682439019,-4.52390896678542,3,left
5.885,0.2758753874871489,0.6201126361316112,0.1499979137370406,3.9308857813263187,-9.20094941892841,-0.5704650656895853,1.4641596006409783,0.858084174784971,-4.519915649804573,3,left
5.886,0.28110584193307275,0.6428824376191704,0.15422088317019642,3.934288222777323,-9.203342525851047,-0.5702440655038317,1.4664341166816834,0.8522600792742171,-4.525602128768471,3,left
5.888,0.28707279643924166,0.6638993876914389,0.15894708591181483,3.9346863990841694,-9.199387527005072,-0.5677547009424599,1.464174447420607,0.8586204498923546,-4.519899235952245,3,left
5.888999999999999,0.2956878544567221,0.688353111204425,0.16214661400099706,3.9319036046808558,-9.207121633813845,-0.5735717422503425,1.4654815144614668,0.8549471358686462,-4.523197855182838,3,left
5.892,0.3045357148206105,0.7114947035145642,0.1671027401589101,3.9356204138223574,-9.195278717919276,-0.5649234215923462,1.46624381063531,0.8514437054099113,-4.525246851054345,3,left
5.893,0.31481579632504175,0.7325874675180974,0.16716647721950859,3.9322349841339466,-9.208307524616012,-0.574103443687622,1.4624367067450896,0.8663399768523068,-4.51525180680137,3,left
5.897,0.3276963902525377,0.7559791871104032,0.16133452192506226,3.934197735460689,-9.200781977298183,-0.568798348295791,1.4695196506370825,0.8387365935276021,-4.5338380551702695,3,left
5.898,0.34131073511088494,0.7833329589443152,0.15181710631167,3.9346083859443386,-9.193407126794312,-0.5643142882095662,1.4604560095314816,0.8742084099016775,-4.5100392187096485,3,left
5.902,0.3562481594845399,0.8108323348226493,0.14038067493159723,3.9311513238708766,-9.224538374508802,-0.5840551354765837,1.4680076524825172,0.8445823281147506,-4.529876432917863,3,left
5.903,0.3695696200746086,0.8427137315023667,0.1267110814800902,3.9376461358456987,-9.166857828376186,-0.5474385891308856,1.4677679504943066,0.8453481457592473,-4.529258568285009,3,left
5.909,0.38078291114441404,0.8806376646482885,0.10806334241863101,3.929411377189263,-9.241001435133871,-0.5944501412224023,1.4535248183026763,0.9019917625692242,-4.491783306721536,3,left
5.91,0.39253366002183177,0.9131644917495405,0.09212556999395896,3.9362397262053577,-9.179061526290251,-0.5552037009579192,1.4885557093294506,0.7627967344312949,-4.583950913704502,3,left
5.912000000000001,0.40216803700652864,0.9583740196294352,0.07248352349831408,3.9359156623589215,-9.180661665610074,-0.5562804011554078,1.430479847756342,0.9935902294181107,-4.431142649973048,3,left
5.912999999999999,0.4068005526957568,0.9933691719905983,0.056943279410269505,3.923481020116843,-9.299126342927234,-0.631063343936654,1.507069026615665,0.6891667226424443,-4.63267257956962,3,left
5.912999999999999,0.4070918632921667,0.9986402986165667,0.05322861501796276,3.954154622459239,-9.007991763420813,-0.44723897824544956,1.8285348866969189,-0.5887628635122497,-5.4784362466789975,3,left
5.919,0.4089053063683632,1.0376746122501452,0.033809406874204515,3.9033004826021527,-9.490735971765115,-0.7520342128581688,1.9051120567078634,-0.8932010226777016,-5.679935628932622,3,left
5.92,0.41255913629867746,1.0765235130068764,0.016215018630371836,3.9703480845739025,-8.853958488139266,-0.3500080783315265,1.8470466793733462,-0.6623816165704828,-5.527170198746033,3,left
5.921,0.4125905172557268,1.082415922730715,0.013768109659815052,4.251266793903916,-6.181350292325229,1.3373094792006854,1.882091397360195,-0.8016062416875446,-5.619315723094105,3,left
5.922000000000001,0.41083008425666223,1.116459035503275,-0.002681556712189876,4.318255686172403,-5.544554588665703,1.7393261095927468,1.867786848597368,-0.7449417635078688,-5.581802270314492,3,left
5.922000000000001,0.4086231440655023,1.159592664829107,-0.026051111700652024,4.267513741314605,-6.027273968302643,1.4345634757719896,1.8676670549272,-0.7441717642516702,-5.581314305884462,3,left
5.9270000000000005,0.4058968361245542,1.1932991209009831,-0.04727542142989409,4.298039094557219,-5.736304653833171,1.6183127016306817,1.8750565699429844,-0.7738431264353114,-5.600927056763498,3,left
5.928999999999999,0.40385652456314414,1.2333247708995754,-0.07615505440597123,4.285749185106328,-5.854378687997256,1.543658620372748,1.8661421399603,-0.738277148116109,-5.577399474468178,3,left
5.932,0.40348698937522465,1.271498542609641,-0.10825296092039033,4.285351163922403,-5.856602057703386,1.5424135326600048,1.8731834171575086,-0.7660122889707868,-5.595780030552362,3,left
5.933,0.40457590359263074,1.3126065046748616,-0.13230775851213677,4.29209544165468,-5.793942523358962,1.5818142403203388,1.8691958501134667,-0.7509868875755928,-5.585756345969331,3,left
5.937,0.40578899352330566,1.357722573127253,-0.1484511115361798,4.284181873408011,-5.8685854393052885,1.5347579490163747,1.8704494137238685,-0.7545450405204737,-5.588249011088271,3,left
5.937,0.412845199267574,1.403255678345613,-0.1587557204658136,4.290097106887563,-5.811092935584318,1.5711916148810698,1.8709611602788874,-0.7583291242818118,-5.5905837266357725,3,left
5.942,0.42540996373143825,1.4459783923072536,-0.15694268310272164,4.287380406666566,-5.8408657137052336,1.5519550683899912,1.869623164810378,-0.7516150754616582,-5.5862754878129035,3,left
5.943,0.4398840472826224,1.4847254933482628,-0.14582930753638443,4.287154279714953,-5.83626736938168,1.5556161274214984,1.871244242878746,-0.7580463690301174,-5.590534002817092,3,left
5.947,0.4595736465908201,1.5185772845220142,-0.13067495372078636,4.289221868244311,-5.824865926872848,1.561884269923178,1.8694427859761045,-0.7534758154065542,-5.587255241993519,3,left
5.9479999999999995,0.4824839529194172,1.5422055892719342,-0.11310745100741235,4.286761535800029,-5.841686786312318,1.5520055948278946,1.871556047788351,-0.7559566315594841,-5.589475946425889,3,left
5.9510000000000005,0.5096251293025137,1.5575840572247224,-0.10023702729724497,4.288166726905276,-5.828262237276998,1.560488902185953,1.86910916003889,-0.7550606211607535,-5.588020385807841,3,left
5.952000000000001,0.539635207153834,1.567336088178373,-0.09168958282420926,4.288986779148573,-5.832662643021985,1.556332707607031,1.8714591474885802,-0.7549892762034804,-5.588891376205643,3,left
5.957000000000001,0.5758284335687314,1.5712239029997384,-0.08753983165012544,4.285362422635988,-5.839260339416905,1.5553143280219675,1.8702749635235645,-0.7557189597394156,-5.588846156230165,3,left
5.957999999999999,0.6216999014168128,1.5709708808116263,-0.10269351527569637,4.291385329997778,-5.823553669780759,1.5605376210532582,1.868714257166179,-0.754207546234129,-5.587382895662794,3,left
5.962000000000001,0.6706087913693024,1.5731204176677556,-0.14593312835217906,4.284739722223849,-5.842441539432407,1.5536134077026342,1.8745481596530444,-0.7568731438275864,-5.59115714329617,3,left
5.962999999999999,0.7224489784509331,1.5786694045642355,-0.2146469647533936,4.288730161617885,-5.830092653911845,1.558524581692447,1.8639651926462575,-0.7528631101079999,-5.5847821210593525,3,left
5.966,0.7531578606147378,1.5828124571353506,-0.2909806554981035,4.291701519209793,-5.823910485312101,1.559927624156669,1.8774682386777397,-0.7576753645151337,-5.59273843054622,3,left
5.9670000000000005,0.7605277856419814,1.581741418776276,-0.35844179342598637,4.27783380299012,-5.859196930865418,1.5485639509435352,1.8662330736142012,-0.7538008840688042,-5.5862005039146085,3,left
5.972,0.737140342654233,1.5667060967630726,-0.40979201148911876,4.303754838258804,-5.791817889015338,1.5708740736012148,1.8664771851482564,-0.7536845600016894,-5.586208452045783,3,left
5.973,0.6716299551116722,1.5423871472670792,-0.43759074971338724,4.270398857514695,-5.879028388417456,1.5417783426781706,1.8880586484453836,-0.7616601532640606,-5.599118192931136,3,left
5.976,0.5984459122421346,1.5140969079926858,-0.4510456658680245,4.298274757737163,-5.805939000572254,1.566263259219773,1.8351036514088341,-0.7423783670949539,-5.56764600514631,3,left
5.977,0.46163658472074814,1.4752242659055643,-0.4259880400825928,4.297477979547297,-5.808339590826883,1.5652956622588177,1.9228678385070355,-0.7742254137464923,-5.619712183704255,3,left
5.981,0.3491990262590605,1.4506713021753297,-0.3921217150532452,4.244438293240359,-5.946573661304942,1.519414656211648,1.8071258364587668,-0.7322662807142508,-5.551103181215366,3,left
5.981,0.33165396077132725,1.4472753823230602,-0.38892613168242096,4.374861084394899,-5.6062209465221065,1.6326346438629074,1.3211700966879296,-0.5559312769095043,-5.26257701282558,3,left
5.982,0.19622755331065359,1.4314422735782535,-0.3251217089636659,4.15859688106259,-6.170736716273663,1.4447286166849196,1.205442587161078,-0.513985669972447,-5.194035392402004,3,left
5.985,0.06402954304744907,1.4163859677538921,-0.2556494019179407,4.443848763865576,-5.426107300973651,1.6926575351118094,1.2931847253335575,-0.545792748511013,-5.246011913340604,3,left
5.987,0.049152064968984596,1.4168745050151874,-0.24166503246809043,5.6412557035171105,-2.300265700059575,2.732828802173478,1.2402463237630648,-0.5265951292989289,-5.214571343625028,3,left
5.987,-0.05841873568488428,1.4140470187780603,-0.16006490627692113,5.926494485092203,-1.5557111393704666,2.980809107218255,1.2618332912727537,-0.5344342730555011,-5.227600564231397,3,left
5.9910000000000005,-0.1836055756556063,1.4144341038585564,-0.03455658608549973,5.7102388814092055,-2.1201988982869935,2.7928140505312067,1.2620344899422942,-0.5344879509378486,-5.227269702301928,3,left
5.992000000000001,-0.25274318392814954,1.419075668802148,0.08624417689538869,5.840686810510069,-1.7796277355355508,2.9061313118987475,1.2508857280657235,-0.5304686667289724,-5.221282997915266,3,left
5.996,-0.33279502589178867,1.4122414643814607,0.21543394685760672,5.787559395410183,-1.918517299970778,2.860190593875477,1.2642716636036841,-0.5353015247122233,-5.228608667848613,3,left
5.997000000000001,-0.38918270157624746,1.393847240510603,0.30493205293818726,5.786924179948978,-1.9197659515600478,2.859188379975014,1.2537969250958851,-0.5315121039279833,-5.2226575376104964,3,left
6.0,-0.43493119088962384,1.3666598409191195,0.3683073310328293,5.814590206074773,-1.848121300818415,2.8838535055573025,1.2595984431436502,-0.5336311800622418,-5.22662357974956,3,left
6.001,-0.4856433889772368,1.3320264153445809,0.43123522903289263,5.781416018331024,-1.9341515920364918,2.8544152234896405,1.2579133339630972,-0.5329704758692194,-5.223940805784213,3,left
6.005,-0.5345513273841547,1.2968021785814825,0.4850235341639845,5.807309118489501,-1.8668018598831855,2.877176021701068,1.2570733518914299,-0.5327508586897889,-5.226338451164094,3,left
6.005,-0.5837296049446699,1.266744892952654,0.5273577158235995,5.793168918623778,-1.9042076317679109,2.865408614924119,1.2588630071042863,-0.5332959779475918,-5.223848638623563,3,left
6.01,-0.6183585694423244,1.2397469443388838,0.5433896855997304,5.796817810142104,-1.8931010434579563,2.8669115650380683,1.257068900352691,-0.5327281264362567,-5.225614537959485,3,left
6.011,-0.6301150870854768,1.21371608856569,0.5277691672522198,5.799754494910102,-1.8881570362680211,2.8723322185230895,1.2587135523463178,-0.5333247367564148,-5.226615895617089,3,left
6.015,-0.604234654449459,1.1895446534732084,0.49029440362516746,5.79428138843387,-1.8991044072851169,2.8640588143331174,1.256789244567058,-0.5324750878059101,-5.220222527099215,3,left
6.016,-0.53883691423728,1.1629258594665006,0.44534109836771646,5.7995498937708305,-1.8880142925864931,2.871439402430635,1.2595512404367457,-0.5338243497917627,-5.2338617494133945,3,left
6.02,-0.45083366940985825,1.1391045547424585,0.3969337698090647,5.7955035228164,-1.898599441175476,2.867949838696677,1.2558226486900517,-0.5319530859679875,-5.213747727440172,3,left
6.021,-0.35030675240365294,1.1262987250629597,0.3462859334121391,5.7986764023051895,-1.8853782204844765,2.8655043342567748,1.2597243730020038,-0.5339220717539213,-5.235145599913425,3,left
6.024,-0.2433807801845445,1.1191971842220552,0.30033631354831153,5.795457546039962,-1.9050700657828918,2.874593396776886,1.257585237902985,-0.5328249489157055,-5.222851366020523,3,left
6.025,-0.13966929868864375,1.1206179251364772,0.2554364180774802,5.799292835082023,-1.8782138982051522,2.8601967190617126,1.2551704194121376,-0.5316762286753249,-5.211911643277257,3,left
6.03,-0.04736173326118083,1.1328563880895326,0.2137090221161705,5.795385782221751,-1.9063731783601008,2.8756986905678446,1.2648043127388235,-0.536373092993937,-5.259227921371437,3,left
6.031000000000001,0.032666850172253625,1.1483141994570785,0.18542415392584177,5.797356532761009,-1.890844992013296,2.8664970230764646,1.2471069416436127,-0.5277204559622123,-5.171582377433884,3,left
6.035,0.10018197451126745,1.1657860019482698,0.17627954712119523,5.800470537421891,-1.8737847053525991,2.859780721403947,1.2697932278336264,-0.5388205252729491,-5.284098251297326,3,left
6.0360000000000005,0.15607940843316376,1.1851671355929163,0.1818383019007848,5.789162823072301,-1.942432145059927,2.891161375320845,1.2508691324874783,-0.529554196867414,-5.190177514266162,3,left
6.039,0.2035803296721453,1.2010713291303459,0.19521934372962196,5.809709712481742,-1.8162124254491547,2.832610264918563,1.2513220849913154,-0.5297953156105588,-5.192675559406043,3,left
6.039,0.24101445269097566,1.2111930564959539,0.21436510955901303,5.783427795871024,-1.9780383379274715,2.9078680752640294,1.287600473746775,-0.5475063638364825,-5.37189984884607,3,left
6.044,0.2679669094508289,1.218390008776607,0.233387261222107,5.805319248176156,-1.8430409970333712,2.8450147996894297,1.1985028753305293,-0.5039763751692141,-4.931448201812158,3,left
6.045,0.29022392231987143,1.212176045095452,0.26086866827172894,5.804900717729926,-1.8463064330650623,2.8468217305029606,1.3462121627899608,-0.5761624469164803,-5.6617124196725115,3,left
6.051,0.3021738726521239,1.2033362227783138,0.28261199814362825,5.762611626435524,-2.1049848828441227,2.9663066129601923,1.151386511370422,-0.48093193542970947,-4.698512606347686,3,left
6.0520000000000005,0.303822292752557,1.2031857174453546,0.28599424507516535,5.866325997252633,-1.4696505205752945,2.672518115041232,0.3335154502651616,-0.08137828214439305,-0.6552817387354702,3,left
6.053,0.31280313196979925,1.1778122156865725,0.31049306823737777,5.694444657244425,-2.522935568395396,3.1596447926031495,0.13868349745148298,0.013885051287144706,0.3078999078895672,3,left
6.053,0.32042877149573845,1.150517084724004,0.3361785887439988,5.921123250293544,-1.1336771783530954,2.5171441751731316,0.28639960150768773,-0.05833652532383597,-0.4223446520823914,3,left
6.053999999999999,0.3214026802047648,1.1436212710472011,0.33886440306531806,6.873668771343448,4.698561359857371,-0.18014770716835948,0.19730459996855287,-0.014820065106799021,0.01811446083997187,3,left
6.053999999999999,0.33437738533654393,1.1050747644270809,0.35923549869986343,7.100397346993796,6.087879040486342,-0.8226533159100832,0.23356036576898276,-0.03241327317261987,-0.16117500687332806,3,left
6.058,0.3570884635711531,1.0407989711067787,0.38966116942846485,6.928353314449907,5.034492046726804,-0.33544837074541883,0.23406198902880743,-0.032907908874314065,-0.1635327995910956,3,left
6.058,0.38745980411593395,0.977144104308101,0.40955574835018416,7.032431833644029,5.6699358907055135,-0.6294929127804484,0.21506811400807446,-0.023278113429368176,-0.06981316659269532,3,left
6.063,0.4302335182154231,0.9035984922102747,0.4152008307715157,6.98952899459386,5.411194222152135,-0.5094938494343115,0.23782388080320765,-0.03474008903340701,-0.18212876967126473,3,left
6.064,0.48360339546232645,0.8364441969716758,0.39817744456602316,6.989901162171786,5.407880421338839,-0.5084377728964096,0.22009654011918628,-0.025931353749344403,-0.09456966326287165,3,left
6.068,0.5397031284331306,0.7927153801983475,0.37106858915917085,7.011083123534238,5.543094730413502,-0.5704990694020977,0.22967074658004788,-0.030317312139684062,-0.14205786002172044,3,left
6.069,0.5820511235489159,0.7611412161351203,0.33350123958867495,6.984977835384924,5.380868368447599,-0.4956744215607627,0.22744815618954736,-0.030169876781189525,-0.13056424340468653,3,left
6.074,0.6021509013527704,0.733668363074266,0.2661396021742546,7.006432471878831,5.507603287599195,-0.5546987485076638,0.2249778266864867,-0.027347628572366323,-0.11922444634746668,3,left
6.075,0.5849166419963269,0.7183440309101392,0.16269434088322335,6.992705811489836,5.438510718417058,-0.5214250652908503,0.22928598547523107,-0.03143363707500969,-0.139450927698195,3,left
6.077999999999999,0.5067282000365271,0.7242587921281769,0.02858155237782342,6.999711335577287,5.455647509861162,-0.5316225207300569,0.22523340060362784,-0.027874788005339775,-0.12027088154780745,3,left
6.077999999999999,0.3490924870961062,0.7622833862896341,-0.12540991790788333,6.997191280473494,5.4718144906317505,-0.5363116415743352,0.22799242608908948,-0.029208532916261225,-0.13391822854322116,3,left
6.082999999999999,0.10891185447512011,0.8469504061664019,-0.2605866911140776,6.9964436796845,5.442052803471188,-0.5247698585679719,0.2266695546187303,-0.03149169321291678,-0.12579210325691104,3,left
6.084,-0.1999388224596799,0.9852436624639109,-0.3469857180041772,7.001274157364988,5.471409359884921,-0.5383667931824025,0.22693987519586042,-0.024929658737188963,-0.1307537462450779,3,left
6.087999999999999,-0.5724005784691784,1.1822195822899206,-0.37398527863842584,6.989973383691461,5.448924247563783,-0.5238426565481247,0.2271959272754581,-0.03504064977670564,-0.12661125537213175,3,left
6.0889999999999995,-0.9788548137216385,1.4460712120771064,-0.2831120725041055,7.009863168242572,5.4639654777901505,-0.5402262969802663,0.22680021114543875,-0.02420271313788347,-0.13042027907376885,3,left
6.0920000000000005,-1.368089693807622,1.7711646222417534,-0.07696293306965374,6.982282155938055,5.454325750571057,-0.5217037559724845,0.2272226715907956,-0.03055870910579289,-0.1291779031564898,3,left
6.093,-1.6668052661946893,2.1234144317297874,0.11583181807161178,7.010918423159829,5.4599192626592625,-0.5392841096774231,0.2266266670269842,-0.03557118883810155,-0.123359024594187,3,left
6.098,-1.792512724512322,2.4606548975326024,0.19132850560918685,6.99488628832696,5.459825668782827,-0.5305767372972124,0.22766352834836184,-0.012871900051961914,-0.1410537192508373,3,left
6.099,-1.7364686931554965,2.716589500418646,0.18004064973969217,6.979468812913787,5.449988195405616,-0.5185610091949813,0.2260241439481223,-0.05510410266245331,-0.10964115479621493,3,left
6.102,-1.5714283178036432,2.8548171688967403,0.08837812707790932,7.043994960492467,5.475043197420453,-0.5628291218604831,0.22806581465610967,-0.0008473011704237185,-0.14966210361434287,3,left
6.103,-1.3913932162181464,2.928788085399808,-0.18614942441588403,6.925028373540384,5.43282810415665,-0.48269646940759425,0.22638665774522407,-0.04615241735973325,-0.11637737586016275,3,left
6.109,-1.132289807714504,2.9421143528826548,-0.5286602197007308,7.077534104853376,5.485506938619874,-0.5848867554316259,0.2263342887971052,-0.0448867384133716,-0.11679105948709391,3,left
6.11,-0.8048695947026592,2.933727472008106,-0.7975807399590702,6.950324325038155,5.442166407037334,-0.499864812254819,0.2298579186749077,0.04136418937169124,-0.18185819816974635,3,left
6.1129999999999995,-0.4548003337617216,2.920140592093743,-0.9434835513053726,6.9535958221231,5.442363388770294,-0.5017231200342002,0.22131168517826305,-0.17066972733162253,-0.02250381788024379,3,left
6.114,0.01764412727723777,2.830034482386416,-0.86143767583161,7.196613429690531,5.527607308809959,-0.6650260097806573,0.23545315173400178,0.18089522347887865,-0.2865746247965246,3,left
6.119,0.3212235800379415,2.772466375003568,-0.7555868867029043,6.599559085756168,5.319486758716484,-0.26427711444262936,0.21680184407940628,-0.28280943814041914,0.0617238027399757,3,left
6.12,0.4374914194088449,2.7069826251426434,-0.670440165894991,7.589400290971339,5.664049838734966,-0.928514141568944,0.1384020195647806,-2.2293918367884706,1.524356829839327,3,left
6.121,0.6395686814908025,2.5902916662288193,-0.5109794370949029,6.283850198916109,5.20973563858316,-0.05245093943839607,0.1197391123719756,-2.6930995616937325,1.8727163800174884,3,left
6.122000000000001,0.7524622518712436,2.5202917524958917,-0.42356050574066706,0.803543026940726,3.302380179878928,3.6248364931472388,0.13388950640812441,-2.3414993671854187,1.608584322073542,3,left
6.122999999999999,0.8821780409060119,2.2798726067135657,-0.25063937861316743,-0.5019810696023072,2.8480410780198717,4.500934118788701,0.12536087689914424,-2.553645118225761,1.7678962668652742,3,left
6.122999999999999,1.0454738591399615,1.8993812740465181,-0.009410726841581542,0.4878131262887789,3.1925155204918765,3.8367132989938337,0.12881642541620728,-2.467172028168564,1.7030841222996842,3,left
6.13,1.0659522706726938,1.5850049767018206,0.12466718087345958,-0.1091850274265842,2.9848146031619853,4.237258703298494,0.12889287050730042,-2.4662285971673974,1.7021455915217412,3,left
6.131,1.1049273063457543,1.2613360028197258,0.2871025093062519,0.13378798036770023,3.0691251653394804,4.074469669172607,0.12704316847049038,-2.5111963800389265,1.7361637851553846,3,left
6.132000000000001,1.1606482050584563,0.9515381538603426,0.4627295875625659,0.1370633178050978,3.070766549061238,4.071766489424508,0.12923699430376612,-2.4571197244054743,1.6954362631201867,3,left
6.132999999999999,1.2019639066663568,0.6889336315510206,0.6068846822055005,0.009921785280179729,3.025806450453193,4.157791045811054,0.12756477439456007,-2.49956345173967,1.7271094945595418,3,left
6.136,1.2454756052323512,0.45870638213255244,0.7524773374418838,0.16226743158858017,3.0795341805082597,4.054863128745149,0.1283953611298259,-2.476042959547048,1.7101234042787006,3,left
6.1370000000000005,1.2443049220390106,0.2781059501555231,0.886572782641389,0.043540990633043675,3.0379135643054083,4.134829830029623,0.12833373334710638,-2.482554110746774,1.7138349144651992,3,left
6.141,1.2136977497534343,0.13363435013976624,1.0137032673754063,0.10781041426804573,3.059655203739771,4.092310898862674,0.1279092958144779,-2.4869788135424544,1.7186088846591558,3,left
6.143,1.126481622136585,0.04115224090259095,1.1076604180201266,0.0925417595023262,3.0563402838934977,4.100611579364655,0.12847449611218612,-2.477819671941999,1.7105713743752486,3,left
6.147,0.9714715938647287,0.016911813985288994,1.1214034694473898,0.07663820609440943,3.047364507240344,4.114630361533007,0.12808165924423703,-2.4876252739327667,1.7179271400414007,3,left
6.148,0.7602389809588432,0.07292595894401452,1.017190915403017,0.10470776952711472,3.061355972868088,4.091688989790772,0.12807635504977982,-2.478682068849733,1.7133576341120187,3,left
6.152,0.5076575243467183,0.19604571330145654,0.8135508752303029,0.07818951748332503,3.048760394198162,4.1127562550390255,0.128576782827603,-2.4869891267091937,1.7146867427774475,3,left
6.153,0.26368279446701415,0.3403200207417095,0.5346481241014949,0.09668210297986606,3.055165657091151,4.100376931917888,0.12765820211840415,-2.4788685229663594,1.7159137903173032,3,left
6.1579999999999995,0.06230189470401898,0.47531583891258267,0.19245059596246322,0.08663662662233915,3.0579199776786883,4.101043153900327,0.12870038794906585,-2.485962200568884,1.7134312039967807,3,left
6.159,-0.08965276484821935,0.5732058297893663,-0.14859081638505425,0.0911487053060476,3.0452057646125854,4.111897228186269,0.12805605084012794,-2.482911290710709,1.715652819135193,3,left
6.162999999999999,-0.18769371008467023,0.6298137126751779,-0.43684155652460344,0.08883460909684163,3.065711751643084,4.092740603125536,0.12763161512749888,-2.4770236412609745,1.7151209822856313,3,left
6.165,-0.22693617118146392,0.6538755494859291,-0.6582706932002759,0.0904796617125419,3.0435640591926,4.11371402243817,0.129730832996707,-2.496781074114473,1.7129343582087637,3,left
6.165,-0.2218311825287495,0.6460088852277192,-0.8070709873320808,0.09082679961553997,3.0568155330860924,4.100723777923391,0.12578074504569442,-2.4615600760556178,1.7180556309456012,3,left
6.166,-0.174438273243876,0.6298981332916083,-0.8880093379299874,0.0846953480838043,3.0659917842891193,4.093844261238977,0.13087334997343092,-2.5062748150528833,1.711096095029556,3,left
6.172000000000001,-0.1016281947751417,0.6138284672240912,-0.9052317095543417,0.10100575758350688,3.022150837994208,4.131020845616255,0.12661325064562148,-2.469159210126292,1.7170671669347142,3,left
6.172999999999999,0.001199211959599513,0.6197375911434403,-0.8696712634555253,0.07265480483267708,3.1041223859223184,4.060800754801585,0.12674157673224645,-2.4698346533408158,1.7166588669079386,3,left
6.176,0.1444104184065856,0.6676319694501216,-0.8018740996655368,0.10863658421374708,2.9987122074858976,4.151253010709198,0.13482999331514212,-2.541483390753636,1.7059304309428758,3,left
6.1770000000000005,0.2810548212828563,0.7397502805204539,-0.7142914116018584,0.07876374433754138,3.086782779659994,4.075623038383755,0.11493106875435405,-2.365852895173741,1.7326540310185297,3,left
6.181,0.4547625567675231,0.8598777539917806,-0.6459737682997837,0.07892352482593598,3.0841488289786385,4.078114783223828,0.1479310597744931,-2.6568814726412304,1.6882146757073007,3,left
6.182,0.5816826191889823,0.9468413598867425,-0.6224476396493868,0.1380267553040315,2.917017911905499,4.220867044495372,0.10440231648095885,-2.2730741762344335,1.7468724959807602,3,left
6.186,0.6028820666180787,0.963594176718008,-0.6160091111954069,-0.00649097718186855,3.328119342797728,3.869475372341691,-0.07830278594125314,-0.6618309286257766,1.9929318665349744,3,left
6.187,0.7369510450658451,1.0469530811668646,-0.6378234291343072,0.23295103905070214,2.646387112280358,4.452234141300384,-0.12183017470840907,-0.27801359407191073,2.051580247154506,3,left
6.188,0.8686160120764691,1.1201331222466062,-0.6700526356830404,-0.08288883682286352,3.5456414230766944,3.683566818265378,-0.08883096418152808,-0.5690246618731996,2.0071307014621667,3,left
6.191,0.8810378791664384,1.1222102355461796,-0.6835025372301629,-1.4095566030801976,7.319924658602934,0.45771754010461174,-0.10873287247053734,-0.39349878529148913,2.0339304555781563,3,left
6.191,0.9664969396528134,1.1589490379231009,-0.7241113888315927,-1.725588252181675,8.219313174587953,-0.31090074378122046,-0.10063459248184221,-0.4649043302462167,2.0230191506664212,3,left
6.192,1.046941838155092,1.1799297650615532,-0.7619076545505249,-1.485865149286374,7.537323150142101,0.27181035883889704,-0.10052414706835633,-0.46596463366211505,2.0229047818551846,3,left
6.197,1.0524182196742347,1.154058066692775,-0.7493396368494373,-1.6305646628286001,7.9487681617135175,-0.07962058695731303,-0.10476128441322913,-0.4284080196542733,2.0285341031594633,3,left
6.1979999999999995,1.0480307847173997,1.114365215020318,-0.7024691859016172,-1.5716122385388145,7.781296718966075,0.06334703443148373,-0.0996882034066498,-0.4734235122212077,2.021815345403916,3,left
6.2,1.0123977717435642,1.047529591419487,-0.6218098630666712,-1.5707689267165257,7.77884617986121,0.06540170355538218,-0.10363607157143742,-0.43832974130126423,2.027017553087136,3,left
6.2010000000000005,0.9705571901133168,0.9703519369852927,-0.5262576807262295,-1.6019092871048768,7.867093551489916,-0.009622646962601886,-0.10150579271130969,-0.4572367429140786,2.024198295475506,3,left
6.205,0.9390322977512524,0.8927079985856688,-0.4379125971523632,-1.5643062105010368,7.7609579557479185,0.08025283906617502,-0.10200568816289646,-0.453069779314868,2.0249716551883266,3,left
6.206,0.9138305186309283,0.819170235680038,-0.3632744145412957,-1.5940236327757826,7.844262734251157,0.010232766072379683,-0.10253397228886824,-0.4476324852383158,2.025360361207962,3,left
6.21,0.9008690379242257,0.7655441890197445,-0.31035049919759283,-1.577568628115845,7.798693709902903,0.048017193793253726,-0.10161937161309965,-0.4570404441473266,2.0246853280392783,3,left
6.212000000000001,0.8863360949724046,0.7390567708047073,-0.28230766857895523,-1.5815222327765845,7.8093924012474645,0.039373279073853656,-0.10245842291736651,-0.44799295323106647,2.02513167633332,3,left
6.216,0.8654808614000731,0.7482656061528451,-0.28257678112685786,-1.586428057315476,7.822315998140974,0.02931326522913662,-0.10190617563533289,-0.45417744909910207,2.0249331344000243,3,left
6.216,0.8329386320391887,0.7921931112011491,-0.2976385569229536,-1.576743530105579,7.7981340937302495,0.046807221052602724,-0.10217638581663269,-0.4518060035359938,2.0253020171559197,3,left
6.218999999999999,0.7822932781637197,0.8621445012975186,-0.3093817946920998,-1.5878453419957737,7.823900077869761,0.030250393693717494,-0.10205639158450787,-0.45042513127378614,2.024128042604918,3,left
6.221,0.7150685463454235,0.949043762116248,-0.31110710664154545,-1.5779389261081032,7.802860757763629,0.0415284882608585,-0.1021823492724995,-0.45488913019961963,2.0266112505089238,3,left
6.225,0.6365028283795342,1.0397257826767268,-0.2970799498756683,-1.5842273074623865,7.81505361977588,0.036450886903557765,-0.10195994005811769,-0.448533224216191,2.0228602416597634,3,left
6.225,0.5474840089689466,1.1220621648657705,-0.26674835366567573,-1.5842549824996195,7.815085640077156,0.03647047815493874,-0.10224279985920602,-0.4549058138425292,2.0269204834110353,3,left
6.23,0.45218924708411445,1.1901733370588032,-0.22172493992443093,-1.575169020591801,7.799797881539293,0.03962471369563162,-0.10207977115604408,-0.4512192312775282,2.0245752431544908,3,left
6.231,0.3581123618582265,1.2375811102259104,-0.16639439923619656,-1.5948471123415233,7.831640004264171,0.035061786242753565,-0.10183810201469332,-0.44893584004800335,2.022416588167336,3,left
6.235,0.2657477904357929,1.261188911950422,-0.11397516754364397,-1.566386009231027,7.786686021150015,0.039690419481502995,-0.1027650444521822,-0.4600874833635709,2.0316862302623004,3,left
6.236000000000001,0.17922188486614674,1.2660531334518486,-0.07400023319595554,-1.596203094146289,7.833118624296741,0.03602917757446803,-0.1010523241068188,-0.43934866045051474,2.014504724539951,3,left
6.242000000000001,0.09823701991349411,1.2538072524040091,-0.047247698142992026,-1.5791411069809582,7.806764356542949,0.03773869740891854,-0.10326017497762004,-0.46590456988235385,2.036577602116904,3,left
6.242999999999999,0.025507107802814167,1.231386291063352,-0.032106435958041926,-1.5645063409091997,7.784250290344923,0.039039579579723815,-0.10141278886662912,-0.4437675751312914,2.0181454130796217,3,left
6.244,-0.040232892320832214,1.2011952864999658,-0.025516015369694348,-1.6283606554029704,7.882221525209519,0.03382879897363604,-0.10145289628595765,-0.444462128339423,2.018628758000549,3,left
6.245,-0.10236662429645813,1.1639922440679704,-0.021101202046580475,-1.5101319139738973,7.701075579295463,0.04302728293769855,-0.10501913553144053,-0.4862685717277825,2.0538393581412566,3,left
6.249,-0.1526694607673993,1.1271812841388322,-0.019646319143446157,-1.6618128444574258,7.933301758942729,0.03153688633806584,-0.09626027817100768,-0.38343948250082904,1.967309289743672,3,left
6.25,-0.2036308308291475,1.0842979929317456,-0.02888821710528299,-1.535236381771231,7.7395861730176145,0.04099232306738175,-0.11078481186712603,-0.5539301143839721,2.110779312602632,3,left
6.252999999999999,-0.23843000444995754,1.0539635780922985,-0.03969754156788595,-1.538679383581484,7.744868867756143,0.04070735473187051,-0.09162327653841551,-0.32907429953887046,1.92154144745619,3,left
6.255,-0.24567842755922606,1.0452947459558022,-0.04419389480025093,-1.7798907683857281,8.113856010014405,0.022999234938199015,-0.011178380747071696,0.6144822043114171,1.1271590654811576,3,left
6.255,-0.2701069636618961,1.0187446050619946,-0.05699483828368941,-1.1870368798810516,7.20698908689155,0.06646430532140199,0.007988921636409648,0.8393087195850509,0.937918954748185,3,left
6.257999999999999,-0.2960391078708285,0.976542271016155,-0.08290632245902124,-2.1699939995613238,8.71054053103111,-0.005531197433532899,-0.0065438279924519135,0.668867208768436,1.081394073444283,3,left
6.2589999999999995,-0.2984850693216797,0.9547436942076638,-0.10094206354281424,-0.87349185068185,6.727415428215238,0.08937902155839166,0.0022196565570751603,0.7716466495945384,0.9948554851473961,3,left
6.2589999999999995,-0.2986816531098853,0.94703070734036,-0.10604202071042873,4.568291060232493,-1.5961209889051091,0.48733017411778934,-0.0013403171749447511,0.7298622640128285,1.0300774956911125,3,left
6.263,-0.28739125492484985,0.9284313675721818,-0.11786824958815315,5.864791728992523,-3.579216782090223,0.5822010686579248,-0.0014035470426323798,0.7292052361190936,1.0305492967183096,3,left
6.263999999999999,-0.25404400267634286,0.9081150702717788,-0.12778842659769013,4.8818541375125895,-2.0757481001772318,0.5102917492450206,0.00048471124130065575,0.751220384599459,1.0121232453627633,3,left
6.268,-0.20420270690979542,0.9012760671184017,-0.12052941851870205,5.4746451380171965,-2.98244626007223,0.5536184388900356,-0.0017734824041594683,0.7248708048069774,1.0342030197573995,3,left
6.269,-0.14118212075073153,0.9000239769557274,-0.10495381854634075,5.233559345933933,-2.6137267133974733,0.536087832456728,-2.113308728574656e-05,0.7453627566522398,1.016994380212271,3,left
6.275,-0.07107034316635731,0.9024837678044105,-0.0874818596551463,5.229933569778563,-2.6081173009938787,0.5356337998915031,-0.0009461095305073147,0.7343976622258299,1.0263137682864085,3,left
6.277,0.0041111882748684405,0.9092329962128591,-0.0796754740111531,5.356702073622847,-2.8021019336908477,0.5451611997057775,-0.0007817574955531111,0.7367058272912136,1.0240906310984996,3,left
6.278,0.08351485509766064,0.9150977092213044,-0.08517851215004849,5.204917378736198,-2.5698569282302137,0.5338120557763744,-0.00044521666851768155,0.7399945680263766,1.0218021397642207,3,left
6.279,0.15793415105692546,0.9228380751521401,-0.0960985175591278,5.323028453788204,-2.7505484117562236,0.5425541888358021,-0.0009837964534720675,0.7344872952302961,1.0258504462705855,3,left
6.285,0.2196218502810866,0.935144018532946,-0.1157725529804636,5.25963756579697,-2.65365932123688,0.5381332767018181,-0.0004936298464893996,0.7395902041921177,1.022022766369086,3,left
6.2860000000000005,0.27099457578828356,0.9485913569911477,-0.1374877621583681,5.273423414677348,-2.6745211901393104,0.5384571516427399,-0.0007642322664400487,0.7364110650855686,1.024703648260509,3,left
6.287999999999999,0.3082726639771619,0.9626003465619134,-0.15594091830850976,5.291582659237238,-2.702681517067085,0.5409605002511424,-0.000803888111441388,0.737144542944383,1.0232169933815503,3,left
6.289,0.3289237982573462,0.9751412218103186,-0.1776614682378615,5.260806916177987,-2.6551372164526366,0.5372693696702613,-0.0004424439205812936,0.7386437432235098,1.023940517638518,3,left
6.292999999999999,0.34002930505031775,0.9832395405643514,-0.1928588695269412,5.28945303492141,-2.699327873536752,0.5405117863924397,-0.001046528656891396,0.7356468871440424,1.0235016205822411,3,left
6.295,0.3429020826360338,0.9882705921713079,-0.19361065321893264,5.271109566608246,-2.671274928360738,0.5391811844665326,-0.0003904706511372055,0.7389830319425934,1.0238501513690819,3,left
6.297999999999999,0.34081989787089484,0.9882462377222705,-0.18430165461616743,5.27679524000208,-2.6792737891977394,0.5374667569813916,-0.0007886270734107047,0.7368318910709348,1.0238372289062356,3,left
6.3,0.3334600906058601,0.984177679074593,-0.17197394934802393,5.282118715759084,-2.6890087958825397,0.5427230651896107,-0.0010373341092315936,0.736085213888591,1.0228928075356922,3,left
6.303,0.31614997280845053,0.9808811915819018,-0.16633701659095573,5.26978975945356,-2.6677767893618523,0.5345614254716421,0.0002058472969787762,0.7411658103309011,1.0254982212951886,3,left
6.303999999999999,0.2930864157269092,0.9786748438376738,-0.16143950590916564,5.283750354452046,-2.6916595614550367,0.5433211791614655,-0.002127585658044913,0.7314168807553554,1.020942386318793,3,left
6.307,0.2617559448451781,0.9797400780905247,-0.1484176877690534,5.274392308567691,-2.6758872099838342,0.5381659819239748,0.0008749469955024571,0.74400799658961,1.0267301473911281,3,left
6.309,0.22087348369431448,0.9854892545796791,-0.13043370847915478,5.272720962125822,-2.6720649428446093,0.5341879082480001,-0.0016342957203587924,0.733467177507682,1.0219237442674098,3,left
6.313,0.17185396727997151,0.9921341215879393,-0.11030958662076301,5.290506159611329,-2.70479057206182,0.5523595582701979,-0.0015565472096285607,0.7338651646674295,1.0219566705188892,3,left
6.314,0.1206993694485549,0.9980813204024237,-0.09421334831341543,5.255631266461392,-2.6412140334356904,0.5185233493660072,0.003195902102276769,0.753593480391169,1.0314393711086485,3,left
6.317,0.07230804390720968,1.0055769692465744,-0.08695269744613245,5.300840084053336,-2.723496070060339,0.562000357505082,-0.008496695982041842,0.7049720368124012,1.0082473558694232,3,left
6.318,0.01504605054563558,1.0139719559535656,-0.08854209688574866,5.262919609015521,-2.654542349366693,0.525692939725579,0.010893245767517865,0.785621336741508,1.046670216412612,3,left
6.322,-0.024107664630932918,1.0179056755510651,-0.0946307958455212,5.264619308510521,-2.657411106920944,0.5267193401668742,-0.014682308410150176,0.6792441174447458,0.9959939594801865,3,left
6.3229999999999995,-0.03412256642652333,1.0192496231817474,-0.09623755402100306,5.334729642724034,-2.7855996943495276,0.5958032093283584,-0.12201808857170925,0.23285143065740876,0.7831099554852001,3,left
6.3229999999999995,-0.06693260720310694,1.0244842856093967,-0.10041528998483867,5.161602333968331,-2.4693501366529134,0.4259554314119044,-0.14759226106039716,0.12648749385140307,0.7324201299804485,3,left
6.327000000000001,-0.11785492800746158,1.030700567193948,-0.11542628707768035,5.448874551115683,-2.9940060012551557,0.7075795817418244,-0.1282042887959619,0.20712696770485584,0.770862095118149,3,left
6.327000000000001,-0.1418592250682268,1.0335718631202577,-0.12478152760491386,5.069933950252644,-2.3019686630681404,0.33612208327610454,-0.13989577443295997,0.15848396098287854,0.747659992317296,3,left
6.327999999999999,-0.14942379937543737,1.0349237707462917,-0.12649728570030577,3.480738621997935,0.6015085481695848,-1.2231236846716336,-0.1351418319612848,0.17829313245452222,0.7571263041400415,3,left
6.331,-0.17118370738858557,1.0367844782186628,-0.1381419066217083,3.1018996496365805,1.2934198902111012,-1.5945795143858974,-0.13506961136370632,0.1785393189104466,0.7572160759691926,3,left
6.332999999999999,-0.19808531292950332,1.0374378188262545,-0.15067486777069403,3.389001617926742,0.7688908343607395,-1.3129416678783796,-0.13756907460780482,0.16819840118860346,0.7523108881886452,3,left
6.337000000000001,-0.21621737625284382,1.0363753344942146,-0.1513618334591712,3.2160460507545414,1.085225926282834,-1.4828450397558341,-0.13457859553992282,0.1806126284127842,0.7582186020002277,3,left
6.337000000000001,-0.23376536331672165,1.0323947747452074,-0.14689335165891398,3.2860808402942814,0.956515703908149,-1.413641984963498,-0.1369025282292246,0.17089885156290313,0.7535709293330961,3,left
6.341,-0.249114036268174,1.022964786606718,-0.1390653723320393,3.287648952691285,0.9547229123225867,-1.4127964052560742,-0.13565890301964784,0.17622621299891184,0.7561656927228211,3,left
6.3420000000000005,-0.2631340601256808,1.0128959974376552,-0.1289325831793316,3.2501526311638624,1.0221710624395783,-1.4489051067038183,-0.13592608303875314,0.17484784817924454,0.7554144637886316,3,left
6.347,-0.2768043450690326,1.0021908129110586,-0.1209382399734863,3.294644938995113,0.9413418607937323,-1.4055503536983234,-0.13628273383638959,0.17369247296956436,0.7549784603405999,3,left
6.348,-0.28300542334654194,0.9873237852703521,-0.11321194660217757,3.260625415115845,1.0043776892921827,-1.439474244060877,-0.13568789010857257,0.17590497349542386,0.7559420185827795,3,left
6.351,-0.2843315968119845,0.9736724844016652,-0.10722330435672957,3.277767294805258,0.9702059578154169,-1.420874023095434,-0.1362278173819358,0.17365690257233424,0.754869651912927,3,left
6.352,-0.27694172328082567,0.9643408219718074,-0.10963266054419557,3.276002994187656,0.9783449600558718,-1.425675945507122,-0.13590115372471284,0.17550131793406876,0.7559170974339986,3,left
6.356,-0.2569101434816344,0.9587005669837295,-0.11375708209117699,3.2680343781915626,0.986873309084198,-1.4297276664778962,-0.13597875563160305,0.17406848792218133,0.7548498287232239,3,left
6.357,-0.2285421845866894,0.9563432928430987,-0.10939365743909116,3.278984230214125,0.9716747949120912,-1.4219864884236308,-0.13609854310528227,0.1752262874965399,0.7559747514112758,3,left
6.362,-0.1910239438171159,0.9557883377273204,-0.10308141102250543,3.2710062781830436,0.9862910101259333,-1.4298376032850069,-0.1358846741932871,0.17435051058264617,0.7549466071225841,3,left
6.3629999999999995,-0.14992909384969266,0.9549402786652048,-0.09727500210628956,3.271877237472971,0.9757885521549851,-1.423423795043979,-0.13606600618163012,0.17461615266349684,0.7554259523354094,3,left
6.367000000000001,-0.11066725029184997,0.9545450126320548,-0.08990416162526241,3.27979353114708,0.9816924400508825,-1.4283639243853898,-0.13604273436319725,0.1755926037165144,0.7561957229379358,3,left
6.367999999999999,-0.07184575931395146,0.957560566128934,-0.08855897338006105,3.2644953166695236,0.979257518203626,-1.4244163184913057,-0.13581331376952743,0.17269809598528113,0.7534847876185057,3,left
6.371,-0.036633587094934555,0.961261900769915,-0.0908036454198787,3.28208022684888,0.9795215782861149,-1.4273722782488416,-0.13631698682403737,0.17774025490311124,0.7583566662730954,3,left
6.371,-0.00742517615123452,0.9626580158567247,-0.09093425504761286,3.271062734464493,0.9809328162197568,-1.4265040663204975,-0.13564213968674593,0.17138321527256778,0.7521571656731999,3,left
6.376,0.016774108478908333,0.9635063977412303,-0.090570984722253,3.2642304443794874,0.9772863979737441,-1.4231448185135294,-0.13621728036507386,0.176640891153592,0.7573088198994308,3,left
6.377000000000001,0.03901907844252454,0.9653227416070799,-0.09188234850730001,3.299048895188351,0.9842737387238264,-1.4330297692819176,-0.1361837541823514,0.17657479069341264,0.7572066071679666,3,left
6.381,0.057015883679782525,0.9666730317425438,-0.09815199378521776,3.2333149484479202,0.973435093957517,-1.4158361076364154,-0.13513496104596048,0.16634667178430923,0.7472846478006798,3,left
6.381,0.068776647309319,0.9664976197109443,-0.10712995326943078,3.318141431314289,0.9865885266013852,-1.4375033687410226,-0.1377384925589494,0.19137608130365047,0.771617316050719,3,left
6.386,0.07929450960462547,0.966556977923972,-0.11943716971741544,3.247142967552209,0.9759304161226142,-1.41958790715278,-0.13341233833027194,0.14991750633812856,0.7312937361517874,3,left
6.3870000000000005,0.08603498147465427,0.9660865081267428,-0.12957194409124506,3.2493477270081335,0.9757206072642587,-1.4198053918500038,-0.13912149825567793,0.20458641858689497,0.7844719078805098,3,left
6.391,0.08784023596564206,0.9652459129747036,-0.13268529663135525,3.3839766399911135,0.9973688763346,-1.4546778242423208,-0.16307879319517665,0.43411355141821917,1.0077287955267906,3,left
6.392,0.09177716030890418,0.9640568051702287,-0.13792978905692999,3.052660702088134,0.9448810657829312,-1.3693525936441406,-0.1687874937545224,0.4887805767788935,1.0609037613914092,3,left
6.392,0.10312061319487628,0.9589240497966246,-0.135759490699268,3.602160111597547,1.0316357222624857,-1.51067948303233,-0.16445970950056982,0.4473328887509793,1.0205878702033058,3,left
6.396,0.11344354221865921,0.9539656798829026,-0.12723110955188563,2.8773088955349424,0.9173060486990031,-1.3243232891563683,-0.16707096403370633,0.4723317439015097,1.044906909672148,3,left
6.397,0.11641100311612051,0.9524209074526021,-0.1258446052427024,-0.16470910937694083,0.4369928671007157,-0.5418761105945213,-0.1660049902294224,0.46216144469106,1.0350042615518737,3,left
6.398,0.1262379165750753,0.9509977565573184,-0.11829700577371417,-0.8895573206458132,0.32267873414370507,-0.3555284572608863,-0.16599805407129103,0.4620140888522917,1.0348810856287662,3,left
6.4,0.14356233888414127,0.9514590441827682,-0.10176034817982918,-0.3400714998926863,0.4093627984006254,-0.4968166150002674,-0.16654337746371084,0.46735372132070363,1.0400463143381897,3,left
6.4,0.16102991010662102,0.9533527483849894,-0.0880984406946772,-0.6713520576082762,0.357059077160828,-0.4115923291325155,-0.16588784540291576,0.46095822255896757,1.0338538845060967,3,left
6.407,0.17869175858889452,0.9562221294999758,-0.08221835601449659,-0.5367878495490406,0.37837041794864457,-0.44628005988944586,-0.1664024535017097,0.465936843394951,1.0386844809550766,3,left
6.4079999999999995,0.19364540204156994,0.9630390799531917,-0.07877405676294767,-0.5344943002972933,0.37862320460788845,-0.4467510850311925,-0.1661120461866016,0.4632600050774818,1.0360555677971421,3,left
6.41,0.21150510711667025,0.9711708313665643,-0.07099390859468788,-0.6055796950187764,0.3675118647127883,-0.42858728044989713,-0.16620884339514913,0.46385294110103814,1.0367126774482416,3,left
6.4110000000000005,0.23116112312664272,0.9801227150236271,-0.06743219539370685,-0.5207170798534417,0.3808542617893135,-0.45035796582925114,-0.16622665755119387,0.4645990537278729,1.0373001009102158,3,left
6.415,0.24715115917383748,0.9892003016973694,-0.06714180615859092,-0.5863729653669767,0.3704212695328946,-0.4333868457910369,-0.1661674082160243,0.46332515442987476,1.0362306992499082,3,left
6.415,0.26352608842092196,0.993366989077116,-0.059998226914952615,-0.5518013372157501,0.376123750409149,-0.44256736865809887,-0.16623274231027774,0.46451417564571956,1.037251977197858,3,left
6.419,0.28078114861002224,0.995339266342402,-0.044989452779510636,-0.558209793771979,0.37468493119076574,-0.44041818298905816,-0.16615141466714603,0.4637405282308248,1.036498148791253,3,left
6.421,0.2963216325932676,0.9954225462345394,-0.027508610220963303,-0.5697468016587419,0.3733888209922809,-0.43806625574292124,-0.16628934082149424,0.4640151970956232,1.0370166466155677,3,left
6.425,0.3102982917901991,0.9874314583741223,-0.01923087622220565,-0.5517481651466908,0.3758109844999317,-0.44220451373902014,-0.16605479418179112,0.46415988843975475,1.0365831421025828,3,left
6.425,0.3257967401739397,0.9742815148207592,-0.015313414271523839,-0.5670417597811874,0.37339543163535166,-0.4382684691380022,-0.16638539067642452,0.46375904006148827,1.0370498556149288,3,left
6.428999999999999,0.3392761379673233,0.9608701564770964,-0.01055705255438686,-0.559895493541058,0.3752935048995454,-0.4410118683447462,-0.16603655105849988,0.4642207808566169,1.0365858776253134,3,left
6.43,0.3496106542128701,0.9481878380486065,-0.013672619048920021,-0.5572662416627564,0.37394654499755364,-0.4396170770898542,-0.16623244715034485,0.46389965631110863,1.0368010018381493,3,left
6.436,0.3619678053967824,0.9394580629303009,-0.018785638004901576,-0.567866300029362,0.3749024815734978,-0.43998105000092264,-0.16642940762940206,0.46389206896179147,1.0372487016329817,3,left
6.436,0.37282591602764054,0.9340825539745318,-0.027520268811588915,-0.5541222854663015,0.3742690204166794,-0.4402212231108796,-0.1656133715109571,0.46436585753900983,1.035718689121095,3,left
6.439,0.38212546402354236,0.9287124617955698,-0.040338108903118605,-0.5637035879318215,0.37437656655157464,-0.43966141084306953,-0.1671184525688901,0.4634078152529856,1.0384785706890174,3,left
6.44,0.39097198522995436,0.9271159871035978,-0.0422028623703455,-0.566863681439233,0.37527258845478895,-0.4404877277128407,-0.1651876715315314,0.4646556326991026,1.0349522110432094,3,left
6.444,0.398009098683441,0.9292734997623004,-0.03888806946111177,-0.543624923490275,0.37283335066338225,-0.4392860217975636,-0.16679889932072015,0.46360698102132725,1.0378890393365579,3,left
6.445,0.4056617359855489,0.9312080657900046,-0.03450682779771923,-0.5889463150857346,0.37700668515159036,-0.4409443292452817,-0.16675802488265892,0.4636623721271158,1.03783679917306,3,left
6.449,0.41233160767995486,0.9342000950952343,-0.025020661720226805,-0.5299466447014463,0.3717741804392149,-0.4390201319949377,-0.16367661275838918,0.4655726608730689,1.0321476988834342,3,left
6.45,0.41765923694265306,0.9364907109612675,-0.020153789604078536,-0.5795474294901797,0.37608919592364426,-0.4405405125816164,-0.17124727083499608,0.46084625216745656,1.0460984741130746,3,left
6.454,0.4205333537851308,0.9421022524408079,-0.020902205139102018,-0.5776679308678287,0.3760545486515962,-0.4406312205717494,-0.15869537804210077,0.46869002959635775,1.0229760768454694,3,left
6.455,0.4205305887814396,0.9490216633450793,-0.021061256543720167,-0.48451343558640125,0.3676082226816334,-0.43738089443841055,-0.17525150576155088,0.45834486847910033,1.0534732721182183,3,left
6.459,0.42077946782355785,0.9503139075896462,-0.020298214208777084,-0.7142615495935224,0.3882494515920579,-0.44518030156082183,-0.24474814931313496,0.4149530652537089,1.1815260247026453,3,left
6.46,0.41914360493108366,0.9573032213435839,-0.020590548489527363,-0.33301986886957446,0.35407017841035493,-0.43231842767366774,-0.261305474313681,0.40461491537868544,1.2120253345471843,3,left
6.46,0.41706802506788176,0.9648925592230145,-0.022581791648945117,-0.8360035706299425,0.3991362182039708,-0.4492598754935717,-0.2487518881744928,0.4124494413569412,1.18890129326604,3,left
6.4639999999999995,0.4169166856707145,0.9657464932971945,-0.023102240631536715,-2.9465820161125933,0.5883639630903499,-0.5204387841200411,-0.25632346318281357,0.4077260476731273,1.2028489179583342,3,left
6.465,0.41519366392436285,0.9734379261326778,-0.02622167692836593,-3.449625538337467,0.6334272871269948,-0.5373810617803259,-0.2532434419254621,0.4096493353128451,1.1971721078649407,3,left
6.466,0.4136868492959761,0.9843984220454025,-0.035569684904959556,-3.068258841139418,0.5992604671890138,-0.5245337936548287,-0.25319763343296386,0.4096686315396202,1.1970965645767286,3,left
6.468,0.41255751469730095,0.992450958173956,-0.041337285775242545,-3.2981959046389964,0.6198691113321932,-0.5322779451612318,-0.25481749003624077,0.4086782386720191,1.2000642901918175,3,left
6.468999999999999,0.4074816210603813,1.0008004300874365,-0.041422741914913866,-3.20481581219085,0.6114825193741911,-0.5291438080559868,-0.2528761748276882,0.40985991535883437,1.1965103044415755,3,left
6.474,0.40305660847946445,1.0084941544658679,-0.04236639269385824,-3.203127577444212,0.6113657639919979,-0.529060152328129,-0.25438940700326895,0.4089455042387329,1.1992762727788584,3,left
6.475,0.39947287185896485,1.0160816689574796,-0.04271655091445409,-3.2526896176880515,0.6157613437933954,-0.5307699836331363,-0.25357410764543953,0.40944130994783523,1.1977834252666324,3,left
6.478,0.3895158961074471,1.0213845992752169,-0.04328253021368901,-3.1934343814929815,0.6104950326208944,-0.5287327673126344,-0.25375440119992765,0.409302971457703,1.1981345301849915,3,left
6.479,0.3769482796590573,1.023082855541424,-0.047282282091630407,-3.2394122645531085,0.6145967561855821,-0.5302993905716984,-0.253987128347016,0.40924109566604594,1.1985029659603004,3,left
6.483,0.36548347103055234,1.0236338579798527,-0.053259199948573685,-3.215134345550392,0.6123851683608673,-0.5295183648977693,-0.2535844740324651,0.4093486192544046,1.1978647714288977,3,left
6.484,0.35114669257603215,1.0240620762581598,-0.05850296269781481,-3.219476561079221,0.6128895689705411,-0.5295463206800708,-0.25397083834485656,0.40928401438977535,1.1984495673659303,3,left
6.489,0.33349209229648413,1.0258177226767167,-0.06184419455162637,-3.228250309408274,0.613477902753488,-0.5300460289290543,-0.25370718197235975,0.4093077797719236,1.1980650124606573,3,left
6.49,0.3179747857674626,1.0270466865918522,-0.06646044299832535,-3.2141917746707316,0.6124604278078356,-0.5293216130561361,-0.253809525158284,0.40924270370510185,1.1982545209785889,3,left
6.494,0.30566351393654595,1.025831115092995,-0.07043653868440033,-3.226993319732686,0.6134146759502326,-0.5299530073899406,-0.2538632404467891,0.4094703551018544,1.1981656286081144,3,left
6.495,0.29271727847673223,1.0241422478280602,-0.07222584312616673,-3.219892299989595,0.6127764808160485,-0.5297154763884091,-0.25368401941133034,0.40898522915292823,1.198264645308571,3,left
6.497000000000001,0.2853210841405265,1.021061271075241,-0.08195498247991459,-3.21896581073801,0.6130514431144747,-0.529312831027381,-0.25393831562003577,0.40971719803348383,1.1980929058224326,3,left
6.497999999999999,0.285688962023966,1.016720257119312,-0.10294186029141464,-3.228188282444812,0.6130601837094263,-0.5304726893803812,-0.2536845753912109,0.40892598853205864,1.198307898371451,3,left
6.502999999999999,0.2846185893588214,1.0134465753688997,-0.12596731260379873,-3.2127284533028373,0.6128943355982936,-0.5286847489940235,-0.2538314478585916,0.4093831167583091,1.1981842064887296,3,left
6.502999999999999,0.2808488424592688,1.0120184223010324,-0.14022086840002884,-3.229525935938516,0.61309988019437,-0.5306017615260659,-0.25391925422194217,0.40980099654834523,1.1980059524951479,3,left
6.507999999999999,0.2758364938190125,1.0126876346232687,-0.13920562859928956,-3.2193192939157393,0.6129357149557928,-0.5294766994643902,-0.2534845505579,0.40800278987484984,1.198692877364424,3,left
6.5089999999999995,0.26529458889311874,1.0151513824719802,-0.13082823243533076,-3.2130022595155645,0.613018060944224,-0.528592068303162,-0.2542934043449441,0.4113362558510841,1.1974240533144,3,left
6.513,0.24719388516473073,1.0206297734447805,-0.12628802868403274,-3.244710928357466,0.6130249140457563,-0.5326039115206429,-0.25325778233431334,0.40705369834446864,1.1990586643645131,3,left
6.513999999999999,0.22635082763413317,1.0279147921641039,-0.1261737215729168,-3.185172791628901,0.6129450730436437,-0.5251377337922767,-0.2541212391419859,0.4106302453870815,1.1976921010720807,3,left
6.518,0.205920518907235,1.035772843501449,-0.13162513307785917,-3.2617887178274754,0.6130638044990366,-0.5347317042222453,-0.25409303413766116,0.41053515025975534,1.1977197675916376,3,left
6.519,0.18806092153222273,1.0446297762270205,-0.13798407311774974,-3.197756721384776,0.6129565451268263,-0.5267177401044434,-0.25246580609973124,0.4037066056658994,1.2003619335835722,3,left
6.522,0.1731961814887904,1.0538851727774157,-0.14326611957773333,-3.1997514431440526,0.612987356850994,-0.5269483450186963,-0.2564699053008064,0.42049000612962595,1.193877040573056,3,left
6.523,0.158277215652105,1.0636387358995665,-0.15617675993894897,-3.320994824452569,0.6131047710450713,-0.5421889410980489,-0.24983022145450234,0.39266110836232826,1.2046274488894935,3,left
6.529,0.15028685641010225,1.0685740612482117,-0.16631433624294295,-3.0226799299178513,0.6127790417014045,-0.5047089725041685,-0.2585876893519602,0.42936870837152435,1.1904476831427626,3,left
6.53,0.14506842990010332,1.0704945894291504,-0.1688186398886014,-3.5173867696692103,0.6133337875710908,-0.5668629115267159,-0.2953128076099314,0.5834310822317194,1.1308532632029493,3,left
6.531000000000001,0.13554807783304856,1.0749990715605389,-0.17389876060340814,-2.8648551363547656,0.6125937587078832,-0.4848740896492592,-0.3040678156496446,0.620138786759751,1.1166685345135914,3,left
6.532,0.13066430997364226,1.0765700187073324,-0.1759613864162761,-0.1263402921696788,0.6096094053627339,-0.14082971617189188,-0.2974346440321282,0.5923123099372198,1.1274328885415419,3,left
6.532,0.12280145897788337,1.078114057536132,-0.17439653579130082,0.5261766516696756,0.608859212641488,-0.058828668242896814,-0.30142611573464495,0.6090866917973019,1.1209196608718133,3,left
6.5329999999999995,0.10610010286803553,1.080847103648419,-0.1718559173698539,0.03148572225112556,0.6094249527523615,-0.12099583537278373,-0.299818179145041,0.602277026380776,1.1236066403199885,3,left
6.537000000000001,0.08866551531098579,1.079985301185056,-0.16687448974959734,0.32980660019722413,0.6091034142297389,-0.08352089658848821,-0.29976725177196034,0.6021536721146119,1.1235797222856927,3,left
6.537999999999999,0.07251668020716388,1.0811856036058112,-0.16357168257221225,0.20851062636900725,0.6091843341508594,-0.09871761720884045,-0.3006482477855401,0.6057608401111834,1.1222579266442376,3,left
6.542000000000001,0.057587611114924706,1.0838958039773638,-0.16209643670384116,0.20662914830496237,0.6092936562201824,-0.09904262722298107,-0.29961394699951993,0.6014601525473453,1.1238897978002447,3,left
6.542999999999999,0.04043298582606765,1.087801357096187,-0.16159171582894657,0.2704987088158949,0.6090738383038456,-0.09089330413893423,-0.30038734432967307,0.6047784857834773,1.122544461275851,3,left
6.546,0.022080270764160602,1.095662280742968,-0.1619186572695509,0.19404461915961557,0.6093046428859503,-0.1006220653597441,-0.30003189329013924,0.6030487420563215,1.123412767173376,3,left
6.547000000000001,0.006817301869629385,1.100828886680436,-0.16069998271494948,0.25351276995970856,0.6091764661207075,-0.09309772510070363,-0.30000269953123637,0.6033370837425602,1.1229582277337509,3,left
6.553,-0.00815810489336539,1.1049648886098766,-0.15303793939859595,0.22166549069918196,0.6090870306716225,-0.09699382833506491,-0.30027265811198434,0.6039657469277615,1.1231357380064921,3,left
6.553,-0.023730670345826772,1.1115224372803176,-0.1405844417567302,0.22842964749066658,0.6094794624095242,-0.09648203850687659,-0.2999512375589729,0.6030188960114248,1.1231667711865678,3,left
6.556,-0.036888299270566055,1.116873398023149,-0.12848374338018692,0.2378655271472566,0.6087810555251129,-0.09471454917830827,-0.3001349259511534,0.6037929517114784,1.122864265276007,3,left
6.557,-0.04953488863483482,1.120339176131946,-0.11606136660822437,0.22201433669114667,0.6096421964265477,-0.0974199874245363,-0.3002418546296631,0.6034970075559882,1.123600827045498,3,left
6.562,-0.06094603381751084,1.120289905460108,-0.1062211833739729,0.23671917814276006,0.6089537532279732,-0.09500346652175312,-0.29976864981362494,0.6032133265231059,1.1222892089041019,3,left
6.562,-0.0677519565707421,1.1198615043490752,-0.099164840078278,0.22749126251402835,0.6089576572532271,-0.09615774501093224,-0.3005551486534813,0.6039745517070567,1.1241148769033993,3,left
6.566,-0.07414539603960124,1.1203839268064941,-0.0939743885462003,0.22981586316435515,0.6102028294103159,-0.09692152888519243,-0.2996872797179756,0.6030394757618169,1.1222168287005607,3,left
6.567,-0.08242065954243916,1.1191303816959284,-0.08934900354343323,0.23371940444668798,0.6073477077439791,-0.09401827987413078,-0.3002084377022849,0.6036624974144574,1.1232809517400701,3,left
6.571000000000001,-0.09197779308225715,1.1194862980238758,-0.08172057112664513,0.22568984318245405,0.6116089887250864,-0.09862652344144193,-0.300596417995652,0.6039423331501832,1.1242994983022707,3,left
6.572,-0.10092804835528965,1.1197215992249419,-0.07230319344739272,0.2346590473069935,0.6070664588586532,-0.09366265442984133,-0.2987854636772041,0.6022432828418908,1.1200290481713773,3,left
6.5760000000000005,-0.10711221808694894,1.119871774876411,-0.06085050893995366,0.22882977148062283,0.6096909948923969,-0.09661195030424626,-0.302170495532572,0.6055059842010124,1.1279038400854642,3,left
6.577000000000001,-0.1100169351697208,1.1220909299072663,-0.05150562667661187,0.22701369929955234,0.6119524882381087,-0.09875144996127858,-0.2978144913103143,0.6012766301184214,1.1178091969902844,3,left
6.58,-0.10971439858664808,1.1214739107799672,-0.04435093359604146,0.24021059736823336,0.6020548750517192,-0.08872915723110206,-0.30145489051935104,0.6048236954703214,1.1262281869033188,3,left
6.581,-0.11161391444288862,1.1198119162092484,-0.03879341400324281,0.2147932129756161,0.6204088218844133,-0.1074338830260893,-0.3013507375533442,0.6047034597556349,1.1260149100480743,3,left
