time,gFx,gFy,gFz,ax,ay,az,wx,wy,wz,subject_number,foot
17.129,-0.917230129312987,1.317783875260087,0.020268359040671084,5.097635511949937,-2.820335220561125,1.1549193677976723,0.8649253655960101,1.0048345108995043,-3.612334967857199,1,left
17.129,-1.0431543828664123,1.32157081587733,0.05232802487766386,5.064258673216543,-2.9841382631541613,1.1225210806223822,0.905183577152959,0.7679313052782814,-3.850749600928264,1,left
17.131,-1.1264310843693996,1.3204210659244673,0.07292104589873154,5.146726159154888,-2.580838820263354,1.2018845825544542,0.8809174838432352,0.9108337781145001,-3.707017204598585,1,left
17.132,-1.1587257231956278,1.2986391004962052,0.09998925498089067,5.009846575640976,-3.2497951612025773,1.0704028673391313,0.8907811155406278,0.8526790560595235,-3.765459581962233,1,left
17.137,-1.1426981653508332,1.2763900783617514,0.12117474482550727,5.190416735352722,-2.367338677687563,1.2437798168462182,0.8909157743878144,0.8518479236309866,-3.7662563825621067,1,left
17.137999999999998,-1.1268420185205912,1.269539601006886,0.1291499538997941,5.9483096056297295,1.3363270612221996,1.971729124646384,0.8857831415285706,0.8824003213414947,-3.735802072144991,1,left
17.139,-1.038500772467477,1.2389920925153088,0.17406194564286018,6.128793099582323,2.218837090150062,2.1450694724737787,0.891885900636958,0.8457402119580637,-3.7720769367626756,1,left
17.142,-0.864283819828845,1.193348550651117,0.23898273193103722,5.992016411943476,1.5497504374341928,2.013662492889128,0.8871999593775384,0.8743839965220993,-3.744132028144226,1,left
17.143,-0.6774070999505142,1.157470659373046,0.28800073998771314,6.074487224748093,1.953284215450494,2.092916607147493,0.8896599643857208,0.858845306813632,-3.7588947884379103,1,left
17.148,-0.47791948788903804,1.1233114814611262,0.3192344275850192,6.040866014893261,1.7891448122340463,2.0606435244158607,0.889127522367759,0.8624373438259855,-3.7556567184119807,1,left
17.149,-0.2862363733798137,1.0963035754383332,0.3290195234827783,6.040643869482061,1.7866972911951544,2.0602747384043285,0.8885615746999049,0.8666757082159128,-3.7521411306782646,1,left
17.151,-0.1130980839194031,1.0785984166855584,0.32965205656610674,6.057725986373297,1.8730149884963816,2.077015683021263,0.8893547941551166,0.859080808870507,-3.7573704877760523,1,left
17.151,0.04149996240571371,1.0688023631298227,0.3257881721245931,6.037380504927844,1.7695859912223226,2.0569950637235532,0.8889264664169858,0.8666449187156646,-3.7539164535821596,1,left
17.155,0.1626862834204707,1.0652975516602354,0.32163229132177473,6.053066726410311,1.8501928034213835,2.0725388759704897,0.888827583413428,0.8610372730001814,-3.7544572488372356,1,left
17.156,0.2554852324971802,1.064311550662083,0.31903168094641043,6.0445265002445705,1.806761779005482,2.0641301952597155,0.8891768169709973,0.8639168724191402,-3.7556270348187493,1,left
17.160999999999998,0.3223367253999142,1.0660204268643816,0.3176321102577748,6.0471890923346585,1.8164071545048346,2.066276615898124,0.8891842991039473,0.8639159677398421,-3.755664238331698,1,left
17.162,0.3665314265964693,1.0644045053920068,0.3261449275943503,6.047485870210723,1.8286853288484595,2.0678849980998253,0.8881034503304783,0.8611213284493511,-3.7509283449887283,1,left
17.165,0.3959603376056924,1.0559818940506849,0.3379076876410564,6.046954153553637,1.8074453908524173,2.0650941230699282,0.8907565099366097,0.8664325536359999,-3.7628335075712105,1,left
17.166,0.41832586998354904,1.0405621948658954,0.3543369743425264,6.046432785755732,1.8277646174529005,2.0673917546448037,0.8866479033710909,0.8593948916688876,-3.7441816367033605,1,left
17.171,0.44076781958209565,1.0165286153148467,0.3769232407780948,6.047331555407783,1.813931690611775,2.0660240084161874,0.8911159512321087,0.8663793624129766,-3.7645860323508984,1,left
17.172,0.4688205098004479,0.9839650423456334,0.4003552601483451,6.048481502872802,1.8193858442867392,2.0671084414851633,0.8885058877596533,0.8625093792239484,-3.752629885638188,1,left
17.176,0.5045108879124326,0.9459586020499376,0.42648787592062765,6.042064235922062,1.8218467731403498,2.0650854790643702,0.8862451832824932,0.8592416667279927,-3.74225385835478,1,left
17.177,0.5513972988089639,0.9026631354911985,0.454104876858507,6.056113155316379,1.8132178009544884,2.069116579882677,0.8961749028060702,0.8733424786241228,-3.7878641692814545,1,left
17.18,0.6152046596108658,0.8539671410761083,0.4781804284112147,6.035012648999314,1.8253908339706315,2.0629664602614874,0.8777269851674268,0.8473831570724623,-3.7030880736082956,1,left
17.180999999999997,0.6847311534744767,0.811679757870361,0.48077158952040977,6.057694756423409,1.8133421714608065,2.069703868768321,0.9014382186020338,0.8805839679468838,-3.8120771755632115,1,left
17.185,0.7659055527138525,0.7725075902691347,0.46334231041636437,6.044592942347405,1.8203120097528842,2.0658142493758396,0.8816318784309227,0.8529246977246958,-3.7210296780664454,1,left
17.186,0.8468797208472302,0.7411105084331384,0.41713516028374603,6.03287244781437,1.824270170434511,2.0620534527683585,0.8821695343733331,0.8536791388813054,-3.7234863445752153,1,left
17.191,0.9130094420979096,0.7220467997201412,0.3391526960920195,6.083610071014279,1.8042980832399125,2.0779812008116783,0.91994987950351,0.9063034851439704,-3.8972170262943804,1,left
17.192,0.9770618385686062,0.7045389720424678,0.24524551624313684,5.989548955844011,1.841463959542284,2.0484726034405805,0.827079083187916,0.7769955644766071,-3.470175473605371,1,left
17.195,0.988575851537968,0.7191791103611698,0.10719920516260611,6.110357625839867,1.7939165704457185,2.0863929864842534,0.9810735389338563,0.9913556697118105,-4.178265636054672,1,left
17.195999999999998,0.9850527429645046,0.7371365133073094,0.005268758754391489,6.009492562900823,1.833526493576176,2.0547253073795453,0.7779465334633351,0.7086459915343264,-3.244270630996602,1,left
17.195999999999998,0.9771705213193056,0.7459499698092243,-0.019107459338138646,6.012159605286321,1.832255514849464,2.055527121164064,-0.0746429313912221,-0.4779544750030589,0.676263057163977,1,left
17.2,0.8984806194958546,0.7918550094876335,-0.09188279230740037,6.204723614600189,1.7576073953463194,2.116123631802903,-0.2777821846828513,-0.7606329238697316,1.6102863972475892,1,left
17.2,0.7768462751064663,0.853023881767428,-0.17103449255313585,5.731494696730149,1.9412133573743753,1.9672418100927451,-0.12377146091778785,-0.5463243429205846,0.9021477176459709,1,left
17.205,0.5302525460676288,0.9643668427779871,-0.17451928248432252,6.516108646364145,1.6368250326038138,2.214081138671216,-0.21664790245916746,-0.6755822922713685,1.3292408728811558,1,left
17.206,0.3207848604793,1.0608615890568234,-0.1668799514269022,5.481214551094255,2.038241171182052,1.8885034885490155,-0.17888948493864285,-0.622975380805893,1.1554814615183981,1,left
17.207,0.2620311708990464,1.088603734608136,-0.1599692630204876,1.1365916097032334,3.7230808608949886,0.5214020534534478,-0.1782899324422646,-0.6222699508253111,1.1529994797557903,1,left
17.209,0.013507844917480069,1.2128928269078423,-0.11631634348664205,0.10166020765927727,4.124429164034838,0.19579383214333326,-0.1981968024906794,-0.6497896733309227,1.2441530353111523,1,left
17.21,-0.3486565640049996,1.4062246482566245,-0.0499997138960894,0.886392641760668,3.820101114107629,0.4427231823715614,-0.1743707433469367,-0.6168143613081646,1.1349711767500699,1,left
17.215,-0.6418255692181873,1.5813776385816594,-0.004577181028876918,0.41290236887039705,4.003781456897031,0.2936522376527996,-0.19289554084940552,-0.6425156727240555,1.2199922811592099,1,left
17.215999999999998,-0.9554649045208353,1.7814825609744513,-0.0022425426343502955,0.6059029458927541,3.928794087254791,0.3545548618691249,-0.18300143363492666,-0.6285915648649971,1.1741745546702518,1,left
17.22,-1.2154271182613963,1.9774086293847783,-0.04351152543402887,0.6080117579079807,3.928189052802448,0.3549758334724471,-0.1850390664753683,-0.6319271251126158,1.1845771999070611,1,left
17.22,-1.4021515639605564,2.1537662252307914,-0.11829945928338853,0.5076419702259337,3.9668953768251085,0.32363179431640704,-0.188094990356552,-0.6353186279630126,1.1968515926009755,1,left
17.225,-1.5290885364518534,2.305711736340711,-0.21150069815323386,0.6283385666599406,3.9201838041288553,0.36150771262331083,-0.18301447694765244,-0.629305198486017,1.1756701134631635,1,left
17.227,-1.5683072621297238,2.4073012436982033,-0.30707071169569444,0.5336180856585542,3.9571078277242555,0.33150240917556184,-0.1877088483954037,-0.6349955872288764,1.195518641603178,1,left
17.229,-1.5343615486734956,2.4524750056698017,-0.38756540815547025,0.5860827175254866,3.9361443435442243,0.3486570836760861,-0.1848367011140521,-0.6309911539561794,1.1822961022972645,1,left
17.23,-1.4074608883516433,2.4317932681917807,-0.449948470228861,0.5716045738321807,3.9428251349940804,0.34298908891550994,-0.18534493658393159,-0.6332615386044684,1.187856949980353,1,left
17.235,-1.1927618175843864,2.3487549821436886,-0.4899580735847619,0.5616615770587668,3.9453712834993824,0.3412246489739441,-0.18705323337322197,-0.6320666343438706,1.188345133858625,1,left
17.235,-0.9123138374910029,2.213989635982614,-0.4935603571088202,0.5821585465138275,3.9384671670052462,0.34658693331959406,-0.18381746568859142,-0.6328927993050021,1.184456274906733,1,left
17.239,-0.594213319630912,2.045835319049302,-0.45602375909933646,0.560272889278139,3.9469643050226386,0.33969096763536477,-0.18739483533910906,-0.6321901678565426,1.1891904586422677,1,left
17.241,-0.2830112976155784,1.8693918080966745,-0.3868838006682618,0.5801333230150357,3.937321516596827,0.3479565933704836,-0.18512570850579974,-0.6323148577648298,1.1855255485335163,1,left
17.244,-0.0008435436576841107,1.6953434947461021,-0.29688512712837023,0.5618234172530082,3.9488572262585535,0.33758712471033964,-0.18417093148977765,-0.6338157907128307,1.1869705773048675,1,left
17.245,0.24107721519057324,1.5363320120563035,-0.18805846562445488,0.5796017815382272,3.935346622235106,0.35005572184187245,-0.18998837553748504,-0.6295278233159498,1.1881828994537487,1,left
17.249000000000002,0.4353656263291662,1.4041742219886215,-0.06144044313337006,0.5641405866255991,3.9483948389341403,0.3378623068682795,-0.17890409800843232,-0.6370682843905626,1.1845744878470825,1,left
17.25,0.5776895451812296,1.2945111308703985,0.08078867575298837,0.5707316441288937,3.9417653493788145,0.3441708324054056,-0.19320320955843606,-0.6274782529398937,1.1895129500195794,1,left
17.255,0.6671696715367488,1.2090853315178651,0.2257386339440928,0.5836958814156212,3.9332217533199754,0.35189962114918205,-0.18123867223038156,-0.6354472395512227,1.185266622050415,1,left
17.255,0.709243497873151,1.1413605162071052,0.38366956964103405,0.5403961690536438,3.9653917676510377,0.32230144808902417,-0.1816658564679728,-0.6353745951203285,1.18585543292623,1,left
17.26,0.7161961483524769,1.0800064374797267,0.5494869752751624,0.6175175793192995,3.906968692263189,0.37619213816208136,-0.20414076835844502,-0.619709797081273,1.192397281804833,1,left
17.261,0.7029574901136235,1.0303238040725646,0.691264716202107,0.5196404203915697,3.9815365447323097,0.30735516630754744,-0.14877859952915035,-0.6580435258767461,1.1757604277196805,1,left
17.262999999999998,0.682794783183299,0.9854702414554597,0.8372604537644365,0.6008586313389922,3.9194815809051224,0.3646692229853848,-0.2406022847296611,-0.5945280222112781,1.2034877903996921,1,left
17.264,0.6684923961360303,0.9574321789905031,0.9276861982760938,0.5994321699615834,3.9208470043852324,0.36335804487454254,-0.11948679807902834,-0.6783002602458656,1.166906577883605,1,left
17.265,0.6636896083734957,0.9535681871469165,0.944848549346261,0.4425183252504675,4.040003613822205,0.253434320379165,0.38869415893709863,-1.03009639762977,1.0140718774033257,1,left
17.271,0.6537975090941588,0.9465393797078119,1.0010948414660046,0.8270635352923557,3.7475981390537987,0.5232631626734401,0.5097825983737203,-1.1138768964759003,0.9775626627529911,1,left
17.272000000000002,0.6204877967754878,0.9459140884856061,1.0193172399859383,0.1899122233258861,4.23222896293626,0.07601024857794941,0.4180033447525901,-1.050363496425434,1.00519969940322,1,left
17.273,0.5939507261923807,0.9544974516478929,0.9852553588072398,1.030136885263,3.593085744823759,0.665882221826373,0.4733229168594284,-1.0886547174079775,0.988577242754445,1,left
17.273,0.583492068383662,0.9564676721582128,0.9750420688937833,4.558362778528268,0.9093155063995212,3.1422178983772016,0.45086169853770813,-1.0731001927075483,0.9952867228792508,1,left
17.274,0.5334678928749239,0.9613841681447866,0.9021421052117038,5.398592207438728,0.270154591612131,3.732088215776691,0.4504790458274307,-1.0728441437459568,0.9954542218312484,1,left
17.278,0.4547119762228931,0.9622139105416228,0.7796393587487784,4.761419293918851,0.7548655636302517,3.2848427561844833,0.46232049459235114,-1.0810329736557647,0.9918605109513233,1,left
17.279,0.37987600195738286,0.9533855191890522,0.6503713923635956,5.146020787465009,0.4622513020352811,3.5546522214142744,0.44821794538906534,-1.0712778843460173,0.9960884731456751,1,left
17.283,0.295205580366287,0.9418727810002443,0.47821301922083653,4.989003972942816,0.5817898472797938,3.444763906692464,0.45908001695983264,-1.078789553658352,0.9928992101097552,1,left
17.285,0.2042206428399168,0.9283010352424663,0.2772043393375312,4.987718844882375,0.5826310729532409,3.4434041658744783,0.45341035503668514,-1.0748737630634442,0.9944622446266718,1,left
17.288,0.10979731446660906,0.9170444634587598,0.06626051352500162,5.068798636875503,0.5210894525514199,3.500765734045708,0.4544337462818661,-1.0755722824871472,0.9943312326714764,1,left
17.288,0.011733302756785836,0.9074894900235497,-0.13368777168863444,4.970979092275736,0.5954437179121563,3.431909077529888,0.4562753806584624,-1.0768544417554993,0.9936353219396584,1,left
17.293,-0.08120704594828887,0.8978714570959785,-0.3062351924902529,5.04822461213301,0.5365601780890316,3.4857569591896933,0.45355121442143037,-1.0749704739436283,0.9944565729712148,1,left
17.294,-0.16535339966305423,0.8921054271808875,-0.4462974377519095,5.00453216578369,0.570186976386736,3.456293901426911,0.45561565192170306,-1.0763809624852465,0.9940897146641362,1,left
17.299,-0.23450360440524615,0.8915420974354877,-0.547355805262586,5.018170969840371,0.5591413659035016,3.463790815897995,0.45502804803851465,-1.0760146442715122,0.9936824319129982,1,left
17.299,-0.28155141908683406,0.8903309439403594,-0.61418057772161,5.023934982473218,0.5555792474717054,3.470383413063464,0.45409744106531613,-1.075310947571892,0.9948345909779495,1,left
17.304000000000002,-0.3043658706941139,0.8842369015963223,-0.6461020399019892,5.009132707895077,0.5661839298779789,3.4579639946108003,0.45588552697181983,-1.0766115290939529,0.993366592262217,1,left
17.305,-0.30264080841518926,0.874567088409586,-0.652139983664116,5.02691776906919,0.5526478214609942,3.4704295559212306,0.45444591676047613,-1.0755796831797262,0.9943374677948614,1,left
17.308,-0.27105285353971553,0.8616773238894204,-0.6471386967555883,5.007382996800994,0.5687273508634678,3.4604818992137174,0.4540610478154774,-1.0752795867165992,0.9949153227702332,1,left
17.309,-0.2108286880484297,0.8484812975543623,-0.6304658146608648,5.030041505494033,0.5487059122773541,3.467785280777846,0.45755247557558865,-1.0778372293802838,0.9918399673958379,1,left
17.312,-0.12960494517873833,0.8351189003333988,-0.6107092420383265,5.003982176288238,0.5726831044584656,3.4623235441346223,0.4505507408339584,-1.0727319285585668,0.9977025111524941,1,left
17.313,-0.033014432516400266,0.8184676760080899,-0.6039597395840028,5.02892785862036,0.5492800116520401,3.4661584071587273,0.45977519635919556,-1.0794468466164788,0.9901038255649148,1,left
17.317,0.06411498031261739,0.7993943049644221,-0.6126413566352198,5.016415223985254,0.5613541424267532,3.4652739609885725,0.4519739619408762,-1.0737750759038724,0.9964784248185186,1,left
17.317999999999998,0.1597528152199394,0.7828821458036815,-0.6308427244305137,4.999719346883751,0.5762645532842801,3.460372581666456,0.4522723012297321,-1.073980727233056,0.9962780210527118,1,left
17.322,0.24890178655137588,0.7702811469291988,-0.6496563062755802,5.061884347678506,0.5193182655054317,3.474189042186251,0.4669857412536246,-1.0847032845086715,0.9841756644428254,1,left
17.323,0.3210878889847276,0.7617970407046735,-0.670986767928818,4.949176633325687,0.6229590042359099,3.4503675540445204,0.4306654427117841,-1.0582568344966234,1.0139720761657214,1,left
17.327,0.3925972846723025,0.7664268668155402,-0.6992662842744017,5.092967622040801,0.4905931623297792,3.480309922842797,0.4909613536981836,-1.102145750462515,0.9645432516232569,1,left
17.329,0.4365743643879592,0.7732490840440638,-0.7186087704147262,4.973320460182474,0.6007890111361089,3.455579476761831,0.41139399145148936,-1.0442432575516247,1.029753239796114,1,left
17.333,0.44643496249227466,0.7752190774286805,-0.72193661216643,4.975944276767834,0.5982920983109394,3.4558436214406307,0.07741121043801197,-0.8010537688414379,1.3034439462633387,1,left
17.334,0.4799244217760172,0.7870803766163555,-0.7279266715313537,5.205718938026696,0.38688664654417315,3.5040829965556055,-0.0021780375665657603,-0.7431572468543421,1.3686645314399493,1,left
17.334,0.5162333835046127,0.8055155395043867,-0.7284624304221969,4.641856533556166,0.9057763028660383,3.3860906030748117,0.05816463331829447,-0.7870556770173017,1.319217295558584,1,left
17.337,0.5243956698357306,0.8320989603000606,-0.6972490401850635,5.576418713118847,0.045728458351998125,3.5815277020509444,0.021771587192403873,-0.7605501883621395,1.3490339499005333,1,left
17.338,0.5282648587476537,0.8530071984870915,-0.6693512357754379,4.343875444884692,1.1799865442242932,3.323795256762322,0.036575025081933325,-0.7714108234623653,1.336918902554563,1,left
17.342,0.5261866882351023,0.8592400846132516,-0.6596903650894814,-0.8302906891864783,5.941649727514331,2.2418294710975437,0.03679231786444666,-0.7713973103159686,1.3367119196371386,1,left
17.343,0.512631320479102,0.8830569592491494,-0.6184187640641141,-2.0627639416201418,7.075765696908753,1.984018596622723,0.029017145418005232,-0.7659773893532238,1.3431230798412512,1,left
17.344,0.4906440045525693,0.9155150834136025,-0.555869902358096,-1.12837137426754,6.2159857717662135,2.179536056658514,0.038328239142668724,-0.77251944170315,1.3354541037324867,1,left
17.349,0.45962308538710156,0.940072710197384,-0.49946888702456077,-1.6919301364271317,6.734529555583981,2.0615918551118932,0.031080056113808503,-0.7673440346130036,1.3414098935957421,1,left
17.351,0.42581659632980406,0.9694587258953451,-0.4321291452836028,-1.4625895813270064,6.523447675645633,2.1095169381581913,0.03497880274718157,-0.7703835156751806,1.3382499278316575,1,left
17.351,0.3933964009217328,0.9938488652252662,-0.3558662282496824,-1.459489610082266,6.520811463417741,2.110435399903266,0.03411063745289511,-0.769104892289019,1.3388509167386458,1,left
17.352,0.36238432494242695,1.0087574241277362,-0.29326309735414324,-1.5794528948070017,6.630761166237569,2.084784340904873,0.03303316670180651,-0.7694333853122837,1.339923555789375,1,left
17.355999999999998,0.33688661085934896,1.0209840242016053,-0.2438205173456078,-1.4358050199795187,6.499197387242692,2.115621545013515,0.03487677866534927,-0.7694105152380688,1.3381802074831506,1,left
17.357,0.31813810645672114,1.0295955799081071,-0.18914293031163237,-1.5476006573764631,6.601457779670607,2.0914546014935613,0.03315459196338104,-0.7692447207520077,1.3397767866344585,1,left
17.362000000000002,0.30132146428682344,1.0382965648257951,-0.13848301741840738,-1.487272138391987,6.546206016666134,2.1044090356321865,0.034281133982830544,-0.7700744459249362,1.3388554822447112,1,left
17.363,0.2823192119975534,1.0478696986067502,-0.10299072719425274,-1.5014230055761546,6.559757848641302,2.1021232920234456,0.03386422147342194,-0.7677527012120169,1.3388527129947576,1,left
17.367,0.2572906783041292,1.0579789812271863,-0.07470477711304471,-1.5164072092572267,6.57184546960479,2.096823682259143,0.033692389907715004,-0.7722398886637638,1.339780353575134,1,left
17.367,0.22696843085400045,1.0715571100373222,-0.05347632548568457,-1.4904604708374474,6.550897207120425,2.1059793371768776,0.034218107172776194,-0.7657418664210462,1.3381758456781785,1,left
17.371,0.18699135613791096,1.084755685301797,-0.03648847349199652,-1.514281892370441,6.5692256153073325,2.096422291456855,0.03360746529637543,-0.7726324525184969,1.339927351178166,1,left
17.372,0.13177268836423012,1.0961318000786993,-0.023144876200018035,-1.4985928335067853,6.557651767555545,2.103350132586082,0.034039615099571395,-0.7687085476540683,1.3388504619718784,1,left
17.375999999999998,0.06733855520763515,1.1068216390262635,-0.01857646739683272,-1.5062453107401395,6.564719608166548,2.1017827866025023,0.034019417174833935,-0.7650410570960419,1.338243554955302,1,left
17.377,-0.000467510331943935,1.1149724660906282,-0.01791167551728419,-1.502940355205252,6.556364022190836,2.095706165739363,0.03346482771948239,-0.7806255162126773,1.3414257000789016,1,left
17.382,-0.06588464187492234,1.1210605046590398,-0.015725206506455685,-1.5062918405296015,6.571592363159398,2.1104706400788515,0.0346095375956021,-0.751807823134192,1.3354294860109457,1,left
17.383,-0.12836364381855556,1.1217354767481786,-0.015163590483719316,-1.5003170699985624,6.547977388154269,2.0886492702687365,0.033113367412021324,-0.788792783130718,1.3431501520888676,1,left
17.385,-0.1850892827701598,1.1155731885357376,-0.01567693398462614,-1.5079802902472619,6.574342102426391,2.111639870767979,0.03437341676512738,-0.7579226860585586,1.3366960275448418,1,left
17.386,-0.23001583721606966,1.1040643934370915,-0.015919444069568765,-1.503566904836443,6.559121993181426,2.0983542835040017,0.0342978865202816,-0.7587308992593329,1.3369035954026678,1,left
17.392,-0.2667730448112395,1.0893384288145649,-0.019436176519435328,-1.4968899579845778,6.543358073170289,2.0874981457382367,0.032030228861590244,-0.8176854488848064,1.3491022462759243,1,left
17.394000000000002,-0.2922740243980555,1.073674212714377,-0.027120261497677867,-1.5223915185221355,6.60892431401704,2.1357784695723803,0.03765352261085492,-0.6728128310731813,1.3190809139631154,1,left
17.395,-0.30586774839641107,1.0519108747519594,-0.04300182972089865,-1.4752848249496557,6.487502803801787,2.0462070813830504,0.02831601597917948,-0.9130125118881578,1.368867350626231,1,left
17.396,-0.311376977252111,1.0361504722258896,-0.05571609567729406,-1.536008980949553,6.6436316064114695,2.1611676858010815,0.04063467673868713,-0.596187810588817,1.3031988543273816,1,left
17.401,-0.3126538166988978,1.0323572075551382,-0.057578755532565876,-1.4852067877798787,6.513189741342755,2.0652209578003964,0.09226606444770499,0.7336848609330519,1.0275997053753203,1,left
17.401,-0.3077013137371425,1.0189763957893017,-0.07562308660149626,-1.4862754846863404,6.516437659346575,2.067868242573025,0.10458234418873277,1.0505190378031717,0.9619358359849136,1,left
17.403,-0.29152217388416374,1.0013163893562265,-0.10575904869670097,-1.5844439826684371,6.766361230153291,2.2505812122085533,0.09524741366392554,0.8103091051629445,1.0117172664715273,1,left
17.405,-0.2706494890222165,0.9889244202352446,-0.13024966045145495,-1.3433947408657048,6.15229925546871,1.8014721465599401,0.10087168718456868,0.9551778234049646,0.9816940307977126,1,left
17.406,-0.234456463431104,0.9751104285048858,-0.16150580625597533,-1.7430822854583554,7.1704564774396475,2.546094000516958,0.09859548434895153,0.8962572813286159,0.993909285875354,1,left
17.41,-0.2027455789422486,0.9686650994999223,-0.18138139181945712,-1.2158262017748966,5.827448577453057,1.563969942582845,0.09853834012477275,0.8953758972266861,0.9940811269078642,1,left
17.41,-0.19260048558349158,0.9665336722673534,-0.18595246087809875,0.9982933112738546,0.18928171636983304,-2.5586758245782097,0.09977202766054592,0.9263509060155818,0.9876782280088816,1,left
17.410999999999998,-0.1584759512824141,0.9589100164374136,-0.20499617675021914,1.525674231799211,-1.153841425891359,-3.5407879297967915,0.09830210833748751,0.889261476479576,0.9953478832521108,1,left
17.415,-0.10816632192967916,0.9528352628567929,-0.22815428272675764,1.1257660863555605,-0.13547957175377967,-2.7961480421355698,0.0994354914702172,0.9181242450469052,0.9893736808674698,1,left
17.416,-0.06660207701936469,0.9511487113639882,-0.245311453260324,1.367066927431089,-0.7497773010340086,-3.2453717078687525,0.09885836005058277,0.9026294978781966,0.9925996262468205,1,left
17.42,-0.020614067616194807,0.952296893954502,-0.261882910568055,1.2687218553204955,-0.4996835269980754,-3.062389721800833,0.09891077591233051,0.9060080063332094,0.9918516208336294,1,left
17.421,0.023196672851175555,0.9563726597179519,-0.2722570368732759,1.267615806751365,-0.49641180980146765,-3.060170199258483,0.0992178091963091,0.9104298365993312,0.991017853242571,1,left
17.425,0.06211947441350014,0.9630041012700273,-0.27799395594664567,1.3188056353627642,-0.6272000533724796,-3.1556245421107434,0.09876071659705549,0.9029281742449506,0.9924709842076873,1,left
17.426,0.09779214952915632,0.9694956502033043,-0.27869667234794826,1.2572781626721128,-0.4703362805741202,-3.0410031898041,0.09916401702400685,0.9099133713834835,0.9911043598852133,1,left
17.43,0.13060420323284536,0.9726347582125716,-0.2723143269654833,1.3055064347361327,-0.5927992500226074,-3.1307087044553445,0.09899109448122916,0.905430536007435,0.9920341089039876,1,left
17.43,0.15974608289362335,0.9772626605353358,-0.2627289345725495,1.2789089396293734,-0.5261950503340254,-3.0814907174830433,0.09880135518543903,0.9068481887380712,0.9915899169910044,1,left
17.435,0.18225820092773465,0.9814677806858462,-0.25242601872292403,1.286044177995631,-0.5424312028745004,-3.094255337148105,0.09940873134279207,0.9080845949610266,0.9916774309207718,1,left
17.436,0.2045944495827645,0.9796472481633249,-0.23995811163275022,1.2914117422764677,-0.558467547361605,-3.104883878506975,0.09846105460901299,0.9051680732004384,0.9917690006063289,1,left
17.439,0.223467064789788,0.9794635644096744,-0.22480216361467387,1.280725865192803,-0.5293704269708259,-3.084483514228507,0.09947902341837936,0.9084767450056641,0.9916300479866584,1,left
17.44,0.23844560087753852,0.9806652962514242,-0.21027603280298662,1.2918762068929999,-0.5577489085988417,-3.105242007651347,0.09887859547012451,0.9062497766613551,0.9917756455917663,1,left
17.444000000000003,0.2531643125287546,0.979011900751313,-0.19215407356070596,1.2822045899726213,-0.5366125906878559,-3.0881602778019697,0.09842170884581658,0.9058916451314614,0.9915775552183882,1,left
17.445,0.26296081770552,0.9800113428871388,-0.16805952041540542,1.290508708789834,-0.5497781975812153,-3.101505033968997,0.10052060840796631,0.910014931175468,0.9919148597983247,1,left
17.449,0.2673567489404439,0.9822069399287567,-0.14329978977083085,1.2829802440342504,-0.5425121961666218,-3.090645078344319,0.09661024056479199,0.9019070824418904,0.991384869280854,1,left
17.45,0.26556016085345957,0.9838696643005348,-0.11979550538515443,1.2892274025253603,-0.5457296627137682,-3.098911160456681,0.10163538842954278,0.912421251540976,0.9920440242719533,1,left
17.455,0.2593748041445345,0.9865134660639064,-0.1002882270311683,1.2868098734460034,-0.5469066876468132,-3.096355080711586,0.09743846962523173,0.903601905204038,0.9915023119058116,1,left
17.455,0.24725962859194775,0.9886170726815139,-0.08063496324695042,1.2810202036063139,-0.5384824411406748,-3.087249344810602,0.09755843115065499,0.9040006891715726,0.9914838803428847,1,left
17.459,0.23235292817667844,0.9921332766431876,-0.057967332254280184,1.2995219370908009,-0.5579372709057503,-3.1143663977425984,0.10554032913154002,0.9202915644018228,0.9926256072508148,1,left
17.46,0.21997581561829566,0.9955611706393891,-0.032809068269886665,1.2668252514470153,-0.5259721202641543,-3.0670860860058777,0.08591419482871693,0.8800626578289279,0.9898581590747441,1,left
17.465,0.1999009091902184,0.9948747005214595,-0.0019292129979562207,1.3082279427491113,-0.565534704839064,-3.1267121572901213,0.11845732039233664,0.9468115960549617,0.9944369947339157,1,left
17.465999999999998,0.18746457214101017,0.993272533323818,0.015968626045380366,1.2739075046000927,-0.5331312599373428,-3.0773911780661654,0.07553271517805177,0.8587676100074156,0.9883978852803131,1,left
17.47,0.18496231784613598,0.9938857745875694,0.01949220197848091,1.2744607950582585,-0.5330456261359524,-3.0780208449460593,-0.10463276018620375,0.48942529287435027,0.9630037134612797,1,left
17.471,0.16735349918478612,0.9937705619373867,0.029636431125279042,1.3409029816316584,-0.5973938369618673,-3.173942228440816,-0.1475572998765871,0.4014043754238472,0.95695936249694,1,left
17.472,0.1493270701138767,0.9919350486890305,0.03881985946543163,1.178137490243608,-0.4406244207171814,-2.939198755223863,-0.11501389258174224,0.46812715287380285,0.9615443403176838,1,left
17.474,0.13259795219032464,0.9909108173253914,0.04524569154682788,1.44780854098753,-0.7000327045289086,-3.3280299919778096,-0.13464130284769826,0.4278930114545202,0.9587773800255119,1,left
17.475,0.11468548610907987,0.990091920866691,0.050490494234131725,1.0921834534339918,-0.3580612726054288,-2.8153021903112556,-0.12665659478320032,0.4442578993395584,0.9599037365161334,1,left
17.477999999999998,0.11205232878928091,0.98875101801492,0.052100292615868335,-0.4007814764858587,1.0780613519410296,-0.6625967774984658,-0.12654095927281905,0.4444915716995815,0.9599206749713187,1,left
17.477999999999998,0.10386192107868335,0.9891639834949065,0.05714297789627354,-0.7564030739451558,1.4200074731310095,-0.14989060954973782,-0.130733052734344,0.43591365687410666,0.959326408810309,1,left
17.479,0.08417621564060687,0.9906586181428282,0.05513909917375647,-0.4867796906550691,1.1607383252889742,-0.5386167407288236,-0.1257109894524246,0.44618154579835184,0.9600401953276017,1,left
17.484,0.07011842447315816,0.9913985145372513,0.04012127031149299,-0.6493911536949921,1.3171223302824324,-0.3041537464832752,-0.12962322135006643,0.43819085368111627,0.9594823630797871,1,left
17.485,0.05915212282361559,0.9955286670128854,0.018016015702104038,-0.5832569467555624,1.2534993170019912,-0.3995561834909485,-0.1275143106428401,0.4425005261073278,0.9597825927345276,1,left
17.489,0.0499331125496654,1.0023990472320001,-0.006358035650636926,-0.5822551159292695,1.2525697568330338,-0.40090387320216075,-0.127990780815243,0.4414988194153705,0.959720854307583,1,left
17.49,0.041958954778602814,1.0064037205759158,-0.024841542005464144,-0.6170472459160321,1.285992323092695,-0.3508724830166977,-0.12856465438949444,0.44040526343617165,0.959621905915291,1,left
17.493,0.0358122432307145,1.0098405383718099,-0.036414721289511065,-0.5753889722394272,1.245960085674419,-0.41080740524704584,-0.12757164206835842,0.44229693700988226,0.9597932710089428,1,left
17.494,0.034412549988416564,1.0126130567763574,-0.04411883146172403,-0.607798316911762,1.2771155069676945,-0.3641339585174287,-0.12851082080869586,0.44054896946616606,0.959622209662386,1,left
17.498,0.03762629081218857,1.0129959652981877,-0.05358407177629832,-0.5904322651629745,1.2603967258603443,-0.38928036732745214,-0.12787713532802097,0.4417063655288529,0.9597424365767921,1,left
17.498,0.04708603407458524,1.0136450011368505,-0.06605687091288906,-0.5941398213895852,1.2640206273473145,-0.3835886302111221,-0.1281428152377369,0.44116059708141037,0.9597052182341433,1,left
17.503,0.062257645473493675,1.0128826062606553,-0.07699951845027037,-0.5992500567902733,1.2688363986240185,-0.3768157813697951,-0.1281897914743919,0.441327099793031,0.9596412896565382,1,left
17.504,0.08142291973407151,1.0098835927485328,-0.08316602216693161,-0.5906486778171844,1.260684084498741,-0.3884878155822547,-0.12793619891209948,0.44124608150386285,0.959808091819416,1,left
17.509,0.10339607617609603,1.0044946541442452,-0.07847169915794369,-0.5986340023243809,1.2682688410430263,-0.3775557249873802,-0.12828052320871153,0.44143678405861914,0.9595639876579233,1,left
17.509,0.12806464817677868,0.9954603179756242,-0.06593168561212126,-0.5936034604066229,1.263430525583306,-0.38481399190583687,-0.12795855361394892,0.4411410030053705,0.9598178904232217,1,left
17.515,0.15430230387364588,0.9851490074936206,-0.05517891334237034,-0.594925627586271,1.2648754802893851,-0.38182965152756715,-0.12814506609767845,0.44131090526567684,0.9596710814729289,1,left
17.516,0.17571668017391764,0.975202892847431,-0.04936044026973227,-0.5969287582105545,1.2664056175839975,-0.3814049001112503,-0.12820587413081863,0.4416624408931315,0.9595587162063793,1,left
17.518,0.19165404311081038,0.9668426734204989,-0.04686626017829548,-0.5927368048634161,1.2629651567337383,-0.38377415159166894,-0.1278103425861269,0.4403894966794416,0.9600689307057447,1,left
17.518,0.20559552580579016,0.9595622350520903,-0.04284581693774782,-0.5974298531299268,1.2668485985261069,-0.3809249069266767,-0.1285502873706138,0.4427368942504645,0.9591217391040505,1,left
17.522000000000002,0.21455348175118627,0.9540419209629706,-0.03858612789088661,-0.5943640492576749,1.2642643252768242,-0.38308191197380037,-0.12760846296566902,0.4397058409947881,0.9603368941350586,1,left
17.523,0.22086303801636503,0.9508587787922658,-0.03834424315096542,-0.5934749791922532,1.2637223117553873,-0.382412619612052,-0.12839095875575066,0.442243845827361,0.9593228324676081,1,left
17.527,0.22917858897412302,0.9459635413733664,-0.038281532765376505,-0.6002369446811093,1.2688538240635792,-0.3812019975328077,-0.12835927734773112,0.44219724774460845,0.9593520500441166,1,left
17.528,0.2353298563221084,0.9431261579201156,-0.038806887584619656,-0.5871782821656961,1.2588392902125416,-0.38419490448722166,-0.1269120469443037,0.4372644795132583,0.961278634429107,1,left
17.532,0.2403814992821088,0.9431421128743067,-0.040798770483374464,-0.6040630555806455,1.2718102025070976,-0.38018328974573506,-0.13047708920562823,0.4493712728683398,0.9565416470955351,1,left
17.533,0.2473089383818962,0.9400969890251394,-0.03684130962729093,-0.5899188738759598,1.2609362485530111,-0.38360168081545154,-0.12456689383919649,0.4292967419123815,0.9643960505903371,1,left
17.539,0.24990707021680608,0.9382397497633058,-0.03139229844410288,-0.5904842317861121,1.2614039280522258,-0.3832456004857443,-0.13235979684133653,0.4557797404482097,0.9540362179115849,1,left
17.54,0.24974410060307228,0.938296053597149,-0.029177013886157725,-0.6168573207935342,1.2815694869599912,-0.37758911678730744,-0.16504133723937178,0.5670178922066859,0.9105636003059074,1,left
17.54,0.25274639169278856,0.9371512011576932,-0.02202099511698604,-0.5518187461982924,1.2318009312187188,-0.39180537541031424,-0.1728300554265797,0.5935100647353511,0.9002046724530062,1,left
17.542,0.2532510623464469,0.9377353280068681,-0.011796190898667031,-0.6597135440525387,1.3143718214286475,-0.3681501203156133,-0.16692680354404857,0.5734186100951721,0.9080566659214546,1,left
17.542,0.2504126258034355,0.9386548170748621,-0.006204583781126902,-0.5173934535503475,1.205457447372706,-0.39936254892871553,-0.17048501105790648,0.5855464155715064,0.9033243751225146,1,left
17.548,0.24889912125089503,0.93855820042518,-0.003946932651873608,0.07969878388687818,0.7485356795831588,-0.5299448919915904,-0.16904040243367596,0.5805954706389462,0.905243756866827,1,left
17.549,0.24440922852956537,0.9398371100463785,0.00022007694101334096,0.22200175221668925,0.639643381893284,-0.5611334190484635,-0.16901486503640606,0.5805538431732624,0.9052814906210962,1,left
17.55,0.23494721661242512,0.9419626154274963,0.004714330245160232,0.11412547396980971,0.7221903998088945,-0.5375040150915913,-0.16977911602765203,0.5831120536024337,0.9042608077506179,1,left
17.552,0.22514551385697906,0.9457310598395842,0.0044349777750684405,0.1791711135781236,0.672412714131033,-0.5517301401574348,-0.16886724601307493,0.580026737963609,0.905475574537566,1,left
17.552,0.21520235811134802,0.9524890639044296,0.003912907134294255,0.15273653531300035,0.6926575965170652,-0.5459878125897462,-0.16957237817918658,0.5824609508403396,0.904541515111184,1,left
17.557000000000002,0.2018271591417317,0.9607837103852933,0.00546690107801605,0.15230345258703368,0.6929546645029508,-0.5458163932467159,-0.16920156118901308,0.5810885049760579,0.905022189106041,1,left
17.559,0.18743836523389462,0.9706294526164166,0.004725615514797837,0.16625799990754847,0.6823252824301491,-0.5489700523059193,-0.16926952173988105,0.5815092309680145,0.9049535882477011,1,left
17.561,0.17662503671742347,0.9785968505096964,0.003474308604727898,0.1495620360458222,0.6950527151370428,-0.5452220124627324,-0.16939445935692543,0.5817025865235752,0.9047605477077411,1,left
17.562,0.17007246293323344,0.9815281179046063,-0.0009134616841554113,0.1625392803494211,0.6851431212971051,-0.5481012714586797,-0.16920035023870683,0.5812265266575228,0.9050402030874598,1,left
17.566,0.16766611722386657,0.9841729965001788,-0.011244691884217766,0.15561506756072135,0.6904839817947667,-0.5466641308114348,-0.1693646348880155,0.5817872515287774,0.9048218596918687,1,left
17.566,0.1662685586335032,0.9861457945215288,-0.02000726584376356,0.1570265839983935,0.6892680638423254,-0.5467242008187503,-0.16928920526498104,0.5811886253057882,0.9048823165422859,1,left
17.570999999999998,0.1632214664860147,0.985274031126367,-0.028086394067547215,0.15919230294494247,0.687844692484819,-0.5476246639576101,-0.16925793753601515,0.5818634114926048,0.9050150951263864,1,left
17.572,0.16354930317751573,0.984080327982715,-0.038418862101240604,0.1556037654766726,0.6903036967413998,-0.5463173199673836,-0.1693762801143318,0.5811009335655829,0.9047215929546077,1,left
17.576,0.16803693317751517,0.9807128703705951,-0.04556395499870097,0.1589153275768017,0.6879984474063727,-0.5474575798821292,-0.16922390590902098,0.5818243809387802,0.90506939628639,1,left
17.577,0.1711235283437466,0.9767040220341123,-0.050945062520045936,0.1569039410723344,0.6895396659560318,-0.5470212171704466,-0.16932951764959314,0.5814662943072071,0.9048450024408135,1,left
17.582,0.1734365289852628,0.9744058751731558,-0.05508178523043783,0.15721648867952645,0.688875754225563,-0.5463190727977487,-0.16936591447841343,0.5809713562916929,0.904724430568224,1,left
17.582,0.17553021612050201,0.9699468397395297,-0.055552431878585086,0.1585119071297799,0.6888551515767922,-0.5483629570476252,-0.16910584655718436,0.5827937813498683,0.9053865451773055,1,left
17.585,0.1768350497832497,0.9652237372887579,-0.058314205863624013,0.15609818535425807,0.6892540613231513,-0.5452089236520199,-0.1696119190313516,0.5794952943686553,0.9041268600005553,1,left
17.586,0.17788591058978215,0.9631999526623728,-0.06158176227923099,0.15876082902445166,0.6887603252172031,-0.5485905278088505,-0.16895357773178282,0.5837014191560421,0.9057558519018905,1,left
17.592,0.17692180633169408,0.9610798007282522,-0.06111178012879151,0.1570807175597923,0.6891539255026475,-0.5466058519193265,-0.16950671698516978,0.5802023409079757,0.9043909669380845,1,left
17.592,0.17689581288939948,0.9598245195239283,-0.062404654881902825,0.1563340641875841,0.688956485744314,-0.5450480865272023,-0.16948639611314456,0.5802779120451718,0.9044355665837759,1,left
17.596,0.17821945752191937,0.9600978778208933,-0.0645172542062461,0.1607503233681162,0.688942072002861,-0.5521158524082785,-0.16844596853351743,0.5870008213692743,0.9070178143508697,1,left
17.596,0.1786892122305059,0.9587610185146345,-0.06715433911436847,0.15235291690209807,0.6891273479670681,-0.5389637049290564,-0.1710108033668443,0.5705044632502769,0.9006597702438839,1,left
17.601,0.18018696847191912,0.958670520487416,-0.0715332462682108,0.16318232203225813,0.6888538605324439,-0.5558614853779951,-0.16675551801854233,0.5978456438875368,0.911206085357577,1,left
17.601,0.18097996860383714,0.9609368546456598,-0.07270803584323086,0.1541221844847166,0.6890966324824381,-0.5417507566571961,-0.17236894174180634,0.5617866740434847,0.8972937470310312,1,left
17.605,0.18175903569243024,0.9606096415659393,-0.07269225931564942,0.15444054811016414,0.6890346659043183,-0.5421474140080158,-0.1959312416583897,0.4104132192167605,0.8389064485648975,1,left
17.605999999999998,0.18414728608230085,0.9595721066210313,-0.07151174507989735,0.17147728245661265,0.6887533847156972,-0.569004387298404,-0.20154422130380562,0.37435508671915946,0.8249932886672884,1,left
17.605999999999998,0.18596830500301725,0.9614426759183985,-0.06334893109766998,0.12951607937838674,0.6895101181935794,-0.5029768642452941,-0.1972887693282639,0.40169315610628376,0.8355413544921744,1,left
17.61,0.18690183549813372,0.9639295557227131,-0.051632989555095515,0.19911314863485546,0.6882384246101941,-0.6124564939836282,-0.1998560789081175,0.38520426464155066,0.8291805958492562,1,left
17.611,0.18655745327817752,0.965220637622359,-0.04604656529006168,0.10731145209590034,0.6899173623521555,-0.46805505779423073,-0.19880933238396437,0.39191407551716556,0.8317661883448667,1,left
17.615,0.18602226159538504,0.9661981037326787,-0.04669426861182599,-0.2779128835311759,0.6968845645872458,0.13805703065376113,-0.1987994507969203,0.3920070714625047,0.8318077956482244,1,left
17.616,0.18659728607663134,0.967922712701629,-0.043597455663263576,-0.36971054237356626,0.6985574180937637,0.2824516065528156,-0.1993401495379339,0.38849162266709747,0.8304438351195383,1,left
17.617,0.18724713140188814,0.9712103793286737,-0.03999777120592982,-0.3001153408444931,0.6972918347284611,0.1729817300093187,-0.19869103955938655,0.3927032905658767,0.832076110888224,1,left
17.621,0.18667701628368058,0.9761052624838837,-0.039177889427937665,-0.3420870632780563,0.6980527455284595,0.23900382025411926,-0.19919899099959054,0.38942239000089374,0.8308072013618155,1,left
17.621,0.18760731638989542,0.9814336387454409,-0.03239187726948849,-0.32501757684493393,0.6977461782892487,0.21213924624420197,-0.19891748835394885,0.39119402072670517,0.8314844862129981,1,left
17.625999999999998,0.19259797231190834,0.9855631114398333,-0.02669791100504563,-0.3247574836088721,0.6977363126511773,0.21177031335843396,-0.1989996939758581,0.3907835085747939,0.8313459966849764,1,left
17.625999999999998,0.19734617239072744,0.9881225611088074,-0.025775693999141643,-0.3337438409118312,0.6979062280478276,0.22583218712350372,-0.1990395682176706,0.39032491443378814,0.8311349047571178,1,left
17.63,0.2031943387040443,0.991280741578582,-0.02260115337597242,-0.3229757041088934,0.6977029850538966,0.20899442800480006,-0.1989538585608041,0.3911239572295544,0.8314850448505677,1,left
17.63,0.21204225613338373,0.9945607635317425,-0.021190387878142057,-0.3313693332490682,0.6978622332790707,0.222099558838794,-0.1990399886152296,0.3903725598765917,0.831161796741879,1,left
17.635,0.21981573703549315,0.9959266866289537,-0.02148530376342253,-0.3268482484404396,0.6977776338947085,0.21502891641404193,-0.1989602313683715,0.3908831706721979,0.8313585081306877,1,left
17.636,0.22611626532415105,0.9966673397623259,-0.021514866212064665,-0.32784275337053437,0.6977893095466494,0.21667966278880163,-0.19905517669154632,0.3906408966846281,0.8313268682805262,1,left
17.64,0.22901366081333213,0.9976606472492043,-0.024459882933781017,-0.32914678979444345,0.6978322288003505,0.21845661089842,-0.19891749158376212,0.39068507643491557,0.8312026020806589,1,left
17.64,0.22982501852423715,0.9981768113411016,-0.03005477125334652,-0.3268915557039596,0.6977586383555402,0.2153803898428548,-0.19910391662744825,0.3907412078762553,0.8314350796207013,1,left
17.645,0.23032683546174737,0.9985415477903126,-0.036064622478121915,-0.32906130910181497,0.697837862482998,0.21821561442902893,-0.19890869746239698,0.3906586274315857,0.8311784562529528,1,left
17.645,0.22760705784599683,0.9999512671852302,-0.03986795838098861,-0.3275776681323087,0.6977792561478813,0.21634228949471318,-0.19901594785292842,0.39074225306282473,0.831340637567098,1,left
17.649,0.22425455648868128,1.0005881654695257,-0.04025499601587838,-0.32814459052056855,0.697789229015808,0.2172383394505435,-0.19913595085280042,0.39063651171316593,0.8314116697757414,1,left
17.65,0.22143644063632378,1.0006981966162574,-0.039763098104916676,-0.328483697408833,0.6978541888302168,0.21691691273830974,-0.19865579913060966,0.39080816977110444,0.8309881433827069,1,left
17.655,0.21756212183154602,1.0020116054409358,-0.04047175989216546,-0.3273961073060091,0.6977001088114262,0.21715953899931,-0.19953817741218818,0.3905424064760856,0.83179400223393,1,left
17.655,0.2125041692407233,1.0020930366217153,-0.04066218425748201,-0.32894591208265445,0.6979286633278184,0.21668319578475406,-0.19840688863626652,0.3908718163557868,0.8307545322034042,1,left
17.659000000000002,0.20742164003389607,1.0027486739307263,-0.04130278288574679,-0.32739013891983904,0.6976866975134518,0.2173427340990028,-0.1993507557935501,0.3906016643345182,0.8316244094079865,1,left
17.66,0.20258182301642658,1.0050112956051587,-0.04366049290598535,-0.32829024060368495,0.697826687184128,0.21696312903598658,-0.1993277068644204,0.3905904830742112,0.8315932655502509,1,left
17.665,0.1960971256243053,1.0060922726437331,-0.04503942758267889,-0.3288518713389792,0.6979429472198098,0.2163000221302619,-0.19751942437708564,0.3911661045827536,0.8299590245067718,1,left
17.666,0.18799166141446738,1.0067523323503602,-0.04498627783473114,-0.3261161341374074,0.697427997449751,0.21876765576993307,-0.20196133571619695,0.38977325821372527,0.8339852281813536,1,left
17.67,0.17703644003686692,1.006161348667156,-0.04328479082729435,-0.33120377176016347,0.6983836942966933,0.21421265467371942,-0.19459671535022574,0.39207678373864774,0.8273065471464215,1,left
17.671,0.17031755397397352,1.0050567203177314,-0.04082564410369387,-0.32468830389124503,0.6971563860890806,0.22008980032904601,-0.20431121603502062,0.389039247188689,0.8361168906225306,1,left
17.674,0.16931774872101546,1.0058887185062142,-0.04059169797457514,-0.33012029025693235,0.6981815420868736,0.2151699676203076,-0.2450881876868845,0.37626119434791927,0.8730826374348637,1,left
17.675,0.16126810054732177,1.0040294789515172,-0.04277119863935211,-0.3299493376791641,0.6981518183131683,0.21526911000525284,-0.25480479148619517,0.3732223509791611,0.8818947896170417,1,left
17.676,0.15172890510595982,0.9989549472487133,-0.046563374237000445,-0.31969095883057763,0.696202504648854,0.22479792362398576,-0.24743705895115942,0.37552679268719436,0.8752128465811156,1,left
17.679000000000002,0.14531545892213069,0.9928677550587424,-0.048534071664286846,-0.34492485179917304,0.7009972537473519,0.20140126940372458,-0.25188106861038106,0.3741362469619511,0.8792429286725951,1,left
17.680999999999997,0.13671577448819092,0.9843413753873047,-0.04791502900102096,-0.30308504085276594,0.6930447207532032,0.2401987571819084,-0.25007422393000833,0.37470354409017637,0.8776056487671502,1,left
17.684,0.133186852615994,0.9804269857850818,-0.04868366646735488,-0.3582690143021473,0.7035369711439007,0.18901414646412373,-0.2500439994625645,0.3747078457626841,0.8775746766355841,1,left
17.684,0.13392241170026586,0.9781365181078905,-0.04820581848859824,-0.5898309801611206,0.7475609096838874,-0.025909095868903373,-0.25100142302151496,0.3744174383240042,0.8784494050959832,1,left
17.685,0.1329014650878042,0.9689001419287554,-0.04577039933704541,-0.6450149733846477,0.7580607910359372,-0.07711189367531723,-0.24985255246910104,0.3747645900439949,0.8773987366554208,1,left
17.688,0.13487516514716344,0.9616514714584092,-0.044515982498987486,-0.60317513217854,0.7500963301076924,-0.038285976441300815,-0.2507500983089451,0.37449568104277053,0.8782212524238935,1,left
17.689,0.14173104755454177,0.9572806618517521,-0.04253977369940121,-0.6284090484115088,0.7549009444664456,-0.06170614731373547,-0.25026757420816487,0.37464171236137767,0.8777800933063364,1,left
17.692999999999998,0.14919603537298376,0.9512231632246351,-0.04213065457007943,-0.6181506757933033,0.7529522056840119,-0.0521786945606845,-0.2503651665054096,0.37460064564142603,0.8778610505092588,1,left
17.694000000000003,0.15602616516971912,0.9488885489280813,-0.04651055102209097,-0.6179796665614514,0.7529033328843062,-0.052033927501341976,-0.25052808983976105,0.37458298096691467,0.8780327374680924,1,left
17.699,0.16481298341375675,0.9497617170602164,-0.05300925266641972,-0.6234117687841811,0.7539702858009283,-0.057053361249615624,-0.25024643531415475,0.374613936362047,0.8777362000808708,1,left
17.7,0.17778485586633425,0.9498408771913667,-0.05702291632939868,-0.6168961422914463,0.7526834422326951,-0.051034331762796856,-0.2505288180619064,0.37459564006388013,0.8780426860457706,1,left
17.706,0.19247066721023515,0.9505827683396086,-0.05649886762024593,-0.6219839286840998,0.7536980956461905,-0.055729853569548626,-0.25032973908074624,0.37460212895229394,0.8778219863140921,1,left
17.707,0.20465232968371708,0.9506878239751331,-0.05629588303907185,-0.6192481425934733,0.7531576081965199,-0.05320132143564074,-0.2503893894965641,0.37458290143472794,0.8778757035523217,1,left
17.708,0.2178888514045797,0.9488466724519726,-0.05783329991824038,-0.6198096123962176,0.7532242556893395,-0.05374624866383703,-0.2505032493236922,0.3746509667178213,0.8780535298163824,1,left
17.708,0.23176666620556557,0.9503798107056592,-0.05878661197839881,-0.620710172109134,0.7535245847141244,-0.054507911870129,-0.2502099294998486,0.3745058811905272,0.8776171342741244,1,left
17.712,0.24055074959497655,0.9531917240236246,-0.06104312302537151,-0.6191536449497944,0.7530063696157241,-0.053190055441264275,-0.2506398292188705,0.37472467025784084,0.8782611915850735,1,left
17.713,0.2474430415868923,0.953086982115877,-0.06260282492965089,-0.620704337400232,0.7535738512076126,-0.054474154598022545,-0.2501917382224301,0.3744882967396639,0.87758384493106,1,left
17.718,0.2536000658589782,0.9548029604726777,-0.06254567574119363,-0.619616095732681,0.7531496326908977,-0.05358760533452636,-0.2504507771881921,0.3746247594975021,0.8779753584670049,1,left
17.719,0.2552631037825548,0.9613524835260178,-0.06372357158201922,-0.6199550678973926,0.7532121634322877,-0.053903492806978356,-0.25065137245798397,0.3747497218792691,0.8782921910174353,1,left
17.724,0.25112150618869444,0.9730110008691196,-0.060699759672349966,-0.6205234949282081,0.7537233589792478,-0.054201620864925096,-0.2497440255639375,0.37421251142216283,0.8768787215209353,1,left
17.724,0.24339891528145632,0.9832490514550787,-0.04757002370492702,-0.6190366491860215,0.7525194220330031,-0.05334570567815441,-0.2514282280198609,0.37520810815832284,0.8795014589160022,1,left
17.727999999999998,0.234907108032979,0.9857460229774732,-0.03017198570708195,-0.6212109965820445,0.7543071497706153,-0.05458208842157579,-0.24926744597124104,0.3739293261778499,0.8761353141899033,1,left
17.729,0.22615356854880264,0.9842794586668319,-0.0235747634035826,-0.6189510931740198,0.7524124306633593,-0.05331784892721597,-0.2510706082560502,0.37499690071195296,0.8789449463719257,1,left
17.733,0.21889997181964632,0.9755371384969872,-0.034469893264049804,-0.6202574401820127,0.7535073025914603,-0.054048891419797664,-0.25101921872692257,0.3749693948099656,0.8788663221857138,1,left
17.733,0.21587408387826076,0.9591425902400227,-0.0464503884240918,-0.6212551494506895,0.7544267064665007,-0.05455983555028527,-0.24759158652050633,0.37292904367411744,0.8735191167860823,1,left
17.737000000000002,0.21936161215386513,0.9411949219761143,-0.05311058440214702,-0.6167226002568009,0.7503714026133791,-0.0521693959571001,-0.25601851691115834,0.37794207079851494,0.8866644027526123,1,left
17.738,0.22356720912203823,0.9220131891641723,-0.06522891699853797,-0.6251364077393842,0.7578935492630455,-0.05661009894464114,-0.24204610259427287,0.369631276413633,0.8648683598371789,1,left
17.742,0.22268126937600335,0.9127994059621257,-0.07293803316142086,-0.6143434727920849,0.7482367797197711,-0.050918027429697914,-0.26047547971672014,0.3805921235592165,0.893617529149528,1,left
17.743,0.22090965592368927,0.9110175661869402,-0.07455484569732333,-0.6233488303945713,0.7562978366137245,-0.055665302141453155,-0.33782444092797115,0.4266086818056113,1.0142820693574275,1,left
17.744,0.2184819184911533,0.9049575617000324,-0.08276445145859851,-0.6230923050888262,0.756076952000784,-0.05552496282183979,-0.35625410383663775,0.43756662888308806,1.043032684512547,1,left
17.748,0.21390548526345213,0.9046240340637035,-0.08953373102607501,-0.6059765564834514,0.7407175182416753,-0.04652445806275861,-0.3422812426712077,0.4292603676538033,1.0212343812064821,1,left
17.749000000000002,0.20926486804078254,0.9090010350412066,-0.09074962068442749,-0.6480541669013717,0.7784711563117575,-0.0686551341782482,-0.35070854300949106,0.4342696453493199,1.034381537759049,1,left
17.752,0.2055787801495004,0.916659927928775,-0.09000294101793979,-0.5782885030002174,0.7158743546579995,-0.03196226578927968,-0.3472809313331362,0.4322290762272869,1.0290344383771686,1,left
17.752,0.20408358429632534,0.9262641087995755,-0.0886133541711848,-0.6703074583101731,0.798437696519571,-0.08035867420207349,-0.3472288261393453,0.43220884698554185,1.0289521903240657,1,left
17.753,0.20453247383199671,0.9292630895276193,-0.0875498233057394,-1.0565900786630884,1.1449641474249896,-0.28353872742339703,-0.34903355216368603,0.4332605378147327,1.0317697371668753,1,left
17.756,0.20709217199612168,0.9396876364197357,-0.08142144877440068,-1.1486204673985756,1.2275198194929349,-0.33194707720105465,-0.34687054138056983,0.4320043811831582,1.0283923149061884,1,left
17.757,0.21511280630882718,0.9587397741334698,-0.07250488046431322,-1.078826728856964,1.1649391043969146,-0.2952252583930177,-0.3485569526566039,0.43297757166772954,1.0310262252917426,1,left
17.762,0.2272873071094233,0.974003521064784,-0.06436092325361353,-1.1209552600925219,1.2026683119828638,-0.31740780179711614,-0.3476486457077619,0.43245006833844524,1.029607906560046,1,left
17.762999999999998,0.24208767525641842,0.987272282056379,-0.05730404265431253,-1.1037658665972574,1.1873382247914637,-0.3083330929374938,-0.3478473897720775,0.43259388209132205,1.0299153588344807,1,left
17.767,0.2613462023011013,0.9960062543922016,-0.052940931692405185,-1.103591187260403,1.187092191088468,-0.3082742113818962,-0.3481124246142236,0.43266941395632164,1.0303372258862864,1,left
17.768,0.2801678309229142,0.998550259737543,-0.04921240755491635,-1.1125405269217465,1.1951588892604295,-0.31296729887262964,-0.347653995888373,0.43253802214905834,1.0296075615061833,1,left
17.771,0.2980928630630775,0.9974776824094923,-0.05108455990438185,-1.1017267691571835,1.1855344947133633,-0.3072509900252258,-0.3480965867328132,0.43262800649589384,1.0303158297483506,1,left
17.772000000000002,0.317134089414399,0.9897943286761011,-0.059331054028313034,-1.110291804098738,1.1929721246246952,-0.31184734915436896,-0.3477931397816425,0.4325855892632939,1.0298282212425924,1,left
17.777,0.3320303472167082,0.9762550572688563,-0.06470431255487805,-1.1054493931584641,1.189051572221872,-0.3091431699409912,-0.34790693569473086,0.43265456452332884,1.0300056659220203,1,left
17.777,0.34349401769101373,0.965431196969349,-0.06510843557805925,-1.1068813601775789,1.1898165723420453,-0.3100891479759037,-0.3479853139896449,0.4324448735442342,1.0301542240892239,1,left
17.781,0.3534315516579194,0.9584045404613221,-0.062155583106598654,-1.1077596683609654,1.1910186919375125,-0.31039746524366474,-0.3477433912153165,0.43288660954225255,1.0297166628353462,1,left
17.782,0.3587554724634352,0.9506926486171287,-0.059570313628340005,-1.1056848563993773,1.1891610503418364,-0.30930473278291315,-0.34808972397498517,0.43221903019008767,1.0303467582433452,1,left
17.787,0.3593776154253704,0.9446949280139092,-0.06093931741524475,-1.1082202490142907,1.1906670732893576,-0.3109235435299794,-0.3477398556604091,0.43294209423470065,1.02970513914258,1,left
17.787,0.3608384376604117,0.941833373840343,-0.06270867380706659,-1.1055650601738976,1.190041337091932,-0.30887518113183016,-0.3479422639644364,0.43252459813897115,1.0300763964752142,1,left
17.791,0.3626111090412291,0.9410199628077883,-0.05937760203920364,-1.1081525918011121,1.1897425675508013,-0.31120847181484546,-0.3480736701587513,0.43213865605451107,1.03032881585002,1,left
17.792,0.35820293937014114,0.9443413787248702,-0.050823801897888765,-1.1059992762016306,1.19060393720021,-0.3090394280600024,-0.3474426906626449,0.4337935731106964,1.0291360518048482,1,left
17.797,0.35323951692592026,0.9515873288955145,-0.04364541529017113,-1.1069345373484452,1.1898289423584956,-0.3101301292145577,-0.34861574558327524,0.43072661910411547,1.031352933867728,1,left
17.798,0.34975913766672584,0.959398701339871,-0.03946677440477346,-1.1083913663755693,1.1897450487616323,-0.31141281498265494,-0.3471129078424038,0.43466638696098236,1.0285113102094052,1,left
17.801,0.34453526212000385,0.9664828098435826,-0.036902767157889406,-1.1033889633351697,1.191345319356677,-0.30652209629052996,-0.34836614306710595,0.431377015515624,1.0308820154143836,1,left
17.801,0.33787416719238883,0.975398174831339,-0.035945010345665745,-1.112265522911564,1.1880179259437276,-0.315381130635925,-0.3483271949147965,0.4314616784035067,1.0308086376695444,1,left
17.805999999999997,0.32800485934587864,0.9866075101684779,-0.031939051715368705,-1.1010453813317345,1.1924503884714648,-0.30409942630378806,-0.3459580451759884,0.43774942212362206,1.026323536452748,1,left
17.807000000000002,0.3192421942890301,0.9942823085121956,-0.02705786909584668,-1.1103363311237993,1.1886809927220723,-0.3134775911503077,-0.35178553087673525,0.4223002062333654,1.0373568842027967,1,left
17.81,0.30203424242088406,1.0009304637665284,-0.02315732632282137,-1.1101511515161167,1.1888438627650988,-0.3132592761541161,-0.342122967927923,0.44791372294003795,1.0190608062517195,1,left
17.811,0.285943511853626,1.006734446036471,-0.018953524243337436,-1.0923120650512912,1.195917706038073,-0.295310737444625,-0.35486722397315,0.4141306201786822,1.0431936220592362,1,left
17.811,0.28377076206876944,1.0086171319616661,-0.01721475674566662,-1.1360393401703561,1.1784213232125178,-0.33936204935411485,-0.4083333023167045,0.2722697950120033,1.1444073018489445,1,left
17.815,0.26076057636865446,1.0162132712531917,-0.014594286244047109,-1.0635948033156923,1.2074851309132926,-0.26635431002141424,-0.4210751993448831,0.23848383180335536,1.1685349669552605,1,left
17.817,0.23561183720338721,1.0220622880125736,-0.012220710273119748,-1.1591201696213527,1.1691211062333062,-0.3626345740428035,-0.41141816955876126,0.2641072524153103,1.1502541967581168,1,left
17.820999999999998,0.2313280737074599,1.0235636899601945,-0.012345212600146201,-1.5600840059634884,1.0080856864821544,-0.766768945889087,-0.4172360676983742,0.24863509561266686,1.161255182255691,1,left
17.820999999999998,0.20816466158521724,1.0340111447253437,-0.014932456138300562,-1.655591784827637,0.9696943119114634,-0.8630349317726489,-0.4148802186379027,0.25496229505843493,1.1568226832111765,1,left
17.822,0.17008161056149435,1.0445379540976552,-0.022566294159738615,-1.5831848911566273,0.9988123688351342,-0.7900558894178182,-0.4148271940534308,0.2549952809639715,1.1566836159971257,1,left
17.826,0.1342059673209271,1.0529789645046892,-0.029501357518722755,-1.6268534694649786,0.9812398994941273,-0.8340661484829734,-0.41608896971313225,0.2517534098919915,1.1591104848163378,1,left
17.827,0.09959327596586781,1.0660602737746405,-0.033578486136277064,-1.6090871933890065,0.9883956489783043,-0.8161631144058973,-0.4145921700212124,0.25567909567453107,1.1562604269173762,1,left
17.831,0.06792953697913713,1.0793570494853069,-0.03679065458744274,-1.6088361609788169,0.9885025792578416,-0.815911523095036,-0.41573561428942263,0.25255653237242676,1.1583927549467712,1,left
17.831,0.03372819616623511,1.0912144000456077,-0.0408113406673242,-1.618148830368931,0.9847170830544895,-0.8252856541623608,-0.41516167737081516,0.2543656801689867,1.1574104528138622,1,left
17.837,0.0022109891086319984,1.1026125060460283,-0.04705716594216089,-1.606997865764911,0.989285873902185,-0.8140726005677105,-0.4152163863690339,0.2537274489365404,1.1573345272932438,1,left
17.837,-0.02613538239187823,1.1159508537235279,-0.051716147436595535,-1.6156759624015962,0.9856762737454213,-0.822781991987934,-0.41549017416229217,0.25360583387743846,1.1580730595197366,1,left
17.84,-0.051502197816706445,1.1324212761105308,-0.05790687727445404,-1.6110026697521085,0.9876742050695213,-0.8181088773941273,-0.41511724394690824,0.25411321418059685,1.1571914882685377,1,left
17.840999999999998,-0.07147020404800405,1.1514432718216274,-0.06795728952149771,-1.6120677720823884,0.9871948661005069,-0.8191663868639529,-0.4153855456725141,0.25339730509842084,1.1576979606966122,1,left
17.844,-0.08921523608147536,1.1740777938553668,-0.07901789087607314,-1.613298459659505,0.9865985012935867,-0.820374952580232,-0.4153648940929951,0.254345777216193,1.157984343194563,1,left
17.845,-0.10145111877818205,1.2004994037899324,-0.09211503311317477,-1.6111857779807193,0.9877745972130559,-0.818348166448368,-0.4150788399364205,0.25306214538810035,1.1566988252635975,1,left
17.849,-0.11085520073703467,1.2306381927349654,-0.10702174996533054,-1.6131382786585409,0.9864271028014125,-0.8201393295269788,-0.4156229519102705,0.2546658542270934,1.1588389141302975,1,left
17.851,-0.1171705716669855,1.264796292023168,-0.12027313218009134,-1.61186534265258,0.9876289304678025,-0.819073273622026,-0.4149999448240466,0.25307006754835026,1.1564760224429294,1,left
17.854,-0.11908690297992403,1.3014101076138007,-0.12992325023666182,-1.6123939398596576,0.9868664027438169,-0.8194330854178578,-0.4153887783545974,0.25391595166036296,1.157896217797869,1,left
17.855,-0.1232960325016912,1.340236409577898,-0.13983783883934997,-1.6123905034655919,0.9868628388247604,-0.8194281042029965,-0.4156342193302442,0.2548818872317872,1.158949673614829,1,left
17.859,-0.1257261303994961,1.382453350118804,-0.15001078534773998,-1.6121886749696765,0.9879645815507705,-0.8195455952147273,-0.41439444089008237,0.2510911204716423,1.154023859986351,1,left
17.86,-0.12806529643738987,1.4246514733063367,-0.15837370860650135,-1.6123213078678027,0.9855790002871663,-0.8189458403666191,-0.41673282656222,0.2580182419291639,1.163233815433466,1,left
17.864,-0.13709321059152213,1.4649093774399506,-0.16753569595201703,-1.6123941051331967,0.9890289719720784,-0.8201134078250971,-0.4137159815975575,0.24916016788124562,1.1513800653336492,1,left
17.865,-0.14488369612441454,1.503995817422426,-0.174564317153364,-1.6121583055599142,0.985414895325578,-0.8187092803137503,-0.41624079920422297,0.2565404701549435,1.1612890016277073,1,left
17.869,-0.14818478080166858,1.539117379443465,-0.1766110659097958,-1.6123450666826695,0.9874827314920731,-0.8195715228636626,-0.41616269904461034,0.2563629307785955,1.1609998329196447,1,left
17.87,-0.1518205989461578,1.5667529955681174,-0.17774817356755057,-1.6125272447554613,0.9892568785450943,-0.820336120108078,-0.4113741712884563,0.2422304697156445,1.1421601971107183,1,left
17.874000000000002,-0.15679670481181443,1.5880050961975762,-0.17915055325813184,-1.61166948411877,0.9815171039408699,-0.8169288103683494,-0.4231582884427692,0.27693551222888535,1.1884983482719127,1,left
17.875,-0.16145051892203408,1.606072631147108,-0.17981251311394944,-1.613318027676511,0.9958469256200928,-0.8233061535778581,-0.4036136648219829,0.21940272395136745,1.1116519831838456,1,left
17.878,-0.16256719531605973,1.6155732943330552,-0.18162068942579251,-1.611161641513874,0.9774635316116054,-0.8150770202388069,-0.42939589738213485,0.29528733582233746,1.213022330584847,1,left
17.879,-0.16261077861380546,1.6170033940575803,-0.18060752445139794,-1.612977843402608,0.9928022818374624,-0.8219642848439732,-0.537603232066057,0.6138098441859932,1.6384725837315735,1,left
17.88,-0.1633420550537751,1.622906045297142,-0.17455508245982843,-1.6129361994434912,0.9923909814711702,-0.8217819651054484,-0.5633888286590125,0.6897040026944344,1.7398616784730114,1,left
17.883,-0.16248706213278885,1.6303342307738258,-0.1689016630739962,-1.6094213192616065,0.9631440852731017,-0.8086072165376565,-0.5438380345640976,0.6321587109476617,1.6629842817387326,1,left
17.884,-0.15903363342200885,1.6333428577588074,-0.1630542663732118,-1.6180643137614095,1.0350197977059716,-0.840997010989718,-0.5556297316293471,0.6668675276525603,1.709352789019413,1,left
17.889,-0.14692214012587185,1.6406512618193172,-0.157723026021962,-1.6037194367277772,0.9158474376759623,-0.7872813940432605,-0.5508347964660623,0.6527534488274875,1.6905019492443443,1,left
17.89,-0.13619102780248157,1.6483276846070845,-0.15591505295050323,-1.6226679633640941,1.0730502850327295,-0.8581463175884592,-0.5507581364559049,0.6525257489385424,1.6901844533724963,1,left
17.891,-0.13213061132941728,1.6498987194378198,-0.15580644242740826,-1.7028913575727358,1.7335139889575697,-1.1558395262026888,-0.5532907738700588,0.659986465398636,1.700175985375889,1,left
17.895,-0.11514001065581693,1.6597284957176113,-0.15861362357605532,-1.722012103713328,1.8908693027916779,-1.2267637546762522,-0.5502537947255022,0.6510377042163593,1.6881875475552208,1,left
17.896,-0.09164285854499607,1.681970193734279,-0.16523469741500904,-1.7072956224890496,1.771363844058894,-1.1729222953737986,-0.5526237971039677,0.6580236630360474,1.6975530011360762,1,left
17.899,-0.07251327429014348,1.7099471209727617,-0.17544340016671445,-1.7165239959928003,1.8437723746567793,-1.205506152681259,-0.5513484723993605,0.6542653545174432,1.692518443509102,1,left
17.9,-0.05565467261986555,1.749224168627077,-0.19594711621589947,-1.7122742712752292,1.8138448591088485,-1.1920938513407013,-0.5516175242826714,0.655048614585042,1.693536161584864,1,left
17.903,-0.050690375284237504,1.8000490534370042,-0.2320950523144834,-1.712909919406167,1.8140777638831618,-1.1921217717445756,-0.5520172717284364,0.6562535863446175,1.695237059544267,1,left
17.904,-0.058205140992658944,1.8555967259371218,-0.2735391788084153,-1.7144786087606083,1.8291495218841418,-1.198948480553594,-0.5513260828720248,0.6541700658794001,1.6922970170353655,1,left
17.908,-0.0769567076971369,1.91235828769637,-0.295542419260937,-1.7116649076794492,1.8102118001253764,-1.190478770807275,-0.5520063908013484,0.6562328334402778,1.6952447303208045,1,left
17.908,-0.10292293281744148,1.9641836328069286,-0.27977784893195345,-1.7152752864626457,1.8263037964005493,-1.1975186138955989,-0.5515331692788226,0.6547917793552815,1.6931666008214104,1,left
17.914,-0.12721068916952194,2.0053720812187326,-0.23095625048213117,-1.7111151135551799,1.8155308474672416,-1.1930305647353072,-0.5516919150992596,0.6552586510463426,1.6937888411453788,1,left
17.915,-0.1590131533605087,2.033177199039268,-0.16350602706171813,-1.7152824001192077,1.821038141902954,-1.19506171987697,-0.5518919476976827,0.655936760329346,1.6949788628477105,1,left
17.918,-0.20367742873685307,2.0467750454448965,-0.09560533885127698,-1.7123802129603134,1.8201018432481408,-1.1949991820046062,-0.5513470046860935,0.6541285224446043,1.691914041619139,1,left
17.919,-0.2539504709123608,2.0464494284964756,-0.041789446453264885,-1.7119221723230558,1.8165324266656535,-1.1933940744179796,-0.5521395273857719,0.6567660047237853,1.6964058763189174,1,left
17.924,-0.3021426473585844,2.02918824075361,0.007906416102656324,-1.7181705778968281,1.8253909500959091,-1.1967185315139344,-0.5513217784002434,0.6540341075193553,1.6917240127702038,1,left
17.926,-0.3398394574254491,1.9971692801496912,0.0631620290312985,-1.704543094691629,1.810514496497747,-1.1915396812496883,-0.5517945448510653,0.6556134275261756,1.694430271713971,1,left
17.928,-0.35766314514350184,1.9521946467922082,0.12371080454458785,-1.7245873041451845,1.8303580091799896,-1.1982073991706161,-0.552142073939263,0.6567981636572,1.6965271784280072,1,left
17.929000000000002,-0.34854566283442756,1.8948647797855334,0.19388465504860658,-1.7033458579590366,1.810240293580387,-1.1915653575200724,-0.5505434924282167,0.6513845225635755,1.6870448139956205,1,left
17.932000000000002,-0.31947970867302533,1.834823816020878,0.25828946032323524,-1.7155543243534193,1.8213337885018939,-1.1951657984608857,-0.5535118748858185,0.6614355537186529,1.7046450115506528,1,left
17.933,-0.2770448279238136,1.770939018178996,0.29384061978161746,-1.7262154336914555,1.8320162488498961,-1.1987684437769848,-0.5497054161695591,0.648544065206779,1.682065186619849,1,left
17.937,-0.23402038899093927,1.7117368002670106,0.3063094583194175,-1.6798469403935101,1.7876281675427799,-1.1840549378781713,-0.5528807322940756,0.6593003068809703,1.700906949753128,1,left
17.939,-0.193080836240129,1.6595660664749028,0.30397405726630844,-1.7657526982242826,1.8692551907644064,-1.2110347218250839,-0.5527891699792487,0.6589890058388829,1.7003721930346192,1,left
17.942999999999998,-0.1479003221409086,1.6047424119696747,0.29266592222303955,-1.6554843168960547,1.7647524976866684,-1.1765263437592681,-0.5467594620678508,0.638563010332815,1.6645507266993982,1,left
17.944000000000003,-0.1086100652282243,1.5568693223376207,0.2853908766819747,-1.7475233525544318,1.8518569485639058,-1.205279960131826,-0.5615836378263308,0.6887832552810067,1.7526138855521707,1,left
17.948,-0.04356506401278597,1.491316795759333,0.2643537021486626,-1.7450520484446028,1.8496342884615626,-1.2045457654298781,-0.5370046364197283,0.6055189767310516,1.606603846027439,1,left
17.949,0.01042928837064998,1.4421326376293524,0.24370648270924603,-1.569511995060336,1.6832813692120974,-1.1496403782714606,-0.5694248758115703,0.7153319864370429,1.7991823609434696,1,left
17.949,0.019725733800710264,1.4338067949493798,0.24198913974228564,-2.0009308637416092,2.091909281364419,-1.2845136042050875,-0.705571204407261,1.1759843095532112,2.6074230488703005,1,left
17.952,0.08391009532455457,1.3761299512880876,0.20700516882976294,-1.285639967662787,1.4145165739355678,-1.0609209556799613,-0.7380085735491279,1.2857292496855468,2.7999802754544483,1,left
17.953,0.14711157777665426,1.3219823837341438,0.17035575524635177,-2.2290897219865142,2.3079121045738056,-1.3558274615974506,-0.7133908003890148,1.202608729069616,2.654010705767134,1,left
17.957,0.15505003839546633,1.3158793216863902,0.16381457509632813,-6.189315642627658,6.058311714789739,-2.5935698191284,-0.728279612743445,1.2526086484503995,2.7420208613699177,1,left
17.957,0.2089238056190839,1.2656019065626118,0.12322847161220418,-7.13274734364792,6.951623997683686,-2.8884820283859973,-0.722163594518735,1.2324503293074398,2.7062503249598238,1,left
17.959,0.2776202035000207,1.1995822909422023,0.07170521525140158,-6.417479636408783,6.274351372711772,-2.6648967329865085,-0.7221590108782148,1.2319051106603245,2.705691050319558,1,left
17.962,0.3222461207652466,1.1495279921892048,0.04869465026956194,-6.848892983011229,6.6829072307729565,-2.799719710417309,-0.7252886579553953,1.242722923680394,2.7244998647278784,1,left
17.963,0.3628459459752925,1.0916143881123952,0.05134054924018572,-6.673314838157637,6.516474714686503,-2.744933545976046,-0.7214289523734047,1.2301121331467633,2.7020379142628546,1,left
17.967,0.3853715789730372,1.0381381007971178,0.0907976420347647,-6.670943329275451,6.514569732917593,-2.744008801323524,-0.7246036254680572,1.2394069776630472,2.719429293395504,1,left
17.968,0.4027443125453368,0.9836994326410091,0.14542793077309302,-6.762824999060532,6.601101479065614,-2.77298281073002,-0.7226283851437408,1.2352155958198803,2.7102096741851964,1,left
17.972,0.41808957185431234,0.9282190037177867,0.20508446313444043,-6.652731157177549,6.497315489862878,-2.738320937177355,-0.7234625230972614,1.2349806764634843,2.712086382783355,1,left
17.973,0.4303300255155283,0.8780406210068359,0.26978639683911987,-6.738528485612396,6.578361405741752,-2.7652444541284664,-0.7235094900518726,1.2375766254727845,2.714816532519402,1,left
17.976,0.4436991500692115,0.8343818449134879,0.32412492338288657,-6.692086423742626,6.533984292485487,-2.7509450078470783,-0.7227758932348706,1.2351157061592475,2.7104829844936003,1,left
17.977,0.45169309397852975,0.8030100340231923,0.371089800078668,-6.703115809269191,6.545709156142834,-2.753699464993357,-0.7241566672073252,1.2352672857605214,2.714132788461643,1,left
17.982,0.463022062472945,0.7785500993989551,0.4027529396410462,-6.714615171235761,6.554394592399643,-2.758485631061201,-0.722107526694655,1.2386646367423455,2.712359985170222,1,left
17.984,0.48190236152762117,0.7590247987880846,0.4111535352590614,-6.694323174092604,6.537882303127537,-2.750681349835741,-0.7246803498188391,1.2319581439827303,2.71213056586579,1,left
17.986,0.5061569930465961,0.7446901528374521,0.41012487214430493,-6.713492054115598,6.553879616520035,-2.757837789264928,-0.7221509512321824,1.2398292256197045,2.713641325357744,1,left
17.987000000000002,0.5346710412799585,0.7281927009718991,0.40194107815680735,-6.700129427427592,6.541207077589128,-2.7536717962721635,-0.7235034990222957,1.2349124070475548,2.7121216464572226,1,left
17.992,0.565271707965517,0.706527638342465,0.38129585281858214,-6.707376441599338,6.55206627917371,-2.7537747107643815,-0.7248989114118842,1.2314515171082467,2.712174184958676,1,left
17.993,0.6004125633645812,0.6848483981855336,0.3477107198422733,-6.704142259957621,6.539869614445815,-2.7577047506472967,-0.7192763471428962,1.2482392023403661,2.7148203812385834,1,left
17.996,0.6408228862236134,0.6613675822997631,0.3016098730733592,-6.705776353902802,6.555043967378763,-2.7508446644060927,-0.7295621497099085,1.2166273698275478,2.7090740764166017,1,left
17.997,0.6864387020592408,0.6286788583057923,0.24855356702603826,-6.704626766016743,6.53942790481088,-2.758342794264111,-0.7164174967442737,1.2574318686832582,2.7168256379786113,1,left
18.000999999999998,0.7340104562715755,0.5927049583311079,0.19629853127807287,-6.704355742153058,6.547566821684269,-2.753718013745033,-0.7273642379706075,1.2232734269444285,2.710193358156573,1,left
18.002,0.7842204573690326,0.5515039919355251,0.14932787518595303,-6.70876147089681,6.5589708773065984,-2.751181569820182,-0.7270918061710779,1.2242815645746163,2.7105150095480974,1,left
18.006,0.8323366166049002,0.5073318769682471,0.11008305736651387,-6.697068490130996,6.51623660610733,-2.7646544529485397,-0.7061740163436181,1.2892572727922806,2.7228956954860197,1,left
18.007,0.8712484727241614,0.46900150838639076,0.07973890109107633,-6.717389328117991,6.594200628701967,-2.739242400667858,-0.7575444157121364,1.1294035931854403,2.6922093552757747,1,left
18.011,0.9113586579109849,0.4219798874366266,0.055650068227240106,-6.691594600867852,6.494368935451958,-2.7719661283580077,-0.6723909505255898,1.3945242200350112,2.743214278080159,1,left
18.011,0.9364049405121441,0.3911010014584256,0.040305585684843936,-6.7130192956410575,6.57761588464314,-2.7446119941081903,-0.7846969670847823,1.044788714643133,2.675872780477406,1,left
18.016,0.9413351337102807,0.3828167029759152,0.037911239800709914,-6.7128839143397725,6.575768045449544,-2.74549215917924,-1.2561050733626242,-0.42317739952187167,2.3932405233167984,1,left
18.017,0.9595621879117621,0.3528990801079212,0.035419375289303,-6.670542635758337,6.415660495973213,-2.7971836318699115,-1.368402871584816,-0.7729565964350698,2.325845949750252,1,left
18.017,0.9802643538892506,0.3189661165376769,0.027687875904682215,-6.77411770643073,6.808748374371234,-2.6699760078141854,-1.2832657175447322,-0.507755950677361,2.376954407023422,1,left
18.02,0.986846423023727,0.29377628818621065,0.03192161244682064,-6.60247801124949,6.157054421721618,-2.8809222775838084,-1.3346132188138105,-0.6677076442003617,2.346126585135032,1,left
18.021,0.9894901335196803,0.2751991690309931,0.041441109519473995,-6.828911743452396,7.016699170500145,-2.6026969491838363,-1.3137201130421765,-0.6026496091104072,2.3586534929068197,1,left
18.026,0.9885458369860934,0.27179280890455754,0.04378368261663243,-7.779441863192448,10.624844092801508,-1.4348893854916924,-1.313430764615724,-0.60165885535242,2.358885466692624,1,left
18.027,0.9875293143935637,0.257944034203594,0.0570248217589607,-8.00602463124936,11.484671104281624,-1.1567079565901368,-1.3243727839199004,-0.6359202710548142,2.35220168233716,1,left
18.027,0.9860656360545095,0.24205319494657676,0.08050210204937708,-7.834223689520134,10.832779958230919,-1.367606728032611,-1.3112690267183447,-0.5948534758974203,2.3602294669725357,1,left
18.03,0.9828666395201472,0.23683758362204427,0.10367562336289109,-7.937737431147701,11.225792826372007,-1.2403810464956813,-1.3214699754087857,-0.6268751410631919,2.3539462929416457,1,left
18.031,0.9816580259970061,0.2304333936776638,0.13001246345861162,-7.895931027492135,11.066339416568454,-1.2922300548941634,-1.3159671526620844,-0.609629132160896,2.3573177132962266,1,left
18.035999999999998,0.9802147827889036,0.2283388060873004,0.15187564448872598,-7.894644798258955,11.063084128228656,-1.2927712526985289,-1.317243272608571,-0.6133904080261753,2.3566898949738153,1,left
18.037,0.9769224809886695,0.22657871782607503,0.1698348399354911,-7.917719573042087,11.148349061938891,-1.2659031361764252,-1.3186500931296918,-0.6184573154153664,2.355402383476946,1,left
18.04,0.9708524967727198,0.22639963744320882,0.18380208659568797,-7.8902817134722945,11.04650789220659,-1.298142882335712,-1.3162147819634247,-0.6096928830071977,2.3576268523517716,1,left
18.041,0.962817439008563,0.2320457764394182,0.1878134876567413,-7.911311527030937,11.12533893890325,-1.272939676399173,-1.318472433939277,-0.6181712655075964,2.3553359933488576,1,left
18.045,0.9529176283595288,0.23672248655101658,0.1888341725153776,-7.90102953617122,11.084330292779411,-1.2868281203343033,-1.3169735510526142,-0.6123497397171184,2.3569816659745686,1,left
18.046,0.9398007875909429,0.24638319357840957,0.18301191965915908,-7.900890101622156,11.090175746903983,-1.2829529725976343,-1.3176699941947254,-0.614508674403881,2.3565700883272074,1,left
18.05,0.9244502772008879,0.26039159301721526,0.1664708004940897,-7.908450568511881,11.107892300315632,-1.280634872672558,-1.3174980442713147,-0.6161123974492662,2.355289469431093,1,left
18.051,0.9068264994942202,0.2705111834291116,0.14746487782100243,-7.8976897953363,11.080522147702695,-1.2853020870796974,-1.3175085103669066,-0.6112560575745601,2.358446087278621,1,left
18.055,0.8887568895364495,0.2810083820614516,0.12497524695970429,-7.906986363034605,11.105067320710955,-1.2806990026612626,-1.3174038605692862,-0.6182236436323058,2.353789967877928,1,left
18.055,0.871914824577437,0.29197822138846546,0.09659648750238149,-7.903820529711598,11.092954414592276,-1.2846490198390625,-1.3176335359977243,-0.6111637435971535,2.358683186163902,1,left
18.059,0.8541492670364651,0.29960565658194527,0.06462500049339301,-7.896847871784289,11.086423277594783,-1.28056384744069,-1.3175017958937234,-0.6152463484897047,2.3558542840294923,1,left
18.06,0.8350551685462255,0.30563543080635314,0.029172588308929888,-7.9159818096500265,11.113492992794543,-1.2859692734684902,-1.3171275905416282,-0.6179526081285996,2.3535753366330345,1,left
18.064,0.8147628954114294,0.3081316982904276,-0.005813872851569446,-7.886671187104267,11.070201682673027,-1.278846510983329,-1.3184286351803305,-0.6050575775836649,2.363757902477831,1,left
18.065,0.7908173053762523,0.3053458439751534,-0.03778250679359644,-7.918059381439438,11.116892033632022,-1.286264446143175,-1.316031845780545,-0.6290225049203035,2.3448617641615295,1,left
18.070999999999998,0.7670786688927538,0.29947816165020286,-0.06937612892449746,-7.899698488325853,11.089060192178781,-1.28225489688732,-1.319131987781463,-0.5983194398522832,2.369114740950004,1,left
18.070999999999998,0.7481555185746643,0.291254974455488,-0.0972458488701009,-7.88498541657443,11.069301950131532,-1.2774281161502228,-1.3165326576288343,-0.6239188783138108,2.348869350188197,1,left
18.075,0.7296120661930459,0.27709017425349414,-0.12080874228510469,-7.951200141892391,11.162700980243045,-1.2963096585489553,-1.3165785777220171,-0.6231455371489134,2.349442760152959,1,left
18.076,0.7140597819340301,0.2588726810608296,-0.14037647711981097,-7.828076117405586,10.988243285051826,-1.2616979308278573,-1.3216448201007989,-0.5746853507619376,2.3879543399697996,1,left
18.079,0.7038756801952042,0.24061716616976836,-0.15063670984624453,-7.986245832485989,11.212532939507678,-1.3060510470075202,-1.3092074786233616,-0.6938492352243362,2.2932678526829156,1,left
18.08,0.6931849029225654,0.216653915615105,-0.15735805160674757,-7.854170006919334,11.025175708930627,-1.2690584194123578,-1.3298352131792681,-0.4962833291524265,2.4502726975553797,1,left
18.084,0.6866985675164785,0.19824999147735922,-0.16054967188538793,-7.857855183405737,11.030672823908425,-1.2699212720947548,-1.3026175217769838,-0.7568453818238925,2.2431794701668677,1,left
18.085,0.6843565659835282,0.19320642573571095,-0.15967749170351592,-8.109330798782764,11.386517854903289,-1.340915541437493,-1.18838521204305,-1.8504634766048307,1.3742180633421646,1,left
18.085,0.6743879769629568,0.17934231483203178,-0.1595114292085661,-7.49110892680833,10.511402382483515,-1.1665806202826279,-1.161159875938127,-2.110996842471133,1.1671411470022992,1,left
18.089000000000002,0.6586028169813436,0.15455558891638962,-0.14567244772891094,-8.516175492057478,11.962497187728957,-1.4555983552864842,-1.1817908080440498,-1.9134629977306177,1.3240909349999568,1,left
18.09,0.6502362166658362,0.13995748031874283,-0.13059680176023966,-7.1641253608976925,10.048523439288928,-1.074382003844784,-1.1693745828813504,-2.03263505939714,1.229530240840195,1,left
18.094,0.6472272027857915,0.1361696248645952,-0.12469741225370125,-1.4890620796446599,2.0152404998075117,0.5259703661890804,-1.1743763411586894,-1.9840793970734067,1.2678271871265148,1,left
18.095,0.6407210224421269,0.12613973653648436,-0.09901847556852922,-0.13705697011901402,0.1013935400588804,0.9072276258027141,-1.1745362568937816,-1.9835164810212522,1.2686799128107262,1,left
18.095,0.6404346502345657,0.11061187678260698,-0.06079199346759472,-1.162053973569982,1.5523023520950894,0.6181499185208775,-1.1717932945764498,-2.0088102101212346,1.248180148107537,1,left
18.098,0.6526288107155853,0.10145255089269327,-0.028105805714845042,-0.5438874312707078,0.6773076145507503,0.792523659506114,-1.1750117155794024,-1.9784165715650894,1.2725039250450663,1,left
18.099,0.6750787766031026,0.0952437490001221,-0.00019616173856175975,-0.7953723636432095,1.0332512105344054,0.7215614704962245,-1.1726098455397205,-2.0022386868780684,1.2539161404195802,1,left
18.104,0.7072052434146028,0.08748821676603355,0.016296483834630036,-0.7989357723231648,1.038298106016255,0.7205529420414856,-1.1737034376588042,-1.9890993941280786,1.2632569947940808,1,left
18.105,0.7415155936146295,0.08177131627531657,0.02361786805327181,-0.6671159799992972,0.8517770689977082,0.7578158095951879,-1.173815317284551,-1.9926293402191062,1.2623459703704936,1,left
18.108,0.7764163173364029,0.07895110995792981,0.02359617506300145,-0.824929001702924,1.074995865874702,0.7131169274337181,-1.1729494784723684,-1.9952718404742915,1.2579227820230787,1,left
18.108,0.8151578422591007,0.07438530042240735,0.014201404939689273,-0.7021478220679092,0.901442558876188,0.7480202192249779,-1.1739701709631234,-1.990001340538217,1.2639625706657056,1,left
18.113,0.8551048087545674,0.06807212171982052,-0.0006573212838441303,-0.7682334561997298,0.9947418380417439,0.729107508087736,-1.1733991764238447,-1.995509653767445,1.2596025849274644,1,left
18.113,0.8913499032427494,0.06310902430954432,-0.01737027865870686,-0.7531872721033355,0.9735515151428987,0.733470328093218,-1.1730270680791723,-1.9907150742122586,1.2599754795495195,1,left
18.118,0.9229311022607734,0.058268333705108685,-0.03719095510658264,-0.7358254267856353,0.9491823879005183,0.7385996165352883,-1.1745890800163328,-1.9948562006668127,1.2645382403779628,1,left
18.119,0.9509780343844147,0.05487154120223819,-0.0629604318671529,-0.7655362997848231,0.9905667017983305,0.7294674541825599,-1.1720083552692906,-1.9910789588122508,1.255824775672828,1,left
18.122,0.9726267134691127,0.05380892699624246,-0.08860378949662628,-0.7382366894593884,0.9530830185325924,0.7384645940499867,-1.1748508819351011,-1.9942267427540603,1.265810726928243,1,left
18.123,0.9891286168954514,0.05555677769429093,-0.10987998865276583,-0.7558381238196723,0.9765747124260337,0.7319075654839852,-1.1731475365173925,-1.9929979429737348,1.2595739388213851,1,left
18.128,1.0051858227095134,0.06124456715689776,-0.12780264448572254,-0.7486891917886282,0.9675904242654392,0.7351936988698841,-1.1718686196301986,-1.990104230519966,1.255649394067667,1,left
18.129,1.0220071199864742,0.06750292916382444,-0.1395713300178417,-0.7487405617936295,0.9676726177866706,0.735190480861851,-1.1778147280700213,-1.999383306225634,1.2755023856372387,1,left
18.133,1.0363045809135154,0.07356129177647461,-0.14584141592715866,-0.7509782344835958,0.9687352080741696,0.7322030744880236,-1.1667058658991787,-1.9829762260538286,1.238053544331129,1,left
18.134,1.0456892215432065,0.07940968559573788,-0.14683253251125367,-0.7505167310994926,0.9728931403650032,0.7377180582800378,-1.1809986206513445,-2.0037531572257237,1.2863653618203257,1,left
18.137999999999998,1.0553693346446726,0.08524734011686536,-0.1422380495288766,-0.7473735224192706,0.9612659158855567,0.7305715247765557,-1.1690559870447383,-1.9865333611893026,1.2459398697462722,1,left
18.137999999999998,1.0628778450815686,0.0915774821094546,-0.13239106928675387,-0.7529635318310399,0.9768309123604356,0.7375579419838145,-1.16939331680367,-1.9868021925691657,1.2471732131916662,1,left
18.142,1.0654378604255612,0.09394346948629265,-0.1185793261612624,-0.7490192914238202,0.9668257957752033,0.7337234367980857,-1.192126609749069,-2.020158946872536,1.3238837375115198,1,left
18.143,1.066945088891658,0.09543509504480219,-0.1028886451715868,-0.7453161517760256,0.957773639082079,0.730500980652681,-1.1362337554955293,-1.9384631343400394,1.135142990560917,1,left
18.148,1.0601956006266136,0.09973534059384162,-0.080640782889395,-0.7623733450182835,0.9985973097490966,0.7443588316513803,-1.2289089227760481,-2.0738010265461426,1.4481501430369503,1,left
18.149,1.0512695525541698,0.10183343710282088,-0.06525037961057877,-0.7299218666816507,0.921729158451809,0.7188924457744024,-1.1066754332054027,-1.895343495723735,1.0352807322003583,1,left
18.152,1.0471993837087963,0.10203050028399568,-0.06207870373679077,-0.7721566234192629,1.0212333198168664,0.7514308231579114,-0.5935202566730389,-1.1459480720169526,-0.6977879515180698,1,left
18.153,1.0334550738937351,0.10262352324729726,-0.04716546169841397,-0.7366538423061446,0.9378163278384782,0.7243379889699049,-0.47130010481759443,-0.9675224881466171,-1.110638032691008,1,left
18.153,1.008412397167413,0.10514912418643726,-0.026390781124157835,-0.7375673596764322,0.9400113058004379,0.7250771244996626,-0.5639631086283706,-1.102804145127912,-0.7976345688904573,1,left
18.157,0.9836095975687837,0.10819437260853065,-0.013514821773910207,-0.8058207418881436,1.099848473299995,0.7765987742518824,-0.5080567359854326,-1.0211719448686312,-0.9864442804134018,1,left
18.157,0.9620254459440112,0.11083959614185318,-0.0016087256805113297,-0.6379504911913065,0.7068213551153628,0.650011673766151,-0.5308544509828046,-1.0544851082895257,-0.9095386051630323,1,left
18.162,0.9354859624503338,0.11859800071179571,0.006525419832857539,-0.9164185966468816,1.3586710758497669,0.8598501652554404,-0.5310642281081739,-1.0547420142051167,-0.9086411254727904,1,left
18.163,0.9165353533315197,0.12469307947879064,0.00905637939273759,-0.5490242513585664,0.4987416048293355,0.58311307370841,-0.5192956247102709,-1.0376239547846076,-0.9486523308439518,1,left
18.164,0.9112466091690783,0.12668732909064134,0.010280890535424182,0.9938048670091874,-3.111710578221882,-0.578424466024991,-0.5334261416301789,-1.0581938570402236,-0.9006690253753467,1,left
18.167,0.8914184021396534,0.13690321256973279,0.010052659335231971,1.3612786927969363,-3.97176408186354,-0.8551201078556208,-0.5223667442256748,-1.0420724246337918,-0.9381321621177727,1,left
18.168,0.8656480178866206,0.15316054386678352,0.008647139354605248,1.0826478393508694,-3.3196715119816123,-0.6453481050479796,-0.5284994922478206,-1.0510769141922427,-0.9176375152573274,1,left
18.172,0.8491129697048678,0.1707667150015556,0.0062136099424966035,1.2507572528837807,-3.713032445747319,-0.7718756026556728,-0.5267007733782726,-1.0482894809346217,-0.9230104313534442,1,left
18.173,0.830833686747583,0.19345965435586532,0.002381190232823243,1.1822286358320584,-3.552847005768766,-0.7203632344952329,-0.5258468468393799,-1.0473193813161492,-0.9271027959906325,1,left
18.177,0.8164407800570165,0.2179341451586526,0.0006399284476599734,1.1815328777761211,-3.550871322288614,-0.7197097106634069,-0.5276960142136295,-1.0496804283905323,-0.9193756116569862,1,left
18.177,0.8052360191449,0.24117809104443338,0.001152827086600138,1.217023233814578,-3.634398280707762,-0.7465952607473902,-0.525833895082362,-1.0472315315483,-0.9268455603398164,1,left
18.182000000000002,0.7945294894696473,0.26855987223149025,-0.0013733859955049627,1.1744263456162654,-3.534254471565541,-0.71436889449563,-0.5275711887252794,-1.0497702316033481,-0.9209886279471898,1,left
18.184,0.7887416442669721,0.29800271075791457,-0.007282562259135365,1.207729573152882,-3.612383155904105,-0.7395045434376882,-0.5254780607480561,-1.0462144047142288,-0.9258673254571868,1,left
18.187,0.7826301717476618,0.32391025332313594,-0.013273835622709283,1.1893806500779178,-3.5698399986366978,-0.7258306790645461,-0.5285339833324498,-1.0518185066328436,-0.9205519902519821,1,left
18.188,0.7766236410715605,0.35137658451227655,-0.017868897675561907,1.1944878619448491,-3.5805283933845367,-0.7292378426708509,-0.5243889965086994,-1.0440623363645054,-0.9270840691196244,1,left
18.192,0.7708483839251828,0.3791949893166856,-0.023179582127297663,1.197577585759787,-3.5899292583785876,-0.7323128726393269,-0.528730335049373,-1.0522180255084952,-0.9203813130965632,1,left
18.192,0.7621175109225182,0.40162031102276297,-0.02827652407656931,1.191375233956711,-3.5727544682663455,-0.7267268894306057,-0.5263439970014518,-1.0476832436894004,-0.9238425776404617,1,left
18.197,0.7529786120118913,0.42120469701145835,-0.025796687321387513,1.1974868375346643,-3.5891760497897875,-0.7320575832033767,-0.5236829658788656,-1.0428945994994452,-0.9288638216970302,1,left
18.199,0.7412977923689946,0.4381267082227055,-0.02114792058929639,1.19226755009046,-3.5769817325570794,-0.7281356947957698,-0.5343396905153575,-1.0624123347723557,-0.9102246479085201,1,left
18.202,0.7249037909132079,0.4495803120948978,-0.019412724020531867,1.1976099059790504,-3.585550135627753,-0.7308022175783688,-0.5147558861102985,-1.0264762247650898,-0.9441879927796069,1,left
18.203,0.7062615549478352,0.45738204821883666,-0.011475935828620446,1.1905955375268145,-3.578123261009152,-0.728617574336229,-0.5398613645024171,-1.072561878849755,-0.9007141497712983,1,left
18.206,0.6855717106465629,0.4635674214180523,-0.003156678529583403,1.199815278698503,-3.5862913727909653,-0.7309404829576108,-0.5189198792396235,-1.0341104475333198,-0.9369509881397893,1,left
18.208,0.6603221171104248,0.4649081200419568,0.005968242632040299,1.1902188029629355,-3.578126437850807,-0.7286385210302968,-0.5194208567217762,-1.0350617115328504,-0.9361858945651755,1,left
18.211,0.6352505592768121,0.46234691958503626,0.023710941104650177,1.1953976719561716,-3.581987924366274,-0.7296932535761459,-0.5595646881542818,-1.1086753662907038,-0.8663872715502328,1,left
18.212,0.6147661723276489,0.4577940780181109,0.04257953528250989,1.2016742573562502,-3.589557192740617,-0.7319664476992407,-0.46097683042736975,-0.927846504834086,-1.0376844216755507,1,left
18.215999999999998,0.5910483682030228,0.44998430920442367,0.06747162439512017,1.1771716009732764,-3.5633718899568914,-0.7242504628562649,-0.6244153615519168,-1.22764322923444,-0.7537389254430535,1,left
18.217,0.5735311419560423,0.44575435045985135,0.08588312913691881,1.2220764454083575,-3.6106799202613646,-0.7381569684627085,-0.40884806718504774,-0.8322132636355885,-1.128247196513485,1,left
18.221,0.5683424896750648,0.4446764119205156,0.08917934335543973,1.1645366823286838,-3.5502150754554984,-0.7203905311234915,0.4961486122142866,0.8277086798526769,-2.7006494373280865,1,left
18.222,0.5580929216338447,0.4398583025781665,0.10913556373206004,1.212525038621821,-3.6005808364490175,-0.7351867673434112,0.7117141556999993,1.2231533704958775,-3.0751685221920515,1,left
18.222,0.5424807311694824,0.43475981668654884,0.14233941556208785,1.2114127694161774,-3.599652501246762,-0.7349250593668264,0.548277518942452,0.9233407149741036,-2.79121132522973,1,left
18.227,0.5265869318700105,0.43269098811428663,0.16659522126081683,1.1192965120074816,-3.5021876350270067,-0.706255617443884,0.6468660970459694,1.1041635157066685,-2.9625040287818063,1,left
18.227999999999998,0.5091364037345302,0.4309396258371352,0.1826954636202818,1.3454870921220539,-3.741232130607406,-0.7765581406967016,0.6067159821222836,1.0306027103351498,-2.8927442084739106,1,left
18.230999999999998,0.49140736799452966,0.42392434894889985,0.18903892529028948,0.9705094889610124,-3.3450186921275966,-0.6600370088131784,0.6062285244951622,1.0295377362816107,-2.891895621566123,1,left
18.230999999999998,0.480052948103153,0.4169287292924416,0.18978557137897295,1.465098515336844,-3.8676064539333126,-0.8137184596582852,0.6271506249246779,1.0681522030831234,-2.928252175962865,1,left
18.232,0.476446573024554,0.4155592837375875,0.1905784143381662,3.541394232506443,-6.061587690601887,-1.4587881117733255,0.6020644499116303,1.0219042017517417,-2.8846591163659188,1,left
18.235,0.4677326085050625,0.41012026500855736,0.190320097738908,4.036006371834693,-6.584182220755084,-1.6124357473638868,0.6216399250233251,1.0579103577435989,-2.9186739091717477,1,left
18.235,0.4575776320663219,0.40247057828679145,0.191561789201742,3.6610045834349174,-6.1880151677945054,-1.4960078664760288,0.6109666249086032,1.0385320408145742,-2.900137089210967,1,left
18.24,0.4504841444030382,0.399931450953282,0.19763132231239677,3.887182743068659,-6.426866641265368,-1.566123594873744,0.6136810511544237,1.0428715955316648,-2.9048285910690437,1,left
18.242,0.44005948449009535,0.39944987325697445,0.20294668605895452,3.7951554337415887,-6.329818259010697,-1.5377465777927222,0.6159753866645623,1.0481801683125982,-2.9088580334175234,1,left
18.245,0.4292443779368965,0.40486797848165446,0.20348045252304706,3.7938557889318067,-6.3282558108947615,-1.5371321090998056,0.6117469588305567,1.0390748532985328,-2.901457961471461,1,left
18.246,0.4185141862200883,0.4174439889065866,0.20556275394563395,3.8421095955274502,-6.37932100347701,-1.55221282782616,0.6158019270250703,1.0475880965574749,-2.9085460030493904,1,left
18.25,0.4094170033482373,0.4305082908673695,0.20638900537021787,3.784309506608482,-6.31842166458075,-1.5344395217824784,0.612745203959347,1.041990775204046,-2.903235556061709,1,left
18.250999999999998,0.4033172204331249,0.4458490372771452,0.2023983889790298,3.8293192358546078,-6.36543068348808,-1.5478357225575263,0.6150053787940661,1.0441415967745504,-2.907082685948925,1,left
18.256,0.39514530632214695,0.4661230570721065,0.20060475417948756,3.8050572693760474,-6.340739421109282,-1.5413082782962442,0.6128863243286772,1.044813740289686,-2.9035833485487497,1,left
18.256,0.38531261751400825,0.4876431461955383,0.20061032566804707,3.8105880244683195,-6.3454245373580775,-1.54178758582901,0.6153179712759496,1.0424726278571028,-2.9075360530944456,1,left
18.259,0.3763978270972551,0.5068743773192119,0.19863279955448326,3.8170352404740537,-6.353160468165198,-1.5447779068904866,0.6128616701406819,1.0452177884546443,-2.903558450329621,1,left
18.26,0.3648372566785669,0.5256145601154445,0.19638632465170167,3.805899979752338,-6.341404012748415,-1.5413279305973053,0.6140664008010428,1.0432376495448112,-2.905484138610918,1,left
18.266,0.3493765049957899,0.5465743885559624,0.1927125959769716,3.8163199161942942,-6.350696489519118,-1.5427313939251948,0.6161675184671211,1.0434814678752828,-2.908989818420366,1,left
18.267,0.3345413961874666,0.5647081476984483,0.18400210734974598,3.809377504069987,-6.347284808283318,-1.5447642140828806,0.6087113234300012,1.04560812611712,-2.8966681415593687,1,left
18.269000000000002,0.32205631450257055,0.579671348638775,0.1747251175470143,3.8123520170517224,-6.344574445632047,-1.5394387101841507,0.6222250660992646,1.0410871426317239,-2.9189739583301253,1,left
18.27,0.31416664723776805,0.5935367636687481,0.1708436286905783,3.8124330469196965,-6.350899505795571,-1.5461254524040755,0.604943056530542,1.0470226508125284,-2.890453905237873,1,left
18.275,0.30944969455276894,0.6032624929364665,0.16907474896810698,3.8107261310161618,-6.345491408233648,-1.5417471925255235,0.6193426608168803,1.0420134578359028,-2.9142153697795194,1,left
18.276,0.3080697172736658,0.6123861305016636,0.16412235696961136,3.812750402907415,-6.3445209639433635,-1.53905559492182,0.6190617477801013,1.0423534244439003,-2.9137598571902097,1,left
18.279,0.3164330276980426,0.6185886517634728,0.15657082559691862,3.8112704624027995,-6.356560837044219,-1.5531206260393176,0.5912470130046208,1.051237774848013,-2.867833717650444,1,left
18.279,0.3295569683889403,0.6201608207099567,0.14521916095941945,3.811863536987837,-6.3319611226230474,-1.5263714367884746,0.6594845390837507,1.029157014351346,-2.9804957419060485,1,left
18.284000000000002,0.34500395429734165,0.6245558193604686,0.12817769735906748,3.812056887374495,-6.364555736977863,-1.561012458234845,0.546375808615633,1.0658350390993938,-2.79375044788278,1,left
18.285999999999998,0.35642662968644034,0.6268406397563768,0.1186196564731514,3.8114869987865285,-6.336914818501867,-1.531969732502848,0.6955641963897563,1.0174450949274378,-3.040066801838247,1,left
18.289,0.3589921037824878,0.628340698785376,0.11610983560100191,3.811856467615396,-6.338031738179338,-1.5328560347643991,1.3219306983786745,0.81465227397794,-4.074222335376051,1,left
18.289,0.36916333044657135,0.6346752216500495,0.1042884786365123,3.8122868153844918,-6.390056701234487,-1.588054196410397,1.471135776838561,0.7662686989935367,-4.320574864091622,1,left
18.29,0.38450113820936976,0.6406190257265038,0.08882459698623538,3.810594091977628,-6.261525499026959,-1.4522063780479515,1.358007692820319,0.8029491232776697,-4.133784728280162,1,left
18.295,0.39838562112082754,0.6501796489516618,0.07717986430725303,3.8137047771794275,-6.47494927550766,-1.6775277327786755,1.4262429388396534,0.7808328344822983,-4.246452067223118,1,left
18.296,0.40925084601073514,0.6582769663505554,0.0716547452818146,3.8094523128290048,-6.19329458691249,-1.380298638264857,1.3984786462027754,0.789807884709433,-4.200614109570729,1,left
18.299,0.4114370035762599,0.6601824599402308,0.07088571853320247,3.7915671820101484,-5.0109218747569635,-0.13249967957399034,1.3980828815325226,0.789998022242058,-4.199941040919571,1,left
18.299,0.420554315455279,0.6679886236623344,0.0661514530444132,3.7872309492755165,-4.729191965890052,0.1647305795922907,1.4126522189900796,0.7851673664120369,-4.224036711733507,1,left
18.3,0.4347722618723473,0.6800525876045135,0.059802605230112035,3.790526563232672,-4.942796755872174,-0.06062133133538962,1.3951948708052782,0.7909704176130186,-4.195156033836874,1,left
18.305999999999997,0.4418879374351794,0.6928043552856803,0.05303716993628983,3.7885343075232347,-4.813943613345508,0.07532977557531954,1.4087960051348154,0.7864224082953737,-4.21766912662848,1,left
18.307000000000002,0.44648002159356837,0.7076284378062678,0.046629969846589917,3.7893526014754704,-4.866426145474279,0.019921865684007722,1.4014633309276177,0.7888567855437896,-4.2055380497643995,1,left
18.309,0.4463082506576075,0.7204909078406554,0.0446732181789011,3.7893473614378363,-4.867044570951538,0.019343948510055907,1.4031200309507117,0.7884430439914996,-4.208224920349023,1,left
18.31,0.4417835124024829,0.7319618629184222,0.04501858124857594,3.788946454380552,-4.839729288113492,0.04805892824509131,1.4051169186946262,0.7874065021526784,-4.211677717454062,1,left
18.313,0.43315333064889155,0.7436109356956253,0.04978982596327114,3.7894315212148975,-4.872485640102083,0.01360136474160557,1.4016604063327227,0.7891947233229208,-4.205702530626293,1,left
18.314,0.4199647863310657,0.7538823864620392,0.06102529201537994,3.7890445914741733,-4.846913696614516,0.04053675761814501,1.4049313397636634,0.7873162117750044,-4.211432153776212,1,left
18.319000000000003,0.4060557523941263,0.7616748535640155,0.07421149033046254,3.7892821947414728,-4.860894036597431,0.025702757178991953,1.4027234018323107,0.7886836556318626,-4.207524376264317,1,left
18.32,0.39323155254513065,0.7680923873427743,0.08582364247852382,3.7891597943184085,-4.857250329654759,0.029819451314700943,1.403647105015409,0.7883906944238772,-4.209047152286034,1,left
18.323,0.38237813774870244,0.7737437842564509,0.09694323867388144,3.789229053445834,-4.854417003509205,0.032339533755923563,1.4038195233352995,0.7871240246295562,-4.20981851304569,1,left
18.323,0.36996211801812906,0.7791948489856253,0.10830912696786849,3.7891728590498586,-4.859740287112158,0.027298649307763094,1.4029168789625073,0.7901826621280545,-4.207215943985856,1,left
18.328,0.3576612905271559,0.7866998426411964,0.11681157340831108,3.7892036417036827,-4.854602775728453,0.03226054428460002,1.4041453805095907,0.7856584204001078,-4.21090357393471,1,left
18.329,0.3479486145015197,0.795878081666723,0.123193197219168,3.7892669378994555,-4.858599125166508,0.028039796909131668,1.4029925380866604,0.790430286026448,-4.207231280324768,1,left
18.333,0.33882846333199323,0.8055582065397229,0.12967089117644562,3.78901070475255,-4.855343989898177,0.032325154103845996,1.4036601749700008,0.787672891096875,-4.209355710414719,1,left
18.334,0.3316574388996242,0.8158050701549032,0.13191861202901534,3.7895339618663035,-4.858802360233446,0.02673237686548147,1.403888645971886,0.7854076086294817,-4.210613823335262,1,left
18.338,0.32817322420424866,0.82632006256826,0.1301118435685269,3.7887685745062667,-4.854596012305091,0.034069646440143736,1.4024398952029897,0.7954653082955658,-4.204366224580675,1,left
18.339000000000002,0.32656960358643766,0.8387789448041143,0.1262392498764252,3.7895812196641203,-4.85890327474562,0.026435462605587646,1.4051485214953647,0.7768067845141038,-4.215988796313261,1,left
18.342,0.32406294824872944,0.8551778617432881,0.11677502331243043,3.789116914136555,-4.856693603462672,0.030550433188854063,1.4016998451834173,0.8007551109188502,-4.201113092973841,1,left
18.343,0.3236377119717247,0.8733406927040533,0.10414863431317262,3.788692316072514,-4.853404028004158,0.035563735508300366,1.4045650635668978,0.7807672433826361,-4.213509394561115,1,left
18.349,0.3238460331205618,0.8917304033293327,0.08621173985182487,3.7905093965592944,-4.865536078552774,0.016023235211215153,1.404452799087057,0.7813174442712496,-4.213115861826298,1,left
18.35,0.3240765209946086,0.9086337162005808,0.06414285359479836,3.787148396531068,-4.8434436949973305,0.05182781420429357,1.399140853280507,0.8193862011174287,-4.1897303677576305,1,left
18.352,0.3246549872186794,0.9250705240417015,0.041711234492110304,3.7914602834837248,-4.871723025904172,0.005950596959010783,1.4122210517411427,0.7258140238691488,-4.247250155414706,1,left
18.352999999999998,0.3189792534059448,0.9446028921564227,0.011821120750844079,3.787864494002119,-4.848145948825817,0.04421122398321558,1.3905386254957128,0.8809566217085876,-4.151887316225503,1,left
18.357,0.31352232649371187,0.9573538145412591,-0.00973969662301174,3.7879518273291968,-4.848653337560797,0.043327910728338206,1.4191267808047412,0.6763298849516375,-4.277653158793152,1,left
18.357,0.31237404329236373,0.962639829815935,-0.016142378041864067,3.794833937400985,-4.894050298026146,-0.030125684498751235,1.5390770253648607,-0.1826309727605927,-4.80545318233582,1,left
18.358,0.3075125495012273,0.9770883188982085,-0.03360094688696857,3.777937347412413,-4.7826130913974385,0.15023363082605481,1.5676525703076476,-0.3872556994297067,-4.9311974081242305,1,left
18.363,0.29570361061988726,0.9986442019435646,-0.06369558178881683,3.805938881387032,-4.967358374394298,-0.1487622610496523,1.5459854970479632,-0.23210865565708402,-4.835863515333317,1,left
18.364,0.28493150493767966,1.0104652493507182,-0.08187335733148815,3.769019857019388,-4.723660262069631,0.24560567231446825,1.5590648299172858,-0.3257051108116943,-4.8933725100265235,1,left
18.367,0.2825604621017237,1.0151916106936425,-0.08821596302912146,3.6139696264342254,-3.700662163144269,1.9011901507127473,1.553720109183839,-0.28758079391586905,-4.869950024695926,1,left
18.368,0.2740264694885227,1.0285220971027456,-0.10572230000858415,3.5770885060398196,-3.456885510418922,2.295570790648122,1.5536867034078965,-0.28711783956380016,-4.869663199845356,1,left
18.368,0.25606482399601227,1.0449227063348252,-0.1266166647351794,3.605030654066333,-3.6417447626481425,1.9965643253865035,1.5564321769632101,-0.30700647102580164,-4.881884792715569,1,left
18.375999999999998,0.2425657765587619,1.0558295896119383,-0.1368634769083617,3.5881835561582918,-3.5302371787787052,2.1769071686313577,1.553111084113657,-0.2831246649508249,-4.867210185220327,1,left
18.375999999999998,0.2319587508307436,1.0636250930845361,-0.14395184366791428,3.59506751145038,-3.5755639846579865,2.103522355015409,1.5557491650534914,-0.30181446151862346,-4.87869561667997,1,left
18.377,0.22262956603476844,1.067471986818763,-0.14412860461811022,3.5950612279084475,-3.576363761733142,2.102506534910421,1.5542265688974068,-0.29156144560150565,-4.872391412859725,1,left
18.378,0.2175214440198855,1.0695591198465695,-0.13213145374106017,3.5916714405194177,-3.552254215374148,2.1409447516161313,1.5547543354758249,-0.29421814228139465,-4.874031533685448,1,left
18.382,0.2171371187747712,1.0704486137191882,-0.10936906550852118,3.595688534429889,-3.581205234274564,2.0949061795350827,1.5548714310957217,-0.2964361008458018,-4.875384436392894,1,left
18.383,0.22063308235612902,1.0720140754932994,-0.08245517701561819,3.5926212330119576,-3.5585603295572703,2.1307516189539273,1.5544311937021735,-0.29218287680163446,-4.872779258960637,1,left
18.387,0.22495176306469497,1.0780412433652002,-0.05449174028771331,3.594307779913027,-3.5707209462750837,2.1114159517392923,1.5550364618031378,-0.29650789861053806,-4.875436618307007,1,left
18.387999999999998,0.23050070712694942,1.0893188380971979,-0.02085060868555793,3.5936436497712156,-3.5683807063057964,2.1158834411334237,1.554254949208751,-0.2929540927233506,-4.873237851032297,1,left
18.391,0.23633029556694207,1.1083422105159533,0.010007145298805274,3.5939667024525295,-3.5639442032356192,2.1208741558427286,1.5552936457057567,-0.29572264354551603,-4.874974211069489,1,left
18.391,0.24033788084822255,1.1351669499685064,0.03176699135263839,3.593415316043731,-3.571611897956929,2.1122339210748358,1.554007153415584,-0.29347760495213604,-4.873541604204133,1,left
18.396,0.24670058576594814,1.1663402849073088,0.048671246693245525,3.594331410004428,-3.5637892401592204,2.1202706535657425,1.555282455879794,-0.2951810785593001,-4.874645654293882,1,left
18.397000000000002,0.2593516715215204,1.1991720064459386,0.05855964068071723,3.5935025450444638,-3.5693723656901004,2.1149202643060567,1.5546098822140058,-0.2946592968892229,-4.874290790977248,1,left
18.401,0.27611390115617185,1.2355367071676722,0.056946594743395695,3.593261586020212,-3.567880790115886,2.1173659481159195,1.5538301717010397,-0.29277161295290366,-4.873104808450967,1,left
18.401,0.2937920069641735,1.275005055189291,0.04280576295667153,3.595770716441235,-3.5639327802717515,2.116920941633876,1.5568739518999264,-0.2983803249693826,-4.876672555552382,1,left
18.406,0.30523018875557645,1.3111344660757185,0.01608616445880975,3.5901628568702373,-3.5737864895165394,2.11659377392804,1.5513159729982204,-0.28860555823504025,-4.8704381451064656,1,left
18.407,0.3079579072617067,1.3385071223781224,-0.020919875369718142,3.5985577162802143,-3.55927883652497,2.1167696453898213,1.5584219210370391,-0.3009311329981877,-4.878307720716488,1,left
18.410999999999998,0.3156437577705551,1.355110759665144,-0.060314256484424,3.5895701314600763,-3.5744890542601326,2.116996528280949,1.5525017324584693,-0.29073625752987375,-4.871791995139835,1,left
18.412,0.3234956962795632,1.3549597235102333,-0.09207320702470018,3.594762320715388,-3.565696566151909,2.1168695323482494,1.5526439751636367,-0.29086584705830615,-4.871888132729142,1,left
18.417,0.32244994463513255,1.3426796309665519,-0.11102716065099583,3.599325381857625,-3.5586890291405204,2.1158425047643883,1.5639812103135515,-0.31069492785446645,-4.884528706506268,1,left
18.418,0.3170523289524002,1.3250653860686488,-0.1147677443637819,3.579469295168799,-3.590100789620856,2.1191503448419446,1.5361400768698197,-0.26216864854976385,-4.853569267522662,1,left
18.421,0.28912513950503427,1.2871619418787303,-0.10357742854696417,3.616285944189496,-3.531807341317138,2.1130740684408393,1.5822950403157465,-0.34254842487034487,-4.904869268223802,1,left
18.421,0.2597250945087284,1.2562908889293163,-0.09388845014144702,3.5690055039500255,-3.606615300209259,2.1209535348299284,1.521416075308239,-0.23655559690228406,-4.837203329896704,1,left
18.426,0.2516416247107103,1.2498174519832799,-0.09154477654875141,3.6084793327978577,-3.544178387316073,2.1143391194677155,1.2658873941737592,0.2084549067554593,-4.553210376004933,1,left
18.427,0.2083394948026292,1.219070289348716,-0.07040997164418974,3.6074233002797427,-3.5459393955172005,2.1144250578974435,1.204996449584861,0.3144465373879469,-4.48549734495578,1,left
18.428,0.1398628190409894,1.1757123154246372,-0.03340145304451549,3.5321081885747345,-3.6647124745119437,2.127441186702038,1.2511680941779164,0.2340832850008693,-4.536861959487188,1,left
18.430999999999997,0.08460191644089549,1.147621745351997,0.0004999946787529724,3.7172097057718414,-3.372713875627117,2.0955150476131035,1.2233187138723038,0.28255611725867713,-4.505873505773776,1,left
18.432000000000002,0.011886614477761931,1.122695743179463,0.039436568797712,3.4103079124026365,-3.8568758896705875,2.148462781549048,1.2346401200115587,0.26283394143399225,-4.518444835973967,1,left
18.436,-0.03609046569760986,1.1136454785596681,0.06470208905097233,3.815105689208866,-3.2182609181660564,2.078595484710689,1.234834568620217,0.26254862187426864,-4.518756611592995,1,left
18.437,-0.04770433231848499,1.1137037941484098,0.06937440670021705,5.514297780008035,-0.5379497066984505,1.7851180433095677,1.228824997243255,0.27290730589993384,-4.511878339532028,1,left
18.438,-0.09843929305623164,1.1101778956945825,0.08279296216137946,5.919083065863193,0.10070352503583035,1.7152020326524162,1.2360381030245524,0.2604929033392191,-4.520175600544907,1,left
18.441,-0.1655788970973159,1.1173099262735646,0.09211619503296156,5.6122007914621586,-0.3835182973797714,1.7682259132199953,1.2304001784139125,0.27016804257584326,-4.513632845272284,1,left
18.442,-0.2215430700089956,1.132527596202915,0.08381064066894611,5.797286180276695,-0.09147022203553729,1.7362367894134623,1.233429620944766,0.26495348711498456,-4.517118637652444,1,left
18.445,-0.28510153198591637,1.148768067976282,0.07545739034906321,5.721970086652887,-0.21024044726859162,1.7492492644004451,1.232829717925514,0.2661183622009698,-4.516687417046982,1,left
18.445999999999998,-0.3462122583989668,1.1668424925918783,0.06933714442767668,5.720945459437909,-0.2120974227327025,1.7494574207700082,1.2317714921722107,0.2675750913654317,-4.514753544703162,1,left
18.45,-0.41476431760596,1.1833232365083992,0.06229458207599933,5.760350806705558,-0.1494509933334736,1.7425762117076935,1.2336005827174423,0.2650539701580704,-4.518091058886206,1,left
18.451,-0.49335146183347195,1.1953303210333734,0.05637870482259767,5.713167856098089,-0.22455742529777756,1.750835719646903,1.231752403368555,0.26745813115782047,-4.514436487742555,1,left
18.456,-0.5731481840661132,1.2012183273846466,0.055208460393916345,5.7498880350007004,-0.16596835549574895,1.7443830682382961,1.2330626180252389,0.2658255523947974,-4.517168473524296,1,left
18.456,-0.663055625848264,1.2062029093936286,0.06517056051704118,5.730073601162452,-0.19750826147534262,1.7478539919633702,1.2326893386528326,0.26648081472173807,-4.516764661722806,1,left
18.46,-0.7572018639682304,1.2161156720018411,0.08846705630195868,5.7347181513852235,-0.19074927728122085,1.7471435665787176,1.2318596088449056,0.26672312373162577,-4.513476170019408,1,left
18.46,-0.8457716402453996,1.2264535153678078,0.11978910417653474,5.739647517479879,-0.18115313399082877,1.745993155467548,1.2339633896927007,0.26580863910804214,-4.521222505240534,1,left
18.465,-0.9223297065679026,1.2363348737150797,0.1459580947696819,5.731112448455219,-0.1977481842173694,1.74798340330336,1.2308729813285435,0.26708856512797363,-4.509719415892501,1,left
18.465999999999998,-0.9733139432251202,1.244469496709443,0.1521936654360103,5.738952443927267,-0.18154127080836005,1.745995696016645,1.2341036619313377,0.2658360420075129,-4.521911547557178,1,left
18.471,-0.9922571361185087,1.2443177892612733,0.13575551084040677,5.733786351057493,-0.19274969566695527,1.747393176579259,1.2322359659873232,0.266559888592091,-4.514864979683617,1,left
18.472,-0.9766921141721688,1.2383761726632017,0.10837740913619884,5.736300563746214,-0.18881309228682222,1.7469632430425708,1.2307688056687507,0.2669403169786807,-4.508952089871297,1,left
18.475,-0.9275370230401843,1.228498122777412,0.0766305008712074,5.735237392448479,-0.1848097160332532,1.746209962538676,1.2373755276643599,0.2649627904535474,-4.535041692542094,1,left
18.475,-0.8492953574820794,1.2129155639978824,0.042426684942980665,5.7362853297294025,-0.19613389706627035,1.7481702314303855,1.2251132808317289,0.2686431198114604,-4.48664485284765,1,left
18.479,-0.7454541681808886,1.1956071564674011,0.013593295174253218,5.734403388940175,-0.17974610772754335,1.745300931213478,1.2408477150765433,0.26394073981029587,-4.548778910305212,1,left
18.48,-0.6381943027044297,1.180224152744388,-0.009486092502436715,5.736832507143735,-0.19654493630555714,1.748286439284899,1.2277159170620706,0.2678530570241747,-4.496907568542454,1,left
18.485,-0.5337854333542715,1.1692960022062884,-0.022865379961163175,5.735437286501524,-0.18683157098023168,1.746560344432343,1.2280891641990137,0.2677306362000553,-4.498338873605848,1,left
18.486,-0.43429938259145173,1.1657228879269594,-0.02646461661952566,5.7332798441761605,-0.17994540846494522,1.7452361386035473,1.2530583790783587,0.26035906723840263,-4.597150927335697,1,left
18.489,-0.35552175278741877,1.1683337476887274,-0.024291308243893014,5.741476321990408,-0.21200708158228043,1.7512441291425183,1.191669755501718,0.2784775236875474,-4.354248034822348,1,left
18.489,-0.2761543218012489,1.1716182682760428,-0.002444227715704612,5.726346916526108,-0.1524530533020227,1.7400910486883479,1.2934587550136423,0.2484540377261098,-4.757009136784729,1,left
18.494,-0.22261819874671085,1.1716415854758848,0.018243455440234216,5.745841774165619,-0.22879958538139128,1.754399326981467,1.1591975286160576,0.2880307676123764,-4.225752560657348,1,left
18.496,-0.2102743330548024,1.171157080764056,0.02398757879985218,5.729545887117267,-0.16511835763967572,1.742459219840062,0.5957051993092356,0.45418443659170993,-1.995961034433997,1,left
18.496,-0.16806705804366934,1.1677088069928936,0.05453548254822229,5.729852965253224,-0.16699747361193326,1.742801843150962,0.4614341497991972,0.4937064169344778,-1.4646555027064903,1,left
18.5,-0.11446965525135533,1.1593806032680314,0.09900293497102079,5.761432449560729,-0.28775965571441725,1.7654905964336582,0.5632385041179659,0.4637685117398329,-1.867493130278557,1,left
18.500999999999998,-0.08497652324471185,1.149874731799844,0.13527234374927422,5.683959554350392,0.00917557580903848,1.7097067577528138,0.5018371801212762,0.481816181547166,-1.6245269367538797,1,left
18.505,-0.048062790723701294,1.12871315518323,0.17829254931306432,5.81236681292674,-0.48314386751605654,1.8022012255378073,0.5268056573639373,0.474440501953062,-1.7233353261211226,1,left
18.506,-0.024751814374408022,1.108238686533685,0.20335256707067703,5.643028306898717,0.16618401305593938,1.6802020245918463,0.5272035509313542,0.4744554481623603,-1.7248894444686231,1,left
18.506,-0.01877240373514806,1.101787723431096,0.21017067802744993,4.931353298430066,2.8913315935321524,1.1681982297540143,0.5140179527786393,0.47806790895469115,-1.6727499969131867,1,left
18.509,0.006745530160932087,1.0792902934447173,0.23633859832839083,4.762069767930937,3.540602837917708,1.0461989226883803,0.5298290229518894,0.47379266205937126,-1.735265975219193,1,left
18.51,0.04088839899925131,1.0447857904239548,0.26871157664799566,4.890435905557006,3.0483736659064258,1.1386903343851853,0.5174908810384812,0.47704998636960205,-1.6864908860399268,1,left
18.514,0.07242506115666607,1.0185301614806368,0.29408575467827197,4.812875360418758,3.3452295031757213,1.082917770772108,0.5241304856682188,0.47525573488486,-1.7127444094754767,1,left
18.515,0.1085389673189594,0.9883289688917185,0.31943591598807186,4.844786205870206,3.2244757853734507,1.105582988666169,0.5227271737726682,0.4759920210100842,-1.7071496414129048,1,left
18.518,0.14566923092996564,0.9560505231040776,0.3380473758078788,4.8444698810194655,3.2227199042863672,1.105960782455136,0.5206530991763023,0.47556561276334575,-1.699074646978974,1,left
18.519000000000002,0.18752762998456873,0.9282770265668675,0.3508509500876389,4.828996120350038,3.286111190470076,1.0939826329567652,0.5242393680726103,0.47629497145527927,-1.7130388345698124,1,left
18.524,0.23342963754096727,0.9001351323986742,0.3588369336202234,4.847761885332725,3.2101948443978428,1.1083133226674429,0.5207126736786105,0.475143239584278,-1.6993614431412722,1,left
18.525,0.2759107564406177,0.8729618655379361,0.3612085397441604,4.832780725537861,3.269300545837918,1.0971793024777163,0.5231642201438724,0.4761670480283289,-1.7088410639616747,1,left
18.528,0.31826441071228434,0.8504741738387693,0.35877002727543506,4.841986598823555,3.2374748409523324,1.1031018433103605,0.5223375527677356,0.4764264089089255,-1.7055675147522333,1,left
18.53,0.35845106552264294,0.8297306920369084,0.34711664569323875,4.837237012794622,3.2446422769365313,1.1019390059798937,0.521319167304943,0.4734861712514938,-1.701949190039909,1,left
18.533,0.39595975091701385,0.8114490361061395,0.32889428001240095,4.839933880032536,3.2532798879137528,1.0999995112503242,0.5241036142940557,0.4800702595264642,-1.7120277411155043,1,left
18.534000000000002,0.43842020212990157,0.8009350753626234,0.3049586126529641,4.837738354709654,3.2384288537024126,1.1031782816682505,0.5200562098237859,0.47021696556117226,-1.6974132715721884,1,left
18.538,0.4791666957535385,0.7960059281362495,0.2726710264338711,4.838949947194605,3.25232652239713,1.1002574025318472,0.5242296162975262,0.4807619974822866,-1.7124343157366666,1,left
18.539,0.5244970466495267,0.796015119866281,0.23143918718654072,4.841391286139429,3.2431372105819154,1.1019813108354948,0.5218170226623465,0.47467004419759184,-1.7037496207324982,1,left
18.543,0.5746917643710493,0.811325510732653,0.17883203484215449,4.831454595483711,3.2468140589116974,1.1018648207477466,0.5200490783720886,0.46932490194599336,-1.697499344018801,1,left
18.544,0.6230684175506944,0.8436162168845205,0.10994175955295275,4.85176932221723,3.2475827057460176,1.1004076726589738,0.5281892587349322,0.49259511177361187,-1.7264526603335946,1,left
18.548,0.6850259845832012,0.8863930029552597,0.023081278701340666,4.822035752229235,3.244240001373269,1.1029942328782076,0.5130739251358852,0.44944764528503456,-1.6726799564297226,1,left
18.549,0.7373008137426931,0.9437125039163137,-0.07202440691644242,4.853627418722315,3.2482117831698716,1.100159989963987,0.5324559700657625,0.5048573112013899,-1.7416229487080823,1,left
18.552,0.7876650448446259,0.9989675243172549,-0.18634201654068167,4.835538774367045,3.2452717368348405,1.1019191473997807,0.5162879394815978,0.45859719861119275,-1.6841142986967315,1,left
18.553,0.8185555943381292,1.0561210472441402,-0.3105791991141248,4.819122250941907,3.2459349950108605,1.1028337887659783,0.5167555019268391,0.4598346166947226,-1.6857972453360976,1,left
18.557000000000002,0.8085740767465007,1.1224240626012874,-0.41856034953051235,4.889625823565092,3.2482649389036546,1.097845638289299,0.547451539449503,0.5480968644310173,-1.7949085507253049,1,left
18.558,0.7846202420340999,1.1713043036436144,-0.503811990144428,4.759112848422033,3.2430010412621666,1.1072742572995375,0.4719852531380547,0.3311760719371403,-1.5266351818985608,1,left
18.562,0.6486838164837094,1.2305588448450737,-0.5184284387199025,4.926652824345482,3.24996982577588,1.095127185803222,0.5971054968539995,0.6908348372355492,-1.971429955788571,1,left
