time,gFx,gFy,gFz,ax,ay,az,wx,wy,wz,subject_number,foot
5.169,1.114356503306999,1.5453851955769422,0.6452401929175886,-8.709817564285899,0.06600089424378827,1.6676069099941464,0.0933953655505696,0.6092900908892096,-1.6906612804435392,3,right
5.17,1.3500487752396566,1.6386765715518665,0.72143448118319,-7.636108060740213,0.3278921065393924,1.6612084263294413,0.2068086430513379,0.47795633752968825,-0.8504000994193499,3,right
5.172999999999999,1.38405106529828,1.65845767567652,0.7256472073754098,-3.128569563419582,1.4267085522474217,1.6340844694227454,0.13839159714595417,0.5573000139316884,-1.3572609745266115,3,right
5.1739999999999995,1.5954422595030564,1.763992709152378,0.7531102284474669,-2.0549375376479686,1.6886150705006253,1.6277127632719752,0.16624867188380738,0.524830336856976,-1.1509274553716744,3,right
5.1739999999999995,1.8713766102893805,1.9056478889965673,0.7459949411952614,-2.8689295802271033,1.4900643465878067,1.6325498297560617,0.16661427454267266,0.5246342965829078,-1.1481592127624705,3,right
5.178,2.038188649995254,1.9900676557606716,0.6726836502441841,-2.3778892716621867,1.6098081668256514,1.6295979626273986,0.15203327977519276,0.5414116091414626,-1.2562156880711628,3,right
5.178999999999999,2.149390230063974,2.046112683797376,0.5848704661688284,-2.5779399708476203,1.5610792402425822,1.630883722357877,0.16953850943785476,0.5209591620863039,-1.1265698549208667,3,right
5.183,2.115433076790118,2.0549428259870197,0.49474076435573205,-2.5801980237204964,1.560424801196479,1.6307199606561067,0.15584537491139983,0.5374285213819205,-1.2278591551505709,3,right
5.183,1.9454414011112469,2.0284596446820355,0.42850022646445013,-2.4762369776346187,1.585910215377405,1.6303429913934377,0.16332305004870906,0.5277034150122822,-1.1727383228667692,3,right
5.189,1.6586304970579684,1.9755191286865295,0.378724167659626,-2.6009384911595155,1.5553761706808045,1.6308497127914103,0.161477887720608,0.5311528564719836,-1.1860639080750905,3,right
5.19,1.2776689248625588,1.898725941887971,0.3231606692463923,-2.5035457906642655,1.579179413009745,1.630369180908826,0.15966581180386696,0.5322024720467794,-1.1997648232079379,3,right
5.193,0.875337503479912,1.813004000026806,0.2568667163481666,-2.556913180605737,1.5662601040731075,1.6308910511783616,0.1630346182568171,0.5282948274263857,-1.174807728273656,3,right
5.193,0.49046764191992687,1.7228914198729028,0.16371652156804906,-2.5427231546163407,1.5694132911238508,1.6301557888420126,0.15962751597894717,0.5341803916418552,-1.1995403616093223,3,right
5.1979999999999995,0.16635827711986773,1.6416342017150076,0.03734026590122799,-2.532451640609377,1.5724450583965626,1.631213069912048,0.16231191463757894,0.5266338393147303,-1.1808185676852916,3,right
5.199,-0.08165598346331535,1.564025519609529,-0.10598849080234482,-2.552093322288691,1.5670106279684963,1.629958830599798,0.16053975502602896,0.5353088638256798,-1.192207647241692,3,right
5.202000000000001,-0.2610534696084306,1.4861258422070542,-0.23601776353667542,-2.5330281154837406,1.572172924575411,1.6309378843245805,0.1614455196485715,0.5271984351911272,-1.1873526082805435,3,right
5.202999999999999,-0.38880393376582667,1.408737762757662,-0.31728028115759477,-2.5482622599833284,1.5684618559805283,1.631038735782058,0.16142420049680245,0.5313049827617188,-1.1864383437069346,3,right
5.207999999999999,-0.494491545639412,1.3235895069155794,-0.3391769653262174,-2.534907013667195,1.570770074656711,1.6289311663867547,0.16034864072703592,0.5360641370266035,-1.1934827335542146,3,right
5.209,-0.6026754495727353,1.232038514226323,-0.3228822016864227,-2.5502567486187444,1.5691947753202564,1.6336566142609246,0.16282417314104408,0.5178095403215865,-1.1791869405714412,3,right
5.212000000000001,-0.7258282216110341,1.1338609041092016,-0.286340241788119,-2.5309911359498294,1.5706589984231092,1.626628963843424,0.15888390913365177,0.5509136032794831,-1.2008782169968117,3,right
5.212999999999999,-0.8590342772417843,1.0279337033271942,-0.24813266663963668,-2.550852309381889,1.5692630099138816,1.6341165023509998,0.16365464237314917,0.5087368335730387,-1.1751648211337686,3,right
5.218,-0.9939344105608124,0.9199271599735864,-0.22529528969792606,-2.5404443449010845,1.5698088449458707,1.6297964990452332,0.15979530737430175,0.5438106597269756,-1.1957167684864736,3,right
5.218999999999999,-1.1061988462783696,0.8092364619634523,-0.21463891745910946,-2.5261818689866145,1.5715711022184897,1.626041321108591,0.15979272849059373,0.5429724153608559,-1.1959530468719208,3,right
5.223,-1.1772779855185114,0.7026971238115269,-0.2023432830303904,-2.579942472931547,1.5659731734652693,1.6424247592347556,0.16735011944378234,0.4758947464894127,-1.1552957380159672,3,right
5.224,-1.2077924057574854,0.6073930382960544,-0.18725321703196185,-2.481804419409455,1.5759726906068368,1.6120505514563122,0.1489669368554925,0.6405671787823364,-1.2538052008641385,3,right
5.227,-1.1916025464366844,0.5206818758304006,-0.18947021354608146,-2.6074698999716333,1.563218888540267,1.6510507495251237,0.17935519228716323,0.3676194810283093,-1.0911521453995796,3,right
5.228,-1.1665056551857889,0.469485070093385,-0.1985555784294112,-2.50269679939427,1.5738310067040011,1.6184917740928675,0.13931838490312867,0.7276036581034027,-1.3053569634076947,3,right
5.232,-1.15755613890738,0.4591915319413959,-0.20316676601646622,-2.5049953009966996,1.5736784039762521,1.6193709794927962,-0.028724233935658847,2.2383926774306113,-2.2043860071578067,3,right
5.232,-1.1268822083043701,0.4400430312970952,-0.22426879211756684,-2.7065466907122344,1.5530031309851697,1.681462262270137,-0.06873585845251559,2.5983812278525944,-2.4184054172214546,3,right
5.233,-1.0855716487932932,0.42906696878536993,-0.2533466171384864,-2.2117835844224905,1.6036601550531975,1.5288507127828361,-0.03840336346191821,2.3254617965994746,-2.256164224507728,3,right
5.236000000000001,-1.063955072331754,0.47697931471984156,-0.2816520382848166,-3.031972543771574,1.5197120464617102,1.7818889730154202,-0.05669591033149524,2.490015548688694,-2.3540016794755596,3,right
5.2379999999999995,-1.054439807905256,0.5204587977537135,-0.30037328198445845,-1.9501419611402169,1.6304319303307355,1.4481298257109532,-0.04925635962252729,2.423194536661818,-2.314221666412121,3,right
5.2410000000000005,-1.0564466202944922,0.5353925311001302,-0.30456375806821673,2.5916041239699807,2.0953665705226348,0.04717321730530638,-0.049144490698845744,2.4219650371362826,-2.3136009343965753,3,right
5.242000000000001,-1.0764447577482077,0.6009173367914945,-0.32663346593821524,3.67356570785811,2.2060890484574682,-0.2865974117422331,-0.05305655873437143,2.457470969796918,-2.3345565742945373,3,right
5.242999999999999,-1.1160837987584227,0.6891747472284391,-0.36572561525560976,2.8531928591023297,2.1221480429098354,-0.033539119095198654,-0.048372408843256165,2.415024879796391,-2.3094717433913283,3,right
5.246,-1.1699055065217374,0.7460584226124828,-0.40501453612753147,3.3480513715971005,2.172768899375394,-0.18617289838469375,-0.05201703391027125,2.4479462541039476,-2.328978196083205,3,right
5.247000000000001,-1.2269261546320536,0.7804714657011801,-0.4490347045180322,3.1466623088521124,2.1521752981882405,-0.12406725320365719,-0.05006226412660722,2.430611622535328,-2.3185518705335193,3,right
5.251,-1.2718932201543405,0.7799215419860561,-0.49272325542247514,3.1438088934314985,2.151895311591155,-0.12318182609209295,-0.050484192324924904,2.433592214925497,-2.320717685247433,3,right
5.252000000000001,-1.2947757693720727,0.7542633377068964,-0.5249409645367277,3.249542278783374,2.1626513663325806,-0.1557794456824364,-0.051050365577587534,2.4400904934351075,-2.323901929735131,3,right
5.256,-1.2971902346403599,0.7259624437363592,-0.5309048109825276,3.1227148746173667,2.149802584691172,-0.1167036358063296,-0.05009358224264953,2.4297595946574635,-2.318593224445749,3,right
5.257000000000001,-1.2808273123038068,0.6999231171783888,-0.5051705717632853,3.2217362480692913,2.1597532901423557,-0.14717942377546633,-0.050983186185328884,2.4391364715125707,-2.323503724517441,3,right
5.2620000000000005,-1.2536273667103544,0.6882121349510806,-0.4567042104632615,3.1680931893962594,2.154443841245514,-0.1307020147674127,-0.05041729666515758,2.434056933112256,-2.320478619985414,3,right
5.263,-1.2226837893616116,0.6991388335133697,-0.39811259670999444,3.1804628867351616,2.1556327672765074,-0.13448656098922718,-0.05058196423223698,2.4329923749530247,-2.3210759284018874,3,right
5.266,-1.1905431580335946,0.7322914153984531,-0.34391926320700067,3.1949915624619463,2.1569644541049433,-0.13891109969380283,-0.050770753106200446,2.440509804929455,-2.3227330887519178,3,right
5.267,-1.1663274561317092,0.7839537625607932,-0.30187465783172995,3.169160986066884,2.1548184820028,-0.1311305852289638,-0.05035378738394796,2.4280774601495274,-2.3195372483374364,3,right
5.271,-1.149815678362592,0.8502436711735584,-0.2713280814970102,3.1945478371364957,2.1565604155225784,-0.1386377104006532,-0.05082345865788318,2.4415573148801073,-2.32307860379694,3,right
5.272,-1.1398111505600919,0.9272212318405533,-0.2509525996119373,3.17611820454261,2.155724437514773,-0.13335069048452874,-0.05051232306400117,2.4334104921819675,-2.3208199836336796,3,right
5.276,-1.129656201803483,1.008923483028549,-0.2330855353107671,3.185302367497168,2.1558274689526638,-0.13586614950557868,-0.050441151981848086,2.428162001594794,-2.3199261110205476,3,right
5.277,-1.111237374584144,1.0858739952720458,-0.2073990991190185,3.1852902398888245,2.1558184482446645,-0.1358602664998686,-0.05107507715184072,2.454036062287556,-2.3255612080458588,3,right
5.281000000000001,-1.089779338767747,1.1522202398532437,-0.16938761830168403,3.17707900969933,2.156531661911529,-0.133914959358145,-0.049841334957163266,2.405528204774325,-2.3148006171395936,3,right
5.282,-1.0483914030308878,1.207758688543473,-0.10982256149215902,3.192123417786634,2.154521540042885,-0.13721176865348303,-0.051438459418869174,2.4679323108627127,-2.3286863473476496,3,right
5.2860000000000005,-0.9933834391244609,1.2535334960550601,-0.031874219952342804,3.1727449019166034,2.1578336029784926,-0.13323970141194663,-0.050099998934563836,2.4157864949170222,-2.3170674352652973,3,right
5.287000000000001,-0.9273475681275909,1.2880425540385683,0.06612883953953108,3.1916120963724577,2.1541199934576776,-0.13692087838236655,-0.05015608783130136,2.417380980300416,-2.3174861280573484,3,right
5.29,-0.8430889455219188,1.3128084310334458,0.1833569698452706,3.1812800837374713,2.156323379325652,-0.1349707751778994,-0.05264271056190187,2.516212227041084,-2.339295292522496,3,right
5.291,-0.75954898122629,1.3301562496801402,0.2944559437989318,3.172623250746545,2.158250211382976,-0.13336291285277796,-0.04650787134997669,2.2730811067384256,-2.285571971351981,3,right
5.295,-0.642305407997025,1.3316992096325677,0.40445981430611383,3.209843701644095,2.1497533666434814,-0.1401862133248407,-0.056685195796776805,2.6762596319915897,-2.3746739096913076,3,right
5.296,-0.5520165795878775,1.3254398390127236,0.474645989421193,3.141467156988334,2.1655755908965224,-0.12773593553085294,-0.043261559419095305,2.1444642391563216,-2.2571531015875546,3,right
5.3,-0.5266234668248754,1.3222847850028066,0.48691760944091905,3.228819690876103,2.1452151083593747,-0.14358162792364593,0.01306269913856048,-0.08747079914468103,-1.7639391997805804,3,right
5.301,-0.4390575640753339,1.3123606258246099,0.5284222118369925,3.1560782801845226,2.1622294217573668,-0.13041503964784495,0.026482674168849276,-0.6192451188072452,-1.6464431229097678,3,right
5.301,-0.3041356151238044,1.2910921703883618,0.5689314315468034,3.158108648778242,2.1617812400578256,-0.1307780588721781,0.01630931134874151,-0.21608939152062331,-1.7355183044572804,3,right
5.306,-0.19025837170421378,1.2649688971355864,0.5636042438121276,3.2963080768278603,2.1292720411114274,-0.1557588678818965,0.022445656160104445,-0.4592291897710525,-1.68178480376652,3,right
5.307,-0.0763429312792118,1.2374581653372072,0.5531558820630369,2.9566756862909225,2.209168573219718,-0.09439677215080457,0.019945895410511387,-0.36032230066542975,-1.7036827313056455,3,right
5.31,0.044375822878166375,1.1985204451795926,0.5084869087370097,3.5197244736103865,2.076696443417221,-0.19609812100072863,0.01991807601295155,-0.3588905603822473,-1.7039104430581575,3,right
5.31,0.12153130658458564,1.1700616300982452,0.4660752199676072,2.7771258167940527,2.2514266545340087,-0.06198508496378061,0.02121600265614452,-0.4108030400807656,-1.6925653558991884,3,right
5.311,0.14204174879106657,1.1617076082999755,0.45500777742131204,-0.33855190424187454,2.9851702292756177,0.5008921956514496,0.01965924283549159,-0.3486312792009205,-1.7061784175374601,3,right
5.314,0.19415753083428824,1.1282449223174422,0.3979610820093841,-1.0810246790622513,3.159919674827639,0.634979707709697,0.020875565843395207,-0.3970389007671261,-1.6955354708270782,3,right
5.315,0.2512512961921477,1.0821416516756108,0.3151257465317319,-0.5182997574411324,3.0273855954303874,0.5333179329602904,0.020206985058669177,-0.3709652840215318,-1.7014047282110167,3,right
5.319,0.25696728137342506,1.0474321382231757,0.24573582104163944,-0.8573192174457848,3.1074199287473068,0.5946481733450528,0.020389801649743154,-0.3768565331502805,-1.6997565896036266,3,right
5.32,0.2463286688165834,1.0075725044969561,0.17843274119710764,-0.720038417891272,3.0746793522635345,0.5696630869642145,0.020508561626367956,-0.3838958940563376,-1.6987975843393017,3,right
5.325,0.21114720788665176,0.9732098508307272,0.12528222463962696,-0.7169470225554564,3.074528317595727,0.569367611493806,0.020274989506843352,-0.3717751320580986,-1.7007440048442606,3,right
5.3260000000000005,0.15120330760509537,0.9511924385753046,0.08410723031191007,-0.7904767451887782,3.0912772588777138,0.5823906441827686,0.020503716659071247,-0.3831240033127562,-1.6988196954617991,3,right
5.33,0.08087170510788264,0.9367979305182967,0.05227609374565253,-0.7032548061270675,3.0709803296373694,0.5667462575127815,0.020313270673148656,-0.3755967775958221,-1.7004882529871055,3,right
5.331,0.0005495647900642768,0.9326381627634307,0.028044053713448126,-0.7698747444014278,3.0871478318394043,0.5790012999400946,0.020497877621845136,-0.3786722983612798,-1.6987257830054194,3,right
5.334,-0.08443065593344913,0.939104879458278,0.0035742369105630414,-0.7364600303593192,3.077737615610026,0.5722548859696349,0.020265521225321062,-0.3791563723106063,-1.7010934411372602,3,right
5.335,-0.1730883508450364,0.9543326819827718,-0.02023698915414531,-0.7395975390937786,3.0811292351334005,0.5740446661965618,0.020566801527671992,-0.3766349794502426,-1.69795890113335,3,right
5.3389999999999995,-0.25862108281253526,0.9723318674595673,-0.04987611370486194,-0.7556134613196812,3.081647469650009,0.5754375333692916,0.020254033987621795,-0.3796580146874815,-1.7012263091275377,3,right
5.34,-0.34143944077279575,0.99047952481914,-0.08536255691091285,-0.7338336173167678,3.0791112335009525,0.5726989343913806,0.020421470141812205,-0.3773817525150758,-1.699455464383546,3,right
5.346,-0.42296671758197646,1.0072796503694676,-0.11991304148854867,-0.7494649542434421,3.0828153788864423,0.5755333876830362,0.020631736719909987,-0.37804216130639723,-1.6973492599949518,3,right
5.347,-0.49912642586635453,1.0224369294812956,-0.15281129954971517,-0.7483585529317276,3.0777451054912257,0.5731147141839684,0.0198193232743908,-0.3794452328831039,-1.705617954594429,3,right
5.35,-0.5704944712970645,1.035612637222362,-0.17846802224095953,-0.7314722208644011,3.0847595136432453,0.5751346002703723,0.021306605627876035,-0.37606774202799803,-1.6904550760371553,3,right
5.35,-0.6358764700653893,1.0439590307124922,-0.19264972070553418,-0.7634998307514544,3.0759057383877284,0.5733565103704246,0.019401052191180036,-0.3805794424884914,-1.7098861917908232,3,right
5.355,-0.6939465874295095,1.0497257473167039,-0.1997094525287963,-0.726857533022043,3.0847546781269344,0.5747999807008084,0.020990412532596925,-0.37674085904748933,-1.6936802106826798,3,right
5.356,-0.7400421641814654,1.0532787770622214,-0.20010353336446426,-0.7497044054869222,3.0800369748824634,0.5742691094630893,0.02095354585708696,-0.37711849017048427,-1.6940579700480882,3,right
5.359,-0.7683828427935302,1.0547799186011568,-0.1998672639762577,-0.7641909334468444,3.0747415572868975,0.5728688611327921,0.017902188636101712,-0.3835431948840163,-1.7251581569008296,3,right
5.359,-0.7813066840086869,1.0557255070316431,-0.20677345150862866,-0.6911854776696897,3.095649985745504,0.5772579390951391,0.02539536253844614,-0.36742634092575555,-1.6487904715443837,3,right
5.364,-0.7716903136237474,1.053911871703253,-0.21115348242922294,-0.8288406750267416,3.0574107873694354,0.5695293245030977,0.01297239068922552,-0.394236575189209,-1.77539158991847,3,right
5.365,-0.7533690252019436,1.0526694112504327,-0.2111248688763872,-0.651273226110807,3.1063186030107746,0.5793049801477499,0.029359088297124313,-0.358861726541699,-1.6084086617790003,3,right
5.367999999999999,-0.7483043557044269,1.0520769242400527,-0.2088057688920115,-0.7998496539720055,3.0655697001799345,0.5712066730351474,0.09814010868867223,-0.2108308768876589,-0.9073927313213866,3,right
5.369,-0.7093169154936096,1.0464263122463113,-0.20341014459336648,-0.7953228482775925,3.066546471291543,0.571328634119598,0.11452938597818312,-0.17547979005727965,-0.7404053274809308,3,right
5.37,-0.6384051571593665,1.038408677206131,-0.20446869354359604,-0.5133679485799519,3.144581857279074,0.5870289370190518,0.1021036228814596,-0.20226431218816654,-0.8670112902630673,3,right
5.372999999999999,-0.568984144946322,1.0318516240164282,-0.20390449817619202,-1.2070955252981175,2.952963157465283,0.5485805387591376,0.1095957359726486,-0.18613769244239228,-0.790645439571492,3,right
5.374,-0.4573027953077084,1.0282561209182282,-0.1976087322939334,-0.056609252942718236,3.2706064279636538,0.6122760421194502,0.10655363544488186,-0.19264765055339678,-0.8217295782340512,3,right
5.377999999999999,-0.3745227997835587,1.0272943905788046,-0.19728315877697528,-1.5741723170938624,2.8516620217449278,0.528281910172157,0.10649685085588209,-0.1928418317297477,-0.8221418770089335,3,right
5.379,-0.35384927496682034,1.0265935661934296,-0.19763051881512309,-7.944524360102173,1.0930377071688444,0.1756179251175515,0.10811477021973509,-0.1892662914971352,-0.8058863656282209,3,right
5.379,-0.27083544968059814,1.026853867054703,-0.19907041649598647,-9.462134667268867,0.6740971540675945,0.09162613262212502,0.10618077698744896,-0.193516039318348,-0.8253668128997229,3,right
5.382999999999999,-0.15274508645640894,1.0270135464098735,-0.20750286882806032,-8.311434181416736,0.991722954562334,0.15531103061810134,0.10768033238604435,-0.19025160681477862,-0.8101826306873121,3,right
5.382999999999999,-0.05786329253536263,1.0279452223020176,-0.2175924988608528,-9.00572002119154,0.8001497823559136,0.11689026882662425,0.10689233637907292,-0.19187954959599193,-0.8184090052544457,3,right
5.391,0.04083864090896074,1.0300149500997264,-0.22696455045463895,-8.722743679535942,0.878101868396379,0.1325400078324454,0.10702394055553743,-0.1918154651096382,-0.8164391967243916,3,right
5.392,0.13038511931803712,1.0294958953517392,-0.23272451934599864,-8.719618981557872,0.8791929823249606,0.13273137477095756,0.10732691931397836,-0.1907876036004284,-0.8144332957603011,3,right
5.393,0.20892140731893818,1.0272904487097994,-0.23054161647069304,-8.866822079939123,0.838332084726238,0.12456508878277886,0.10684780278480763,-0.19227846566917844,-0.8179892195976235,3,right
5.393,0.27740737316969444,1.0226887882000386,-0.22242661997880506,-8.68982649890279,0.8872865339579232,0.13436904706679562,0.10728171082910237,-0.1909787033967264,-0.8146245967562342,3,right
5.398,0.3326791024075929,1.0156935809554284,-0.21138408272676798,-8.82871249432818,0.849147711816707,0.1267013662819049,0.10705052188138121,-0.19147341521583167,-0.8169903519403152,3,right
5.399,0.3784624224918187,1.0086235153127028,-0.1994202313204631,-8.751811349484932,0.8697384402503159,0.13089759513706328,0.10698903998904727,-0.1922824831057548,-0.8156545166745002,3,right
5.402,0.41129147035147995,1.0024261515261554,-0.1861497627158798,-8.77298972436058,0.8649887493559247,0.12982860485280084,0.10736101511344909,-0.18993530740237732,-0.8163478044522552,3,right
5.403,0.43534265558495555,0.9998564100514483,-0.1683438890526947,-8.78763155632983,0.8596019219978357,0.12889158035926318,0.10675068026888851,-0.19355602352929618,-0.8158786536181031,3,right
5.4079999999999995,0.44493333082585945,0.9999618392150575,-0.15183756402137782,-8.757527212677223,0.8689840268739344,0.13065866669589477,0.10741159406852363,-0.1896741028801563,-0.8162735775106519,3,right
5.409,0.437548370650751,1.0012670158369863,-0.14196116990429497,-8.78961928622214,0.8601355256928767,0.1288838038463893,0.10701348220972998,-0.19195236057586373,-0.8162114654816203,3,right
5.412000000000001,0.42302649064310766,1.0030128812919918,-0.13183731574326785,-8.760584105868835,0.8661591654389562,0.13030226235564935,0.10675085429750658,-0.19374155642980143,-0.8153351056118412,3,right
5.414,0.4020616953917464,1.0059535944923255,-0.11886329848469465,-8.787234032811186,0.8633524575496953,0.12925759785041493,0.1080319878081061,-0.18562498676616512,-0.8178238167984959,3,right
5.417000000000001,0.37214998286388057,1.0117510467706805,-0.11024763771499546,-8.761460507395562,0.8636800067203289,0.1300424568459896,0.10563244664860383,-0.2007292013412666,-0.8134513240449002,3,right
5.417999999999999,0.336980712023362,1.0166928137894229,-0.11010986578714634,-8.783817627485718,0.864743139768392,0.12948863214192852,0.10871873327779531,-0.18132252638788798,-0.8190116240667509,3,right
5.4239999999999995,0.3007934719832538,1.021967855314632,-0.11160185897991212,-8.77433331481608,0.8631818861869753,0.12961934578890277,0.10614026462702167,-0.19752979951000954,-0.8143911373814838,3,right
5.425,0.25769014899829645,1.0282129967181135,-0.10657420817444606,-8.755482052482865,0.8647801911523401,0.1303204492567307,0.10621771293311294,-0.1970709475045499,-0.8144327655130921,3,right
5.4270000000000005,0.21503649207590703,1.0309488109117786,-0.09449700082034859,-8.818286645574664,0.8632168596121317,0.1283372158006626,0.11110862533669941,-0.16623118305529033,-0.8235179951395333,3,right
5.428,0.18024401056098627,1.0305200626515636,-0.08326102718585102,-8.706472125328624,0.8648328031012782,0.1317594542199167,0.09907889719010923,-0.24205721717882345,-0.8012847799499199,3,right
5.433,0.13533486534047723,1.0253421233912186,-0.07874672724438476,-8.84836404367283,0.863220282865885,0.12745625304885905,0.11902624645951596,-0.11632529486438165,-0.8381247957542499,3,right
5.434,0.10611835615105725,1.0189914952007109,-0.0756315272368261,-8.73062485236916,0.8643712314307436,0.13101198377152423,0.09271661496257856,-0.28216898620361025,-0.7895329377778266,3,right
5.437,0.09834840462466846,1.0171279607329078,-0.07551941323580974,-8.732694532192909,0.8646408580806485,0.1309705741686869,-0.0177174584077918,-0.9782298204018743,-0.5854714527734911,3,right
5.438,0.06780758379998678,1.0143987499028082,-0.07807267861532174,-8.960164063689641,0.8616460809537247,0.12404321440285289,-0.04402438036139208,-1.1440773441692451,-0.536865490622889,3,right
5.438,0.0333059334011814,1.0067870876326226,-0.07968698845960298,-8.402702428712779,0.8685721035205514,0.1409937194077335,-0.02407996274971888,-1.0183412811387273,-0.5737207652508041,3,right
5.441,0.004536151504774348,0.9971838057488802,-0.09030667122921188,-9.32636381575804,0.8572522204968168,0.11291344555755356,-0.03611080546938619,-1.0941657179809499,-0.5514933572738161,3,right
5.442,-0.019145200853392295,0.9931962131542063,-0.10021562181429466,-8.10831540626473,0.8721240283329759,0.1499478004217758,-0.03121016964553387,-1.0633397494156624,-0.560527961673782,3,right
5.447,-0.023981736078476822,0.9917678547619121,-0.10279409922680352,-2.9942612508031057,0.9347764515340439,0.30534787647674155,-0.031153643027451078,-1.0628512417454874,-0.5606785115839278,3,right
5.4479999999999995,-0.04173712161500241,0.9851719343376228,-0.11250172381087262,-1.7763161365844216,0.94963890317334,0.34239455191796603,-0.03370211380518701,-1.0791010127185565,-0.5559018570030971,3,right
5.449,-0.06796599415825147,0.9803636666371606,-0.1207980273553925,-2.6997395111303875,0.9383639969824549,0.31430793757500575,-0.030645699318877596,-1.0596520466991137,-0.561617662868789,3,right
5.4510000000000005,-0.08117603491110414,0.977400606780305,-0.12552909677609353,-2.142682565006403,0.9451704156331189,0.3312286155165227,-0.03303235023312075,-1.0747744572290996,-0.5571780811170343,3,right
5.452000000000001,-0.09228599953508605,0.9725528188022795,-0.13628036226032236,-2.369600876290291,0.9423965725276156,0.3243965122060014,-0.03172556739539906,-1.0666943228951589,-0.5595332371165513,3,right
5.457000000000001,-0.0995198835489016,0.9698281978426962,-0.1499797477194673,-2.372240668911407,0.9423608611900707,0.32418424376436783,-0.03207082266517822,-1.0683663561239876,-0.5590870598785561,3,right
5.457000000000001,-0.0983403926460555,0.968043159823322,-0.16310235991981892,-2.2541771530993895,0.9438134751405269,0.32795765262212917,-0.03232656200860036,-1.0708463731552276,-0.5582837454910577,3,right
5.461,-0.08976388547775613,0.9661201084875527,-0.16973940670106502,-2.3957761021495383,0.94207059458666,0.3234717881099556,-0.03184037721998686,-1.066716967218005,-0.5595882888787537,3,right
5.462000000000001,-0.07748776571112934,0.9629019538736305,-0.17467282151767877,-2.2852317474794823,0.9434270372336614,0.32690952256824984,-0.03231140634260456,-1.070534805320051,-0.5583939779006922,3,right
5.466,-0.06011121174764302,0.9568828671815931,-0.18138779593442061,-2.345652436578508,0.942703207417678,0.32522904800908276,-0.031938197397601564,-1.0681898126974647,-0.559080728596197,3,right
5.468,-0.037343802969712875,0.9519089404796529,-0.18500430828846656,-2.3299463579849022,0.9428489257260797,0.3252058917863315,-0.03225817644348759,-1.0686320961641596,-0.5590907704244863,3,right
5.472,-0.017294441308547695,0.9481581663852667,-0.19204735355223485,-2.3176168339323384,0.9430799320806995,0.32644203068062555,-0.03189859958722191,-1.069964258791945,-0.5583808844251882,3,right
5.472,-0.0006847290736530171,0.9466823900315485,-0.20071773480971472,-2.340731901625718,0.9426982268732342,0.32468292167764634,-0.032346029292199555,-1.0674157761138652,-0.5596045099591949,3,right
5.477,0.011632286599940126,0.950074956190872,-0.20453134436426149,-2.318438842738737,0.9430500223487353,0.3262025537972302,-0.031885605031305775,-1.0702370441018125,-0.5582693846199271,3,right
5.478,0.02008863731813344,0.9529057801097075,-0.20824908124757208,-2.3357150578368686,0.9428398359077625,0.3256850984109104,-0.03212550997969177,-1.0684417817277527,-0.5590892704491371,3,right
5.481,0.02806940363006262,0.9557118871215848,-0.21352106550198452,-2.321799505518932,0.9428614494563857,0.3245453934191975,-0.0324618387224238,-1.0677120594707763,-0.5595562205570297,3,right
5.482,0.03678167315251486,0.9611280472535154,-0.21667033345577785,-2.3363895004115465,0.9430223282743899,0.32767279767821994,-0.031201838730782326,-1.0722444883056395,-0.5571199790634064,3,right
5.485,0.04702279524692063,0.964754765605657,-0.21616786745289973,-2.3187463919784967,0.9427318999688619,0.32288212859046594,-0.03350035329348117,-1.0635972608530622,-0.5617089801239419,3,right
5.486000000000001,0.05470416061879353,0.9671189455131176,-0.21156441111733093,-2.336786525748368,0.9430508595151392,0.3280122735478054,-0.03055739937241032,-1.0747551948071674,-0.5558004301082073,3,right
5.49,0.06381500079489541,0.9666936668426991,-0.20044471104770156,-2.3275747315326436,0.9428519517073044,0.32501145084726674,-0.033011054223462684,-1.0654176297783016,-0.5607398415419942,3,right
5.492000000000001,0.07152874549066257,0.9624719344021054,-0.18438833961129852,-2.3136311651823016,0.9427530863933804,0.322606497297385,-0.03295751236021479,-1.0657555198005524,-0.5605809648316733,3,right
5.496,0.07013773299659302,0.9596865278935226,-0.17044471791500074,-2.364829777514855,0.9433043357829933,0.33342901780154865,-0.02823622023976583,-1.083281897894766,-0.551244648469257,3,right
5.497000000000001,0.06598154580704634,0.9564652233125283,-0.15584895235106272,-2.2716538493219742,0.9422609589924229,0.3133052233347987,-0.03982585331705839,-1.0401029926549912,-0.5742223084797432,3,right
5.501,0.05234288430211227,0.952424426718876,-0.13486976733682499,-2.39090000812061,0.943604972975109,0.3391566817390057,-0.020612947421875322,-1.1117228008586826,-0.5361159409316887,3,right
5.502000000000001,0.039106290783214356,0.9511774089954655,-0.12111316719780746,-2.2915057305325215,0.9424818559011932,0.31757051626857735,-0.045955281414762725,-1.0172527220322767,-0.5863796272885113,3,right
5.506,0.035279140185674324,0.9516282918181095,-0.11808904464307735,-2.293584485994672,0.9425176845265244,0.31817169645500853,-0.1523435281721824,-0.6208454685990874,-0.7973205819326039,3,right
5.507000000000001,0.019881093990314014,0.9531274386883947,-0.11090680704080427,-2.4851214217653865,0.9446395775184091,0.35927499995237144,-0.17768994224534962,-0.5263806031173655,-0.8475838967760521,3,right
5.507999999999999,-0.0023699769445841064,0.954311110573953,-0.10442986902850551,-2.0150617977992464,0.9394196105820062,0.2582297665331405,-0.15847148042419829,-0.5979974430688859,-0.8094765904923981,3,right
5.511,-0.024906150970278974,0.9569889409492611,-0.10480609495728399,-2.7942649324218682,0.9480735987672897,0.4257702015929878,-0.17006347795350676,-0.554806927424389,-0.8324591521243585,3,right
5.5120000000000005,-0.04037624535334754,0.9611271865929959,-0.10590058230093309,-1.7665039897677122,0.936662122369228,0.20478765190981926,-0.16534849295072657,-0.5723715288190743,-0.8231117124804894,3,right
5.515,-0.04505219579519201,0.9624248654773572,-0.1062941264453915,2.5482740535674484,0.8887358841555448,-0.7227897975722813,-0.1652758116433433,-0.5726402128461083,-0.8229702285182651,3,right
5.516,-0.06055655679787275,0.9647220593234269,-0.10520188129075422,3.576131161884291,0.87733081067608,-0.9437654548431986,-0.16776136723309437,-0.5633914378471756,-0.8278899387692623,3,right
5.516,-0.07983264125464899,0.9681942216855555,-0.10319337361394017,2.79682399410745,0.8859778758049861,-0.7762324751202727,-0.16478107724779112,-0.5744739933665701,-0.8219944657994666,3,right
5.52,-0.09255479669297272,0.9694679429944957,-0.1000504690625342,3.266844004725114,0.8807552582313704,-0.8772805511060029,-0.16710604472785037,-0.5658350780419765,-0.8265899718450512,3,right
5.52,-0.10299502862499493,0.9708234797745285,-0.09433948715176002,3.075652281838881,0.8829001632420951,-0.8361524984306634,-0.16585427156609084,-0.5704880287018306,-0.8241145089085502,3,right
5.525,-0.11107396062873225,0.9725284242638637,-0.08855156054742025,3.072830815217781,0.8828865004963358,-0.8356045604065223,-0.16612309895460037,-0.5694660510673784,-0.8246596488781677,3,right
5.526,-0.12248793073049517,0.9749593684882697,-0.08357037158952432,3.173289943511409,0.881834326478717,-0.857114394480302,-0.16650258395904574,-0.5681198780059746,-0.825372142769808,3,right
5.529,-0.13305774625638223,0.9777377819698774,-0.08030388999930545,3.05298347358562,0.8831077178760003,-0.8313389373973521,-0.1658461519005195,-0.5704478406115332,-0.8241397956318577,3,right
5.53,-0.14180229794302252,0.9790604482412864,-0.08380430774475355,3.146616798788716,0.8820947727685962,-0.8514299550805766,-0.16648674852423737,-0.568206264374939,-0.8253248190724445,3,right
5.534,-0.15291396703844337,0.9784520523959404,-0.09202949964659476,3.096328936004432,0.8827067602777472,-0.8405421336071792,-0.16604396801809912,-0.5697399658116883,-0.8245148478490807,3,right
5.535,-0.1622508314584518,0.9761367916173281,-0.09608967601301871,3.1073391548504166,0.8824124019850488,-0.8431573745603445,-0.1662002684254153,-0.5691567263765858,-0.824825296104366,3,right
5.539,-0.16970225249412174,0.9762426445803726,-0.09621965818851466,3.1216049852697525,0.8825502451213578,-0.8457959002709718,-0.1663552238506425,-0.5687946471480227,-0.8250065076423969,3,right
5.54,-0.1740552040507118,0.9767428203935503,-0.09516200992191143,3.0973625418714503,0.8824560241919829,-0.8411103452329887,-0.16591470742745856,-0.5699436634190509,-0.8244212037948165,3,right
5.545,-0.17684789473933082,0.972601856799955,-0.09166745422049483,3.1199500416187425,0.8824948577627718,-0.8455466245666241,-0.16655183261863132,-0.5683044450567611,-0.8252545564064653,3,right
5.547000000000001,-0.1835878476958484,0.9699820392068818,-0.08866277510953549,3.1054050065506758,0.8826590060154273,-0.8424159267514748,-0.16589925034689582,-0.569952608590645,-0.8244189780982951,3,right
5.5489999999999995,-0.18957955900794815,0.9692743507128251,-0.08398839923667961,3.110143015354417,0.8820688273888604,-0.8442135960367505,-0.16627661525536686,-0.5689993020421821,-0.8249023488956239,3,right
5.5489999999999995,-0.19558973765647822,0.9669733798167442,-0.07675950335403414,3.1138389136221836,0.8832561819687594,-0.8432276297658551,-0.16654282130203663,-0.5683973654873531,-0.8252019221257053,3,right
5.553999999999999,-0.20683971865143785,0.966586888179918,-0.0765612930036204,3.104846285123892,0.8815235593211559,-0.8439506617073365,-0.16530123750687276,-0.5713161700397288,-0.8237392230849185,3,right
5.555,-0.2173469157536841,0.9660787975961351,-0.07952437370559196,3.115080923584721,0.8833633000269598,-0.8433192783970886,-0.16760761347935588,-0.5658891958613996,-0.8264593850296393,3,right
5.559,-0.22669776784497286,0.9659712516561134,-0.078514343527721,3.108143908779346,0.8823117807772598,-0.8434639374501711,-0.16465096495239329,-0.5728393238386963,-0.8229762311945483,3,right
5.56,-0.23668031835526743,0.9687136458550213,-0.07914360319042436,3.1072323400153516,0.8813486970444141,-0.8446787409499099,-0.16711716360133533,-0.5670454851463212,-0.8258797939423348,3,right
5.564,-0.24249311049247052,0.9710472038332629,-0.07972851483658197,3.119518592339121,0.885470701450508,-0.8411468668760025,-0.16704402664097745,-0.5672250862470277,-0.8257886990679287,3,right
5.565,-0.24387285685426038,0.973530576147022,-0.07592416310804709,3.09523552961578,0.8778433588143637,-0.847374293181418,-0.1623684066118166,-0.5781749142701802,-0.820305195823186,3,right
5.569,-0.2420554339728417,0.9751896159228003,-0.06783546069216256,3.1267530702219863,0.8876331909223686,-0.8394508043916062,-0.17386554419100247,-0.5512447689374449,-0.8337926600551664,3,right
5.569,-0.2405785557515403,0.9756574038175868,-0.05787912655691299,3.100303256774092,0.8794621105509657,-0.846035598136182,-0.15480300566314031,-0.5958939740401965,-0.8114305050999944,3,right
5.5729999999999995,-0.24125800429880134,0.9773386597221022,-0.052911402280106004,3.101544002273541,0.8796764654117983,-0.8459715603341169,-0.17994502916357377,-0.5370079806506365,-0.8409232133918034,3,right
5.574,-0.2407337949801482,0.9769466497770726,-0.05043960715551635,3.15025950444641,0.8952784740402827,-0.8330429114857925,-0.28545565523315297,-0.28988954664135325,-0.9646781315079473,3,right
5.575,-0.2378069864692015,0.9765401748396433,-0.04582809142637717,3.0299015772333506,0.8569395819640852,-0.8646835867537715,-0.3105949986508334,-0.23101243752679246,-0.9941657012570202,3,right
5.577999999999999,-0.22959411552964787,0.9797392410539995,-0.04208851379986157,3.2296241638987064,0.9205037526195129,-0.8122593584563688,-0.2915375073188875,-0.2756478341848796,-0.9718127547988006,3,right
5.579,-0.22247518440871128,0.9814073131765381,-0.03824894271418515,2.966172564590973,0.83666498326221,-0.8814001181746911,-0.303028141163753,-0.2487288961961848,-0.9852894089169235,3,right
5.584,-0.22083779827502303,0.9809026326420351,-0.03649725184679089,1.861111915585948,0.4847339118265421,-1.17179831120606,-0.29835858430211243,-0.2596799670413229,-0.9798141093142813,3,right
5.584,-0.21399541393236926,0.9811518218905676,-0.03652659661927573,1.597708129769436,0.400899210760441,-1.24094299140343,-0.2982828780422617,-0.2598364232106485,-0.9797231640551398,3,right
5.585,-0.20601990353342456,0.9800179339429104,-0.03287044331650828,1.7973880974962926,0.46445666577622946,-1.188519539193925,-0.3007443729002831,-0.2540921593977844,-0.9826122604848879,3,right
5.587999999999999,-0.2012417938332638,0.9773956020044672,-0.03216348521483503,1.6769782199932444,0.4261242959104384,-1.2201408280996686,-0.29780288561716933,-0.2609724476763775,-0.9791613145088692,3,right
5.5889999999999995,-0.19513654686038107,0.9771923139094776,-0.03484772233235284,1.7259318574138431,0.4417240077565154,-1.2072628902274773,-0.30008326336019725,-0.25561362869039583,-0.9818345197748587,3,right
5.593,-0.19125320099948973,0.9796415940356121,-0.03454190239055399,1.726704677524531,0.44193201579779373,-1.2071142200792768,-0.29887349379451134,-0.2585047925250692,-0.9804203428422946,3,right
5.593999999999999,-0.18725153035191128,0.981079896281968,-0.035370697822664304,1.700890183652606,0.43377907358769074,-1.213800760844293,-0.29911434466045145,-0.25784117889700453,-0.9806946640885718,3,right
5.597,-0.18304613571277445,0.9807652638347221,-0.03845500851007416,1.731819536815523,0.4435395538127876,-1.205800435063644,-0.29949161522230405,-0.25707969228948246,-0.9811471533457312,3,right
5.598,-0.178154637761773,0.9835970142803045,-0.04182003253915505,1.707707704075713,0.43594584237325845,-1.2120155507373571,-0.2988856397613942,-0.2584016201540892,-0.9804284659869998,3,right
5.603,-0.16869002199415872,0.9884507090386465,-0.04426702956824158,1.7206892913865006,0.4400447377146731,-1.2086544231843872,-0.299416161051722,-0.2571581322535641,-0.9810506375635613,3,right
5.604,-0.1593064746039845,0.9878082231696413,-0.04673460627149768,1.717865137244861,0.43907298290042784,-1.2094994280170983,-0.29913455509396125,-0.2579985045843546,-0.980735044952014,3,right
5.608,-0.14893280495508815,0.9855712064755259,-0.05299426773455844,1.7140378173963078,0.4380835796556538,-1.2101789684574291,-0.29912061781717547,-0.25761805763835727,-0.9806851344714509,3,right
5.609,-0.13978509233399256,0.9862748868550176,-0.06126278323474749,1.720653310649368,0.439797002810978,-1.2089997595743889,-0.2993729269268994,-0.25764326702120144,-0.9810310992155068,3,right
5.612,-0.13372870172314832,0.9855115566507072,-0.06855149911158898,1.7142514872067993,0.43823988657752944,-1.2099973447493029,-0.29901928306111475,-0.25781486174326246,-0.980563022000617,3,right
5.6129999999999995,-0.1236976008168591,0.9840865370978699,-0.0725196611293806,1.718648383283592,0.43925665378804,-1.2093871264530707,-0.29928034852172364,-0.25758258680282076,-0.9808999443257943,3,right
5.617000000000001,-0.1151964762811259,0.9856220689642278,-0.07306488935347213,1.7170236572242912,0.43873563616976385,-1.2098190762779013,-0.2993290061189734,-0.25779630163098266,-0.9809837107913382,3,right
5.617999999999999,-0.1119612323461833,0.9873716427838215,-0.07294266096531081,1.7157894591745917,0.4390541128262313,-1.209132112589768,-0.2987907226363067,-0.257624682018167,-0.9802359840686777,3,right
5.622000000000001,-0.1097691500580001,0.9878342575524098,-0.07513018671354812,1.719506062541317,0.4386121438304026,-1.210466085033127,-0.299865731672413,-0.25776246101691136,-0.9817124841621233,3,right
5.622999999999999,-0.112341769848507,0.9905316354657286,-0.08121568988931133,1.7141704617568059,0.4393377385379974,-1.2084213663679433,-0.2984578593222687,-0.2576506867547455,-0.979784515723248,3,right
5.627999999999999,-0.11969361000008491,0.9933847095776902,-0.08765452442937646,1.7195817434319638,0.43847631066482273,-1.2106737462028372,-0.2996445919896257,-0.2577163229606616,-0.9814071325591143,3,right
5.629,-0.1240427452612667,0.9939571371789788,-0.09490000842869241,1.7164517640152894,0.4389728957567814,-1.2093729653397656,-0.29959522031659086,-0.25775737825854217,-0.9813436370573503,3,right
5.632000000000001,-0.12502557497451694,0.994688022295549,-0.10237797201633297,1.714368416508703,0.4395968876886124,-1.2080910242326035,-0.2973784649698521,-0.25751841931843245,-0.978302137331775,3,right
5.632999999999999,-0.1255076587036535,0.9963550479308055,-0.10408315501241193,1.7242830673588936,0.4371201532405564,-1.2134938229978376,-0.30285145216002995,-0.2580435163417937,-0.9858051465833357,3,right
5.6370000000000005,-0.12348700087023767,0.9974188406846247,-0.10231046744187354,1.7058554988240764,0.441700153051442,-1.2034842299822825,-0.2937683868381872,-0.25719675817625814,-0.973355734238834,3,right
5.638,-0.12202822244502227,0.9961070641708316,-0.10056296471735009,1.7294678794271232,0.43580355598734277,-1.216350851091402,-0.3057512164409859,-0.2583044610083475,-0.9897781422363677,3,right
5.642,-0.12221879451602785,0.9951292745546467,-0.09898091107253393,1.7097761578844153,0.4407329167068309,-1.2056023702869498,-0.3560493910616821,-0.262996059178691,-1.0587230985300238,3,right
5.643,-0.1219196212219808,0.9968193228440305,-0.09755470732654256,1.7103786301972543,0.44062186529865754,-1.2058779917818738,-0.36803073799865094,-0.26410099287151517,-1.0751420708265966,3,right
5.643,-0.12346990204675623,0.9993039485426358,-0.09315760979451591,1.747639627737092,0.4311305665452001,-1.2264415159126083,-0.3589471854829289,-0.2632621282165398,-1.0626939217932794,3,right
5.647,-0.1267401380077139,1.0003359390865847,-0.08863927111817141,1.6559977184604562,0.4544397536390224,-1.1759084038468524,-0.36442819036667173,-0.26377101770843003,-1.0702070365655554,3,right
5.648,-0.13189138462213423,1.0007378782210865,-0.08708670489866299,1.8079471975921853,0.4157933883414635,-1.2596983556727808,-0.3621908424573025,-0.2635578832223991,-1.0671352876425664,3,right
5.651,-0.13590894789317864,1.0024758005119236,-0.08626968391268004,1.6075343553865906,0.4667698535964184,-1.1491732142801465,-0.36217557602492245,-0.26356726547189524,-1.067124906198623,3,right
5.652,-0.13739745154779193,1.003049467986389,-0.08633819208077037,0.7665635222662722,0.6808296138208728,-0.6852297961470932,-0.3633215767302267,-0.2636591866013068,-1.0686809522866618,3,right
5.653,-0.14311432180571584,1.0034424750825959,-0.0811828346100825,0.5661601802708822,0.7318086433534201,-0.5746942802785193,-0.3619440622959743,-0.2635451304085541,-1.066807303087352,3,right
5.656000000000001,-0.15336696811655562,1.0072890279790292,-0.07186859602983961,0.7180874175499334,0.6931556975014896,-0.6584985949582025,-0.3630249182996137,-0.2636395268641495,-1.068282595712317,3,right
5.657,-0.16242934203565187,1.0132311173788202,-0.06566035004005448,0.62648397305502,0.7164773109545213,-0.6079586358260693,-0.3624169104296887,-0.26357209913666446,-1.067437000628745,3,right
5.662000000000001,-0.16583423523019525,1.0176058285072127,-0.055952107445412395,0.6636917077621215,0.7069674216682282,-0.6285078440700069,-0.36261506506888397,-0.2636260617468555,-1.0677479035890327,3,right
5.662999999999999,-0.16119900243524427,1.0180090052079063,-0.04291674331871033,0.6643504205080698,0.7068778021709308,-0.628829578036814,-0.3626611794240876,-0.26356919624410846,-1.0677434905897631,3,right
5.665,-0.14741578764529994,1.0165961462084452,-0.029718032214970637,0.6446247878414266,0.7117913000959539,-0.6180027235119756,-0.36252604938509214,-0.2636315674809655,-1.067641181717245,3,right
5.669,-0.12638226130955799,1.0139169320148063,-0.01659634462337324,0.6682125682187097,0.7058919287589743,-0.6309627004533465,-0.3626718109754816,-0.26358540473839837,-1.0677749304468325,3,right
5.67,-0.10112877973785844,1.01012162505929,-0.015128012545628856,0.6499040087042174,0.7105076119259451,-0.6208843907771929,-0.36250113817057716,-0.26356913888940364,-1.0675403357417586,3,right
5.672999999999999,-0.07465869822757731,1.0104972734808002,-0.026259341143664128,0.6595900055540019,0.7079537913552086,-0.626272548706178,-0.362774695781521,-0.26370491300019255,-1.068037965082067,3,right
5.6739999999999995,-0.052309967257276616,1.0168346174015879,-0.04029966053989508,0.6578135349385716,0.7086893936227197,-0.62515048868356,-0.36231893244330093,-0.26341023256583457,-1.067133068120792,3,right
5.678999999999999,-0.02993979870735948,1.0255688000734293,-0.05009707447323857,0.6543986866370715,0.7090712653256481,-0.6235102452834734,-0.3629582422413626,-0.2638461502874292,-1.068427232436696,3,right
5.678999999999999,-0.002420582498966749,1.0335092847555563,-0.04629845304145415,0.659900635044105,0.7082682366705912,-0.6262471584874436,-0.36228434484406297,-0.26338205334797604,-1.0670582157150201,3,right
5.684,0.02655369186278289,1.0407107936653501,-0.03653356772367267,0.6548794605186731,0.7090703067998158,-0.6237147003779429,-0.36266167622217904,-0.263649300833084,-1.0678324806723647,3,right
5.684,0.05373548285314869,1.046887841151956,-0.03416553052057555,0.6577088558352862,0.7083458573331626,-0.6252778034078217,-0.363046402903729,-0.26388450438050637,-1.0685821639492072,3,right
5.69,0.07639803930462923,1.0506917422059976,-0.03560736477289675,0.6579325350348223,0.7091718897036572,-0.6249604411342418,-0.3614601554351171,-0.26286276245715967,-1.0654364176385296,3,right
5.691,0.09686842752457309,1.0546360133197143,-0.03688878078274309,0.6545910774686233,0.7080047609473061,-0.624124063557552,-0.36438408380166737,-0.2647565275687088,-1.0712451991638003,3,right
5.693,0.11695521328066372,1.0591517599012286,-0.03693929418475378,0.6602536340745949,0.7095732749320416,-0.6257458138027745,-0.3606338585954719,-0.26232465225493073,-1.063792910169561,3,right
5.693,0.1368529776547881,1.0614283633886599,-0.037097970468616966,0.65409113559124,0.7079333879026788,-0.6239473407616132,-0.36376267209623775,-0.2643555724442022,-1.0700106658474389,3,right
5.6979999999999995,0.1531471471817711,1.0623286821603406,-0.03250036843109891,0.6578511200730529,0.7088301384488007,-0.6250964903909125,-0.3636851698968785,-0.26429926451045954,-1.0698544456455892,3,right
5.6979999999999995,0.15846999781840343,1.0645784966280865,-0.02132192900856312,0.6601048019888127,0.7098545808308135,-0.6255422380518723,-0.3576965569796867,-0.26042942280246667,-1.0579621321333326,3,right
5.702999999999999,0.15839673455745035,1.0627376291192212,-0.00946867083241556,0.648625399442727,0.7057827318871077,-0.6226996131471674,-0.3724064401714404,-0.2699442026172322,-1.0871746002987013,3,right
5.704,0.15469271597381895,1.0504714660365972,0.012575193898959397,0.6702055431251495,0.713259661090243,-0.6281322352601865,-0.34802031754797363,-0.2541655162501257,-1.0387472591097597,3,right
5.707999999999999,0.14943700712827918,1.0413005210552324,0.031177495867914698,0.6424305940314234,0.7036757315281372,-0.6211203868240778,-0.38018364758332657,-0.27498044925126863,-1.1026167117952523,3,right
5.709,0.1475648380195177,1.0388349552152802,0.03598613035709651,0.6656439772584579,0.711669781367438,-0.6269888349022392,-0.5152169884734592,-0.3623179895597618,-1.3707859443405215,3,right
5.709,0.13655650183370457,1.0283141024809883,0.04788069963335034,0.6649170734767675,0.7114803481095553,-0.6267739083652347,-0.5473782753841636,-0.38313793763050535,-1.4346468648860207,3,right
5.712999999999999,0.1196701350734268,1.0168616963964832,0.05737460435754044,0.6209786876512247,0.6961493630293832,-0.6157680242091934,-0.5229943625255864,-0.36735382599757643,-1.3862287524957924,3,right
5.712999999999999,0.10617616931531434,1.0117720215213546,0.055483143999713935,0.7290898732658173,0.7337993244350147,-0.6428851366267034,-0.537705089150037,-0.37686653962392225,-1.4154447401481338,3,right
5.7170000000000005,0.09006002317212583,1.0088733123447846,0.048116567742998995,0.5498039872708501,0.6713810627279407,-0.5979069078088044,-0.5317091381437915,-0.373014701577154,-1.4035217881764785,3,right
5.718,0.08028172272561954,1.00945769913835,0.03982050573802583,0.7862942788819469,0.7537138560380465,-0.6572338436497069,-0.5316474210426732,-0.37291965998322885,-1.4034314786562503,3,right
5.718999999999999,0.07946937808385333,1.0107375226838502,0.036498511672929265,1.779187893928254,1.099477123098017,-0.9061689873101062,-0.5347536048993246,-0.37500611358757563,-1.4095547412638096,3,right
5.723,0.07375068098810192,1.0137991150626369,0.029072072867598487,2.0157583046016283,1.181847239267877,-0.9654862037643968,-0.5310259103688297,-0.37251894207209835,-1.402196535814015,3,right
5.724,0.06624466365697482,1.0218835939493967,0.020508818679212046,1.8362838207615546,1.119351382278821,-0.9205212786573376,-0.5339401240875121,-0.37443655998929115,-1.4079647440076712,3,right
5.728,0.06426762898678803,1.0315755288976969,0.014660687687857303,1.9447230214880715,1.1571178001323692,-0.9476325154588673,-0.532334513314244,-0.37346231649785055,-1.4047381564147088,3,right
5.729,0.06281523893037085,1.0423498703816403,0.0075477367913506675,1.9003279681086074,1.141649012842819,-0.9366121081221642,-0.5327815870733135,-0.3735445402623454,-1.4057481645209218,3,right
5.733,0.061281761733509674,1.0532112159618743,0.0035635461590949823,1.9000864759713894,1.1415745362745713,-0.9364420305118181,-0.5330515074477022,-0.3740753636194253,-1.406073928537694,3,right
5.733,0.0633650621380829,1.0575858923831727,0.0004889859553515717,1.923001902088461,1.1495491017863806,-0.94223528597322,-0.5325094136865511,-0.3732878086311777,-1.4052552821801374,3,right
5.737,0.06873563379061745,1.0579085604524148,-0.0036514426126011217,1.895026510967149,1.1398030401063715,-0.9353119135860894,-0.5330436680712646,-0.3739815793275366,-1.4061107435168654,3,right
5.7379999999999995,0.0750081316675612,1.0614290115242322,-0.009092359419856776,1.9176162738225708,1.1476870115392082,-0.9406811067290829,-0.5325869113976027,-0.3736892506833044,-1.405201755467063,3,right
5.742000000000001,0.07962987410232747,1.0660249260627017,-0.014656372964155508,1.9041819679300347,1.1429776959760254,-0.9378206932909712,-0.5330555551471963,-0.3733463941049638,-1.4065139180714685,3,right
5.742999999999999,0.08510829201062012,1.0734708167955898,-0.022716774245289055,1.9090733963299868,1.1447193006074912,-0.9384238528448046,-0.5324391492372187,-0.37442386084225976,-1.4044181732914884,3,right
5.747000000000001,0.09241895401747527,1.0871476925516146,-0.04082847397887497,1.9103663774198074,1.145139119704987,-0.9392449311727243,-0.5332497892170491,-0.3727461049345768,-1.4073281916370175,3,right
5.747999999999999,0.09836822711168856,1.1047747861324675,-0.06452285821494927,1.9050239193448613,1.143278436837305,-0.93790947441894,-0.5324059845266422,-0.3745476979199138,-1.404266636438176,3,right
5.752999999999999,0.10622356319753375,1.126981677465299,-0.09098540147132661,1.91333246950247,1.1462279032924974,-0.9390718178908297,-0.5328613927980783,-0.373486084831291,-1.4059715029776214,3,right
5.752999999999999,0.1179227017349558,1.1563822961611625,-0.12318178849270149,1.9024145973904656,1.142297913713273,-0.9384392499393834,-0.53341293437152,-0.3726733683039303,-1.4077576709312751,3,right
5.757000000000001,0.12658221519427804,1.192315023704987,-0.1538632789802047,1.9151707020491127,1.1469305294935723,-0.9384972675285014,-0.5312595257649799,-0.3763977607460116,-1.400459444266315,3,right
5.757999999999999,0.13337817411286274,1.2330719142069733,-0.17778817912384803,1.9031285817978494,1.142534662329509,-0.9388258336438067,-0.5352058471735159,-0.3694606827411636,-1.4138996143149676,3,right
5.7620000000000005,0.14563982189218388,1.2787764277222167,-0.20053531525816573,1.9092909281684622,1.144796339202934,-0.9384360845263497,-0.5301494310465205,-0.3783748851153743,-1.396664061510179,3,right
5.7620000000000005,0.15897523159235266,1.3233501143705757,-0.22330949795030142,1.9162801298024457,1.1473337290967318,-0.9385219950306266,-0.5343660272685447,-0.3709303132958719,-1.4110426606732802,3,right
5.767,0.17383532101212779,1.3671381124902373,-0.24454414860591298,1.88923223442932,1.1374696449079595,-0.9390364919774971,-0.5342693690070981,-0.3711419172043614,-1.4106906323628436,3,right
5.768,0.18904745831607478,1.4114185868595954,-0.26460583465082943,1.9383593571386277,1.1553994466743833,-0.9378220782079745,-0.526172865841914,-0.38530365466211836,-1.3831558426145198,3,right
5.772,0.20474326873440352,1.4530217081916716,-0.279277517605488,1.8757388315535148,1.1325406416848018,-0.9394981936913551,-0.546051530151338,-0.35048432083853587,-1.4507852183750556,3,right
5.773,0.234086868494321,1.4996708853925889,-0.2892406880364293,1.9278157653136128,1.1515490818242649,-0.9380466100755452,-0.5130985057530097,-0.4082188672208731,-1.3386697204005218,3,right
5.777,0.25889354240096063,1.5323662122182387,-0.2953051122162519,1.9265904763688202,1.1511102440569574,-0.9381360190542547,-0.5565612292847222,-0.33206774623404633,-1.4865414347326185,3,right
5.778,0.2675681746148736,1.5415344889881002,-0.2957492282448362,1.8269405659679754,1.1147156687866273,-0.9408068042463997,-0.7390390377847655,-0.012431506034124365,-2.107361047576095,3,right
5.778,0.298187396965019,1.5668111920423766,-0.2940845316048406,2.0715339660554846,1.2040295403641221,-0.9341506979533747,-0.7825009033350664,0.06371721244965792,-2.2552247878450906,3,right
5.781000000000001,0.3589277290232003,1.6120323143359268,-0.289750796698257,1.6661552629800038,1.05601934349228,-0.9452350409536828,-0.7495488073777629,0.005985267460575091,-2.1431179163494125,3,right
5.7829999999999995,0.3955469296733116,1.637599292680861,-0.2865652423811411,2.2007532196972823,1.2511933497603491,-0.930585095517219,-0.7694278241697643,0.04080558266531708,-2.210750576699674,3,right
5.7860000000000005,0.4074586510938478,1.6457194787610678,-0.2869294196150657,4.4449678846661245,2.0707232649203906,-0.8692234090824906,-0.7613282429926918,0.02663523783237176,-2.183187162189075,3,right
5.787000000000001,0.45654981643792447,1.672396698954967,-0.2830569513831934,4.979487934446605,2.2658403738964017,-0.8545436083441769,-0.7612382082458088,0.026442163731313837,-2.1828967190725717,3,right
5.787000000000001,0.5259977483222467,1.7123765244930964,-0.27572616934015126,4.574238614882798,2.1179074517289074,-0.8656715581325843,-0.7654453070647464,0.03386015959799968,-2.1971870212438604,3,right
5.791,0.5840767311949843,1.7506316882665724,-0.2657002119054303,4.81870435124302,2.207189071167228,-0.8589876933505556,-0.7603983491526012,0.02497243128116876,-2.180039389218591,3,right
5.792000000000001,0.6461858928392336,1.794508549906117,-0.24958884204715726,4.7191041257187525,2.1707050576959963,-0.8616338858811117,-0.7643405880617615,0.03189806773370307,-2.19344163161726,3,right
5.796,0.6992707079148903,1.8385970746253713,-0.22635687910920615,4.717991911060455,2.1705353222160517,-0.8618313594308147,-0.7621790609275028,0.028150984308901283,-2.1860678866712844,3,right
5.797000000000001,0.7333549956223958,1.8817693838497411,-0.19234467092649649,4.76973060811644,2.1890965475305855,-0.8601806805067158,-0.762756760272349,0.02903686799639194,-2.1880972858749534,3,right
5.801,0.7521796919421175,1.927005155216257,-0.1467971660528627,4.707666863931767,2.1667597366374847,-0.8621102013790474,-0.7631670943540476,0.029972369466598377,-2.189383074172886,3,right
5.8020000000000005,0.7528998192119944,1.9697784562988006,-0.09454593607097639,4.756145294121654,2.184321957498828,-0.8606840453782876,-0.7623786104478627,0.028325591140156654,-2.186835812443361,3,right
5.806,0.738591693154526,2.0109539894764312,-0.04428183504128723,4.729560413647865,2.1743376254222566,-0.861216889790943,-0.7631451408786083,0.02987985552594591,-2.189335842034459,3,right
5.807,0.7092983859056066,2.0508421890373256,-0.004473677160895421,4.736677324735637,2.1778266792036023,-0.8616496479237573,-0.7625283537278292,0.028801439677538225,-2.187236372615865,3,right
5.812,0.6658568821160289,2.085179456946898,0.02327371849602533,4.741700210337844,2.1781281744280285,-0.860431761189094,-0.7630788259747057,0.029373116703836674,-2.189309528795996,3,right
5.814,0.6169223821747258,2.114849642568057,0.04160536413479833,4.732033269793489,2.1764783580554625,-0.8620215459614075,-0.7624350424777395,0.029142239684196332,-2.1866615462165617,3,right
5.815,0.5661674247885304,2.140462956619687,0.050530863401836844,4.741435744034963,2.178412857246383,-0.8607080188500352,-0.7632483277367506,0.029229227534025966,-2.19011120138528,3,right
5.816,0.5095081082324171,2.154950919624754,0.0554196007958161,4.733850693486968,2.175630759166987,-0.8609062882208934,-0.762408759281454,0.02918420420794534,-2.186527209740646,3,right
5.82,0.4522805699086724,2.1607872804348176,0.05390546546109886,4.740664971503934,2.180897517547844,-0.8626789558693707,-0.7628505945700688,0.029134903353229664,-2.1884505527453766,3,right
5.82,0.3962355357699311,2.1553523365492557,0.03892581616754289,4.732645054233068,2.171617799952289,-0.8584212961191144,-0.7634457586670571,0.029466326595598755,-2.1908384835475987,3,right
5.825,0.33982917052373746,2.136660681155436,0.009811724560990815,4.74280050275102,2.1848022135432457,-0.8648223093301313,-0.7611918135244622,0.02862723404144802,-2.1815830609463753,3,right
5.827000000000001,0.28634119788972767,2.1136194103503367,-0.03847717225846794,4.732311273470531,2.1708687064455194,-0.8579896579089461,-0.7653084617912952,0.030073713109541808,-2.1985311426297125,3,right
5.83,0.22264538398668748,2.077603391474692,-0.09031748297618039,4.7378403545878855,2.1787281972707175,-0.8619518790805945,-0.7600366907877961,0.028239997635397075,-2.1768180756016395,3,right
5.83,0.1417532598669628,2.0366889508611568,-0.16490639080012903,4.745240434303854,2.1864560551036236,-0.8652959763899891,-0.764432081738679,0.02976259511238598,-2.1949245758799747,3,right
5.835,0.03530902314672859,1.999956946577581,-0.2939005976127239,4.717164862992308,2.15419054973936,-0.8505440818920502,-0.7643351565035565,0.02975593934495826,-2.1945119984829304,3,right
5.837000000000001,-0.09326494483031539,1.95944588425273,-0.45143343707461575,4.768453926329299,2.2137511263907172,-0.877922262284359,-0.7558816986694357,0.026735532552849613,-2.1597345248328583,3,right
5.8389999999999995,-0.2301851286173383,1.9204203145643512,-0.5519288185079856,4.702769746410123,2.137328184254031,-0.8427632005220111,-0.7766333126207106,0.03412231224654577,-2.245119787216979,3,right
5.84,-0.3772367622093572,1.8749101435021385,-0.4937896277508589,4.7575372337541015,2.2011156804372183,-0.8721167859738199,-0.7422328476909599,0.02187951443209223,-2.1035740072596525,3,right
5.845,-0.4650713596830841,1.8372984510409673,-0.3914180277023995,4.756322041650176,2.199461613874462,-0.871316840154047,-0.7876064093334635,0.03803458626489095,-2.290265776245655,3,right
5.846,-0.4855087596681553,1.8235656576956991,-0.3505221116016277,4.651011153289289,2.0775696831220074,-0.8153651643471478,-0.9780926851461278,0.1058583231674746,-3.074034551239389,3,right
5.847,-0.5385839097975171,1.7866377964425768,-0.22554983178302618,4.90954142357272,2.3771038602009025,-0.9528921598100926,-1.0234691661731965,0.12203833001517893,-3.2607239795889416,3,right
5.849,-0.6046873276778382,1.7088843247282015,-0.03002627136295445,4.480961726076464,1.8804476051916554,-0.724867197016313,-0.9890654960403373,0.10975893385052213,-3.1191864793521424,3,right
5.851,-0.6286331336134149,1.6583132935030713,0.06526931581589297,5.046257745211188,2.535583246313176,-1.0256274350216597,-1.0098160738127602,0.11716952822358805,-3.204552347825009,3,right
5.856,-0.6408604657644876,1.6423755758256025,0.09542941505870453,7.419425783674374,5.285376077408403,-2.288075353377348,-1.0013727528616139,0.1141683608891642,-3.169808441839269,3,right
5.857,-0.6790762675115409,1.581542238049241,0.18574398190854133,7.984776914591814,5.940656657613342,-2.5888256646178736,-1.001253789424268,0.11407337760022465,-3.169351676927528,3,right
5.858,-0.7371827076978847,1.489432800087141,0.27663618901220016,7.556127780774151,5.443779947551995,-2.3608157646215213,-1.005680960764863,0.11576019387442579,-3.1874990852085503,3,right
5.859,-0.7918368937001383,1.4070255996249572,0.29482762553118014,7.81467011651005,5.743479898855304,-2.4983315338398926,-1.0003773156798583,0.11371601343690436,-3.1657733234375294,3,right
5.859,-0.8370289913268836,1.3158872291119,0.2855350709050333,7.709485390509816,5.621643421897511,-2.4423757971874736,-1.004508139402731,0.11534046999589881,-3.1826748084651024,3,right
5.864,-0.8627127195784083,1.226842746648452,0.24779655645402565,7.7079508924097055,5.619559577514311,-2.441605676480025,-1.0022805916010116,0.11448124601180079,-3.173550284038002,3,right
5.864,-0.8710364960370424,1.1448564256381721,0.18746206574854868,7.763214511684043,5.684211855497843,-2.470899615169978,-1.0027890482867234,0.11453198932292458,-3.175722980276683,3,right
5.869,-0.872661052626476,1.0636876669252497,0.13335901035648015,7.696988430117564,5.606617270048849,-2.4358210394812447,-1.0033812344020574,0.11516243852543918,-3.1779000119624827,3,right
5.87,-0.8736818572328309,0.98841063291428,0.08187158323431819,7.748600189121829,5.667260010626979,-2.4631253254275505,-1.002356138817209,0.11407496553056304,-3.1741290783904046,3,right
5.874,-0.8824849662814007,0.9128494621757215,0.03727029927905802,7.720785155917935,5.634671872897972,-2.448394569103356,-1.003318842124532,0.11530401774842028,-3.17754199208751,3,right
5.875,-0.9018712075609263,0.8390497641575692,0.005223763559052282,7.726993666086204,5.641153265665668,-2.4518258310352685,-1.0026729220665156,0.11436761654350217,-3.1753212542012976,3,right
5.877999999999999,-0.9386341680010029,0.7689177701761487,-0.0021692859092286125,7.734775843663821,5.652457892093618,-2.4555497382126785,-1.0029540687213534,0.11446149113872922,-3.1764818938626425,3,right
5.879,-0.99457503989397,0.6987191170171899,0.02424644937042618,7.72130919175349,5.632918877306066,-2.4491031200425466,-1.0029590729406745,0.11577371820520474,-3.175691958994161,3,right
5.8839999999999995,-1.0654957870413586,0.6297490935998651,0.08114212562868217,7.734155454909325,5.6526294312323175,-2.455056639178761,-1.0027929448107602,0.11271981467563194,-3.176860717574789,3,right
5.885,-1.1458632238040254,0.5622897453645177,0.150895488941563,7.725429785146431,5.638673340760501,-2.4511165782691693,-1.0030048845412718,0.11726288953584935,-3.174969453589571,3,right
5.89,-1.2314559484908245,0.4984386227424558,0.20429791674167572,7.728924368685188,5.642688648474111,-2.4529820701303384,-1.0028266001882233,0.11243686620986443,-3.1771816287388868,3,right
5.891,-1.3190949656429876,0.4415931353454202,0.23236711206344007,7.730250090379498,5.651357768614164,-2.452384657439063,-1.0029301240090565,0.11522550588610894,-3.1759055336718025,3,right
5.895,-1.3995973154012882,0.39499695956546893,0.2454390012022465,7.725296996563561,5.629317704315388,-2.452726233374646,-1.00291368040438,0.11759178297699396,-3.174370675203307,3,right
5.895,-1.4689960274413254,0.3578860740366545,0.2602553145655613,7.732235925907591,5.6616759026897965,-2.4519776493944336,-1.0028488225391623,0.10718719767864646,-3.1805250246134578,3,right
5.898,-1.5216290999946935,0.3296089314263141,0.29406529624524247,7.725436112985033,5.627872991907317,-2.453092670082609,-1.0029759448781583,0.12648501895995024,-3.169139771229776,3,right
5.898,-1.5577323473202274,0.31489895349141805,0.3542034864686516,7.729365396658325,5.6474058892686205,-2.4524498564881005,-1.0028213581169434,0.10170871036488041,-3.183794862365839,3,right
5.904,-1.5826535349491495,0.3047703151798082,0.43381497260986723,7.731454527433121,5.662735654642974,-2.4512012604126348,-1.0029467745238665,0.12239210040481226,-3.1715442573862656,3,right
5.905,-1.594879147050071,0.30120069773228,0.5191347000099218,7.720646557845642,5.59370784412728,-2.4557716236261236,-1.0029311056759083,0.12182723396229918,-3.171827974567428,3,right
5.909,-1.5989945055198447,0.30136704796662306,0.5994503067786138,7.740757990090897,5.7218027660719795,-2.447335538478895,-1.0027427864807592,0.08240826103327348,-3.1953888897431844,3,right
5.91,-1.5882835006482094,0.2964741486383935,0.6635629304271591,7.715060390440673,5.557465534770438,-2.4582315191743414,-1.0032152866810709,0.17929937686056507,-3.1375156985355535,3,right
5.914,-1.5728257998669948,0.32324001388029056,0.7046729247287505,7.7364380760005504,5.694580165915064,-2.4491001371948764,-1.0024338465892426,0.018650935065642818,-3.233478148727451,3,right
5.915,-1.5674145397110169,0.3558877453225934,0.7092797272346618,7.735783344785551,5.690766871168737,-2.449293631033462,-1.0034566371592222,0.23053943663755436,-3.106882134647302,3,right
5.915,-1.562790119204526,0.366908714885228,0.7007557162418026,7.695458622773261,5.429858769046623,-2.4669706875199324,-1.0075544988792202,1.1197704605306082,-2.5750429775236814,3,right
5.917999999999999,-1.5515908858312406,0.41014229744447955,0.7112464658870903,7.794555964270342,6.071147299166734,-2.4235396735597687,-1.0085306635629783,1.3316171071023923,-2.4483432713329423,3,right
5.917999999999999,-1.501467424084629,0.4511510867162907,0.6821851582045908,7.630339472601421,5.007949706342131,-2.49558178483052,-1.0078480706031314,1.1710588223333729,-2.5445205841477105,3,right
5.922999999999999,-1.450917790989811,0.4571597303855744,0.6362006922719583,7.846844666117645,6.410204619518151,-2.400520763214618,-1.0081683192763906,1.2678082208493482,-2.486326385147348,3,right
5.9239999999999995,-1.4330969316217175,0.4572972157947668,0.614926665389629,8.757065574800336,12.2974083300095,-2.0018856719704594,-1.0081661021279253,1.2285667074620912,-2.5102649182622887,3,right
5.925,-1.3662452429362042,0.4377302394188636,0.5277106051231413,8.973582493827987,13.699661304418616,-1.9068168365311178,-1.0079861248840714,1.2278389158088951,-2.5102370186634637,3,right
5.928,-1.2789659607706174,0.4032327597203452,0.41109400174742294,8.809154289482766,12.636288918305862,-1.9788100502802908,-1.0081580962243997,1.2485806578084724,-2.4980322122212835,3,right
5.928999999999999,-1.2256600800758908,0.3661753577341009,0.3442710046512756,8.908951763088549,13.278204798681273,-1.9355853925157591,-1.0081932557806446,1.2239651355418992,-2.5131425591488563,3,right
5.932,-1.1678769988234614,0.32787497411378785,0.30409141406945217,8.867215784383264,13.015998039071821,-1.9528156112023265,-1.0078000880168092,1.2427871252427334,-2.500630829909179,3,right
5.933,-1.1083368780348528,0.29761230101936487,0.2918064020674824,8.868626635021865,13.014116039365081,-1.9536907538578825,-1.008582473067594,1.233181001845872,-2.5085372069527376,3,right
5.937,-1.0461539589021087,0.2702756962780307,0.28966975657163474,8.887820016518301,13.149152452361871,-1.9438060180045529,-1.0075748257256163,1.2345865059451318,-2.5050454939289715,3,right
5.939,-0.9732894046150707,0.245153078781053,0.27588611819318953,8.863326589874148,12.986021744847132,-1.9551723989888343,-1.0083993858870453,1.2381156847948627,-2.5050477158317506,3,right
5.942,-0.8976665775027581,0.2229649418089941,0.2537343397209663,8.884721422537533,13.115198517302975,-1.94705288316442,-1.0083846003175527,1.2333528198048542,-2.5079149925608144,3,right
5.943,-0.8122414509772307,0.20108839559309838,0.22552662695055864,8.868724954017456,13.041442274550132,-1.9500221833590663,-1.0068991793185698,1.2363926993038563,-2.5021775159001916,3,right
5.947,-0.721424372584827,0.18096403450042287,0.20457132147450927,8.880380342795574,13.065651247454632,-1.9518715038912877,-1.0103269365740046,1.2366715311062446,-2.5109671833581126,3,right
5.9479999999999995,-0.6341595160667322,0.16321390248414075,0.1939300859101473,8.871884367932477,13.073491406890529,-1.947060157621493,-1.005199000299741,1.2330936903735945,-2.499746357766492,3,right
5.952999999999999,-0.5545563656882158,0.14382110884411634,0.18864317615757775,8.876023598586478,13.050207829083476,-1.9520490233583156,-1.010671581278607,1.2383005068601878,-2.5108740214036382,3,right
5.954,-0.4841847030255352,0.1190257123413364,0.17997404022424576,8.880681322411716,13.079903392140906,-1.9500679360699118,-1.0075067830971856,1.2345809862396928,-2.5048713089451518,3,right
5.957999999999999,-0.42487569857084695,0.09560154234327292,0.15924198984183946,8.860879807269574,13.044660009125405,-1.9461250579824985,-1.0047839153333435,1.2328719926748564,-2.498796432567434,3,right
5.959,-0.37566062382968357,0.07396978179869171,0.12897670539625716,8.900462295459839,13.088511600137041,-1.957620800397044,-1.0167115505759439,1.243512034347818,-2.523482220109179,3,right
5.962000000000001,-0.3320825558790428,0.04839995146922643,0.09941238574926728,8.843408672856022,13.036015197022387,-1.9395958921738428,-0.9945888723766906,1.22285850189352,-2.478257733080382,3,right
5.962999999999999,-0.29782757631570905,0.02361577987570362,0.07842784952463028,8.90349925345009,13.08724730646726,-1.9591313131026158,-1.022995877280234,1.249787591818905,-2.5360791805838696,3,right
5.9670000000000005,-0.26354505716744403,-0.0001252014617593349,0.06940506096331975,8.869266947243855,13.06081937584878,-1.9476285239561748,-0.9992816394484836,1.227130924571307,-2.487918005803208,3,right
5.968,-0.23827854832044343,-0.030052209880978162,0.07663649867482028,8.83824093760243,13.028169837757446,-1.93838205732684,-0.9999192411201183,1.2278957801596535,-2.489116047314278,3,right
5.972,-0.2298634971049497,-0.06051630440933498,0.09654339857201186,8.971228327818087,13.152851179251535,-1.9800839690528322,-1.0451480918023064,1.27081639551324,-2.5811533275929692,3,right
5.973,-0.22817339704830814,-0.08726194067505505,0.1225382012012104,8.725260447986825,12.925934889360633,-1.9024549979903718,-0.9339899062437919,1.1650508719626096,-2.35512963227575,3,right
5.977,-0.26390120384222604,-0.1158493183756497,0.14602990482602135,9.040861515437754,13.215748097848959,-2.0022406692802166,-1.1182882275139927,1.340545119928915,-2.72978656776008,3,right
5.977,-0.2970453527941375,-0.1332870248286144,0.15927605905290892,8.777474585338902,12.974466219858058,-1.9188881607238217,-0.8752070409512485,1.1090051121671833,-2.2356771578754633,3,right
5.981,-0.30941314294304456,-0.13788474105033216,0.16075898787122714,8.784467896990268,12.979955531825162,-1.9212175878662903,0.1452109008104404,0.13710330365243675,-0.1614061087636599,3,right
5.982,-0.3686227500823491,-0.14939747684363974,0.15362902446514987,9.287059742004251,13.44279261241645,-2.079960188966245,0.388279729641824,-0.09447279485139337,0.3326441315503829,3,right
5.983,-0.4485507781979805,-0.15810394789686424,0.13699025387656993,8.051935082203292,12.30672091739811,-1.6896812821608238,0.2039945920063918,0.08110088891586677,-0.04192463662099512,3,right
5.986000000000001,-0.5406725947360551,-0.15044620324745367,0.09528259640107184,10.099774069542843,14.189778501749219,-2.336826589984124,0.31515852371278263,-0.02479283904749837,0.1840378675477437,3,right
5.987,-0.6103948985736329,-0.14238051573140803,0.059083084052031644,7.398684331227082,11.70628585649138,-1.483223777588682,0.2698839598922211,0.018293174827065287,0.0919645825582347,3,right
5.9910000000000005,-0.6272475701819326,-0.1391006394410862,0.04945509276676115,-3.938867371780734,1.2804858269261743,2.0996191540131424,0.26934380536569424,0.01889917845065221,0.09096181860018272,3,right
5.992000000000001,-0.6855343297214445,-0.123969911161285,0.017578759278586507,-6.640007552257432,-1.202889695265509,2.953238591139916,0.2929190526535206,-0.003687461977062007,0.1387486887774325,3,right
5.992999999999999,-0.7600367338377836,-0.09760542650359691,-0.0267478826515501,-4.5921320044444665,0.6799245039932307,2.306067394225721,0.26464954292013076,0.023368911318467512,0.08141777440862884,3,right
5.996,-0.8049072440205183,-0.0696614237627857,-0.0524231523553319,-5.827172099275265,-0.45578215377984127,2.6963674499311705,0.2867145850007742,0.0022946270098842276,0.126211859420828,3,right
5.997000000000001,-0.852363160658213,-0.0379981041598858,-0.07005576416311418,-5.3248928320591205,0.006623347890520881,2.5376268091105034,0.2746649858919513,0.013668295643838375,0.1016088667454144,3,right
6.002000000000001,-0.8878193748250165,-0.0025893450889064567,-0.07621576100623977,-5.317314851379869,0.012472123631286802,2.5352546146157193,0.2777740311373619,0.011046338357975388,0.10828420378476022,3,right
6.002999999999999,-0.9211176464123126,0.03735736589692586,-0.07560702137926031,-5.581469719341102,-0.22886949891826794,2.618699306055335,0.28027723490049117,0.00807641643848338,0.11275990713447977,3,right
6.005,-0.9585601718975317,0.08037494127089101,-0.07311490425991236,-5.265191830707604,0.06043404984634529,2.518783288928557,0.2756125531132578,0.013238141573024732,0.1040293778245785,3,right
6.006,-0.9885752085848493,0.12432772991309865,-0.06877020594556413,-5.51128854810654,-0.1652054376742947,2.5965400893000035,0.2801024365372089,0.008388572752044365,0.11255717851139296,3,right
6.0120000000000005,-1.0174753541717783,0.1715565905189012,-0.0693401850572501,-5.379258399322431,-0.04252177708093996,2.554785152638826,0.27665507404175826,0.01166789933474412,0.10554440710475252,3,right
6.013,-1.0398953415237489,0.21749992560087525,-0.07131841011775727,-5.407847815440201,-0.07292593076681368,2.5639186429693694,0.279356498361607,0.01015534732949283,0.11214620548251461,3,right
6.015,-1.0555201033883481,0.2622450024703388,-0.07493769541053003,-5.445911187742112,-0.10084416607929372,2.5757772056885595,0.276617529831727,0.010339639722918546,0.10404090492823095,3,right
6.016,-1.0657117143353139,0.3085604212825952,-0.07952248110877182,-5.381509012295046,-0.050309300694292736,2.5556340508656437,0.27988097313850135,0.010848632245341027,0.1144600851497952,3,right
6.021,-1.0670759956850193,0.351263548776529,-0.08069474504508561,-5.4414172060194606,-0.09847529912952527,2.5743991368442156,0.2765552692387863,0.010159757001988384,0.103664899926796,3,right
6.023,-1.0608273760212228,0.3886721675821809,-0.08447281427123637,-5.403202093050856,-0.06327561478064062,2.562321350638138,0.2782349561730165,0.01078885736052956,0.10940985863679792,3,right
6.025,-1.0421890758325891,0.41905650636295494,-0.08923843100304103,-5.414627303399275,-0.08661537886949766,2.5662412453606622,0.28088115555639437,0.01018763711402846,0.11680025009653108,3,right
6.026,-1.0109682301053728,0.4392337338791632,-0.0886251173515005,-5.426679217845308,-0.0683671876488692,2.5693420943509446,0.2712614971484807,0.010946223350231137,0.08844832845174307,3,right
6.03,-0.9732662057914693,0.45015411473115047,-0.08373376278355568,-5.399559459499128,-0.08718560238329531,2.561828437081731,0.28874729050278203,0.00987831944142191,0.14030560369058936,3,right
6.031000000000001,-0.9278013621135184,0.4524030828126041,-0.0731427489224882,-5.430172888949924,-0.06869007423942891,2.5703754101757443,0.2663740223120272,0.01117227389451737,0.0738817616390878,3,right
6.035,-0.882493357018816,0.4482586683753844,-0.06194901518069188,-5.409794274962415,-0.0769054661152509,2.564588455901985,0.2850203318485436,0.010125025761152293,0.12926749103733362,3,right
6.0360000000000005,-0.8371701652263479,0.43709440879061345,-0.05188699366237756,-5.405549338566987,-0.0962288547387432,2.5638048693238185,0.28463864412763484,0.01003032967418674,0.12802566902398477,3,right
6.041,-0.789587298619493,0.42003211883934577,-0.039001143125346124,-5.445936312054825,-0.03169772415319593,2.5741155988726083,0.2486800106923344,0.012426041103992203,0.021577921494784616,3,right
6.042000000000001,-0.7505814411844721,0.40201008193440035,-0.028359056010952975,-5.367098725230797,-0.1477555647385857,2.5537537577666845,0.33691734383588334,0.006687274929682646,0.28290487100183864,3,right
6.045,-0.7077632827218672,0.3795000260488226,-0.016925695801164757,-5.469218526515405,0.0004581927755741913,2.580175673574467,0.19065265755684105,0.016158318846609808,-0.15030111066361257,3,right
6.046,-0.679144554144961,0.3634764935624546,-0.006630905222320186,-5.383597667398405,-0.12295168389660589,2.558008178306581,0.38357273710508655,0.003677318423046364,0.4210794990847042,3,right
6.051,-0.6722195336586198,0.3587807961288755,-0.005245542121114393,-5.387306594910079,-0.12086650333987342,2.559032717694602,1.1935220727641376,-0.04897716281401601,2.819915722205545,3,right
6.051,-0.644535008152987,0.34493064906457993,-0.0038420077951833425,-5.5460212853860575,0.11857370025709311,2.5999011120253352,1.3864588253412613,-0.061458663753821106,3.3913116831167303,3,right
6.0520000000000005,-0.609551637394429,0.3281651119992389,0.0004408908019222905,-5.15426340147591,-0.46846699700385896,2.4989588309784,1.2401760997818745,-0.05198707549563883,2.958089093234628,3,right
6.053999999999999,-0.5788523642674197,0.3216915449581274,0.00179614905575209,-5.80426322365424,0.504499283959021,2.666443784934775,1.3284065726270802,-0.057725645683083734,3.2194097232261503,3,right
6.055,-0.5547467775655444,0.31868160760052533,0.001966302947842979,-4.946852690789656,-0.7788171665192148,2.4455352248857487,1.292507775513134,-0.055331709985392975,3.1130170745116352,3,right
6.06,-0.5485444483343023,0.3184765437289485,0.001346853950379557,-1.3502108492488805,-6.167228836707553,1.5187409967986194,1.2919973417067094,-0.05542257162799814,3.1116567040985315,3,right
6.061,-0.5282972256138565,0.3228090732665131,-0.0034067696280308817,-0.4929174422955502,-7.45071874690258,1.2979088235196494,1.3108282475545558,-0.05647532857067347,3.1672124049199972,3,right
6.062,-0.5004416302514043,0.33096951472752345,-0.010420465944047514,-1.1427905401266583,-6.477564801850577,1.4653111306103814,1.2882711592769027,-0.05517587476098175,3.1006193104591366,3,right
6.065,-0.4825072012323631,0.34589028968070884,-0.018642718396369558,-0.750984465945663,-7.064534093308982,1.3643374217825956,1.3058362688657312,-0.05624617703942873,3.1525496081894566,3,right
6.067,-0.46337342061609554,0.367890208760447,-0.031795624379214515,-0.9101194939237568,-6.825716473495477,1.4054799487521485,1.2963744559949761,-0.055492254411190475,3.1243430412158473,3,right
6.07,-0.4492478669686827,0.3920414013756802,-0.04960707518657777,-0.9129240040341448,-6.8222917649132,1.4059146507343991,1.2985121865728715,-0.05607835081296808,3.1312652323286434,3,right
6.071000000000001,-0.44013341676681306,0.42143767328407644,-0.06928010810280195,-0.8285999025159203,-6.94762222127434,1.384592867763403,1.3010679890368055,-0.05547536685612699,3.13781690420793,3,right
6.074,-0.4333899383295733,0.45774152199198076,-0.0850281189102251,-0.9294283956631222,-6.797496006793817,1.410172624198439,1.2966670691369606,-0.05613212976857958,3.126031696340005,3,right
6.075,-0.42461247464141,0.48919036737899174,-0.09999158826250892,-0.8511479996012623,-6.914378963624734,1.3901741711840756,1.3007877302702442,-0.055648829850019024,3.1372401453335756,3,right
6.079,-0.41024405350373006,0.5091648989403481,-0.12258561237432716,-0.8926437994804617,-6.851490251675869,1.4012080454098763,1.2980563924623576,-0.055464556611000145,3.129141936333271,3,right
6.08,-0.39949887411435564,0.5210047571506211,-0.14689165181428676,-0.884826968861714,-6.865523250870115,1.3980949642495144,1.2991670663908716,-0.056929911426214105,3.134278927403488,3,right
6.084,-0.39245921490707025,0.5282832444666978,-0.16846630509175442,-0.8706029097754896,-6.882854035849783,1.3963218517951719,1.2993551129340644,-0.05375882630416207,3.130613623141884,3,right
6.085,-0.3852522266045201,0.5317967822810215,-0.17876733872421094,-0.8936631241753301,-6.853171815555001,1.39994280820581,1.2984215443074667,-0.05844661253029809,3.134147629897151,3,right
6.0889999999999995,-0.37970061005052647,0.5329257830096392,-0.17412363434444916,-0.8725652019301029,-6.880908529841528,1.3963564480943162,1.299538406879273,-0.05345772215983037,3.1307405033288003,3,right
6.09,-0.37745046980171265,0.5346748294131836,-0.16944755179081394,-0.8846706700410036,-6.862740441558772,1.3994922066408697,1.2987010489544666,-0.056327151337476,3.132140551350007,3,right
6.093,-0.3773217684967034,0.5387818984574663,-0.16122361472516933,-0.8849211968860999,-6.869528759482488,1.3961242795753595,1.2989303547629165,-0.058864449024906805,3.136163909888041,3,right
6.093999999999999,-0.37796882655232344,0.5434152411781925,-0.14794037657808942,-0.8722441532371101,-6.8721534997001745,1.4007017511395001,1.2994836843017374,-0.04786544341468291,3.1231657931990466,3,right
6.099,-0.38026907214829536,0.546539475324175,-0.1412166815686528,-0.8940535336744275,-6.863892506041433,1.3946197690318165,1.298176538741061,-0.06824315707034741,3.146439134965596,3,right
6.1,-0.38169543231524683,0.5496230413695938,-0.13555085843267323,-0.8702658031726924,-6.873509060230532,1.4009643391378939,1.2999179994562589,-0.04208301271800096,3.116741262688015,3,right
6.103,-0.3825988508652449,0.5515500357486274,-0.13243790175384304,-0.884862085355307,-6.866674088761287,1.3975182113341542,1.2984386703722435,-0.06391869033888238,3.1414597052160342,3,right
6.104,-0.3841706979903185,0.5544838840717112,-0.13304419527146533,-0.8932221706483483,-6.867112492896238,1.3934587252108637,1.2985764924451821,-0.06333958449922487,3.1410788389499684,3,right
6.109,-0.38270924382682836,0.559607945004681,-0.13123344895077343,-0.849725027652886,-6.875557243901492,1.4094426920932352,1.3010763498766957,-0.02166937918228806,3.0929986297586627,3,right
6.11,-0.3793104551115973,0.5640970887125598,-0.12709912912775412,-0.9316364629806841,-6.858024496769019,1.3801220164480563,1.29481693749184,-0.12407059143696553,3.210836073721202,3,right
6.1129999999999995,-0.3737416114350702,0.5727095547546879,-0.11399804656640702,-0.826180433689034,-6.880959122727431,1.4176988677487,1.305224800929265,0.045704007522098106,3.0155410695919276,3,right
6.114,-0.36847157188603674,0.5785096007507496,-0.10325893783470184,-0.914330847130818,-6.861639233009702,1.386357345765468,1.2914948205885715,-0.17821714751863565,3.2731308793581775,3,right
6.117999999999999,-0.3670689716046289,0.5804281309754566,-0.09882937802243019,-0.9115162432267953,-6.862820513933627,1.3870928777408502,1.23400123179615,-1.1181900421269153,4.354755269066408,3,right
6.117999999999999,-0.36068335325199746,0.5905961889970447,-0.08416130798629497,-0.7448435328922544,-6.897506136265498,1.4472242381687181,1.2202839513260275,-1.3420852090929154,4.612390470100186,3,right
6.119,-0.351381088756259,0.6001261943029187,-0.06868391774298141,-1.1550039414093585,-6.81147123958389,1.2995621791740901,1.2306779923347029,-1.1723516249949615,4.417042368792481,3,right
6.122999999999999,-0.34781748327667067,0.6096151078397032,-0.057327293070692356,-0.47481787120493363,-6.9543303697112675,1.5443574690397104,1.2244136444797178,-1.2747178480999455,4.534875255854659,3,right
6.124,-0.3458884129403309,0.6199568314856496,-0.04919326855999491,-1.3719784444224405,-6.765871180472756,1.221477635053097,1.2269584814038872,-1.2330485545384824,4.486928837975472,3,right
6.127999999999999,-0.3454922878771466,0.6209847326372244,-0.04831203294921454,-5.137246191015096,-5.975813369269831,-0.1339740633363406,1.2269991244433585,-1.2325304056268873,4.4862406538617,3,right
6.129,-0.34926377727573954,0.6265934866104621,-0.04669432133786551,-6.034324780245875,-5.787399733453057,-0.45686502560594194,1.2256594506106588,-1.2542283083011203,4.511415299388807,3,right
6.13,-0.3546247609950379,0.6372660681676671,-0.04595938715491679,-5.354240096142034,-5.930227773264683,-0.2120592372940765,1.2272614438143963,-1.2282682856583045,4.4812436927325425,3,right
6.135,-0.36245639246233374,0.643385315621021,-0.04840553730362875,-5.76438931075982,-5.8441096828016015,-0.35971125659578435,1.2260152187778013,-1.2484427915289578,4.504757564669356,3,right
6.1370000000000005,-0.3766716986064769,0.6515273073433965,-0.04972407718629195,-5.59751499677075,-5.87909165781499,-0.29963109146530953,1.226686598861733,-1.237541222706319,4.492083010333372,3,right
6.1370000000000005,-0.39451899537591323,0.6590066411542366,-0.05062670287150847,-5.5951960495435875,-5.8797240633771075,-0.2987929270407664,1.2265326866971555,-1.2402278837419236,4.494920894425093,3,right
6.138,-0.4119540639654983,0.6654511272437772,-0.05187958568691478,-5.682586247646744,-5.861120081058437,-0.3302755817760167,1.226357300606581,-1.2425770156455336,4.4984448411041775,3,right
6.142,-0.4335037682207574,0.6755674770963431,-0.052310193200460674,-5.577949122936323,-5.883430588689281,-0.29256571335379855,1.2266599834957699,-1.238505819186608,4.4923448679842135,3,right
6.143,-0.46022215079347734,0.6860892212726033,-0.052864348451530874,-5.659392284508657,-5.866002273963884,-0.32192981521798314,1.2263781678762729,-1.2420450684218274,4.498154611310532,3,right
6.147,-0.4866683936729665,0.6950074136286519,-0.05621351812079671,-5.615456780829483,-5.8753628645039235,-0.30609225929625417,1.2265659245192615,-1.2398232556684383,4.494212996336719,3,right
6.148,-0.5154059980672313,0.7047264461210605,-0.061866430835235936,-5.625684539865159,-5.873504622670626,-0.30973548612272545,1.2264811038331411,-1.2412192200737646,4.495807096892525,3,right
6.152,-0.5483679669745214,0.7165098835208903,-0.06856312819681086,-5.636804141949385,-5.870255917087278,-0.3138674167181773,1.2264929343695221,-1.2394524132954134,4.496343762706487,3,right
6.152,-0.5797271896250777,0.7264031633640518,-0.07654829215961384,-5.617557722611156,-5.8758650596133215,-0.30671456297659977,1.2265123578948565,-1.2427265787040302,4.494238686471238,3,right
6.1579999999999995,-0.6105604622205308,0.7338047184919239,-0.08613128233120845,-5.635336522190599,-5.870210796722244,-0.3133911140782759,1.2264943399229473,-1.2376651915871975,4.497175393598438,3,right
6.159,-0.6419221541573399,0.742287054030792,-0.09247900725040623,-5.623567235683616,-5.87421243835105,-0.3089336330039497,1.2264991131678178,-1.2432955467263993,4.494315333380195,3,right
6.162000000000001,-0.6705956133788157,0.7509181099180794,-0.0948488434845047,-5.629132995923312,-5.873058508634497,-0.3109351344233582,1.226496198523772,-1.2400454267392313,4.495970729716959,3,right
6.162999999999999,-0.6965769238218836,0.7601751331136526,-0.09651565128591194,-5.627379002674132,-5.870584739135979,-0.3107139938560082,1.226525654749841,-1.2367203847469987,4.49679778720181,3,right
6.169,-0.7186090744343037,0.7721300903165008,-0.09405865891818865,-5.628330683230541,-5.876878372166644,-0.31011915418838515,1.2264381541205351,-1.250593358095621,4.492401726241574,3,right
6.17,-0.738567568442626,0.7838850356533087,-0.0892418978575465,-5.626201153592639,-5.867638858535994,-0.31075074450023266,1.2265983220517995,-1.2249009643714044,4.500592663949654,3,right
6.172000000000001,-0.756281153799073,0.7947532519088076,-0.08229584053731206,-5.629412640061465,-5.877290810046183,-0.3104169292859297,1.2263900777692573,-1.2579329179491459,4.490125177444233,3,right
6.172000000000001,-0.7692741612503232,0.8051707064481053,-0.07252509348341288,-5.627568751487987,-5.87171091859277,-0.31061279497593386,1.2265650166466804,-1.2303388844398442,4.498840797090326,3,right
6.18,-0.7760973062876406,0.8112508799347449,-0.06245540353449979,-5.623884580409593,-5.867342559111558,-0.3100315550552695,1.22656393874505,-1.231025210142676,4.498542916819428,3,right
6.181,-0.7778336231957732,0.81465589798002,-0.05186639193425811,-5.637292356050639,-5.887034693036542,-0.3116059935033293,1.2262153024090972,-1.2838894285219622,4.482190486723159,3,right
6.182,-0.7783221406276689,0.819132510138054,-0.042834026460248344,-5.6125666911132885,-5.850484459022617,-0.30873275815014956,1.2270690894641034,-1.1540081651340526,4.522428286454239,3,right
6.182,-0.7683308861421589,0.8213770540118386,-0.030081260701358768,-5.644484154176581,-5.897383321493226,-0.31248643420576017,1.2256536097414674,-1.3693539213201777,4.45571841367777,3,right
6.186,-0.7567797565641708,0.8208136293253594,-0.018829104795871247,-5.617766299562168,-5.858241711966439,-0.30932133416528895,1.2275211542845135,-1.085306045275737,4.5436916437895345,3,right
6.187,-0.7536962142780037,0.820887771859899,-0.015840995041527958,-5.618251978605386,-5.859358575589765,-0.3093348525182298,1.2353784599015247,0.10729970714696957,4.912815080455617,3,right
6.188,-0.7416639481172453,0.8201419053194856,-0.007112377509682499,-5.670178517680517,-5.933769194714266,-0.31569053063361474,1.2372476722194197,0.3913754230577891,5.000764341950192,3,right
6.192,-0.7237381830817485,0.8202726167651573,0.007293505351865886,-5.542749936486379,-5.7508202746073245,-0.30011543711875893,1.2358284775069293,0.1759661889922428,4.934090960308865,3,right
6.193,-0.7035037423749251,0.8248700442110936,0.01885027920651839,-5.75402579044889,-6.054169110908408,-0.32595461815189786,1.2366883455565323,0.30595414764060946,4.974301223997653,3,right
6.196000000000001,-0.6889011647395417,0.8272641513590228,0.023923229150351527,-5.475317132463554,-5.654053919591355,-0.2918464891134794,1.2363317432850245,0.2529462632424169,4.9579398747946595,3,right
6.197,-0.6850439965123488,0.827177148548342,0.024882663481097644,-4.304307911765556,-3.975040225809226,-0.14866151859268673,1.2363384846985142,0.2524063264032734,4.957712694272823,3,right
6.197,-0.6683690881545488,0.8335292057845949,0.0320636734817618,-4.025492676913727,-3.5749558685084,-0.11452934631193995,1.2365096743577935,0.2799207500359258,4.966285704486934,3,right
6.2010000000000005,-0.6467542018820762,0.8444293952581697,0.04188252531079646,-4.237000354171317,-3.878217705379411,-0.14038704290777373,1.2362958425073143,0.24680533432626459,4.956011743367681,3,right
6.202000000000001,-0.6290738660393228,0.8556208996986581,0.04538867124865971,-4.10920293292409,-3.695446088120814,-0.1248484000122996,1.2364757304310996,0.27283594168101005,4.964023508888106,3,right
6.207000000000001,-0.6072059844266663,0.8709397459163895,0.040130916567183914,-4.161597792019451,-3.7695756823862183,-0.1310630397168534,1.2363531431288814,0.25833828510232526,4.959681722443444,3,right
6.207000000000001,-0.5870282441087181,0.8932720475393054,0.031647404001582655,-4.161644217382053,-3.771035537207651,-0.1313434447059016,1.2364270079511681,0.2624776400949831,4.960713183907918,3,right
6.212000000000001,-0.5644271923168319,0.9183635761779825,0.02316194118397146,-4.135101094272953,-3.7316116441628386,-0.1278249639857171,1.2363865274417531,0.2650047365558442,4.9618011278905545,3,right
6.212999999999999,-0.5397364244416223,0.9442422099712586,0.01031599278906545,-4.167412995277365,-3.778529919812592,-0.13189396333666276,1.2363960385487678,0.2595395080282117,4.959866000277381,3,right
6.216,-0.5164029636253823,0.9745940499575688,-0.004228073844838579,-4.141461557270187,-3.7424572472643343,-0.12895257329448698,1.2364360387723883,0.26554816918321467,4.961724032880724,3,right
6.2170000000000005,-0.4925502126365155,1.0057716792041544,-0.022826853382373995,-4.156962971382713,-3.7610129869006874,-0.13009979380133074,1.2363137196191625,0.2597986318793843,4.960394748581654,3,right
6.22,-0.47146471429356857,1.0341132013345193,-0.04686086494660111,-4.1507190617332,-3.7583789393494014,-0.13062555251019742,1.2365442518528402,0.2655058861146923,4.961131773635023,3,right
6.221,-0.45013566278738115,1.0613757319284565,-0.06852687207005555,-4.15091026201927,-3.7509043427795423,-0.1290668952574089,1.2362176212896547,0.25960914193883006,4.960842670501618,3,right
6.226,-0.42464068536628163,1.0851687687036797,-0.08254895385961164,-4.1541467585093095,-3.7617201744002804,-0.1307238354345362,1.2365594617455817,0.2649374500884665,4.960854014554325,3,right
6.227,-0.39682078129667875,1.1045234944432614,-0.0869177355621358,-4.148228826600754,-3.753287921035322,-0.130011295179422,1.2363662464215621,0.26250079305640717,4.9610470353867715,3,right
6.23,-0.365458587594498,1.1203847446463955,-0.08602248461688353,-4.157822074185642,-3.7555939544190404,-0.12884456821708776,1.2361863262262893,0.2584043404662657,4.960592795942022,3,right
6.23,-0.32826232221043317,1.1346751952291645,-0.08010876720144403,-4.143195816795808,-3.7607873853273386,-0.13240329847491056,1.2369490285020865,0.2726500688139133,4.9614351878281475,3,right
6.236000000000001,-0.2863455921942052,1.146505288066757,-0.06601227941803561,-4.162445477791481,-3.7493551154400295,-0.1267800107528635,1.2355405087103861,0.24710101067139084,4.960144527191459,3,right
6.237,-0.24051873219206166,1.152109073625141,-0.04526717184878108,-4.142865282749735,-3.7628900593391066,-0.13288949263760338,1.237346872543384,0.2795941267919452,4.961702618151508,3,right
6.24,-0.19922679697938783,1.1573962727849674,-0.020430931849720085,-4.153548751632908,-3.754166151559729,-0.12928252674709204,1.2358399503121025,0.2525989651262913,4.960445816316854,3,right
6.2410000000000005,-0.16020832925272394,1.1580824568269654,0.004618234137564635,-4.164716214405975,-3.74945487083236,-0.12641226370543845,1.2358788436797745,0.2531272704521237,4.960410020768654,3,right
6.247000000000001,-0.12349389888195261,1.1514016199245982,0.030164090253691017,-4.119454249292399,-3.7752551081039645,-0.13941472764746896,1.2387570915345283,0.30514048513921227,4.962989976414623,3,right
6.247999999999999,-0.09755080534011792,1.144380899109398,0.053335543988846754,-4.202540235676803,-3.726185056511367,-0.11519762679703861,1.2316858401708193,0.1775896898764217,4.9567544171180735,3,right
6.249,-0.05900553578088168,1.1261950819561655,0.06664687961896357,-4.096160012905738,-3.7896330016883537,-0.14633065452656394,1.2434085289575394,0.38896683025384005,4.9670463024230145,3,right
6.25,-0.031262176515528504,1.112544808813835,0.07110014317133492,-4.1848439879883506,-3.7364796846116013,-0.12032414527789181,1.227947931165735,0.11019735157170277,4.953499620162683,3,right
6.255,-0.02307775660130629,1.1080751832336757,0.07182469206177369,-4.182638197869601,-3.7381997896008627,-0.12105077812076649,1.1630509190904808,-1.0600937037460192,4.896586239953045,3,right
6.257000000000001,0.016023892156771975,1.0869908775980304,0.07207423949411385,-4.013016231579811,-3.8388017753100128,-0.17057890941104542,1.1475947213857474,-1.3388720204726567,4.883094816724526,3,right
6.257999999999999,0.06774520821633935,1.0607199937306762,0.07100521959333872,-4.4296491000036,-3.591131742318817,-0.048813213688436566,1.1593094980657968,-1.127498164700397,4.8932830483677465,3,right
6.26,0.13159466676076337,1.0270502174242935,0.06734921491126344,-3.7389508960983284,-4.001925432966397,-0.25071634339919524,1.1522475987641447,-1.2549998193905632,4.887180128084467,3,right
6.261,0.18507225204358013,0.9996841813969559,0.06622720407518795,-4.649953149272568,-3.4600479801041963,0.015593577009276674,1.1551186251735124,-1.2031121342017377,4.88963807663095,3,right
6.265,0.20047928418906671,0.992429323034433,0.06510773125034044,-8.474033914350466,-1.1857405013510949,1.1334098584604537,1.1551576821222325,-1.2023764063950226,4.889650794461364,3,right
6.265,0.255613932277045,0.9656922822961419,0.057934209369277845,-9.385080375998148,-0.6438997333654867,1.399707332868729,1.1536628347148743,-1.2296187975361366,4.888495772044127,3,right
6.266,0.3441135419194975,0.9316454368312161,0.048601914342528474,-8.694322517295486,-1.0546551507739872,1.1978239565190845,1.155441797863197,-1.196942158022913,4.889738481314595,3,right
6.27,0.42641021451689176,0.9082948708665575,0.03828140397281693,-9.110979075241104,-0.8069650014365163,1.3195725029190648,1.1540736570549357,-1.2224540437186566,4.888981375371561,3,right
6.271,0.5194851502112904,0.8858228682028926,0.03589751209007271,-8.941429427216349,-0.9077089966013789,1.2700456174868822,1.1547940843824427,-1.208634013099367,4.889178664968505,3,right
6.275,0.6124031012059645,0.8763848357896433,0.04664300285165733,-8.939010350734346,-0.9091304625386797,1.2693469776768778,1.1546371469223393,-1.211820459498084,4.889226883572492,3,right
6.276,0.7022755479844383,0.8769836961081984,0.05710553444724427,-9.028046324604666,-0.8563998052950392,1.2952887912273108,1.1544685791341052,-1.2155631543545389,4.88944844771291,3,right
6.279,0.7832935665468966,0.8861432600388479,0.0668594276606157,-8.921257876141077,-0.9194337620944495,1.264250867334785,1.1547119678643212,-1.2089103265621173,4.88847535101911,3,right
6.28,0.8432000283133703,0.9035105101664629,0.07589537640966726,-9.004627192471663,-0.8705295632034276,1.2883699535617674,1.1545656688799921,-1.2154469687615252,4.890388866650773,3,right
6.284,0.8785398339815529,0.9240030807996803,0.07812126211100048,-8.959468738917385,-0.8967146897434433,1.275417129062198,1.1545634533692342,-1.210703835795654,4.887882749251001,3,right
6.285,0.8857238038120677,0.951093855516755,0.07243535904712459,-8.96987790352825,-0.8908142666297482,1.2783533504876035,1.15464395168783,-1.2130659895949378,4.889949191029173,3,right
6.29,0.8675173637801976,0.9761045421942216,0.04856406748541472,-8.982108960647274,-0.8841103460004911,1.281718491344813,1.1546458263358845,-1.213062693711808,4.889968321294994,3,right
6.291,0.8266896004775404,0.9955471592470125,0.00560570497954372,-8.960373899042828,-0.8951973568595537,1.276041822109063,1.154370771235008,-1.2109550639173814,4.886025122837185,3,right
6.294,0.7729502536133828,1.0149033099317886,-0.046072628893604244,-8.981722661986165,-0.8856695552324569,1.2811169929625268,1.1550528168761385,-1.2148132519067172,4.895083605272511,3,right
6.295,0.7169959379317805,1.0313202720644177,-0.09990444958488529,-8.966239035927844,-0.8909898259686824,1.2780205192777054,1.1539912949419953,-1.2098470026897692,4.881531113860528,3,right
6.297999999999999,0.6661373053524258,1.0424819862106114,-0.1493702487718092,-8.973944134194141,-0.8895069850769444,1.279133330198516,1.155148779547408,-1.2146800524445445,4.896001495861058,3,right
6.2989999999999995,0.6279694973168011,1.047700151348204,-0.19387585810544544,-8.973935256122365,-0.8895394929526176,1.2791206669617505,1.1544713392298163,-1.2120337167598727,4.887631988003534,3,right
6.303,0.6003798297050833,1.045222259379672,-0.229593297794969,-8.96706945403649,-0.8878726266465662,1.2792276098692825,1.1538854087207204,-1.2098184508564964,4.8804186448059745,3,right
6.303999999999999,0.5807248199047772,1.0349597271715933,-0.25111327584734816,-8.979624522647018,-0.8935468930265912,1.2780667354920703,1.1564626124732036,-1.2193453560468361,4.91200539328711,3,right
6.308,0.5696719493004374,1.0195480211324692,-0.2664663885082087,-8.9634770416863,-0.8835459638152572,1.2805533920008911,1.15167246667677,-1.2018434171318821,4.853415389643864,3,right
6.309,0.5617215085227374,1.0034540207231317,-0.2779325053832925,-8.979181028367808,-0.8951049156468114,1.2774613430785993,1.1578310788078987,-1.2242032620718968,4.928657482612275,3,right
6.314,0.5588708074555361,0.9907426526457876,-0.284444167919539,-8.97058964933877,-0.8881393530410464,1.2793888950772514,1.1526847029707732,-1.2055815100124236,4.865833019714635,3,right
6.315,0.556159680743886,0.9828437356766391,-0.28828991860126074,-8.96338482615931,-0.8820150319045994,1.2811093698367984,1.152828418318725,-1.2061067806468144,4.8675478229601525,3,right
6.318,0.5473653538412879,0.9788193847379947,-0.28275665287112056,-8.994336677138874,-0.9091622439410161,1.2734104693672572,1.1626357425404596,-1.2414717026661917,4.987310630486972,3,right
6.318,0.5384264678365265,0.9831252565033065,-0.27957559361334633,-8.937491077696087,-0.8584879141558615,1.287850233128335,1.1385196559839557,-1.1545501842902364,4.692918530818766,3,right
6.325,0.5180537808808261,0.9949493640201458,-0.29052038560928295,-9.010098735883268,-0.9237843484952732,1.2691965270113847,1.178513203262765,-1.2986571403182714,5.18105459795907,3,right
6.3260000000000005,0.5017179968997123,1.0017762737206386,-0.29755095489934,-8.949652887489139,-0.8691718396691124,1.2848191760500591,1.1257558764957656,-1.108590916959342,4.537190149460981,3,right
6.327000000000001,0.49725451777674107,1.0032365654199231,-0.29793136156763245,-8.951302708205748,-0.870636798797591,1.2844010933197332,0.9044440930174314,-0.311301953870771,1.8350090075968293,3,right
6.327999999999999,0.47748675945091773,1.0070775253879864,-0.304323075632255,-9.066233725904748,-0.9749805772131535,1.254514203353994,0.8516907021428509,-0.12127396663952239,1.1911596206048876,3,right
6.327999999999999,0.45268834240397826,1.0083297349442466,-0.3070114691472079,-8.783851366543377,-0.7184607110235319,1.3280019077950582,0.8916628734207913,-0.2652711623449315,1.679224294014094,3,right
6.332999999999999,0.4196138530822868,0.9992981250363628,-0.29206139883901516,-9.251959002792738,-1.1438416461029215,1.206127950530245,0.8676057983504506,-0.1785761538141883,1.385021155803688,3,right
6.334,0.3908715638077932,0.9903719605710821,-0.2783236999737794,-8.634569513492686,-0.5827243097653154,1.3668933676078496,0.8773022511162418,-0.2135788921390992,1.5044356776227006,3,right
6.334,0.3832011220531403,0.9870916436104773,-0.27422779022410826,-6.042182520185763,1.772620352909819,2.041517450394747,0.8776010150789733,-0.21454981018983313,1.506631074648204,3,right
6.337000000000001,0.3530805621491986,0.973367726278553,-0.2521285854049553,-5.424562434527102,2.3337491285954597,2.202234157135517,0.8722991860435769,-0.19555620599880238,1.4433327311986377,3,right
6.337999999999999,0.3082509077331608,0.9502172920059724,-0.21803699703219148,-5.893202514777788,1.9083614894348815,2.0804751558969965,0.8785290893984012,-0.21795267989555234,1.5187779144047655,3,right
6.343,0.26954261632545373,0.9240902716245767,-0.19335452795483649,-5.609912812000729,2.1648565556072685,2.1537623962046353,0.8738632525424801,-0.20105453765140074,1.4605994235489916,3,right
6.343999999999999,0.22620172760879745,0.8895332590537437,-0.17109569713244843,-5.726082456440172,2.0605952568154873,2.124155292037434,0.8760219216578929,-0.20912225912808768,1.4908616354398747,3,right
6.348,0.18575675008531,0.850508299085587,-0.14743737007265417,-5.726447536770609,2.0589805008748874,2.12343890844662,0.8761694835456308,-0.20915124951836234,1.485936307008771,3,right
6.349,0.1397341290981325,0.8096507805899207,-0.12506231633860007,-5.666738694144497,2.113785646249469,2.139246131921287,0.874577202493648,-0.20403230736254863,1.47474780223002,3,right
6.352,0.08625109467105091,0.7719971226507882,-0.10356790118601344,-5.739992659347166,2.0483250226081156,2.120712293742992,0.8764867574331141,-0.2104191511467326,1.4914847190962326,3,right
6.353,0.027484411099446875,0.7431251915797084,-0.08242559282483715,-5.680305384671124,2.099018916526555,2.1345364883615883,0.8753794981969025,-0.20642619962678516,1.4779078832651489,3,right
6.358,-0.03976782911951178,0.7236578072717355,-0.06519381142432862,-5.716607187586176,2.0721307826434785,2.1280338064801665,0.8747859130468911,-0.20520066564914097,1.48286173961599,3,right
6.359,-0.10780498640450698,0.7246125966008587,-0.05593137535782189,-5.70232844571469,2.0776239040383846,2.128136208817029,0.8775217115050502,-0.2129696868486352,1.48838104478377,3,right
6.3629999999999995,-0.18511985233783268,0.7517471749402331,-0.0497560447840307,-5.700156394811742,2.0855613051162294,2.1315824066158036,0.8729546942019439,-0.19963029958076167,1.4742166064633857,3,right
6.3629999999999995,-0.26929259299521235,0.8092832684203357,-0.0338755793518587,-5.714112447446964,2.0729331668700217,2.1279754206126418,0.8780009030868979,-0.21449017331335132,1.4914862688003452,3,right
6.367999999999999,-0.3593334717071437,0.9042261526457653,-0.0009642420399421092,-5.690193710245374,2.083600846398924,2.1288559582896633,0.8749661166093428,-0.2054754732114039,1.4800527316219307,3,right
6.369,-0.4437873478943166,1.0239581270399536,0.04240494770852836,-5.723791243537998,2.078362184402736,2.132326513456034,0.8727203437053404,-0.1990374981079987,1.474720970270507,3,right
6.372999999999999,-0.4890266663004431,1.147291940147735,0.08338716316589748,-5.68288671360902,2.077801588874485,2.1247495982217064,0.8832319376318802,-0.2296715416244506,1.5064017973006156,3,right
6.372999999999999,-0.4700974252726231,1.2467984606817755,0.10077754892485094,-5.722431966029879,2.0820890765407305,2.1338841112623994,0.8635768388967173,-0.17228041018610935,1.445677540186748,3,right
6.377999999999999,-0.363346038618533,1.3135548994292807,0.11185903806021577,-5.701654997548708,2.077727326746433,2.128065629199078,0.8888728897451253,-0.24618132016071248,1.5243609775410025,3,right
6.379,-0.23333637035155047,1.385246746579168,0.1771765835086736,-5.679381363040033,2.0779366835219397,2.124189412010849,0.8677302576262014,-0.18439908636756144,1.458372080097344,3,right
6.381,-0.04746472879463436,1.4768581767118496,0.2934994916726119,-5.767650584607821,2.0853993229575982,2.1435588395270626,0.8683396084979556,-0.1862021853192044,1.460620460768062,3,right
6.382999999999999,0.22232560258024298,1.5807467169751752,0.4272476558001754,-5.606639481762349,2.0691160146614376,2.106935887579709,0.9085554336953111,-0.30365864023682976,1.5852181456758467,3,right
6.3870000000000005,0.500549721103858,1.6946387739643374,0.5542594543916817,-5.812194724869375,2.0911107700556832,2.154274851436951,0.809656728142182,-0.014779398976944275,1.2783040255747808,3,right
6.388999999999999,0.9249206064662978,1.7681781748375358,0.6185627663359425,-5.64109483509054,2.0722808023421484,2.1146167365045736,0.9736546278774505,-0.4938193453393891,1.7874334389999014,3,right
6.392,1.2494786644202747,1.7841654595560592,0.6200191976874289,-5.645288936493214,2.0732020045134867,2.1158155744733804,0.7573362151765278,0.13804829310142958,1.115803399659396,3,right
6.393,1.3297383804400278,1.7768885563896806,0.6015476981143276,-5.972349272235405,2.108338664287725,2.19119743055966,-0.1506370692298406,2.7902586534194826,-1.7030023090326882,3,right
6.394,1.5885201912792826,1.7413748335398282,0.5466877758536358,-5.169257529062404,2.0212366956976155,2.005690711687775,-0.36695335535006157,3.422104695226657,-2.374647859727248,3,right
6.396,1.7942111095730446,1.7008476336037401,0.44822933190268377,-6.500448487623375,2.16601585231038,2.313384064415386,-0.2029550044871641,2.9430849096927676,-1.8654481082734564,3,right
6.397,1.7704822338522752,1.6896313616505214,0.38874339425608484,-4.744792982327443,1.9748680310152742,1.907473450072493,-0.3018643326008012,3.231984391225802,-2.172545541464203,3,right
6.403,1.7667686559819464,1.6881450009139862,0.3659504716851144,2.624412472273518,1.1726621035180758,0.20384140748820784,-0.2616207799355479,3.1144270221892487,-2.0476124483635445,3,right
6.404,1.6388203898841653,1.6860383789603393,0.26481023701949946,4.3799789757910625,0.9813934923236259,-0.20212380541647357,-0.2610576633797705,3.112825416722031,-2.045824478192639,3,right
6.405,1.386874449989613,1.6921528474924394,0.13125422125674246,3.049002019714216,1.126410308645767,0.10565925804085206,-0.2821447527101625,3.1743312663802845,-2.111362409910798,3,right
6.406000000000001,1.1126701434625388,1.7082334998100286,0.06174495524617221,3.8517134596703473,1.0389791427252697,-0.07993351698660595,-0.25689058630595346,3.100689946367739,-2.032866768514571,3,right
6.407,0.8033165006595879,1.7331638072727693,0.04090433095641375,3.525193245376111,1.0744634472517185,-0.004523876794384374,-0.2765525407176823,3.157998088942413,-2.0939951662287744,3,right
6.412000000000001,0.518133995756328,1.7653785142283809,0.04713081634482896,3.5204112188914314,1.0751584916111043,-0.003235356019452615,-0.26594754171576934,3.1270742777230396,-2.0610351282498813,3,right
6.412999999999999,0.25756379825244613,1.798425761148575,0.04709506608343404,3.6918943655238174,1.0562350071270505,-0.043141716643603376,-0.2683953775834056,3.1343306233958796,-2.0685642839622584,3,right
6.415,0.03189313765390514,1.8249435140591803,0.025712590885707952,3.486531668574916,1.078844707308789,0.004593905581591508,-0.27113811025924095,3.142000603515186,-2.0773035188205244,3,right
6.416,-0.14672879754455417,1.8331624644952083,-0.0050316649563143835,3.646393497126261,1.0613271086435896,-0.032477719673228184,-0.2663907202605432,3.12872151725146,-2.0621807682387514,3,right
6.422999999999999,-0.28929936052700356,1.8062665848265351,-0.03928283002893068,3.560415594076877,1.0704942908890356,-0.012809456636518453,-0.2708085866941068,3.1409046892560575,-2.0763662982273594,3,right
6.4239999999999995,-0.38332777506017257,1.7428968111300829,-0.06694381366149244,3.579534931321138,1.0690540270631503,-0.016548134138033868,-0.26786630774220954,3.1328853917129966,-2.066857770523481,3,right
6.4270000000000005,-0.42707600508457333,1.6440457320736674,-0.09518896397678628,3.6033469131006797,1.065353557730937,-0.02322829756408219,-0.26920747687364777,3.1368078858338495,-2.0710181817608033,3,right
6.428,-0.4264868891246357,1.5122323808246958,-0.1247948822047263,3.562626650513927,1.0711466552109745,-0.012372614911173991,-0.2689780222155951,3.1350710316164374,-2.070998908799967,3,right
6.431,-0.38820843871858446,1.3677865702749121,-0.14822572254574853,3.600656804958202,1.0659221597159774,-0.022313742575035246,-0.26876540661808757,3.1368878182532542,-2.068755374300121,3,right
6.432,-0.3172898395904187,1.226921120900213,-0.17018373633998263,3.5758114586020833,1.068619158087528,-0.016579462704144156,-0.2689112655180782,3.133676795698366,-2.071570067842738,3,right
6.436,-0.228306313423179,1.09691380382955,-0.18658500802546643,3.5849184088577917,1.0696333405172789,-0.016555383939132258,-0.2689830542263222,3.137764021974955,-2.0692753880556287,3,right
6.437,-0.12622300148354526,0.983226087807918,-0.19075064896651311,3.588909086030718,1.0646139640312928,-0.02234453786383863,-0.2689438788257621,3.1354085733939496,-2.0706082537619523,3,right
6.441,-0.017882611523681542,0.8860630021931113,-0.19151618746185955,3.5770149821352364,1.0727488089876487,-0.012335247984081537,-0.26840663971060696,3.13190931635822,-2.0701944244453467,3,right
6.441,0.07765342419515366,0.8028929901208673,-0.1934931831417601,3.5908013544148814,1.0639567043256948,-0.023260466665431676,-0.2701064136205972,3.145324719120777,-2.0699837845886604,3,right
6.447,0.1589681423871478,0.72995372390826,-0.18499086227262068,3.5810870928909146,1.0692266464765634,-0.01654497552516172,-0.2669862513096257,3.1205378221584974,-2.070473698760112,3,right
6.4479999999999995,0.19942918426003353,0.666330526998671,-0.16492568710632188,3.5813717072785334,1.0728280482279127,-0.012753820695553739,-0.27103484871106365,3.152490215810018,-2.069975811610801,3,right
6.4510000000000005,0.20193261764907985,0.6079239161816888,-0.1402528806305648,3.59430095757233,1.055526351566324,-0.03261417870338093,-0.26763529364166505,3.1257550037778765,-2.0703302663637584,3,right
6.4510000000000005,0.15580586330251084,0.5616489732567422,-0.12383515775483228,3.5677629583703894,1.087889795779558,0.004805330633399661,-0.2676755936588382,3.126333694630545,-2.070161023122841,3,right
6.456,0.050398503962766156,0.532778475172062,-0.12163131443675013,3.6024165590218917,1.0462722678601555,-0.0433729876255001,-0.2743808232517708,3.1779486472339897,-2.0701751920931732,3,right
6.457000000000001,-0.05586610942529097,0.5159472960564031,-0.1251096189633041,3.5732481002363023,1.081040264453855,-0.003101591951576066,-0.2579377998968646,3.051183450643361,-2.0702553650445914,3,right
6.46,-0.2486627667526234,0.540327743861353,-0.15889621381516128,3.5749415055960183,1.0800059553875778,-0.004388626670702651,-0.2852067172858134,3.2613903128018036,-2.070141125290486,3,right
6.461,-0.4095541131073979,0.5721781443845791,-0.19372330845147234,3.6276061362356242,1.0140198638058096,-0.08052340150874429,-0.2492248029534558,2.984080642925491,-2.0702463338531016,3,right
6.462000000000001,-0.43232126918525204,0.5763612270054062,-0.19845466775250625,3.497086326104272,1.1763120297100562,0.10683055230001288,-0.09808081746917513,1.8199353056305847,-2.070371052807741,3,right
6.4639999999999995,-0.6352411643662261,0.6284358381666441,-0.24349121924493947,3.7137863340430277,0.9072011587379079,-0.20385822795443514,-0.06207916096949717,1.5425746424762756,-2.070415874375728,3,right
6.465,-0.8424460032813057,0.6843223445918879,-0.2900646562781548,3.4279141307476966,1.2621521767405484,0.20592657884260387,-0.08937696173522916,1.7528356031786654,-2.0703871885150837,3,right
6.47,-0.8706804197616664,0.6923207324323878,-0.29628660808385765,2.2293696002321743,2.7519565043628003,1.925793326584218,-0.07291541327616248,1.6260951902339738,-2.0704205938835534,3,right
6.471,-1.0419281016490447,0.7302382036421211,-0.3363455121762925,1.9435421952330727,3.1068777635890497,2.335509642098077,-0.07960472965490875,1.6775192989274235,-2.070365684815117,3,right
6.472,-1.2545096246049359,0.7739961922481249,-0.38181749475124716,2.160227028805747,2.837807435527253,2.0249152415920624,-0.07971597223266846,1.6785033822177575,-2.070443708637703,3,right
6.475,-1.3706030284770765,0.7878020952515306,-0.3951757156551539,2.0295708548309848,3.0000822857697838,2.2122255587863906,-0.07618531358972354,1.651191104890948,-2.0703646587453894,3,right
6.476,-1.4709957211319709,0.7957777603669172,-0.3937600044894841,2.0826393835443366,2.9340503366833963,2.1359930412324917,-0.08040117170427355,1.6837129153337158,-2.07039710567667,3,right
6.48,-1.5157386478897985,0.7917679608106778,-0.3625093989941396,2.0836261745440563,2.933155410028044,2.1350152293809206,-0.07714066734787403,1.6586900034020138,-2.070474978091497,3,right
6.481,-1.52589148177035,0.782347818360521,-0.30567065261691234,2.05534081509954,2.9676909631995256,2.174764065455075,-0.0788539071398473,1.6715941703519968,-2.0702311295783384,3,right
6.484,-1.5187356038657984,0.7751273169322682,-0.24038039831660132,2.089277476911632,2.9263456197430653,2.127205037041208,-0.07854352561805661,1.669703349596011,-2.0706505255671197,3,right
6.485,-1.4958397703998838,0.7703883588409558,-0.18258897356980724,2.062747154431107,2.95851600287666,2.164173615449453,-0.07796008512812744,1.6645984087630534,-2.0701355196819824,3,right
6.49,-1.4717884573144147,0.7725389744797756,-0.14398334634807802,2.0769871988731063,2.9411548295405394,2.1442048179479665,-0.07886264787095049,1.672036459488377,-2.070546180040594,3,right
6.4910000000000005,-1.44098792542465,0.7824691586596739,-0.12357488658572502,2.074245215075315,2.9452475770523456,2.149073555421147,-0.07810303984162473,1.6661895320321443,-2.070550763462008,3,right
6.492999999999999,-1.410706519353396,0.8007814250686308,-0.12140775318129503,2.069067137224615,2.9495007650028535,2.1535189514778557,-0.07844185700084959,1.6679001650126768,-2.069785404835663,3,right
6.494,-1.3685940985433152,0.8287548105379947,-0.13245229331637975,2.0780071207562445,2.9421371139280024,2.14581858488521,-0.07860954339305336,1.671246182893173,-2.0715336984282375,3,right
6.501,-1.313252214150838,0.8705259324494881,-0.14771626874195642,2.0689005484038487,2.9488633494878878,2.1526014312886037,-0.07802758352358505,1.6636992216567394,-2.068925731151834,3,right
6.501,-1.244307803054593,0.9240209236936571,-0.15454962479505163,2.0753930324086056,2.944452310144167,2.1482920034864765,-0.07876938998811439,1.6726795400611714,-2.0717057241312125,3,right
6.504,-1.163687377714818,0.9886336628020435,-0.14477259570887263,2.073645775728942,2.9466563959442507,2.150843590982129,-0.07825939931157948,1.666863741544311,-2.070099873450032,3,right
6.505,-1.0819818752280193,1.0619727891731838,-0.11708214102249243,2.069111225947302,2.9455074098398506,2.148064401509986,-0.07807269617094441,1.663799507313379,-2.068714007674035,3,right
6.507999999999999,-0.9953530359197192,1.133136488334767,-0.07185122697896401,2.080446236749133,2.9469242110780116,2.153019606646672,-0.07935642152368352,1.680806042850985,-2.074776085649889,3,right
6.5089999999999995,-0.9111389755825365,1.1941130438349477,-0.015425506261078543,2.063762574902161,2.9445293293676884,2.145302998629653,-0.07686551723136689,1.6484176139758635,-2.0635350751847943,3,right
6.513,-0.8238650481327072,1.2389478169342696,0.04557898138688846,2.081248646923919,2.9474553930797187,2.1539592379785386,-0.08010363115471626,1.6903121754772688,-2.0779679698936686,3,right
6.515,-0.7410627691677645,1.2702816097879288,0.10464428338535593,2.071139600867734,2.9457682411999753,2.148962621117759,-0.07738363068166992,1.655207090425626,-2.065920304698349,3,right
6.518,-0.6571328483166117,1.2861913098993498,0.1545922247770059,2.063098614092941,2.943488589571926,2.1436999143211906,-0.0774828084417768,1.6563567367254985,-2.0662425699363167,3,right
6.519,-0.5659212380530239,1.2860066070484901,0.18757575172970883,2.099167645158108,2.9523982223137666,2.165494144098839,-0.08260124844764671,1.7227645169157884,-2.089224250590706,3,right
6.525,-0.48517583182537855,1.281232515971649,0.20660957199466556,2.0322273785090714,2.9359271766519814,2.125138998522649,-0.06998397126670237,1.5592537717085766,-2.0327457966483875,3,right
6.526,-0.36596330559362894,1.267509662337552,0.22433414151345457,2.1181341995384875,2.957146674063322,2.1770350962507923,-0.09091762406355919,1.8304710301413998,-2.126383826448933,3,right
6.528,-0.2778480222133817,1.2566857525572344,0.23457647377416277,2.046428465574704,2.9393983748622476,2.1336751599290555,-0.06330161274549148,1.4726971603316024,-2.002881588751414,3,right
6.529,-0.25346643591736634,1.2541973032424631,0.23626529076990854,2.0484671321380103,2.9397964777437653,2.1347446313048972,0.05260179399708147,-0.02889640168109986,-1.4844154108084637,3,right
6.529,-0.15614429927825077,1.2402223909329013,0.24737627209747562,2.1848286667789774,2.973998445472554,2.217860717744588,0.08021789524186063,-0.38667788281036314,-1.3609228108582911,3,right
6.5329999999999995,-0.030820102366918463,1.2210270116890558,0.2615207339875243,1.8495619511985766,2.8899909455266517,2.013654757956983,0.05928114713685283,-0.1154293120431101,-1.4545504176741832,3,right
6.534,0.08262238965467307,1.190173159277221,0.2624322985981085,2.40548030902253,3.029291777987999,2.3522401631215475,0.07190900635597414,-0.2790186659481229,-1.3980679821791377,3,right
6.537999999999999,0.16880440061204388,1.1632107906191975,0.2607236155378113,1.6722169217714205,2.845528648360369,1.9056266977545966,0.06676899689954033,-0.21246968544636863,-1.4210842838505493,3,right
6.539,0.1865688720854528,1.1555253099052378,0.2584619144760613,-1.4046266204026818,2.0740803754223833,0.030584402706566982,0.06670160323900431,-0.21151127038711784,-1.4213320792359414,3,right
6.54,0.24507310299764767,1.1249448052705167,0.23652117560526248,-2.1378316373122965,1.890287678940886,-0.41607290528917895,0.06938774092600297,-0.24643230059635512,-1.4093911713750167,3,right
6.542999999999999,0.3179257859110248,1.08094989418021,0.19514938028895418,-1.5820978094372387,2.02962308082809,-0.0774035682102116,0.06616872145721547,-0.20460843627571565,-1.4237177796990523,3,right
6.544,0.33863973745776565,1.0453197198677346,0.1447204195949215,-1.9169586233742253,1.9456186090439758,-0.28172076046134853,0.06867854638704386,-0.23717542273534908,-1.4125225896510978,3,right
6.547000000000001,0.3541992339829688,1.008114123307211,0.09070375320105839,-1.7812739275959732,1.9797333042690028,-0.1984955105968509,0.0673158424252267,-0.21962645038826856,-1.4186760296061176,3,right
6.547999999999999,0.35079288357041716,0.9778977414713917,0.04009609843477306,-1.778371074528942,1.980331771935785,-0.19748287258964775,0.06764929260923336,-0.22360926707136974,-1.4169960211491732,3,right
6.5520000000000005,0.32575486797771736,0.9520707415170299,-0.007889476871668395,-1.8508418192563147,1.962286110861498,-0.24090386897303678,0.06796755580994282,-0.22831281355006644,-1.4158968999884833,3,right
6.553,0.2869836431843919,0.9323401100414743,-0.04997853694492502,-1.7647653515683226,1.9838143131959687,-0.18876890812355468,0.06739612935570477,-0.22019779987885557,-1.4180551050417967,3,right
6.559,0.22513269099234365,0.9241444430713965,-0.07855039233396742,-1.83067922268396,1.967186670990619,-0.22955777878938693,0.06793925012357904,-0.2278015310808748,-1.415942713335701,3,right
6.56,0.15160087651251675,0.9229308079993048,-0.0969328018106444,-1.7972896078802236,1.9758851416123695,-0.20720672608013496,0.0675478932878305,-0.2227369674030541,-1.4176957542159723,3,right
6.562,0.07167565330955039,0.9286177761525163,-0.10738261621537372,-1.8010584147217221,1.9743784300033076,-0.21295234285878795,0.06779355232144282,-0.2248652213393949,-1.416009979381463,3,right
6.563,-0.015365906016838227,0.9379925560973446,-0.10909741511007082,-1.8160539750471827,1.971306889379438,-0.2178609669610373,0.06762233754780432,-0.2250557528964226,-1.4181174192360047,3,right
6.569,-0.1052912013402585,0.9514006309259673,-0.10961940467363973,-1.7951990517434482,1.9759876652763992,-0.20852259489915548,0.0677843016011509,-0.2235612762812459,-1.4153914416842122,3,right
6.57,-0.19278766830003155,0.9683704416284813,-0.11487196047572854,-1.8106419316798208,1.9721108324564354,-0.21796330327319935,0.06762906895948598,-0.22537951219932661,-1.418219574323128,3,right
6.572,-0.28016628038088043,0.9870252873581545,-0.12264647829964133,-1.8083360912152244,1.9737050722579002,-0.2103065495803327,0.06769122926320265,-0.2239733707323898,-1.4167083431718588,3,right
6.572,-0.36780798991357455,1.0075580070999997,-0.13578708179941895,-1.7944318227180074,1.97486970937023,-0.2161189417352376,0.0678811165429034,-0.22452349481387496,-1.414796951681304,3,right
