time,gFx,gFy,gFz,ax,ay,az,wx,wy,wz,subject_number,foot
11.999,0.33170521537284037,0.23351688187211583,0.08664899648737445,4.297788324581727,-3.08864234237437,-0.2511566104264348,0.9677176270318334,1.2802468496051267,-3.253263701851113,2,left
12.002,0.29991020506884614,0.2750040801328911,0.12232841991885078,4.661997803550058,-2.303527757481848,-0.07295807637988583,0.937397169125208,1.1948736548137013,-3.171100615292704,2,left
12.003,0.2786574633646638,0.30280620815667825,0.14264659158751955,4.181841473296249,-3.339325800234075,-0.30799681451618766,0.9370354368972003,1.1936159078625868,-3.170077267750048,2,left
12.003,0.2749602863563265,0.3084680452230134,0.1458369394253115,2.1676794695501354,-7.687921701865488,-1.2945069810864567,0.952826431626561,1.2384661255540284,-3.2129376042347912,2,left
12.007,0.2590704448972077,0.3326833729042133,0.15642980043342808,1.6878338006127132,-8.723915161550554,-1.5295298435816822,0.9338899300117847,1.1847565068609116,-3.1615532365584285,2,left
12.008,0.24612763337346857,0.3641552438020034,0.16678802827619515,2.0514543007405983,-7.938469750039684,-1.3513649101763106,0.9486687445802522,1.2265618289982543,-3.201635753472531,2,left
12.011,0.24408605467483843,0.38609627835684335,0.17287853050904872,1.832383871945484,-8.412141842856784,-1.4587905368933394,0.9406062379826002,1.2040924487071898,-3.1798286614061295,2,left
12.012,0.2423488927241016,0.4081470491662421,0.17981475356470517,1.9212007135187863,-8.219511127055512,-1.4151247364442316,0.9426664465183858,1.2090540342300438,-3.185263041339887,2,left
12.017000000000001,0.24604100241567903,0.42772053803243854,0.18583234368587898,1.922896306378471,-8.216651076054024,-1.4144474709034571,0.9443810199817583,1.2153453603911983,-3.1901681340932844,2,left
12.017999999999999,0.2521336235829066,0.44551226284276524,0.1937101522930827,1.8758987254608175,-8.317786382211992,-1.4374020799446332,0.9412097659953724,1.2046180396378112,-3.181256503329889,2,left
12.020999999999999,0.25591400860173585,0.4598935103586409,0.20259987928258996,1.9316313115186956,-8.196838371695213,-1.4099835586051848,0.9442545555243438,1.2146256084724985,-3.189761209774486,2,left
12.022,0.26231991841354085,0.46621135681183334,0.21493879926413295,1.8890662624737737,-8.290719863341149,-1.4312199176433058,0.9419463951008857,1.2081303670194898,-3.1835068263115427,2,left
12.027000000000001,0.26907025482115704,0.46741062528412136,0.227094620149078,1.9107156613762581,-8.24058816572606,-1.4199509639804657,0.9436841902434829,1.2103918511616576,-3.187751096585,2,left
12.027000000000001,0.27132559555457975,0.46471800860716184,0.2347088998296072,1.9076603216981183,-8.251326108701505,-1.4222608926247697,0.9420129126174481,1.2117079706769842,-3.184286518653887,2,left
12.030999999999999,0.27274889405389535,0.45852065795466623,0.24386672242962668,1.8995668112034834,-8.265507009954948,-1.4255780099705806,0.9439551908556791,1.208192001380862,-3.187961377268777,2,left
12.032,0.2726730400979512,0.45035104203010645,0.25144608260356993,1.91035415906493,-8.242188456288158,-1.4202883181448516,0.9419873162199148,1.212228534573097,-3.184322453690095,2,left
12.036,0.26764601385517545,0.4396965863168899,0.25873183579502923,1.9036494551534768,-8.262758398202863,-1.4247715250167592,0.942962392624207,1.2094408416567193,-3.185985333032191,2,left
12.037,0.2604338290506386,0.4272039793694793,0.26812338681909587,1.9026065381225068,-8.251088244138717,-1.4225433651811739,0.944605166967798,1.2092960508995092,-3.1895954931874746,2,left
12.040999999999999,0.25437153639297116,0.4133726343859613,0.27560665044561083,1.911322548373309,-8.253033639091557,-1.4223587863547307,0.938728698547081,1.2136240936039817,-3.177359548601749,2,left
12.042,0.24903005573358802,0.3980661525390563,0.28119324726059847,1.8988776470238138,-8.257772418183364,-1.4241017207029678,0.9493897621727029,1.2049331382070791,-3.199407173690952,2,left
12.047,0.2396971842644393,0.38276149809283233,0.28143117235847426,1.9076778011231963,-8.251555775659732,-1.4223040600600827,0.9357534386545723,1.2162388302296971,-3.171242523348215,2,left
12.048,0.22759140056551247,0.36768977424266824,0.27861299592276006,1.9118744805639662,-8.253522678156234,-1.4224211663231874,0.9471164968026372,1.2067452761860258,-3.194695421487056,2,left
12.050999999999998,0.21635453861528797,0.3567149591052665,0.27590100931370676,1.8863540216980053,-8.260379246850988,-1.4254268980676028,0.9468907970725182,1.2072219183800441,-3.1942890941622086,2,left
12.052,0.20443936075802677,0.3509883888118371,0.27411551668557255,1.935766752407274,-8.24315375795402,-1.4188255723329104,0.9249545165686515,1.2245917268750102,-3.148823630585037,2,left
12.055,0.19322661863385227,0.34746349361816253,0.27550633930566887,1.8713943869804897,-8.267275515317351,-1.4277604711046488,0.9787754119083123,1.181651301849412,-3.260299202655339,2,left
12.056,0.18686519548120806,0.34802475875647526,0.2767210954799948,1.9255287760894788,-8.246277251539034,-1.42010023065721,0.8895618045794755,1.2528987455949316,-3.0755424788308945,2,left
12.06,0.18695259432572137,0.3514865802715095,0.2760605274224488,1.9237269033989486,-8.247597696586352,-1.4204914589848834,1.007233341429528,1.1589387828590167,-3.3192234339060214,2,left
12.061,0.1878658508608185,0.35354325950845455,0.27473475611015463,1.8211243542049942,-8.286237582828775,-1.4347490536824659,1.5012627793911584,0.7646414855720964,-4.342471378676335,2,left
12.062000000000001,0.19124462352666494,0.35646032987275844,0.27186508393772635,2.073910500191369,-8.189913628943156,-1.3993713450866356,1.618946777032169,0.6707449100331884,-4.586168996463267,2,left
12.065,0.2048972755705923,0.3671030675037088,0.2585064692026472,1.6544962960538692,-8.350277539082043,-1.4582000285597354,1.5297196917240217,0.7419237699665617,-4.401394251662773,2,left
12.065999999999999,0.21519207067038776,0.3766791900445261,0.24448759561013347,2.20783317626457,-8.138425832719092,-1.3805045752063272,1.5835354461354805,0.6989572721881734,-4.512862942383393,2,left
12.071,0.2167949257520056,0.3802258828343804,0.240617588963225,4.530557455057368,-7.249228430570634,-1.0545258939844109,1.561643913485847,0.7165545475246636,-4.4674573302524205,2,left
12.072000000000001,0.22586735966889027,0.3937416455590339,0.22138286811076213,5.0839409520239,-7.037153510322753,-0.9767144131590326,1.5613219515930061,0.7165417516450068,-4.466922259139837,2,left
12.072000000000001,0.24127664401865068,0.41586157763405,0.19058587596257126,4.664402628924151,-7.19797700493749,-1.0357495678294124,1.572823015341734,0.7077499640515421,-4.490559722400798,2,left
12.075999999999999,0.2588843447816707,0.44168297248269717,0.1705822102010899,4.917430579064115,-7.100972450145376,-1.0001329225546318,1.5590492855440277,0.7183568286995605,-4.462211317873644,2,left
12.077,0.2811179414984444,0.47297488423946504,0.15332041400333996,4.814457279833831,-7.140403737885719,-1.0145651301999736,1.5697696030829098,0.709967431194623,-4.484338166053784,2,left
12.08,0.3042961019959193,0.5040867899580732,0.13669107392205246,4.813093679697335,-7.141085247859058,-1.0149754938105573,1.5640112062049905,0.7148955033634836,-4.472260159521962,2,left
12.081,0.33154874259303496,0.5357299233598058,0.12205452519836522,4.866887435711458,-7.120151365878915,-1.0069717069126218,1.565273775899187,0.712817746813915,-4.475361809356303,2,left
12.085,0.3637889632357443,0.5679407312177771,0.10756223353730016,4.802494856692997,-7.145272849314356,-1.016643556272244,1.5669038832588047,0.7133606938278179,-4.477900730158714,2,left
12.085999999999999,0.39566706887863534,0.599996467413615,0.09501782689731511,4.852583673854009,-7.1256405737655975,-1.0089910307832275,1.5641322038200673,0.7133096344064016,-4.473186836077254,2,left
12.091,0.42837458957896035,0.6303776879520985,0.0821810996585513,4.825542904801403,-7.136190355784023,-1.013053441799051,1.56671519086472,0.7130525838904755,-4.477718485894991,2,left
12.092,0.46161696056197,0.6595310573968519,0.0701343157504127,4.831991280535972,-7.134091451648081,-1.012673293716925,1.565049906599183,0.7143975328423218,-4.4742620663438775,2,left
12.095999999999998,0.4943252923425807,0.6900386379565939,0.05865523231868792,4.838414035526459,-7.13043391594575,-1.0100822710038466,1.5655980649116934,0.7106118127610357,-4.476915158861824,2,left
12.095999999999998,0.5260142510098887,0.7163149079443303,0.04504060687365421,4.8272904411044415,-7.13675560529437,-1.0145514509552669,1.5660081057242308,0.7179368301084486,-4.474296196889404,2,left
12.1,0.5523788985034506,0.740555870224121,0.03296768059761214,4.837339676259455,-7.130379100563488,-1.0095747274981002,1.5649981931277521,0.7073265082753155,-4.477378205803812,2,left
12.100999999999999,0.5750546475690426,0.7665138523429547,0.024340985100016428,4.830810791892433,-7.134894003689187,-1.0133331244901074,1.5661488427578942,0.7185787302548423,-4.474246367660198,2,left
12.104000000000001,0.5961299376668395,0.7886316114253775,0.01601700366682534,4.834251957766907,-7.1335929996716825,-1.0128754576096755,1.565367114668922,0.712169781700038,-4.475813530174227,2,left
12.105,0.6121395995683065,0.8080302356892917,0.007667883813490615,4.831809547807064,-7.130794923447474,-1.0079461719621254,1.5652726043154819,0.7061847945440456,-4.4783653506968015,2,left
12.109000000000002,0.6241450391982172,0.8281773189415615,0.002295209105919231,4.835503926678888,-7.137912783624268,-1.0194751437178011,1.5666341989698194,0.7316257741852372,-4.4691628272628865,2,left
12.11,0.6330122450439623,0.8445853836178085,-0.0013005176408365595,4.829555488616188,-7.127461464542247,-1.0023380804556066,1.5639384037226065,0.6845796069439284,-4.485874565932759,2,left
12.115,0.6383073581691264,0.8569364329689603,-0.0060395737430889804,4.836476696771898,-7.13838092069522,-1.0205243517260718,1.5674376954642435,0.7449609133756971,-4.464494933944536,2,left
12.115,0.6436507237954254,0.8688827117657969,-0.00981521789567658,4.832485901773222,-7.132067646637715,-1.010016229526368,1.5645017757625048,0.6945604344845278,-4.482312398287107,2,left
12.119000000000002,0.6431750264239833,0.8802678340715733,-0.013774861000195555,4.827750170709875,-7.127124685093047,-1.001136737546941,1.5646385659270714,0.6958852679178535,-4.481951632046481,2,left
12.12,0.6380837289763132,0.8911626582068168,-0.015344512344079953,4.846793603886434,-7.149407846462113,-1.0402270650542778,1.5700465794346488,0.7921252460222923,-4.447576797649527,2,left
12.125,0.6351075717890351,0.9018113768424032,-0.014419642716741055,4.811565933479445,-7.108047227816041,-0.9677240833058224,1.5566888464056836,0.5556184340070295,-4.531924678387053,2,left
12.125,0.6199514269476964,0.9143926622218843,-0.020552182125808192,4.856901513401261,-7.161119705699962,-1.0608044529065426,1.5788509991856305,0.9477558863210613,-4.392106158227554,2,left
12.129000000000001,0.6057544508633292,0.9209537252834914,-0.023505119094238663,4.819012101812037,-7.116824443681402,-0.9831059212058492,1.5496215471638388,0.430516754212018,-4.576526616182523,2,left
12.130999999999998,0.6023003865856704,0.9220667390386288,-0.024032495824095307,4.819884557228849,-7.118089922724509,-0.9852218091709688,1.4269741997398406,-1.7405079601443385,-5.350766697190691,2,left
12.130999999999998,0.5860623834197014,0.933011328373835,-0.033411251415692525,4.8927517207591205,-7.2022958900726834,-1.1333106252395715,1.3977584104283427,-2.2577753443013417,-5.535208636507306,2,left
12.133,0.564040683150492,0.9462841971874836,-0.04176084511401647,4.713792372000108,-6.995258129808834,-0.7693248687183426,1.4199057815633553,-1.8656073179161885,-5.3953668706357085,2,left
12.134,0.5372614555260105,0.9601946426272789,-0.05849159170813005,5.010495158207977,-7.3385572143124564,-1.3728181562973591,1.406542424597854,-2.102102529911787,-5.479705927106691,2,left
12.14,0.5149490463770982,0.9725854834196231,-0.07555156974685784,4.6191470098963,-6.885731749534699,-0.5768296399138196,1.4119994756397198,-2.005963892322556,-5.445408155384019,2,left
12.14,0.5098555324534957,0.976661911539627,-0.08179108705323176,2.9759414712966357,-4.985283890610393,2.764339236555578,1.4120307579178681,-2.0044209769450627,-5.444881558255084,2,left
12.140999999999998,0.4871624342972773,0.9918970336643215,-0.10967347737997252,2.5846348021986216,-4.532402107169788,3.560293195973504,1.4092461130667346,-2.0551341691394063,-5.46293680710602,2,left
12.144,0.4503443241874888,1.0147489499240612,-0.15085694120351295,2.881272748562104,-4.8757892224697486,2.9568539253390016,1.4125947691886434,-1.9944414304861373,-5.441320370560394,2,left
12.145,0.42201821185700694,1.0343547170762863,-0.1777752355599666,2.7023670373471216,-4.668678656425497,3.3207950031092084,1.409963965663731,-2.0416220400190825,-5.458134324651624,2,left
12.149000000000001,0.397756646611665,1.0579720290430468,-0.19299028350161368,2.775237297963632,-4.752880375532495,3.1727035913387254,1.411454923858555,-2.0164483409751015,-5.449135059043243,2,left
12.15,0.38518205139329975,1.0843943952511252,-0.19359072550640796,2.776005707226458,-4.754287187914217,3.170674408764336,1.410943716920881,-2.0215720861362705,-5.451031977178902,2,left
12.152999999999999,0.3797242274625366,1.1158257431475354,-0.18256588861434306,2.7383434447317345,-4.709683444076848,3.2481836744580077,1.4108799634897418,-2.029465136470309,-5.453727650446454,2,left
12.154000000000002,0.37523038488259824,1.1535584840872102,-0.1638752726205716,2.7833554369003686,-4.7631953148515835,3.155372904934435,1.4111494899215797,-2.01639139483065,-5.449210754785639,2,left
12.158,0.3802165945110039,1.199824618870219,-0.12897286296077956,2.7484482570792164,-4.721399584564766,3.2276088941822128,1.4108420336864333,-2.0284541508977427,-5.453397135653097,2,left
12.158,0.3964268964095358,1.2576549986662129,-0.07687761438780852,2.767352775112908,-4.743871201458713,3.1886342425291962,1.4112583750378782,-2.0211415459151123,-5.45078769932401,2,left
12.163,0.42690436527467623,1.3278030412627189,-0.0182941834340602,2.7623475575166463,-4.7392944316624215,3.1977383535978747,1.4105028670700526,-2.0222331502617,-5.451392094992862,2,left
12.164000000000001,0.47374314043857235,1.412946843883086,0.01940070356709181,2.7592280612485407,-4.731797758950623,3.207520444509833,1.4118168201086077,-2.0270461152128987,-5.452618201192321,2,left
12.168,0.5321779861008344,1.5071100209673824,0.007094729313878861,2.7646478996867483,-4.744756056716248,3.190585112111643,1.409955328509443,-2.018115786395222,-5.450163827158303,2,left
12.169,0.5932743932667598,1.6038673169534303,-0.05640127119733987,2.7605416936296336,-4.731803349556644,3.206187352410348,1.4119214957690158,-2.027961756782512,-5.452897754898074,2,left
12.174000000000001,0.6526847257847066,1.6936959043065587,-0.15972907400949138,2.762767412861522,-4.740914851255008,3.1958817865825777,1.4108142355620714,-2.021757764305075,-5.451132440067944,2,left
12.175,0.711106065240638,1.7598367428503021,-0.2695397087556345,2.760312548251313,-4.738134853155932,3.2008218650032108,1.4097165821925697,-2.0189603354399557,-5.450526430584821,2,left
12.177,0.7665622367563572,1.7937833151862907,-0.35697346114452316,2.766476984762506,-4.733134440367842,3.1990100668452204,1.4142865157263507,-2.035378467268993,-5.454680637368584,2,left
12.177999999999999,0.8138225266744012,1.7839826355810149,-0.42843718963752364,2.7537238617332465,-4.746102493726982,3.200437941217116,1.405853295145671,-2.0041769050686558,-5.446702213255219,2,left
12.182,0.8366062626338822,1.7189841148465597,-0.47253309946490807,2.773058968716316,-4.727116530372751,3.197677938493215,1.4166732211899533,-2.0444109915217554,-5.457013072521125,2,left
12.183,0.8317436644884149,1.6194295245097332,-0.4880984302878815,2.752036019246748,-4.746878658404918,3.201455861428429,1.4076428458922847,-2.010751950576979,-5.4483716841703185,2,left
12.187999999999999,0.7850820915521739,1.4992590398063363,-0.45613386514346044,2.7641793500249348,-4.735457794362176,3.1992824160364854,1.4078753669244115,-2.0119283997524224,-5.448720568061935,2,left
12.189,0.6987702999672626,1.3712966489568574,-0.3756953093844668,2.7755566299037104,-4.726658807189872,3.1955532900736516,1.425135958156475,-2.0752410036081876,-5.464838503586952,2,left
12.193,0.6027636340145872,1.2570080772889485,-0.27843334511101264,2.726939777348875,-4.76651449701404,3.2094703681157144,1.3827233435117934,-1.91931155667844,-5.425070985048823,2,left
12.194,0.4625847220850521,1.1438291209339664,-0.11953531111072932,2.817043527002003,-4.6925414019176,3.183781688582887,1.453044696225669,-2.177932970900606,-5.491063459781638,2,left
12.197000000000001,0.35264401249082733,1.0766821727085547,0.001661974423044374,2.701268146823474,-4.787431519432186,3.2169197321558385,1.3602886707994384,-1.8368038599976417,-5.403996618841526,2,left
12.198,0.32764644592338454,1.062955612825236,0.03294063417313843,2.797960962106351,-4.70826322987194,3.189186197390164,0.9710116961032403,-0.40538543598195975,-5.039298025832373,2,left
12.199000000000002,0.20770675699181207,1.0208422403237944,0.1496259388397158,2.795431894758834,-4.710491906274266,3.1897376651951133,0.8782569584185559,-0.06429350733867742,-4.952266308481152,2,left
12.202,0.026840160751893688,0.9743772698212987,0.2881592794557598,2.6106679152126975,-4.861036728978211,3.2434617765784073,0.948565917539401,-0.3228622214243781,-5.018140857383509,2,left
12.202,-0.10839745360050734,0.9566317201686647,0.3554533281027853,3.064738340929771,-4.490982683579858,3.111570674051229,0.9061917364956724,-0.16696164813654313,-4.978641980071144,2,left
12.207,-0.3016646916676395,0.957702186377278,0.4227077298359502,2.3118499207736303,-5.104502716863112,3.330259760260973,0.923376622240514,-0.23031662575454437,-4.994302343340591,2,left
12.208,-0.4364381567664196,0.972033110251988,0.4568291592552522,3.3049411272603404,-4.295338198642157,3.041769605213993,0.9237183699043137,-0.231341063153167,-4.995245854266875,2,left
12.209000000000001,-0.46749042259382895,0.9795881993676551,0.45863572847708756,7.473542877013456,-0.8987312477500378,1.8302459891836773,0.9145743491566609,-0.19794868480392291,-4.986064047315136,2,left
12.213,-0.5948389036210785,1.0062419769713427,0.45764335016028856,8.466689456458214,-0.08966948998761778,1.541697634195017,0.9254537771772322,-0.23785638953941945,-4.996523139529492,2,left
12.213,-0.7491219423429922,1.0548103403836802,0.425029312401396,7.713723341296446,-0.7030577877126951,1.7604858327374202,0.9170945366397218,-0.20690863505150467,-4.989204804857705,2,left
12.217,-0.8322070468331686,1.105084017492464,0.3740427716506396,8.167833976532249,-0.3330342649141923,1.6284906570430446,0.9213837487573935,-0.2233467020747279,-4.991563342471823,2,left
12.218,-0.8902210228477527,1.1595311491413232,0.3223556171427302,7.983138853593657,-0.4837977822997006,1.6822698249748393,0.9207953316558725,-0.2200371857011959,-4.9938714301828675,2,left
12.220999999999998,-0.901111495942137,1.2115629560428434,0.2686614572314462,7.980374870289232,-0.48545563243017503,1.68287915479528,0.9190349121663488,-0.21496980755255224,-4.9887145101950665,2,left
12.222000000000001,-0.8741888648267788,1.2633378003738414,0.2228691142733071,8.077473972542187,-0.4071860775209415,1.6549214866695101,0.921564473009783,-0.22315081930340405,-4.993880140577055,2,left
12.225999999999999,-0.8250510208916944,1.3106028065737867,0.1812255135443634,7.961207242136864,-0.5010809531919885,1.68845906564461,0.9196097159742167,-0.21595136492361078,-4.992072925005115,2,left
12.225999999999999,-0.7515526464759785,1.3526048501129915,0.13510046964541017,8.051684143977251,-0.4277235312475485,1.662270508767271,0.9201034133510655,-0.21985075924010888,-4.9873511684240315,2,left
12.231,-0.6766145371131611,1.3939480639304982,0.09505184053158769,8.003117888708683,-0.4680046744048538,1.6765991407044303,0.9214010905980542,-0.21986182948957927,-5.0004147741764235,2,left
12.232000000000001,-0.6059796114068969,1.4317895901318787,0.06825569242251114,8.013693400451558,-0.4570969033059873,1.6728424521788798,0.9186108830952724,-0.21670292515906553,-4.980126162026442,2,left
12.235999999999999,-0.5468129406516857,1.472146895925316,0.051738592502255557,8.027580791520197,-0.44972861993169433,1.6699796413239,0.9218978523095966,-0.22122078938030074,-5.002046541543997,2,left
12.237,-0.5036260734895822,1.5149493244961794,0.046791932145236234,8.00403249471921,-0.46407230617287976,1.6753859025250644,0.9197891425392577,-0.21783795104661785,-4.989185420483079,2,left
12.241,-0.46866575109545305,1.5487673327809066,0.059433313693549386,8.025955828102985,-0.4500706314145808,1.6701593697169408,0.918622739375295,-0.21732369187263417,-4.978706978575123,2,left
12.241,-0.44015431015389783,1.56680615299021,0.08958911494324615,8.011902648307222,-0.4615538890179135,1.6742541874789696,0.9249290265951865,-0.22400650740866385,-5.02568667291547,2,left
12.245,-0.4154505771124776,1.566758564251358,0.13187572729212546,8.016298796594501,-0.45081142935833235,1.6708521749183256,0.9129502373443106,-0.21056425184267485,-4.938298653707326,2,left
12.245999999999999,-0.387822755586019,1.5400863919507288,0.18778983333534827,8.020285980198828,-0.4639288154865183,1.6745471265881382,0.9284336042043855,-0.22820542448454176,-5.050602610465026,2,left
12.252,-0.3609838594270117,1.4970693766460523,0.25182221745823435,8.010975389012966,-0.44709820038656795,1.670012866462213,0.9154645929426786,-0.21331248823404791,-4.956808654019195,2,left
12.253,-0.3336734893325618,1.4383079534988066,0.31759967747241524,8.021528749760687,-0.4645298687582192,1.674663369293637,0.9158810610348271,-0.2139750266017113,-4.959401787658896,2,left
12.255999999999998,-0.30852436742123523,1.3629442812261559,0.37966295887052426,8.01443889231238,-0.45526350122436954,1.6722652902047495,0.9404359514222733,-0.24168645284587575,-5.138100930179294,2,left
12.257,-0.2875594288462717,1.2909906592803932,0.43429063418793756,8.01323480328442,-0.44328564980709806,1.6687700669296264,0.879989104594346,-0.17319174490345088,-4.6988062265164885,2,left
12.261,-0.253546485889247,1.2055208951035183,0.49819129837492826,8.026542958402501,-0.48917474166253244,1.6817267742826654,0.9802472362795923,-0.2869147770357935,-5.427198646697287,2,left
12.262,-0.22920565875121926,1.1452841596017649,0.5429160495841372,8.000406043123947,-0.4052524532993374,1.6581234651452705,0.8479959521459128,-0.1368440846328013,-4.466452728389981,2,left
12.265,-0.2206536599799605,1.127387159970748,0.5501991708560011,8.034302317011784,-0.5127473367558981,1.688332238616972,0.29290329021748357,0.49263190238330923,-0.4336413610003518,2,left
12.265999999999998,-0.19399131330179836,1.0729667327673886,0.5757112187509656,8.005856352514712,-0.42311379809222216,1.6631577051342472,0.16065271001455833,0.6427480900110389,0.5270871907540998,2,left
12.265999999999998,-0.1486696935344154,0.9931135791424534,0.6004980688925062,8.007169190828257,-0.42512571690844425,1.6636758365522797,0.26091779574698704,0.5289474668327265,-0.2012936694807551,2,left
12.27,-0.10050940539674033,0.9287063429410084,0.5972334855925603,8.059661070874487,-0.5973946585772498,1.712200196599709,0.2004433302050228,0.5975239346605719,0.23803378758560215,2,left
12.27,-0.05397391599359128,0.8627580035439824,0.5927241096350997,7.929973603754284,-0.17446920262542617,1.5931382628913489,0.225057088404093,0.5697686340927192,0.05921952696255539,2,left
12.275,0.023172960388403368,0.776346092215535,0.561413465372445,8.145204488535569,-0.8755698532565261,1.7904821836804312,0.22538453447329412,0.5690621076757143,0.05683881636692205,2,left
12.276,0.08754404082998177,0.7171501256021676,0.5311000414636433,7.861266452922551,0.04916534927481142,1.5302064234749708,0.21251302815247256,0.5841289096804585,0.15035643726559328,2,left
12.276,0.10640390985347073,0.6996063089225538,0.5220175835490526,6.671310490749672,3.931418040291149,0.43700066772383905,0.22793694127421982,0.5661762089518231,0.038292383709601,2,left
12.28,0.17963358142448854,0.6408087902176083,0.46704173418752903,6.387479437059271,4.856209460122264,0.17668816482643435,0.21591390771372293,0.5800098752932277,0.1256423828476495,2,left
12.280999999999999,0.29308380711360105,0.56552102029318,0.37368939963984116,6.602447771448949,4.155035242494037,0.37413411335685964,0.2224323088402703,0.5730024021165501,0.07830576786751141,2,left
12.284,0.3965727807807625,0.5234908809225991,0.2561097496312156,6.473236261889948,4.577982703405349,0.25486672091780205,0.22085971334772125,0.5735437149432002,0.08967432158145337,2,left
12.285,0.5173804949455215,0.5084240772844393,0.10513313824833301,6.525040097781132,4.405822462297975,0.3037139591544399,0.21929358232140733,0.5774583107240248,0.10114913983004543,2,left
12.29,0.6266872507848169,0.5240251348450206,-0.0537611705368201,6.527117197221923,4.403514493451201,0.3038411730243224,0.2220817428757455,0.5716735763085004,0.08077355557931856,2,left
12.29,0.7066870793793305,0.5375637125268906,-0.24159772584271502,6.498148796608188,4.493622279367623,0.27898391406465595,0.21943958149456727,0.5767602963836327,0.10006448392446747,2,left
12.295,0.7532548949629474,0.5581077228743214,-0.46041067268182057,6.531849129838118,4.3855929753753635,0.3091805546794796,0.22131332372538104,0.5746532448161292,0.0864534506718227,2,left
12.296,0.7426491894042662,0.6114462504058382,-0.6565254966159793,6.507126672709654,4.469861302061902,0.28501832461679044,0.22021357510552242,0.5720248259867232,0.09426227706061917,2,left
12.3,0.6616499819456951,0.6937950706414134,-0.807669139941475,6.5175386509266895,4.424165109182547,0.29928539886049554,0.2208583261551608,0.5801509588266734,0.0899909084484849,2,left
12.300999999999998,0.49760700506766503,0.8269701831138112,-0.9083698049606266,6.520391954856896,4.435063934842589,0.2938055282394343,0.22034396757015173,0.5675206748184338,0.09311196337629163,2,left
12.304,0.2535207563458258,1.021496249836483,-0.9410096410926796,6.509304070218018,4.446449323786806,0.293557420529849,0.220808945668851,0.5810794490656027,0.09039034538344998,2,left
12.305,-0.0633146523758395,1.279110891674868,-0.8935229556159198,6.521585209391289,4.426141143968989,0.2969178342707388,0.22067192808068425,0.5730954658169589,0.09100664440704831,2,left
12.309000000000001,-0.42503077208665585,1.5949756099902992,-0.7744176495099773,6.515646726529107,4.445677346591751,0.29139730028884814,0.21990173921565304,0.5669541978115933,0.09627445037724885,2,left
12.31,-0.7849861425327369,1.94847511952196,-0.6476929476297477,6.508728505091124,4.431634804476841,0.2997223401776087,0.22220505774010751,0.5950449698585376,0.08097321327973103,2,left
12.314,-1.0760277082053311,2.3056510725329087,-0.5578565559893143,6.531957508645107,4.439534431283553,0.28750702869395384,0.21812622687765976,0.5427306440466301,0.10795002116137972,2,left
12.315,-1.2414764342706683,2.6052242038296938,-0.4841758726194654,6.494691582440964,4.436269067632605,0.303332622491179,0.2233203465030785,0.6099550335242087,0.07362465791996284,2,left
12.32,-1.3350553041540392,2.847811976331913,-0.4928582524220144,6.535374014011058,4.436633311559476,0.2873380458822246,0.21900165281146583,0.5538111178693418,0.10215376240975527,2,left
12.322000000000001,-1.3215239031837824,3.0432853654434693,-0.6158365127078587,6.511225553741102,4.438511285799777,0.2959947882516968,0.21905115523585228,0.5554109823556774,0.10186985810114638,2,left
12.325,-1.1880006609626876,3.1671422802948976,-0.8026520219454185,6.492406365667654,4.433637541410803,0.30527526713743064,0.227506873563882,0.6622067596268084,0.045869296715469944,2,left
12.325999999999999,-1.0225940308312982,3.224508340107504,-1.0135709418194407,6.578453465130584,4.442990811521025,0.26801090452397947,0.2068034057574724,0.399617230116319,0.18293591878284768,2,left
12.329,-0.7161885368113692,3.156146601581138,-1.0735968406375465,6.418006302739673,4.42847221034353,0.3363305947240918,0.2411098263839276,0.8350336158806919,-0.04417754908099353,2,left
12.331,-0.46512067688817654,3.0515344575476364,-1.0139148603388564,6.624344674078574,4.446099698881272,0.24888202101363005,0.19586207720399237,0.26070969016454026,0.25537066995153507,2,left
12.333,-0.398028069428644,3.0182646608957633,-0.9785701565503229,6.451945727987065,4.431805967538168,0.3217821468674417,0.005839930365208877,-2.149903241061015,1.5134120794871788,2,left
12.334000000000001,-0.11911401061932958,2.8326415289766453,-0.7805940854000571,6.456828035053346,4.431548608409557,0.31996086348527675,-0.039413878310801606,-2.7242534376142404,1.8130144457121353,2,left
12.335,0.24394106183499326,2.518993213327427,-0.4782560056350442,6.784986377902386,4.460522867729967,0.18054182503825247,-0.005102639815219504,-2.2887838596255072,1.5858480550222491,2,left
12.339,0.4474731194064787,2.247918362333068,-0.25675739534582154,5.978093909463515,4.390227533978374,0.5230174983222523,-0.025797457765792897,-2.5514503107137774,1.722872344888403,2,left
12.342,0.6340706891609666,1.9204682346015154,-0.0116445043692371,7.316088363614318,4.506449147564997,-0.04477485740847864,-0.017376178199469412,-2.4445679494170856,1.6671074479368253,2,left
12.344000000000001,0.7237497328589151,1.708430553526203,0.14520958612584317,5.551221190830311,4.353253308854551,0.7041579330901109,-0.01726105565821112,-2.4430335487462154,1.66634409819707,2,left
12.345999999999998,0.7358702627108435,1.6642191075765291,0.17687081021870066,-1.8564101321895086,3.7100615666548826,3.847313813837398,-0.021667046396840438,-2.499180347120945,1.6955385191425565,2,left
12.345999999999998,0.806931644441662,1.4974822895544329,0.2982779520540238,-3.6213181198446462,3.55683519717242,4.596332506369049,-0.01639447774142367,-2.431832234705867,1.6605782604167927,2,left
12.349,0.8775321339097928,1.2940905451022833,0.43550188594719186,-2.283255914462237,3.6730128800348494,4.0284688832794835,-0.020491408465998437,-2.484424380981422,1.6877777189222443,2,left
12.35,0.9243253122331705,1.1597888427782006,0.5097542902335584,-3.090215152081643,3.6030027145564993,4.370832442019914,-0.018291747945290905,-2.4559226618638252,1.6731398779046223,2,left
12.354000000000001,0.956132690793533,1.0098966566412164,0.5865530960528774,-2.76203101299181,3.631305400917616,4.2318799567896495,-0.018790456666841558,-2.4624980385485773,1.6764740363919937,2,left
12.355,0.9489636316106547,0.878608374547569,0.642375530508119,-2.757089119374619,3.6321175647021215,4.229160553730022,-0.01935981193839474,-2.470238981237084,1.6803066838115823,2,left
12.357999999999999,0.9003198248228053,0.7608019405952127,0.6947253798729971,-2.9296656430650776,3.6165909445360516,4.30326375365815,-0.018401861575689595,-2.4564424591767375,1.6737603090655861,2,left
12.359000000000002,0.8070787069459655,0.6594132875112129,0.7539394659733459,-2.7230353470185285,3.635070668705901,4.2147229014473995,-0.019253077105192026,-2.4700626483480774,1.6797477188955077,2,left
12.363,0.666810958834215,0.6020139858832276,0.7750478910288459,-2.8838221952735004,3.6208815656228053,4.28331754919434,-0.018740568713934588,-2.4601036127865274,1.6759228281631948,2,left
12.364,0.48899285821502625,0.5720831822597261,0.7427638927719024,-2.797533300533173,3.6278964474480118,4.247443553432618,-0.01891880850853664,-2.465118707776572,1.6774471171667904,2,left
12.369000000000002,0.29768243215137186,0.568400111288152,0.652900108900466,-2.8162841347744534,3.6277913947347793,4.253023603783403,-0.018916420231721465,-2.4651145411123028,1.677434254965708,2,left
12.37,0.12041395592890641,0.5759484281655354,0.5219965310626842,-2.8410313706042594,3.623021845433132,4.267614464134683,-0.0189551614373445,-2.4604935699333543,1.677052325590466,2,left
12.374,-0.01802808962351481,0.5812048884955745,0.37813865051693074,-2.7991032375031164,3.6298777416850005,4.244806539152808,-0.01871104535526178,-2.469077374767153,1.6768952602231342,2,left
12.375,-0.09872311565100776,0.5786867984946047,0.23801655931121762,-2.8381255839151747,3.623926942777702,4.2653628591659025,-0.01920343593199884,-2.4578996836827804,1.677978334502654,2,left
12.377,-0.11923250045122279,0.5649077531815169,0.11279128068120645,-2.8131548365786845,3.62606959134456,4.254804163529405,-0.018603597270080957,-2.468864017095931,1.676327684425146,2,left
12.378,-0.09167850560916314,0.5435566672676322,-0.0014997886372009987,-2.820845822403747,3.6301645611692637,4.25064597143842,-0.01897408087009355,-2.4628323284061553,1.6774395207902546,2,left
12.382,-0.02670736019335392,0.5204316658722546,-0.11013317846364105,-2.8282045391156254,3.6186448489737177,4.270726673322412,-0.019303642206470413,-2.4577615157924484,1.6784658315636665,2,left
12.382,0.06815613677106534,0.5003274942189826,-0.21411621711169104,-2.8112541450551496,3.6363467231447864,4.238237250704422,-0.01783294799296252,-2.479592233918643,1.673787124719336,2,left
12.388,0.18248896549045834,0.48588703517871545,-0.3148284952470718,-2.8304368639687025,3.6173818466598,4.273342178466031,-0.02058774570551629,-2.4394548574690873,1.6826447857871378,2,left
12.389000000000001,0.3148881689587176,0.4935688716080092,-0.40096879570813565,-2.817594540644169,3.6284882449228357,4.252315394147916,-0.017031539510662,-2.490752977718628,1.6711462415125542,2,left
12.392999999999999,0.4447805106908074,0.5215520591760188,-0.4801829015513299,-2.8152312263616577,3.637319681985953,4.237874969073328,-0.02000855062535658,-2.448029893114254,1.680799004314875,2,left
12.394,0.5858917936851069,0.5782260804832908,-0.5554936843013402,-2.839829653779713,3.5974594803437725,4.307102085076035,-0.019929627365654314,-2.4492069377759274,1.680549910412254,2,left
12.397,0.7466046936800004,0.6638279078444642,-0.6176793126613238,-2.791635177103964,3.6715926692927336,4.177634851154778,-0.014234245899327863,-2.5304331387222625,1.6620164337067873,2,left
12.398,0.9007845721343395,0.7509160142189586,-0.6655745606599001,-2.854102338296384,3.576363171866991,4.34411607861383,-0.028236448427560776,-2.330836045588132,1.7075912738290584,2,left
12.402000000000001,1.0946206945052046,0.8612960270462044,-0.6670346464588195,-2.8017082381925125,3.6558688200797693,4.205038658526677,-0.005015740063290792,-2.661720617550834,1.6319984349671999,2,left
12.402999999999999,1.2309857831177426,0.940815191078098,-0.6412587894353384,-2.8040458828533885,3.6536794851935426,4.209163088653138,-0.03564712976283661,-2.225329046878633,1.7317262953115535,2,left
12.402999999999999,1.2628631022385588,0.9586852004557818,-0.6256658113972983,-2.9009538011320855,3.502234545081018,4.473157549668353,-0.16425185107663634,-0.3939580093282161,2.1505668625043937,2,left
12.41,1.371614374515581,1.0181199633244962,-0.5664525903234848,-2.6616649264276893,3.8744812108635545,3.8238824986949833,-0.1948874810291069,0.04237957696224032,2.250324158248402,2,left
12.411,1.4887565366976105,1.085084634184409,-0.4577676639224328,-3.058719042760812,3.2573081392906316,4.900499227521903,-0.17165787539412442,-0.28839126814473864,2.1746662210365173,2,left
12.412,1.5118043207277738,1.0979168557453582,-0.3928210303194528,-2.5349629702852763,4.071318323469963,3.4804584481528584,-0.1856735977591532,-0.08896790285654063,2.2203467250579525,2,left
12.412,1.5181543035142542,1.103295908823907,-0.37605134114505473,-0.33849946376804646,7.489181755483984,-2.4801721570801747,-0.17996196452719665,-0.16998389470810463,2.2016760815742433,2,left
12.413,1.4895227009812966,1.1012107700303149,-0.322500989918314,0.1851150823912901,8.303224846222985,-3.9001845743068357,-0.17989698519026742,-0.17134336277173834,2.2015599079394708,2,left
12.417,1.4091039980382751,1.080209037972252,-0.2525368829753339,-0.21169292829284342,7.6858682744982145,-2.8235286106875583,-0.18287083590794045,-0.12857478529635247,2.211151961361958,2,left
12.418,1.295857040654717,1.05008242429428,-0.21484326656129965,0.027324833794352882,8.058625255968884,-3.4730629937312716,-0.17929675066402012,-0.17964830910738727,2.1995516432657336,2,left
12.422,1.1639586987047497,1.017062436254679,-0.1912820585814885,-0.06941201845242634,7.906218432380053,-3.2084561668191465,-0.1820983094588794,-0.140109055400434,2.20875448071551,2,left
12.423,1.038107297634562,0.989290022060086,-0.18639432709409506,-0.0716641300059213,7.905377219083618,-3.2053082225458285,-0.18055299196708025,-0.16097767666765442,2.2034689634513054,2,left
12.425999999999998,0.9230305541722947,0.9711656552436377,-0.1941829020777954,-0.0197558264767153,7.983527568536465,-3.3432586455830267,-0.18096815221558657,-0.1570192001428488,2.2052557483987822,2,left
12.427,0.8253925939689312,0.9667162601495854,-0.19521089524908264,-0.08128561638999288,7.888926148228655,-3.177558563265033,-0.1812790051606725,-0.15019870669649518,2.2057351537866414,2,left
12.432,0.7409725843784445,0.9733657498664426,-0.19662770605668334,-0.03433795058323264,7.964128162349057,-3.3073221725380995,-0.18065906293152545,-0.16093365735998977,2.204140865563203,2,left
12.433,0.6603676003349944,0.9877552995739507,-0.19477066565683254,-0.05780033124940859,7.920641342577047,-3.2359647177166218,-0.18130680774507268,-0.15172729647229688,2.2062541099079453,2,left
12.436,0.5772960158095597,1.007865002230214,-0.18290406991524982,-0.05575731641972928,7.935843817792706,-3.2547565513885535,-0.18074339642377515,-0.15621227671194465,2.2036316061661987,2,left
12.437000000000001,0.48316251474862953,1.0345369355710474,-0.16491331343898172,-0.0442588548253756,7.93898799810874,-3.269711230157693,-0.18122940751583022,-0.15737513505024242,2.207014395714788,2,left
12.440999999999999,0.38108067923150424,1.068242301326182,-0.14024806256407613,-0.059778901492049834,7.92659225383217,-3.2405442625939465,-0.18078668168226758,-0.15162148282544768,2.2028872537663267,2,left
12.442,0.2757874144722219,1.1011463279150178,-0.11422324617416955,-0.04875689233020069,7.943841890298332,-3.270561838371677,-0.18115529690374704,-0.159225356739327,2.2069504568398006,2,left
12.446,0.17110548786076024,1.1333046152782393,-0.09444423968386997,-0.04924205262340162,7.921301152071903,-3.24525064625539,-0.1810116443857639,-0.15384609815311562,2.2048282349828767,2,left
12.447000000000001,0.072967398574433,1.161099351934566,-0.07982111101009881,-0.06182360805500655,7.951513040126406,-3.2659463651620975,-0.18067226245378248,-0.15227395799242105,2.2022978496468406,2,left
12.452,-0.017127548578097583,1.178802411429746,-0.072566970990405,-0.038234210998662255,7.913944272811908,-3.2481545445373374,-0.18175982676244756,-0.1648083255712853,2.212078805576386,2,left
12.452,-0.09750012455405188,1.1916308073466637,-0.07612978205594732,-0.06514358728079543,7.951247567345047,-3.26233358493822,-0.1798369891866319,-0.140227967088133,2.1942453810269575,2,left
12.456,-0.16452482919195927,1.1925598023591824,-0.08743669543818242,-0.04841431208616494,7.931535690731959,-3.2573516407447993,-0.18227197503568718,-0.1722707699840446,2.2170344511627205,2,left
12.457,-0.21923936083598536,1.1830181834598754,-0.09639686816062087,-0.03766620403336868,7.908816995435406,-3.2430745450039975,-0.18025372566537812,-0.14531817342619813,2.1980551242905753,2,left
12.46,-0.2592682762461537,1.1662086072140774,-0.09741137618431941,-0.09147896383181651,7.997678594808228,-3.2871407734345057,-0.18028560308398622,-0.14635699708742378,2.198498150331642,2,left
12.460999999999999,-0.28311814215422004,1.1384012421517928,-0.09526853738598828,0.009915223098333613,7.835382016714515,-3.2097716488356003,-0.18419435420804314,-0.1969264427565009,2.234876102796316,2,left
12.465,-0.29668165211334047,1.1068468011325239,-0.08855822198056518,-0.12085237792508183,8.04287610537436,-3.3075476979748606,-0.17462037747390782,-0.07218775575097651,2.145565267010908,2,left
12.466,-0.2962052230217626,1.0644151233172239,-0.07551850210078019,-0.01144435978581844,7.870034653289342,-3.226584452530469,-0.19048150548979415,-0.27917567331500565,2.2936089041807324,2,left
12.470999999999998,-0.2850356461266583,1.0315636140500684,-0.06846646356255198,-0.014765271518142511,7.874116042373148,-3.22774897880757,-0.1695658322587511,-0.006101916948693845,2.098353305504334,2,left
12.472000000000001,-0.2796409642793459,1.023378819760595,-0.06811886486338818,-0.22242263771112594,8.205273954261067,-3.3848592558013406,-0.08173417018621687,1.1400008712725624,1.2787464392327639,2,left
12.472999999999999,-0.26415257737455716,0.9960280996203,-0.06535617707532872,0.28848316941213903,7.3921987882392735,-3.0001902956353375,-0.06081846032650979,1.4130895208442142,1.0834944621387015,2,left
12.475999999999999,-0.22166106298504926,0.9526555400896156,-0.06988694547965701,-0.5587992184578919,8.739975759860002,-3.637421738428819,-0.07667975630834994,1.2060340470042243,1.2315216857649325,2,left
12.477,-0.19341082156773107,0.9337411691045163,-0.0778203004962627,0.5588049375327718,6.96240226948947,-2.797130247484899,-0.06710534007668356,1.3309488173168376,1.1422536181511438,2,left
12.481,-0.1844533461796103,0.9284858605634041,-0.08089923804663723,5.24981606209395,-0.4995184142923601,0.7308407561388699,-0.07101489688514737,1.2800571742900064,1.1785533249814417,2,left
12.482000000000001,-0.14761840194812761,0.9135483232535024,-0.09446088136620479,6.367354015967818,-2.2770191171484067,1.57106885356985,-0.07104566683779986,1.2794606440437009,1.1791037505564612,2,left
12.482000000000001,-0.09755363913011134,0.9013294852849463,-0.11529753774166801,5.520137643755431,-0.9294142164601861,0.9340381734322545,-0.06902850411435496,1.305979998651729,1.1600192364092183,2,left
12.485,-0.05395294439954362,0.9034023053068816,-0.13409865866784812,6.0310905661264975,-1.742188793740374,1.318265052290113,-0.07146303397741693,1.2741176505945968,1.1828520931393454,2,left
12.485999999999999,-0.005407789151448444,0.9113073945482576,-0.15704079960211517,5.8231546365420925,-1.4114510967365523,1.1618924358045548,-0.0695392305325156,1.299086175577881,1.1651129719742719,2,left
12.49,0.04142021610943826,0.9257070682370463,-0.1811412131273848,5.820405720080222,-1.40692080716472,1.159785533638902,-0.07062986534779629,1.2853230078482087,1.1745954964840393,2,left
12.49,0.0868100629960613,0.9457356508163813,-0.19887439443914012,5.929015519905295,-1.580041414275147,1.2415837244180055,-0.07028520127683253,1.2890060359129771,1.1725777118062632,2,left
12.495999999999999,0.1337922073886135,0.9654807568495798,-0.210702768944991,5.799015424519926,-1.3727246177471781,1.143621066770385,-0.07014803357449471,1.2917969672742882,1.1698270115163916,2,left
12.497,0.1785732936081381,0.982899728693928,-0.22102220807101594,5.900129220782302,-1.5340992619703426,1.219873292382889,-0.07051146924231169,1.2862557000406896,1.1743909490898088,2,left
12.501,0.2179923457554101,0.9938069959518139,-0.23377528446244475,5.845540438502443,-1.4470335282959477,1.178726451937893,-0.07006872066026318,1.2920292948551677,1.170268860998783,2,left
12.502,0.24932892187907535,1.001280533928342,-0.2530616783255709,5.858587012737701,-1.467318661375635,1.188346134499192,-0.07056429148389452,1.287034598634321,1.1727209166428194,2,left
12.505999999999998,0.27331547562490155,1.005762240426951,-0.2763186451353937,5.871470375552692,-1.489321091594451,1.19865821737472,-0.06997898776820739,1.2913048879255777,1.172224637647739,2,left
12.505999999999998,0.2889540478729876,1.0013698160700528,-0.29674401132507594,5.8491590615849045,-1.4512271821670404,1.1807996920904098,-0.07065943137887637,1.2874502032047612,1.1711663059950286,2,left
12.511,0.2981595481330961,0.9921762456792343,-0.3113640463798917,5.869265275375772,-1.486407789874555,1.1972490617368337,-0.0700045818753205,1.2906388365389705,1.1729526596001487,2,left
12.511,0.3032528708670794,0.9779648456909213,-0.31746987296618207,5.856231105135206,-1.463123620371074,1.1863858553399644,-0.07033568988738742,1.2894137402806858,1.171479254474467,2,left
12.515,0.2994046424753184,0.95596591848331,-0.31792524726868304,5.86317928137551,-1.4741536658311847,1.1916016728624719,-0.0707680408526653,1.2864383249254272,1.1715809895901308,2,left
12.515,0.28717927727168313,0.9328177032767933,-0.3176754218240481,5.8579736537427,-1.4706079422529197,1.1896585225135186,-0.06914692260305269,1.2959192641506028,1.1736665770570403,2,left
12.519,0.26954601974277637,0.9094514076996535,-0.31392043701426137,5.866062695892619,-1.472652756968355,1.1912346452066105,-0.07208928743425705,1.2791732959986797,1.1692010012450316,2,left
12.520999999999999,0.24042751571256385,0.8873327891758874,-0.3045862516781054,5.853109914089044,-1.4681956109447007,1.1882186138460753,-0.06833417471890503,1.3003745172972656,1.1751503101297827,2,left
12.525,0.20505007391258684,0.8681162354973415,-0.29069833020711655,5.868092361502821,-1.474813719733739,1.1923163473912965,-0.0714594757072588,1.2828019400849284,1.170092842538219,2,left
12.526,0.16365342725487014,0.8520552263073917,-0.27174657245540323,5.859446885969534,-1.4710098697547822,1.1899575853458395,-0.07138967893860959,1.2830815387186556,1.1703692000303243,2,left
12.530999999999999,0.11463027380412694,0.8443353948582459,-0.25114812709075846,5.849394796943637,-1.463590263930153,1.1859689634607673,-0.06539093907925157,1.3171104466115193,1.179641532546778,2,left
12.532,0.07116322072950806,0.8408923994846708,-0.22883908228290847,5.890025359547131,-1.4907016190905438,1.2008953488803074,-0.0801138653906556,1.233754852330311,1.1566501293257412,2,left
12.534,0.02267085908483565,0.8414505087668667,-0.20331036339819475,5.814839889969512,-1.4406899949494396,1.173338445009152,-0.055710377451915316,1.3718556093936605,1.1948460442037085,2,left
12.535,-0.01330188609998529,0.8459248856868301,-0.18953292031734476,5.911601031490969,-1.5052508437881862,1.2088871747473313,-0.08789594490053926,1.1897396877989888,1.1444396833906412,2,left
12.539000000000001,-0.02143750327420787,0.8485638892040328,-0.18940984983322745,5.830716437954254,-1.4511956306014726,1.1791322482222562,-0.22300374259677774,0.42516030426729234,0.9329595380298967,2,left
12.539000000000001,-0.05128524120577657,0.861213884113237,-0.1841440464698686,5.832644306345257,-1.4522235386220705,1.1797392219217926,-0.255190058923048,0.24304932521152153,0.8825524675566147,2,left
12.54,-0.09564395623692523,0.88234940374414,-0.17464802555897552,5.988012670127828,-1.557153088325859,1.2373358174285045,-0.23078689815643966,0.38112280428098066,0.9207634707031742,2,left
12.543,-0.1258522915558097,0.9014904334797188,-0.1661934738272816,5.60631941828305,-1.2995779432663153,1.0959117222981098,-0.24550548757366972,0.29784285455781223,0.897721636032714,2,left
12.545,-0.15985764632387878,0.9272082557982798,-0.1553849462165413,6.239220789285287,-1.7266822890283207,1.330424438635772,-0.2395177409896939,0.3317293590729371,0.9070959930725759,2,left
12.548,-0.1802085088435914,0.9447065385277866,-0.14891238106295995,5.40434741726876,-1.1632259794858988,1.0210451861223326,-0.23942983942562523,0.33220837245801943,0.9072226917484757,2,left
12.549000000000001,-0.18348478660119433,0.9483281754188481,-0.14874804782091505,1.8995811596753478,1.2030790355568726,-0.2779235540947026,-0.24257665681214668,0.3144355274207179,0.902323874293378,2,left
12.55,-0.19974208548453837,0.9643895633749213,-0.14780507543838667,1.0646123621034413,1.7667083845953746,-0.5873766707503436,-0.23880566680737436,0.33572918615115066,0.9081850621902516,2,left
12.552999999999999,-0.21777228724111056,0.9828861474872862,-0.14534138092895754,1.6976331396107334,1.339317652163181,-0.3527645365315266,-0.241744579277199,0.3191420040336005,0.9036277801220777,2,left
12.554,-0.22434758149866896,0.990257023474863,-0.14270262480137558,1.3159219078179971,1.5971728521798054,-0.4942273123701998,-0.2401608352385028,0.3280857820187901,0.9060879619226908,2,left
12.558,-0.2275893143784783,0.9965977284217912,-0.14018339437152305,1.471065819848301,1.4921401662838547,-0.4367534016808647,-0.24051363744181378,0.3260531459490311,0.9054972935853367,2,left
12.559000000000001,-0.22689325001795013,0.9971389383243541,-0.14286640781220006,1.473555471936146,1.4908503847583576,-0.43578731853439917,-0.2409586209084087,0.3236507235491577,0.9049249590551207,2,left
12.565,-0.2211726336852087,0.9909695642590526,-0.14987941517268755,1.3918022616999237,1.54566840474744,-0.4661333083848717,-0.24018865211172197,0.32780935107672693,0.9059155796071705,2,left
12.565999999999999,-0.20938054387723262,0.9824618165750296,-0.1543793938482661,1.4895072368426319,1.479864122686315,-0.42990084510998416,-0.24092405794122027,0.3238908892784952,0.9050282731291565,2,left
12.568,-0.19316725139680255,0.9702980668689474,-0.15951500897813992,1.4137680304165445,1.5313107731597895,-0.4579294916687693,-0.24042402832314466,0.32652691684015006,0.9056004451258362,2,left
12.569,-0.17464768790971447,0.9552877058122476,-0.1649970418942146,1.4539257111464186,1.5031967131993094,-0.44318298316776855,-0.24062303744594576,0.32539900776908015,0.9052870264959041,2,left
12.574000000000002,-0.15025129451835206,0.9377793654718469,-0.1630426981645316,1.4459775612271701,1.5102845630451565,-0.4458916488814495,-0.24070438129252983,0.32529759700089056,0.9055507887968355,2,left
12.575,-0.12321661481022403,0.9224720161669258,-0.15597968295386336,1.4333774583142755,1.516681809722833,-0.4508533820032127,-0.24040881310847662,0.3261501589077721,0.90511956790297,2,left
12.579,-0.09488752370019339,0.9092954461345089,-0.15023188784171948,1.4535627346762097,1.5047343197817478,-0.4431392158129264,-0.24082426449450625,0.3250223518306832,0.905802878418152,2,left
12.579,-0.06210754984405022,0.8961078711916848,-0.14602935809189554,1.4359405576901834,1.516646455607244,-0.4496682942030339,-0.24041519958501095,0.3260333709707036,0.9050214591358666,2,left
12.583,-0.02850309530501549,0.8909772505734086,-0.14413416410961877,1.4451870723457385,1.5072886062426367,-0.4466744317198614,-0.24065189650279248,0.32544719020104707,0.9054724378405186,2,left
12.585,0.00491130188654423,0.8902250784353207,-0.14535993242519674,1.4458983408336594,1.5139268095362048,-0.4454208138600336,-0.2407810383487625,0.32536593962369986,0.9059784994365477,2,left
12.588,0.039882575514019664,0.8876268537218213,-0.14443501275562914,1.437144640490725,1.509218025753702,-0.4501422323234525,-0.24011895501347605,0.3262703718352744,0.9039155046327182,2,left
12.589,0.0758457836734363,0.8901626361391695,-0.13961480514362548,1.4492912984989865,1.5123367515485047,-0.4440657129555403,-0.24135155532772848,0.32456592611742474,0.9077338754702546,2,left
12.593,0.11465141203082366,0.8954733168479941,-0.13235513635558593,1.4403854407710197,1.5118092077746192,-0.44827621830516995,-0.239775123287257,0.32671916408379464,0.9028210857975916,2,left
12.593,0.1531956215159184,0.8988707064404435,-0.12290872327360947,1.4385764653411126,1.5073928064531978,-0.44973128787501737,-0.24108827166809807,0.3249378298730548,0.9069270691532944,2,left
12.597999999999999,0.19065325093382957,0.9002926942081959,-0.11131190474663749,1.457319541348068,1.5194118705383337,-0.4393514626651466,-0.24104508537640928,0.32503002950721216,0.9068280410669479,2,left
12.599,0.2279152481217595,0.9009790628910113,-0.09770212169970278,1.4200023832365352,1.4988495095227061,-0.4595487431370347,-0.23857422716389254,0.32823787372691327,0.8989466638065062,2,left
12.603,0.26066136971141635,0.9025214510436268,-0.08548669923234883,1.4688413903357938,1.5246300337582745,-0.4332729768506164,-0.24465279144145602,0.3203208583516053,0.9183092501674777,2,left
12.604000000000001,0.2923729255674881,0.8991603863780081,-0.07352047879378606,1.4276785761223731,1.5033702167784955,-0.45535336836933626,-0.23457516065185083,0.33344346197062,0.8862039631426701,2,left
12.609000000000002,0.31267223419021095,0.8951762169859547,-0.06456731836855988,1.4293930423477028,1.5035403916160717,-0.45453390051294884,-0.24786531549020807,0.3161464695052404,0.9285539539037304,2,left
12.61,0.3183516999494302,0.8948628053311337,-0.0605273736217908,1.5062855926329397,1.5451563881246002,-0.41302133411599895,-0.303635517574814,0.24364876421889783,1.1063447328202707,2,left
12.610999999999999,0.333281170866524,0.8914821493382556,-0.04888094819858285,1.3164245728029211,1.4434555490654466,-0.5153744035845176,-0.3169227797168159,0.22636889080338934,1.1486993708846,2,left
12.612,0.3535274409125626,0.8889656515974576,-0.030376370892190984,1.6315512412987996,1.6118588548819277,-0.3455484157334828,-0.30684924434610705,0.23946491039726675,1.1165871447253393,2,left
12.612,0.36328467795796887,0.889350400890776,-0.02002932798669227,1.2157800925561906,1.3898162574936923,-0.5695898750075623,-0.3129255783864301,0.23156940758589495,1.1359545877479937,2,left
12.617,0.3665936495541261,0.8891205440576779,-0.01628705180094627,-0.5289757940222887,0.45748245589771,-1.5098119447736247,-0.3104513904276206,0.2347798172748206,1.1280759342022337,2,left
12.618,0.37136299321616406,0.8907402768827097,-0.005906592312219451,-0.9447786450181624,0.2354547711822066,-1.7338514433164027,-0.31042007962901763,0.2348271658752906,1.1279617228302201,2,left
12.618,0.37998115446344843,0.89407802318047,0.009064509491629468,-0.6295378703599668,0.4037938648637563,-1.5640102484424685,-0.3117124289920734,0.2331416289428565,1.1320969402298706,2,left
12.622,0.3841842059683965,0.8999990725497075,0.017971568688870745,-0.8196685211605939,0.30225718144663744,-1.6664255025161225,-0.31016142036933503,0.23516013666230753,1.1271457153380862,2,left
12.624,0.38220354710280013,0.9090476834337478,0.025513237120647302,-0.742306982358903,0.34357562404580755,-1.6247793626366045,-0.31137430030365876,0.23358687454455854,1.1309979861525323,2,left
12.627,0.37848055204123465,0.9164852413291217,0.03836344529084742,-0.7412122812933852,0.3441514852580155,-1.6241627621780106,-0.3107105506096157,0.23443866844627376,1.128928093912524,2,left
12.627,0.3686731294116068,0.9235784174201773,0.04784371353903491,-0.7817981765195663,0.322497770514347,-1.6460199587260256,-0.31087974767036874,0.2342374072179848,1.1293877335039735,2,left
12.632,0.35430386982475,0.9331842252210356,0.04971097488452998,-0.7331443151413245,0.34843598703983975,-1.6198819192685,-0.31102774067938965,0.23402237467713144,1.1299576590820553,2,left
12.633,0.34100990679609566,0.9412210098868765,0.048098416621796605,-0.7711045947401629,0.328241131375847,-1.640176731307577,-0.3107484354878945,0.2344033988757352,1.1289889018213577,2,left
12.637,0.32679438957100526,0.946399907494542,0.04274827551797278,-0.7505365306163387,0.3391211790046391,-1.6293169859994872,-0.3110292340505467,0.23403846107854764,1.1298833307252931,2,left
12.638,0.31164901038160564,0.9523565671831307,0.03578798408035109,-0.7553581937752465,0.3366472885120309,-1.6316957863262063,-0.31080426257191107,0.2342980431335352,1.1293118543359402,2,left
12.642000000000001,0.2984042602357333,0.9585093973715693,0.026174770306726276,-0.760700140854214,0.3337529253810006,-1.6346679780525342,-0.3109708390310012,0.23415661612399913,1.129509826535483,2,left
12.642999999999999,0.28820021125224504,0.9625116832925052,0.014292239997719313,-0.7511993780123346,0.3387353007913956,-1.629735815212193,-0.3108447250719125,0.23420853271564485,1.1296047237401754,2,left
12.648,0.27877878712430265,0.9664531108781153,0.0071404147248261335,-0.7604250985734229,0.33409613851522313,-1.634105984308643,-0.31093438371144755,0.2342113990178171,1.1293607526000753,2,left
12.648,0.2696355752553447,0.9683318435508785,0.0033469306964647584,-0.753775052153751,0.3371538346218165,-1.6315569172154527,-0.31091261153723404,0.2341706471679229,1.1295974827861686,2,left
12.652000000000001,0.2643448349345644,0.9662132665804454,-0.0009057282488097323,-0.7572872043262744,0.3358832915445191,-1.6321809300298118,-0.31080045853558247,0.23425714253450652,1.1295038315456987,2,left
12.652999999999999,0.2608296939109085,0.965295749504879,-0.008701325223284609,-0.7565287671563201,0.33580627872176266,-1.6327831980542733,-0.3111190141772961,0.23410299465394818,1.1293644158736416,2,left
12.655999999999999,0.26087311291067955,0.9639887773439821,-0.018778661342466852,-0.755133255276164,0.3365466927094206,-1.6320403171553082,-0.31056895200082624,0.23433578690470896,1.129752760512039,2,left
12.657,0.2663970828735916,0.961583166778954,-0.026737946134720303,-0.7582607818268985,0.33577240590893365,-1.63184979758848,-0.3112605887204867,0.23405610030986493,1.1292073015207045,2,left
12.661,0.2713570087083561,0.9615059828098645,-0.035813229898744706,-0.753674855778367,0.3361746542496497,-1.63366515769023,-0.310689376843752,0.23428130179771972,1.1296824919818773,2,left
12.662,0.279019320695135,0.958374305495004,-0.04414323085922045,-0.7592223818821973,0.33626532590595815,-1.630259900000728,-0.31069527719680595,0.23428816853095336,1.129639060202058,2,left
12.665999999999999,0.28993311208852524,0.9527142184862132,-0.04920984471252819,-0.7539316553837354,0.33583601023941995,-1.6342256313069354,-0.3118098922965816,0.23382444744700231,1.1288142376963775,2,left
12.667,0.3003590331797259,0.9457811209478961,-0.05078362875825439,-0.7567108754027756,0.3362323406589429,-1.6317846129465012,-0.3090841365132745,0.2349450890329705,1.1308858511609707,2,left
12.67,0.31586981698100425,0.9348369045350029,-0.04587174244297712,-0.7595202591109,0.33635331211606234,-1.6299031693755512,-0.31359833540729654,0.2330948141859633,1.1274341677317343,2,left
12.671,0.327059827761594,0.9290680303986131,-0.0418738561487364,-0.7482397510324621,0.33528239609990246,-1.6386837637469474,-0.30764604176402,0.2355315626991552,1.131993254864211,2,left
12.675999999999998,0.3290950868723661,0.9274059089748632,-0.04265599879315521,-0.7688093924297354,0.3374553500669944,-1.6222114717607101,-0.2826539169611443,0.2457696219020523,1.1511063872668639,2,left
12.677,0.3406314883648659,0.9228607665767214,-0.04407570674469215,-0.7425716449004431,0.33457185361256153,-1.6434567847566777,-0.2767020147553274,0.24820156607559113,1.1556675816853432,2,left
12.677,0.3576770959904715,0.9193463433848774,-0.04886367705231507,-0.7644015129855021,0.33701922897990133,-1.6256798376118344,-0.2812146356705799,0.2463609442830346,1.1522093470956378,2,left
12.679,0.3699615601625968,0.9164315178473277,-0.05831314525332462,-0.7638501788642442,0.33693122247839535,-1.6261825489305919,-0.278492807972703,0.24746778286470095,1.1542952221746592,2,left
12.683,0.3838971013601412,0.9179948149656075,-0.06790160365233905,-0.7221978062485523,0.3322810358867817,-1.6600641193988168,-0.2796003976961383,0.24701935140313117,1.1534467731021376,2,left
12.684000000000001,0.3986942735602458,0.9229954488875918,-0.07789183393446097,-0.824482929342688,0.34376007835850675,-1.5767380148279702,-0.27961578215071925,0.2470150541123076,1.1534333404210697,2,left
12.687999999999999,0.41504449854491476,0.9251195091880362,-0.09058093053081814,-0.6549442043224081,0.324698780892951,-1.7149254101269351,-0.27903548094945674,0.24723886188725175,1.1538822002739644,2,left
12.689,0.4267393334716145,0.9272607731715687,-0.0978384603702667,-0.8785265910524597,0.3498579966847959,-1.532638106814089,-0.27973053662732555,0.24698229931660123,1.1533421234296557,2,left
12.689,0.4313304771695201,0.9270419945209165,-0.09848711265764737,-1.8166947335026995,0.4555363496469841,-0.7673702198546942,-0.27918945787337024,0.24716474853973722,1.1537668409831048,2,left
12.693,0.44228064655163707,0.9288453031726549,-0.10276633257992214,-2.040187624625217,0.48071894615569083,-0.5850481605557583,-0.279480978377706,0.2470837595665701,1.1535336396565103,2,left
12.694,0.4562893282519004,0.9343974196106546,-0.10832604221717487,-1.8708393529242109,0.46160907672023155,-0.7233088716920457,-0.2794144533381241,0.2470946005704472,1.1535887048886837,2,left
12.697000000000001,0.46714827226665423,0.9357747901972324,-0.11089298054814772,-1.9728296807325791,0.4731609407865339,-0.6398705756465126,-0.2793375996171521,0.24709337926955036,1.153656270986572,2,left
12.698,0.4767164652374377,0.9381047777545597,-0.11240346804509913,-1.931539791381392,0.46842470148210086,-0.6738881895158105,-0.279469859392086,0.24714416139773046,1.1535274291239674,2,left
12.703,0.4830317620699958,0.9410603137435558,-0.11208745336220026,-1.9306652601329974,0.46840830203293016,-0.6742724015797583,-0.279347130811468,0.24701386191219965,1.1536686980903752,2,left
12.704,0.48476194961568536,0.9438231544598272,-0.113206326175322,-1.952592867174351,0.4708439147889878,-0.6565258800585769,-0.27942774678030596,0.2472022669557567,1.1535490179414607,2,left
12.707,0.4824781273467351,0.9505096824664877,-0.11434541340231202,-1.9267145273206883,0.4678585776025821,-0.6779151159375267,-0.2793937881259165,0.24703973921405017,1.1536212048392598,2,left
12.708,0.47803858654334935,0.9539450093248528,-0.1100586179545784,-1.946280966712079,0.47028634311703393,-0.661057204782326,-0.2793939726646956,0.2470380295020188,1.153621439892999,2,left
12.713,0.4706301504044589,0.9558563085477004,-0.10743371190296425,-1.9366460809831303,0.4688169785047291,-0.6704596727949665,-0.27940847850373973,0.24735955201941262,1.1535247373602797,2,left
12.714,0.4620523463978456,0.9605481793877957,-0.10754579517942758,-1.9375165914046213,0.46938555198606013,-0.6678574869651531,-0.27939585078071905,0.2466165119937528,1.153730087447987,2,left
12.717,0.4524753554529053,0.9623142610683334,-0.10716441179485166,-1.9417277051849098,0.46948517917276533,-0.6659302333096491,-0.2793977815140023,0.24773181526504368,1.1534366101291975,2,left
12.719000000000001,0.4376518621471592,0.963845655832744,-0.11200787487502337,-1.9367072446710223,0.4689160682223002,-0.6700387603205876,-0.27940563327426815,0.24653893271835178,1.1537419915154554,2,left
12.722000000000001,0.4212674778610799,0.9682931937468248,-0.11582766369157704,-1.9390094290065345,0.4698710019382639,-0.6653641863629827,-0.2793978614517574,0.24722932915824536,1.1535678049884712,2,left
12.722999999999999,0.4052795060803384,0.9723664471497997,-0.1151217654244269,-1.9413713962827204,0.46854791779902655,-0.6698286684923982,-0.27939011141168146,0.24782543728183962,1.1534191374035627,2,left
12.727,0.3860057580093278,0.9773520785618419,-0.11330989474051781,-1.9345120339465236,0.47014563602032267,-0.665889366171966,-0.279428371365229,0.2452159500860612,1.1540678832673574,2,left
12.728,0.3649582421074271,0.9828880724499317,-0.10708951989983115,-1.9432936797892175,0.4686082484288821,-0.6688904410085433,-0.27935356367700687,0.2500563709259963,1.152867131185381,2,left
12.732000000000001,0.3436565086300587,0.9881841032860889,-0.10469006835090366,-1.9374693060770558,0.4694116421303509,-0.6677677014940072,-0.2794523590855603,0.2438403824620366,1.154407457509285,2,left
12.732999999999999,0.320625406244302,0.9956340114685774,-0.10687472424838115,-1.9340289747369637,0.47028335477753047,-0.6655133317010384,-0.2793684429857417,0.249029705729647,1.1531217318543354,2,left
12.737,0.29531234846041676,1.0030865322842917,-0.10422271073001521,-1.9524215308259953,0.4668465493330264,-0.6726637007871069,-0.2793713559585203,0.24889055966571985,1.1531580966057016,2,left
12.738,0.27192686577969044,1.0099047881560064,-0.10074856256820527,-1.9173395747112552,0.47310954776386177,-0.6601945449317111,-0.2795317795615415,0.23899162783078365,1.1556044709578654,2,left
12.742,0.25112831466444074,1.0174444274406782,-0.10243415301295447,-1.9628186067986793,0.46511720584278005,-0.6758553646570871,-0.2791352643963134,0.26331971089166395,1.1495891159225895,2,left
12.743,0.226407291518945,1.025223033163384,-0.1101668196109089,-1.9246649120822146,0.471767304228768,-0.6629288480568319,-0.27979459013690167,0.22298428346183402,1.1595645634413536,2,left
12.745999999999999,0.20943412714003654,1.03091797475759,-0.11543971121912106,-1.9258598915993157,0.47160882480751665,-0.6631543756251456,-0.2789232037546381,0.27618479102451243,1.1464051498747376,2,left
12.747,0.20475748896322749,1.0328359860922698,-0.11505931637091754,-1.9983091445656926,0.4588866515353738,-0.6880298111404932,-0.2752775665059606,0.49951613861389477,1.0911959230488384,2,left
12.748,0.19050612938312422,1.0376783571963633,-0.11657474245950097,-1.8199461707035993,0.49011680131875124,-0.6271106312234371,-0.2744036298251177,0.5527136908711789,1.0780331205084372,2,left
12.753,0.17049624103707411,1.045787222622541,-0.11808164780241609,-2.115821046759022,0.43835662887174964,-0.7280147907118661,-0.2750660532573753,0.5123813221615947,1.0880119771901477,2,left
12.754000000000001,0.16242165321567953,1.0486437531876933,-0.11790706998915401,-1.7254924652706936,0.5066150334072091,-0.5949682822481747,-0.27466938877933933,0.5367111126843761,1.081998928711794,2,left
12.757,0.15889754611456447,1.0496186849408038,-0.11673428572952921,-0.087118352223724,0.7931887398729237,-0.036629551167340624,-0.27482313099010225,0.5268005616149851,1.0844312602546489,2,left
12.758,0.15106771959013887,1.0538415536097632,-0.1159340695674715,0.30325452984459433,0.8614339474004699,0.09640220448987213,-0.2748420708375594,0.5266857390235087,1.0844965837534355,2,left
12.758,0.14364947046391155,1.058381238176353,-0.11891095638215973,0.007289129532439043,0.8096928503701099,-0.004451236896224772,-0.2747338535674687,0.5318407292282694,1.0831703428502846,2,left
12.761,0.13698926969170938,1.0634823531062267,-0.12185435745762409,0.18578474305203382,0.8409114390926462,0.05635090495640061,-0.2748584991544065,0.5256582524423149,1.084749757570152,2,left
12.763,0.12629879672173225,1.069309167742433,-0.12481367922174072,0.11318344723947651,0.828176933211315,0.0316763248521069,-0.27476947097432886,0.530485470669054,1.083534472726965,2,left
12.765999999999998,0.11547319978962937,1.075609201953693,-0.12914356936413207,0.11210782206125137,0.8280683905987516,0.031188183630831603,-0.2747925997688978,0.5278443098539252,1.0841442764115654,2,left
12.765999999999998,0.10721966093473367,1.082374805073321,-0.1309384782005866,0.15025673681256185,0.834628154689781,0.0443554937451657,-0.2748457474057675,0.5285374644297336,1.0841118036419042,2,left
12.770999999999999,0.09791007410525498,1.0870614545256285,-0.13054575537260193,0.10457468837017032,0.8267491675220651,0.028624438855949303,-0.27472614696374753,0.5290634740221916,1.0837426578955118,2,left
12.772,0.08873278479992563,1.0917239548598778,-0.12891913344170572,0.1401300549501552,0.8329198035970855,0.04080907758069065,-0.27487856441457303,0.5280693330403692,1.084281730796461,2,left
12.776,0.08075998803052187,1.0957460107184618,-0.12694282694552772,0.12102286519162736,0.8294857782859079,0.03444441477772994,-0.2747543046158084,0.5290306729047685,1.0838102636675582,2,left
12.777000000000001,0.07161579169406249,1.0991615297294248,-0.12568975999883544,0.12523576688072446,0.8305207897897626,0.03541584573828368,-0.2747657168689513,0.5282759449471199,1.0839948815486125,2,left
12.782,0.06251966485016514,1.103779128456637,-0.1221702916182918,0.1305974227269087,0.8309450039855679,0.03804048629588144,-0.2749566883856888,0.5289068406074802,1.0842723890551866,2,left
12.782,0.053059058546407536,1.1043675187186714,-0.11358530620244794,0.12146100991752269,0.8299768759081931,0.03394907300922925,-0.2745079111849416,0.5282168358109895,1.0834521842463882,2,left
12.787,0.03983279335651797,1.1047112861369963,-0.10323757957855173,0.12998231105772529,0.830965433077708,0.03763230186555049,-0.27518040107730635,0.5290661000798437,1.0847204327975648,2,left
12.788,0.024004961039560346,1.1082841011408382,-0.09545367099814062,0.12445882168582965,0.8299946514515949,0.03575741785020148,-0.2744628977270691,0.5281943690272173,1.0833599844439226,2,left
12.79,0.006733183608545437,1.111877088040301,-0.08736870371293415,0.12636249619317325,0.8312590010976695,0.034958592651201124,-0.2748784562681092,0.5286449877122532,1.084159462141769,2,left
12.790999999999999,-0.0149485084275511,1.116221147002326,-0.07906161095314992,0.12752587002784577,0.829334654740419,0.03866277825208986,-0.2752320103890181,0.5292960735026586,1.0847827714684097,2,left
12.795,-0.03885608432336427,1.1188603570461113,-0.07336839049202884,0.12447059357439182,0.8319739531310193,0.03268695245148106,-0.2736768744886169,0.526876696883338,1.0819466012624297,2,left
12.797,-0.0584416110737304,1.1202977564933323,-0.06526329470486833,0.12797212374685882,0.82920400947161,0.03914097998580621,-0.2765624909580129,0.5312856430202872,1.0872263594045073,2,left
12.8,-0.07671466986855954,1.1204014913414964,-0.05510006956995975,0.12556289319653408,0.8307355720628258,0.03527965872671884,-0.27285658998032736,0.5256420560804249,1.0804416751670958,2,left
12.800999999999998,-0.094612498968562,1.120360258923878,-0.04837643684158206,0.12540280670216605,0.8323953675454064,0.0326062150299971,-0.27595110352959645,0.530346068571712,1.0861090132557787,2,left
12.805,-0.10608150196890266,1.1233501044038499,-0.04219455999882711,0.12923722600286175,0.825688547927889,0.045378543329681706,-0.2758656411484415,0.5302469271021495,1.0859455807662735,2,left
12.806,-0.11564738760580753,1.1232019069309358,-0.034590230538987674,0.12156446515541211,0.8380243229734841,0.021498884852815554,-0.2699695696834661,0.521185852265744,1.0751692441682792,2,left
12.81,-0.12468053114111888,1.120494819162273,-0.02845591641845692,0.13153753549270958,0.8222095389108461,0.05220458510725171,-0.2844643519741403,0.543422778827958,1.1016705191948302,2,left
12.811,-0.1280710937682979,1.1172646413300558,-0.021393021945680955,0.12316967569041676,0.8353996053389356,0.026552895650588312,-0.26042957173417003,0.5065626558359946,1.0577238170649441,2,left
12.814,-0.12762520018154982,1.1130386758597863,-0.015044342510128948,0.12357157265560634,0.8350862056439026,0.027313448860195714,-0.29213256742944316,0.5551791879360921,1.1156927312991645,2,left
12.815,-0.12703776641445308,1.1116251069059813,-0.013910658723666224,0.13893182175128432,0.809800258921529,0.07600758002168902,-0.4251675469620706,0.7593196480881679,1.3589077921636021,2,left
12.815999999999999,-0.12379611724281048,1.1100715795999756,-0.010920194019044337,0.10099079733307986,0.8718910616211941,-0.04375362300753127,-0.45686910947736775,0.8079409016745616,1.4168721951490297,2,left
12.82,-0.11246921287105444,1.1084044117934204,-0.00895335424590993,0.16392394087343237,0.768965949882329,0.15483447637670875,-0.4328406329780672,0.7710712892799731,1.3729429944072362,2,left
12.821,-0.10452198403703483,1.1087223658662997,-0.012749753621555294,0.08094591154998519,0.9047089897151057,-0.10710189889347384,-0.4473191692878551,0.793321790823286,1.399401423596307,2,left
12.825,-0.10126362071369893,1.109088614992519,-0.013369565205447803,-0.26747189321514947,1.474696823811942,-1.2065016228684917,-0.4414526627978761,0.7842456692816346,1.3887010545794674,2,left
12.825999999999999,-0.08753510376288628,1.1101966056007662,-0.015908910299657582,-0.350366457531348,1.610421186839267,-1.468426684201647,-0.44132677498690476,0.7841575304461261,1.3884357352460226,2,left
12.827,-0.0714969679922908,1.1136131519207826,-0.022022674227223267,-0.28752361951226246,1.5075162874746946,-1.2698508279014038,-0.444460686371173,0.7888628782379344,1.3941998672219125,2,left
12.83,-0.05709885470280525,1.1194655120057893,-0.02526745733737338,-0.32549898270927685,1.5696147568121128,-1.3896166789472693,-0.4407387415364267,0.7831965886114189,1.3873803656429122,2,left
12.831,-0.03992235158653635,1.124209800966601,-0.03491508308728109,-0.30983920145755917,1.544261819985637,-1.340881959118629,-0.4435882211556911,0.7876550193392714,1.392560815381879,2,left
12.834000000000001,-0.024738997004045624,1.1290048149782395,-0.0501850167334322,-0.31008179441191897,1.5440925837041477,-1.3402087479677949,-0.4421460814737912,0.7851636854419739,1.3900179897848812,2,left
12.835,-0.009585488604393247,1.13623438278498,-0.06348549993858282,-0.31752557950484017,1.5570759284356384,-1.3657351982939323,-0.44230633836783667,0.7858892326673201,1.3901495836019675,2,left
12.84,0.006817182481524097,1.1429636543151067,-0.07857082333249907,-0.3084727033931029,1.5414670217913657,-1.3351542204974085,-0.4429580487599156,0.7863008726058675,1.391538999479272,2,left
12.841,0.022890717238643766,1.150671946520295,-0.09169502054076162,-0.3157484013909931,1.5537139167237517,-1.3589800441889672,-0.44205365013480286,0.7853821127976571,1.38972782802445,2,left
12.844000000000001,0.038132835890379274,1.1583096858678124,-0.10205878971879491,-0.31112383756034234,1.5468304179457708,-1.3461006598563325,-0.44272136170447896,0.7864106128892518,1.39094709777408,2,left
12.845,0.05403368919728015,1.164846335873067,-0.1153897245015567,-0.3138292600502173,1.5490595350186442,-1.3491190371120267,-0.44262660659198805,0.7853958571781365,1.3910665682513246,2,left
12.849,0.0698791566269967,1.173173434446553,-0.1258935797958088,-0.3118527357574601,1.549610025500571,-1.352385980138847,-0.4420140701278451,0.7864429203445271,1.3892779503222195,2,left
12.849,0.08208879874325124,1.1809597783164856,-0.13212101875259358,-0.3137336626048827,1.548044216999123,-1.3466614495684888,-0.4432198263634979,0.7853287987543893,1.3924798769604658,2,left
12.854000000000001,0.09166159013704969,1.190094346200027,-0.1379353769084719,-0.3124977309702013,1.549723351081045,-1.3520556168852438,-0.4418276508552216,0.7863526685836795,1.3888714526691668,2,left
12.855,0.09830660747909312,1.202227101031285,-0.14279466130319363,-0.3112962383705701,1.5477908383448116,-1.348346404677447,-0.44270365129255973,0.7858707511231284,1.3910870120414778,2,left
12.857999999999999,0.10314829721230215,1.2153386272813824,-0.14609671760358905,-0.3173556303631373,1.5508361043395027,-1.3502242748292552,-0.4432361602503123,0.785114385086464,1.3925907715432153,2,left
12.859000000000002,0.10753410544092262,1.2292016423810805,-0.1462195099718414,-0.30468064235872605,1.545794628259924,-1.3496328968364664,-0.4404949744717242,0.7877957904686854,1.3852607119326041,2,left
12.863,0.10960032059262792,1.2438131472536118,-0.1471975894187742,-0.32330869012276453,1.5528565688715048,-1.3496291606164839,-0.44567550439255194,0.7829713697268239,1.3990308678627073,2,left
12.864,0.110073966654828,1.2634982378457247,-0.15311981400045566,-0.3035030349617921,1.545413371098319,-1.3497978617602664,-0.43898857461331076,0.789113167837503,1.3812863505480832,2,left
12.869000000000002,0.11203648415844729,1.2831231032328168,-0.1626731383734018,-0.314864265218635,1.5495800309407481,-1.3494402300959194,-0.4445857773704446,0.78400734166699,1.396125921947939,2,left
12.87,0.11565128512801989,1.3063791046226845,-0.1706527519976462,-0.32506664736931745,1.5538375555023718,-1.3504215733803933,-0.4444118684628262,0.7841129853717547,1.3956859882599257,2,left
12.874,0.11801398273050966,1.3361355103932921,-0.17221574192232675,-0.2810850682702246,1.53629277123571,-1.3482369444303504,-0.4337988472139393,0.793935982248821,1.36749263167146,2,left
12.875,0.11997982460414851,1.362881962290981,-0.171954916300761,-0.3625287815801731,1.568635060568335,-1.351908269090361,-0.4599165500402406,0.7698379516026649,1.4368418526390583,2,left
12.878,0.11787644089853602,1.4014011062712621,-0.16953820970978323,-0.25797785338857954,1.5271473292854778,-1.3472783653600031,-0.41660034488383885,0.8097781969936366,1.321840135628714,2,left
12.879000000000001,0.11312325271586142,1.4277129458678466,-0.16610666065411644,-0.34525176159254956,1.5617697829524075,-1.3511108888265935,-0.4737381396095165,0.7571004222016524,1.4735298529323537,2,left
12.883,0.11145120522996693,1.435777013971277,-0.1661574726334637,-0.34293031236704796,1.5608915179754446,-1.3511357629942855,-0.7135620771304958,0.5360014435303376,2.1102726963634892,2,left
12.883,0.10606371337739715,1.4708725590034872,-0.1659042001305648,-0.17638160675692469,1.494671213236876,-1.3434020052193243,-0.7706997667967572,0.48331858130058103,2.261955304909499,2,left
12.884,0.09858951189426939,1.5112280797685913,-0.165689413189697,-0.5856911852968407,1.6573723910201075,-1.362263038701761,-0.7273810384796716,0.5232602895991934,2.146956459058401,2,left
12.888,0.08996047412748578,1.5512572940635803,-0.15823855481774973,0.09295238135213646,1.3876103131405464,-1.331023613106321,-0.75350812425205,0.499178667030171,2.2163256779833027,2,left
12.89,0.08104765588153412,1.5854329510867227,-0.1482400683139321,-0.802176877414103,1.743442757246087,-1.3722333475371111,-0.7428754712294342,0.5089538947224583,2.188071611810064,2,left
12.894,0.07813622394726483,1.5932191178854223,-0.14544734945729124,-4.559519002522059,3.2370405846568895,-1.5453556063928622,-0.7427309392449453,0.5091426047189631,2.187738788631766,2,left
12.894,0.06894751520371341,1.6214262154299712,-0.13128873852392187,-5.454662445308749,3.592931946349938,-1.5866030611064779,-0.7482963199590851,0.5039334624852185,2.2024436107066343,2,left
12.895999999999999,0.0527742087868097,1.6614551200907073,-0.11153822460328947,-4.775999301848489,3.3230820193563613,-1.555312854463197,-0.7416282145231019,0.5101584259990954,2.1848097609418735,2,left
12.899000000000001,0.039713984381819514,1.6895193519568341,-0.10109092801449895,-5.18531802872784,3.4858443302704623,-1.5741936808313255,-0.7468245095865871,0.5053347324257458,2.1985758316335557,2,left
12.899000000000001,0.027035981964437704,1.725112478107428,-0.09480068546040132,-5.018789334955484,3.4196594604582,-1.566522492416262,-0.7440121167054574,0.5078603611915169,2.191050124311176,2,left
12.904000000000002,0.019263879345357796,1.7577365464935,-0.09878338052035462,-5.016404189156001,3.418587363744226,-1.5663641025362816,-0.7446793094465041,0.5074606605758702,2.193011020767628,2,left
12.905,0.01592481308531183,1.7927434555834831,-0.11155870120298342,-5.103785949348666,3.4535818790098074,-1.5704983310208125,-0.745377004035304,0.5064465897093463,2.1945371860499865,2,left
12.908,0.007880857241516822,1.8367231579404826,-0.12963012523969483,-4.999106981906973,3.411606048184632,-1.565519347756303,-0.7441465577600872,0.5080360348948654,2.191670449505782,2,left
12.909,-0.006909908884125412,1.8800165019276025,-0.15087446808263097,-5.080644273839413,3.4443773416921264,-1.5694316295201407,-0.7453086861841334,0.5066017620699261,2.1944370127923962,2,left
12.914000000000001,-0.03927496644345599,1.9275990064825776,-0.16386498864720495,-5.036684313183331,3.426748428815383,-1.5673385943312597,-0.7444993413795777,0.5073449260511318,2.1922854640986458,2,left
12.915,-0.09677730080507685,1.9739457666019513,-0.16414076243374934,-5.046665106481983,3.4304112146552774,-1.5676667942199562,-0.7449362181189283,0.5076150148096887,2.1940366699437757,2,left
12.919,-0.1712386352164052,2.0112048086895493,-0.14527411322886663,-5.058494392365292,3.436094039973911,-1.5686378150953828,-0.7447450937033515,0.5062530309416573,2.1921778611206166,2,left
12.92,-0.25940967426007083,2.040077772683037,-0.1083092542239952,-5.038022746109122,3.426268406261528,-1.5669601282702856,-0.7448368765353645,0.5084635800347568,2.194437594847348,2,left
12.922,-0.35087476295912057,2.0576114663937846,-0.06646018579411005,-5.0573185077975165,3.436008899096559,-1.568750703405117,-0.7447750459036071,0.5060732991328437,2.192124218735377,2,left
12.923,-0.4320333014986556,2.0657958801734977,-0.02451220521879009,-5.04433473283177,3.429198065519368,-1.5674335874481895,-0.7447538866500212,0.5075078478763714,2.19330999814339,2,left
12.927999999999999,-0.5014803750621769,2.0657345563160376,0.0120473828034259,-5.049876920789285,3.4313856774435996,-1.5676829520848203,-0.7450173936973166,0.5084815841653295,2.1950797313464188,2,left
12.929,-0.5530306686483535,2.056689658574677,0.03924009781043689,-5.0504285303584595,3.4346671630318277,-1.5690413496775606,-0.7443253704817927,0.5037882557296205,2.188558075548764,2,left
12.936,-0.5820536367927,2.043892974293624,0.06183111255431204,-5.046119150140383,3.4259577823649647,-1.5657958661525886,-0.7455254585452961,0.5125716089428989,2.2004318451002094,2,left
12.937999999999999,-0.5915525724330648,2.025797183541747,0.07719014521120857,-5.05183820973841,3.438667062310687,-1.5706053030240557,-0.7440032188929335,0.5012733336755326,2.1852346857666443,2,left
12.939,-0.5847705892269996,2.004150876792348,0.08784692342716084,-5.046683138887161,3.4254946943986218,-1.565521252916775,-0.7452664090200132,0.5107168016614908,2.1979023072647417,2,left
12.939,-0.5584403181329824,1.9828161572471403,0.10355812985521844,-5.0496693739070855,3.4331058897590214,-1.5684599168755033,-0.7452614334292298,0.5104248605780685,2.19763561797497,2,left
12.945,-0.5175041291059885,1.9576185595866464,0.11745931370448365,-5.050166183055204,3.438849943107024,-1.5708950713244851,-0.7427571242983011,0.4925288061698701,2.1732303680507266,2,left
12.946,-0.47930520355054923,1.9305521485752126,0.12039967890297303,-5.045308814321032,3.4126632838945286,-1.5601091660022637,-0.7488778128678498,0.5365660520415418,2.2331264306349636,2,left
12.946,-0.43402108129984984,1.8993173170006148,0.10766483178992933,-5.054444374409795,3.461269619503586,-1.580119626676184,-0.738738555629994,0.46352742835843513,2.133838124720019,2,left
12.947000000000001,-0.39563853467673493,1.8761323202829496,0.09149273473966274,-5.042893520210189,3.3989358302802097,-1.5544314969600088,-0.7521111734974927,0.5598804866747273,2.2647983567267365,2,left
12.954,-0.38819790005681015,1.871035354652705,0.08786185528411003,-5.052448108882351,3.450928688152067,-1.5758760820626474,-0.8082878642163063,0.9641127778251812,2.8145979348838246,2,left
12.954,-0.35297677887973944,1.8479148944781716,0.07019308406048773,-5.051993045667523,3.4494693810548087,-1.5752797703401447,-0.8216635731475379,1.0604874741183465,2.9455700791681645,2,left
12.955,-0.29172631940937044,1.809093967736625,0.04246962365631636,-5.034655085333507,3.3506171499652213,-1.5344462198318927,-0.8115209725841465,0.9874254370037098,2.8462688881084377,2,left
12.956,-0.23862113947128377,1.7772440189048169,0.0173574173213122,-5.077389563087138,3.5935787527618164,-1.6348294333217197,-0.8176403856476373,1.0314537880419972,2.906160037673808,2,left
12.957,-0.13871198840997923,1.7282291835508439,-0.04164193151204467,-5.006584710274543,3.190797556322482,-1.4683813413515692,-0.8151471772888967,1.0136353709994894,2.8817975625222694,2,left
12.960999999999999,-0.06040000566486116,1.69171479886661,-0.0903414132121616,-5.099888022613401,3.7219887173614,-1.6879320461317966,-0.8151183218913161,1.013176370936456,2.88143885337215,2,left
12.962,-0.04041155887296151,1.6827599611588577,-0.10230422645842824,-5.491351514355635,5.952047773942859,-2.609364189708139,-0.8164157468878153,1.0228593775168457,2.8942384002972625,2,left
12.962,0.047733349539575275,1.6451093607986058,-0.13735168348080862,-5.584518710036421,6.483118091041099,-2.828926567545039,-0.8148594213570284,1.0113225594141586,2.878909886236487,2,left
12.965,0.17217325467546235,1.593086294947165,-0.15728594711338428,-5.513901741994111,6.080483775257779,-2.6624677152644267,-0.8160742077331347,1.020208862442486,2.890840304198062,2,left
12.966,0.27111401355358905,1.5486604794223173,-0.11833477765522173,-5.556548370139446,6.323437952583578,-2.7628395047186536,-0.8154114754605477,1.0157203205425764,2.8844315104323397,2,left
12.972000000000001,0.380634803966413,1.4904521342584407,-0.06201278683505809,-5.539018485691977,6.224269851396786,-2.7220614964316567,-0.8155806644701602,1.0160342920635053,2.8858377979322083,2,left
12.972999999999999,0.48966396298668735,1.421979436966787,-0.015416413295440305,-5.539174508683713,6.2235688929911674,-2.721354797198174,-0.8157219985724191,1.018605694397822,2.887649744612496,2,left
12.975999999999999,0.5980655281391101,1.3430072074375912,0.01938453181160514,-5.547694287550376,6.274411411067973,-2.742950354903989,-0.815460769703031,1.014820154739241,2.884567973199604,2,left
12.978,0.7002806284531014,1.2576314199875167,0.048952002146041514,-5.537372050189123,6.213301844438605,-2.717121007722233,-0.815711489781349,1.0181431525045952,2.887440205707777,2,left
12.98,0.7802879708552606,1.17407368915761,0.07123368988680052,-5.545609484209665,6.261233754455125,-2.7371754651438898,-0.8155218569209592,1.0167908959487908,2.885587092469292,2,left
12.981,0.850021037527964,1.0896601438670133,0.08711878066654025,-5.540545089087262,6.23433272779581,-2.726549851279417,-0.8156636157217945,1.0149970014578338,2.8862011182638643,2,left
12.987,0.9069450163116188,1.007105367924321,0.10707943170882267,-5.543167557301702,6.242957482628981,-2.7285357979042164,-0.8155285771317151,1.0204573916888728,2.8866479736826176,2,left
12.988,0.9547626456527889,0.9222642969720408,0.1230561956957733,-5.541663175996993,6.245276162716239,-2.732210358698894,-0.815684859689236,1.0119855126140571,2.8855384854502013,2,left
12.99,1.0041357541464975,0.8366589090963658,0.12114185030371737,-5.542898314234371,6.238948276274468,-2.726263636618671,-0.8155265347825531,1.0210775457797394,2.886803288803717,2,left
12.991,1.0544991995069,0.7576845223276991,0.09778561945380099,-5.542209911982083,6.245679239461186,-2.7317004155292848,-0.8156049950606683,1.0157279653509894,2.8859430036660214,2,left
12.997,1.1033584763320357,0.68449136338425,0.06588486613628647,-5.540865007320749,6.238116959492002,-2.7285995827185223,-0.815737637160223,1.0115925027169281,2.8858443190938314,2,left
12.998,1.1462042054114217,0.620380195267147,0.03650251837387658,-5.546376746470118,6.249739382074193,-2.728474844473146,-0.8152631074322539,1.0304708921623509,2.887327279116372,2,left
13.0,1.1852668320329784,0.5663609799066682,0.007162888823274911,-5.535100460855231,6.230686982877879,-2.7318613306847173,-0.81612446732444,0.9953194614889339,2.884388773036923,2,left
13.001,1.2196793601703102,0.5234285945342856,-0.016965323099422624,-5.551605090288422,6.25730997648132,-2.7260665434212026,-0.8150219855823924,1.0404881105598447,2.8882023567262047,2,left
13.005999999999998,1.2432380944663521,0.49597467187259775,-0.0345687772474884,-5.534072344008076,6.229266665686373,-2.732382218547216,-0.8159418412526083,1.0027647697167752,2.885004790759596,2,left
13.009,1.2636565417635544,0.478648345730366,-0.04508066884155586,-5.544105069443359,6.244937129737317,-2.728514517395019,-0.8159209003322117,1.0038383734438154,2.8851496127333682,2,left
13.011,1.2854731721561663,0.4673591306822905,-0.046722528888508655,-5.553228590534805,6.261077495909607,-2.7262628161890543,-0.8141514394629386,1.0755999566769223,2.8910482954508363,2,left
13.012,1.3038681874662839,0.462542495488717,-0.043690013413753746,-5.5140846595047055,6.194754257714072,-2.7378890161039613,-0.8184982933379933,0.8991537440671235,2.876488339817117,2,left
13.015,1.3211747515262886,0.4604244057213617,-0.030420934137922535,-5.586527903144495,6.316965814091272,-2.716008286573514,-0.8112887190325686,1.191730089559405,2.9006369809655492,2,left
13.015,1.3320723313508194,0.4590490794618418,-0.01863592644707792,-5.493551774708477,6.160225832106903,-2.7441760874320513,-0.8208023329431164,0.805816515241356,2.868796156973332,2,left
13.02,1.3336353088404809,0.4589314962308412,-0.015321712766843566,-5.571139193274335,6.290991748316298,-2.7206308983698317,-0.860695116328738,-0.8139152964462842,2.735094664498121,2,left
13.020999999999999,1.3379928320524748,0.4584399530876979,-0.005952263854749446,-5.569137339762168,6.28776508768739,-2.72138027650856,-0.8702169237440971,-1.1998327859974487,2.703283324265831,2,left
13.022,1.3431139052621976,0.45753589312615495,-0.0018410363703170304,-5.420914087967962,6.037430839719141,-2.765908986149105,-0.8629984871070846,-0.9072522048155032,2.7274000736361232,2,left
13.025,1.3409602135929612,0.4567246633904695,-0.007286676713588104,-5.785074600350831,6.652320771825316,-2.6563303397864297,-0.8673419605366925,-1.0836968051406097,2.712827958277462,2,left
13.026,1.335546784517384,0.4523188962149858,-0.011185722430479692,-5.181360294886904,5.632943011995088,-2.8380513410964285,-0.8656019234349754,-1.0119492756530868,2.7188325109560667,2,left
13.033,1.3327280485832451,0.4474800218876437,-0.013956175829901109,-5.9776052461983635,6.977448358436997,-2.598359109015714,-0.8655176858141136,-1.0108454351745844,2.718749578124096,2,left
13.034,1.3321273108883838,0.44611337025108233,-0.01574717919609356,-9.321389050675396,12.62263766874619,-1.5924363840273734,-0.8665282863011307,-1.0486121280575913,2.7158785360850546,2,left
13.035,1.3276103016507026,0.4425112599442229,-0.02007936285950128,-10.117694364913913,13.967223454085122,-1.3527593949241554,-0.8653354539113904,-1.0034003110590488,2.719367007873451,2,left
13.035,1.3171015940352624,0.4372950774646144,-0.02923597855640219,-9.513727239824284,12.947600099414178,-1.5344604939694793,-0.8662357756820451,-1.0385703648168083,2.7165687113841845,2,left
13.036,1.2976106403537968,0.43082835273511444,-0.04491264077055565,-9.878527081772951,13.563018573622738,-1.4248876548064204,-0.8658388835456827,-1.0197290512679795,2.7183310105167062,2,left
13.039000000000001,1.2660883356227388,0.4192820622363086,-0.06696451580514742,-9.729151217226065,13.31181513106505,-1.4694461663748433,-0.8657215238631877,-1.0237450944680173,2.71733277623447,2,left
13.04,1.2225347104230577,0.4057693755309171,-0.08746851587102937,-9.728714615918935,13.309685119279804,-1.470114785101759,-0.8662306962992175,-1.0293004325705453,2.7180222943504404,2,left
13.045,1.1650313627718458,0.3900534541454628,-0.10102442551909549,-9.804790130424731,13.439497962103673,-1.4466987082435974,-0.8655438341681417,-1.0199558906090855,2.7173852689998226,2,left
13.046,1.0997626202512565,0.3712056200444547,-0.10834264749907108,-9.712404770977589,13.28293348196939,-1.474721302904039,-0.8661214105268848,-1.0286290707151717,2.7177917585781177,2,left
13.049000000000001,1.0310456349815473,0.3530841484689784,-0.1091152444723256,-9.786291802975649,13.40650578260546,-1.4529341221101952,-0.8659903141865821,-1.0231705001364022,2.7182527036475843,2,left
13.05,0.9560037841266904,0.3359640707440632,-0.09545350324362226,-9.742726380341082,13.33672187381321,-1.4646138230527055,-0.8653498321169515,-1.024590774061306,2.7160521450731694,2,left
13.054,0.8792969261374347,0.3188533944396947,-0.06748143997834707,-9.759358845739385,13.358315614444965,-1.4620673078872077,-0.8669475389917098,-1.0267968311726083,2.7206302411495393,2,left
13.055,0.8078632710030094,0.30466456143558096,-0.03763585184194618,-9.76027633625494,13.367822528156474,-1.4587771137426297,-0.8645321117777947,-1.02220013910901,2.713908997554353,2,left
13.059000000000001,0.7475013555882059,0.29356699145115506,-0.01355905737139862,-9.749869991126088,13.343909939394148,-1.4643101971841195,-0.8671127246696625,-1.027343421401818,2.72105306688231,2,left
13.06,0.7028150438206162,0.2784927024161584,0.007844448121091379,-9.76675973223225,13.372369850725743,-1.4592496656249945,-0.8656126348107646,-1.0239876032692237,2.7169583609944197,2,left
13.064,0.6727966188451745,0.25809873646812853,0.03127633392526203,-9.741519047448783,13.341522179818213,-1.4623886573910996,-0.8643649919426262,-1.0229971587945692,2.7132671091933735,2,left
13.065,0.6568453910614613,0.23570785800428992,0.05123318980379417,-9.778364278794955,13.376836709079164,-1.4614842056338158,-0.8698990347553186,-1.030445667468808,2.72915527492448,2,left
13.07,0.6524708239493311,0.20886107498328954,0.0651786988196488,-9.730736382181911,13.336545250853808,-1.460625862305502,-0.8596234819576631,-1.0160703249840668,2.6997408630651285,2,left
13.071,0.6524641261951271,0.17780618582122967,0.07501298536190668,-9.778823267144107,13.37496068004242,-1.4623485278059025,-0.8728196848552958,-1.0346550927975522,2.7374960706252054,2,left
13.075,0.6513150397540621,0.14747768872154346,0.07440853878803047,-9.75283915690118,13.355808073248447,-1.4608117557409228,-0.8618033502675552,-1.0190884641336795,2.7059860935508055,2,left
13.075999999999999,0.6438466098486371,0.1163010860027455,0.06821744920623089,-9.724842865960195,13.329835086896857,-1.4611704265851233,-0.8621022565041881,-1.0197058871266034,2.706809518737673,2,left
13.08,0.6306889435021619,0.08726863372766117,0.06371842525927085,-9.837041246688589,13.426043605220103,-1.4627060805835406,-0.8831021621504462,-1.0487451675467623,2.76697754408798,2,left
13.081,0.6138224835469384,0.06263176009632856,0.058252522128501474,-9.631408024077153,13.251754241709975,-1.4591249059084395,-0.8314895660613268,-0.9771389795350058,2.6191378185665792,2,left
13.083,0.5944202769494765,0.03128609430164184,0.06181594449198238,-9.894572150190838,13.474055082224677,-1.4639870301953497,-0.9170607841889342,-1.0959250617654097,2.86423754306062,2,left
13.084000000000001,0.5841245103624223,0.011410766275338567,0.06806133334562078,-9.67524025138589,13.28910970371595,-1.4598173555434126,-0.804198986764433,-0.9392418533860541,2.540973126826575,2,left
13.089,0.5827307340598333,0.006593275945524716,0.07030573526410108,-9.68060669444324,13.293114018015265,-1.4600995983905622,-0.330397576804018,-0.2818507718050446,1.1838169473768783,2,left
13.09,0.5789520347298177,-0.014905096772442037,0.0863211999942262,-10.100345430731286,13.64842229476487,-1.4675989864910006,-0.21754681830656494,-0.12519125443766294,0.8605844159689123,2,left
13.091,0.5790413544110451,-0.04111709988670579,0.10789886164966977,-9.069502104689448,12.776586603438858,-1.4489231324062635,-0.30310609486672874,-0.24395170514196163,1.1056496486092007,2,left
13.094000000000001,0.5882894206571923,-0.06284396847836818,0.13200193921824682,-10.77837869324054,14.221548914638156,-1.4799781081285788,-0.25148894985073567,-0.1723357663107772,0.9577967834123655,2,left
13.094000000000001,0.5947767676039168,-0.07978010797664738,0.15426716289779688,-8.524488561179597,12.315896101530315,-1.438987124590223,-0.27252848620406334,-0.20146007522559367,1.0180792792116544,2,left
13.099,0.5977340500565465,-0.08518655649408825,0.1600740947064413,0.9365871287668814,4.315574122228492,-1.2670110038710292,-0.27274213093868915,-0.20189455169146914,1.0186564334483337,2,left
13.1,0.6102623439111354,-0.10026434942142945,0.17316105756446243,3.190467006114066,2.4100420460017404,-1.2260215624920061,-0.26184803686431607,-0.186590228811861,0.9874995375897098,2,left
13.100999999999999,0.6296001756260441,-0.12194429258073249,0.1905016836999192,1.4816677727135399,3.854761857926409,-1.2570948065199907,-0.2749225226906843,-0.204913797821499,1.0249031766220749,2,left
13.105,0.6500035356316274,-0.1372336587203225,0.19266301697571814,2.512280623049287,2.983272730185144,-1.2383477010992356,-0.2646994718984886,-0.19065115218219753,0.9956404105293235,2,left
13.106,0.6722645412535875,-0.14973803297258284,0.19070214810497488,2.0929889313129273,3.338197417072373,-1.2459982070970843,-0.2703380729715157,-0.1983239682425076,1.011830586443831,2,left
13.11,0.6900126595101702,-0.15966164081299683,0.18617835338719968,2.0869838546108115,3.342481335787994,-1.2460525590971838,-0.26875368529869925,-0.19661099036199042,1.0071666734012519,2,left
13.110999999999999,0.7048083428781106,-0.16427352603087042,0.17972876645217972,2.3069726358830693,3.1575719844270047,-1.242131767609882,-0.26783378311121553,-0.19450011440747106,1.0047477913681546,2,left
13.113,0.7210290150448073,-0.16104172582088533,0.173385359540084,2.043477642470684,3.3792911925743025,-1.246843318026263,-0.269702400359919,-0.19811555454038698,1.009835323891368,2,left
13.113,0.7386555977573502,-0.15740500910969785,0.16666994986659883,2.248653365082322,3.2062662408953386,-1.2431465019442154,-0.26785455046952117,-0.1947369108617044,1.004753472378134,2,left
13.119000000000002,0.7616019433519874,-0.14975083441334555,0.15968160001163623,2.1381222514715477,3.3006389905088986,-1.245227626309522,-0.26945745348466926,-0.1969538715570864,1.0093465887562787,2,left
13.120999999999999,0.7840825894056567,-0.13641460412490414,0.14764014256048857,2.163127355743194,3.2765620494329912,-1.2445451590528114,-0.26776338104664843,-0.19611365750793938,1.0041028095693674,2,left
13.123,0.8035967343087704,-0.12601550522649604,0.1335260954851134,2.1929144854763356,3.2564232878992776,-1.2443958373384625,-0.2700398385131565,-0.1958209651587287,1.0115177807283753,2,left
13.124,0.8225120722642785,-0.11413495045360338,0.1189935511261867,2.1415951120683996,3.29362659940513,-1.2448474568099708,-0.2670259365902075,-0.19678756510650308,1.001550590414997,2,left
13.128,0.8352160293340891,-0.10107968296717922,0.10372528458395901,2.1896563572153482,3.257920869382736,-1.2443574273836318,-0.2701674297899407,-0.1956583344633887,1.011971423236957,2,left
13.129000000000001,0.8473196704527339,-0.08943468258052675,0.0898674045239421,2.157750765591045,3.284943005327075,-1.2449413684256316,-0.2684650260770103,-0.19646707176351141,1.0062730394532178,2,left
13.133,0.8601107070824925,-0.07892344503220555,0.07671992831952142,2.170862491414721,3.264705484406568,-1.2439893904662236,-0.26643979582072935,-0.19639071394520288,0.9997640118835587,2,left
13.134,0.8698935520140928,-0.07042431315739635,0.06797845673560642,2.1727426150598688,3.284026337547758,-1.2455854967303124,-0.2743896392623871,-0.19545821237975877,1.0256352226601737,2,left
13.137,0.8800900799108273,-0.061778683217465165,0.06179535747240687,2.162310629447626,3.261653741575885,-1.2433432891297018,-0.2598121061194758,-0.19741680365914893,0.9781304164624628,2,left
13.138,0.8872080443595932,-0.053472633526859194,0.05331078418564968,2.17485213818218,3.2843006463442324,-1.2457074258006318,-0.2784923587869146,-0.1948495339615599,1.039020560556866,2,left
13.144,0.8943672631251633,-0.045948384534137285,0.045016378082944654,2.165361963040544,3.273114219822345,-1.2443827585218574,-0.2629137270100449,-0.1970152899969982,0.9882331121766683,2,left
13.145,0.8965536974218035,-0.03820799595027413,0.03464254636704321,2.168293860619923,3.2540698017901213,-1.2430370394416457,-0.26327431367255943,-0.19687307595181935,0.9894346782840692,2,left
13.148,0.8913146995368386,-0.029627791490898586,0.0201825004043603,2.1736532316581343,3.3220248693474517,-1.2485921405841935,-0.29317664285664063,-0.19301408057197844,1.086835970251192,2,left
13.149000000000001,0.8843003175640702,-0.021058865703884322,0.005527595357164984,2.1604301137152646,3.198783160677668,-1.2383513428413893,-0.21975552909629245,-0.20260095200620862,0.8476470138081574,2,left
13.152999999999999,0.862218016388723,-0.011624698915189144,-0.005673596208139898,2.178147342166284,3.356402825206426,-1.2514861542441595,-0.34146789920795007,-0.18667508866853205,1.2441696586767321,2,left
13.154000000000002,0.8462707657337909,-0.005441787302724403,-0.010062439000851166,2.1630555481654605,3.2250747484590123,-1.2405281557815757,-0.18093708588747776,-0.20768941697433202,0.7211760038702302,2,left
13.155999999999999,0.8419669311505463,-0.003370631387831191,-0.010889873036032817,2.164613474724202,3.2276425573605882,-1.240798900390191,0.49303783627130393,-0.29571037228191777,-1.474476628801576,2,left
13.157,0.818464693729481,0.004901916724275562,-0.014492148692259428,2.1896242351612694,3.4812788254696985,-1.2617739575675424,0.6535662388895693,-0.3167253763294582,-1.9974682754647701,2,left
13.158,0.7902260900275542,0.015095549984874739,-0.016982849472336276,2.126792087162083,2.8590509790088032,-1.2102545489871483,0.5318564776139001,-0.3007987875046721,-1.6009478058964897,2,left
13.161,0.757999003808456,0.02479413046650304,-0.013098712959768645,2.231326058611026,3.8904097674279043,-1.2956620312457758,0.6052785811881012,-0.3103853609649883,-1.8401375793952375,2,left
13.163,0.7313701565864559,0.03397978969179467,-0.00963107634353815,2.0934108914440124,2.5301055939898616,-1.183018265873637,0.5753676047739145,-0.3065288317863648,-1.742729099585531,2,left
13.165999999999999,0.724598003377888,0.0368248432153469,-0.008556296059175917,1.5162490480021018,-3.1814830930224596,-0.7100785326357695,0.5750256267042266,-0.3063813388231123,-1.7415430118055055,2,left
13.167,0.7002717191329457,0.04543496349128713,-0.0034519450536270196,1.3784625716276317,-4.54185954575447,-0.5974450510253964,0.5905775751445355,-0.30855464179829767,-1.7923082571754478,2,left
13.168,0.665669889585828,0.06087256934614396,0.00332314572316953,1.4828573143715589,-3.510422572637857,-0.6828414106786523,0.5719238964976141,-0.30597988435225254,-1.7314402354241882,2,left
13.172,0.6417224417768739,0.07412132001134286,0.010539371755860762,1.4199721885828374,-4.132620617237972,-0.6313177571069517,0.5864899578975911,-0.3079416555199662,-1.7789354725093964,2,left
13.172,0.6177759240645243,0.08926489204011516,0.013467989108427288,1.4454448505094333,-3.879243873061416,-0.6523297488359082,0.5785173078110373,-0.3070157011469503,-1.753045319702852,2,left
13.175,0.596181765777956,0.1068392965455099,0.00859759889541822,1.4460089689974531,-3.8761177477443463,-0.6525210424376471,0.5806160265065805,-0.30691845494091075,-1.7596154588160808,2,left
13.175999999999998,0.5774751413609883,0.12456172205250841,0.0051358994667219885,1.4323420690549558,-4.008246271219556,-0.6416769459109051,0.5821917941402268,-0.30776306918131635,-1.7652084915048718,2,left
13.181,0.5631972611381354,0.14165643152254598,-0.0007605249813850427,1.448640431695648,-3.849829610893998,-0.6546983531013337,0.5792057283366396,-0.30658993024032866,-1.754917007512733,2,left
13.182,0.551502105623187,0.15927117896623455,-0.010357820246315584,1.4360294699384635,-3.97341505604052,-0.644506453109396,0.5820956963830307,-0.3075913542354167,-1.764780990164367,2,left
13.186,0.5388282858129947,0.1792900049399586,-0.01428338675983026,1.4426073716562344,-3.9061447294068703,-0.6501590142778425,0.5798181796710709,-0.3072993905759147,-1.7573652937606674,2,left
13.187000000000001,0.5296693681188376,0.20163537576474289,-0.013047583690185735,1.441614278182369,-3.922984013464228,-0.6484994847699932,0.5817421369798785,-0.30639359272315925,-1.762800153044386,2,left
13.19,0.522397683364911,0.22586304142003727,-0.0077773616550135165,1.4388868932334895,-3.9379696334298253,-0.6477154490993572,0.5796137885111097,-0.3087596751269357,-1.7577700020365064,2,left
13.190999999999999,0.5163423785495762,0.24851803277017354,-0.003474522810107504,1.4431289053401197,-3.9106605321623253,-0.6494161769453126,0.5822455835788707,-0.3051591748844509,-1.763504121656803,2,left
13.196,0.5121510307207711,0.26621181930618554,-0.0034721597778298308,1.4393134650476616,-3.9367495081724346,-0.6477027487232195,0.5795411810710147,-0.3090103730092526,-1.7577209077399853,2,left
13.197000000000001,0.5096892308426028,0.2804579883392334,-0.003029055584014,1.441253046549809,-3.9174630364106338,-0.6493038485948854,0.5809441330123601,-0.3067645541388654,-1.7605423458377114,2,left
13.2,0.5101467879631905,0.29365582810628743,0.0005570627909622882,1.442085079051023,-3.9308010410277734,-0.6473699503144263,0.5829445093759691,-0.3049312328656064,-1.765551416845279,2,left
13.200999999999999,0.5110607139729162,0.3033727025445435,0.009179595740643877,1.4382417757678994,-3.9195443058535644,-0.6501973957674996,0.5754844768043806,-0.3131222788757102,-1.7478467671421276,2,left
13.206,0.5107429306827749,0.3101339626897551,0.02315213602255535,1.4444393603986585,-3.931732450119597,-0.6463608305157018,0.589085748612753,-0.2979020796294737,-1.7799197514409038,2,left
13.208,0.5078031501494603,0.3178216528312625,0.041296317681958926,1.4377467758523865,-3.919597209316304,-0.6503794379399191,0.5716731113150666,-0.3174517159364597,-1.7389060726854564,2,left
13.21,0.5043389392601554,0.32129438431699486,0.059036344685960446,1.4417503407232446,-3.925255623589004,-0.6481699859939032,0.5861894140841031,-0.3011288996031981,-1.7730790940731151,2,left
13.210999999999999,0.5005697626762553,0.3191757678823547,0.07579813743613027,1.4445233951459153,-3.93683745440783,-0.6457088609820905,0.5858765826875243,-0.3015791751570519,-1.772415079552951,2,left
13.216,0.49378437541585635,0.3184854890543875,0.09321215280137127,1.431277804773511,-3.8971225599825132,-0.6555684010368519,0.5579329257976757,-0.3326736885254286,-1.7063938200688467,2,left
13.217,0.4891168903430411,0.31653483761610857,0.1085853841914575,1.4560417750120793,-3.9687951603651443,-0.6374488790766092,0.6265219549869948,-0.2562391662635687,-1.8683626943650404,2,left
13.22,0.4817582414641391,0.3114473188033462,0.12748993568385245,1.424199027069044,-3.877206017425779,-0.6606774250527759,0.5128205463792161,-0.3829706625370466,-1.599883778336845,2,left
13.222000000000001,0.47246564279050524,0.3096557071400518,0.1415091214168279,1.4508008666617873,-3.953493291536286,-0.6413014104415218,0.6627929147704563,-0.21581631413967434,-1.9540085171480166,2,left
13.225999999999999,0.47115754839517254,0.30789788874270424,0.1430246764089523,1.450011404767161,-3.9521092330844936,-0.6417653901453471,1.2924019210142417,0.4858195795454685,-3.4407748403606826,2,left
13.227,0.46723671799176764,0.30275182249644134,0.15137797299956834,1.3995153922150694,-3.8044027671729865,-0.6789069996971473,1.442391624732323,0.6529623337985861,-3.7949554007603026,2,left
13.228,0.4588135773328192,0.29980186050849333,0.1645184170106309,1.5237098160325837,-4.166653422608817,-0.587691475718271,1.328668135067351,0.5262483065306265,-3.5264055701012333,2,left
13.231,0.45303181398358644,0.2992716759754712,0.17043490039683978,1.3177692739619489,-3.566219746180727,-0.7389085968583556,1.3972618093999825,0.602670155614735,-3.6883887338294548,2,left
13.232000000000001,0.4493357001063542,0.299476661517888,0.17395815869614145,1.589404814936847,-4.35818766539403,-0.5394603810020927,1.369356084390343,0.5715699948532605,-3.622490997027708,2,left
13.235,0.4477047182949908,0.29970663370383016,0.17507537250237934,2.7294981167102543,-7.683277229608429,0.29786071199824227,1.3689454154111247,0.571155895887365,-3.6215098907747407,2,left
13.235999999999999,0.4416004038844944,0.30033676267451126,0.17353954742843306,3.0011242352584535,-8.47535791568777,0.49730786488518375,1.3836149856513247,0.587407606602637,-3.656178643767258,2,left
13.235999999999999,0.4347454512087326,0.30421005906691806,0.17115423759162918,2.7951939085114272,-7.8748022592222116,0.3460918923069687,1.3660335015406546,0.5679528051884175,-3.6146199962361223,2,left
13.241,0.4337584957474578,0.30896303534156655,0.1686673698102404,2.9193921356590935,-8.237006418546958,0.4373078590088073,1.3797377574234984,0.5830874623204247,-3.6470234357718283,2,left
13.242,0.43503562091712544,0.31312069983492724,0.16167566438060246,2.8688624596079753,-8.089704851311742,0.40016242362768345,1.3723532860680299,0.5749178064704106,-3.629567126819473,2,left
13.245,0.4405637894162036,0.32065938280747874,0.14705950049580974,2.8681455307777393,-8.087449731146208,0.399706668350158,1.3739908232102724,0.5768591101219188,-3.633398406082587,2,left
13.245999999999999,0.4483943081791053,0.33217864629961774,0.13003514059420662,2.894643291172752,-8.164985827796851,0.4190708966703832,1.3760867554987752,0.5788184679689938,-3.6384636826328602,2,left
13.25,0.45643000989784355,0.34509134762076493,0.10988274961177263,2.862904286196688,-8.072153247155981,0.3958540800510035,1.372459917037212,0.5754254260932037,-3.6296990327779026,2,left
13.25,0.46579830285385077,0.3609942441490489,0.08641736903771732,2.8876233042068433,-8.144362128451483,0.41396855462199883,1.3759346133978163,0.5785014660836119,-3.63815012879673,2,left
13.254000000000001,0.4722306958625663,0.37899689582974166,0.06313395263614333,2.874289064185236,-8.105715540296554,0.40409891106673335,1.3735663875240702,0.5764970979021602,-3.63236161088324,2,left
13.255,0.4793338631693103,0.3958292955506569,0.04211128300106194,2.8773484328850456,-8.113857012730495,0.4065925282698277,1.3744935656984922,0.5775357907411939,-3.634549440718825,2,left
13.259,0.48906371437431495,0.41389377918121695,0.024570697327605508,2.8808582410672496,-8.125442767281577,0.40874602546029204,1.374942930629347,0.5768592009709695,-3.6359743480622733,2,left
13.26,0.49805382726699937,0.4299968473486645,0.008431810909670365,2.8747720712042266,-8.10603376893578,0.40479605600289614,1.3734047545674415,0.5778359861204424,-3.6315105259017506,2,left
13.263,0.5095821936370498,0.4421373136288843,-0.005963627543593952,2.8804855186035088,-8.12402004399784,0.408577948374628,1.3755807549619552,0.5762463502622699,-3.63788963162578,2,left
13.264000000000001,0.5188032580775199,0.4547309322307964,-0.01850953728529594,2.876639452538554,-8.112816959331962,0.4057499037828233,1.3734186234494934,0.5781166500766985,-3.6314612526952725,2,left
13.267999999999999,0.5238118068174689,0.4670186109153353,-0.027781736237768955,2.878366356639854,-8.11539062365588,0.407785517196207,1.3746695514763236,0.5770375916696022,-3.635179605935468,2,left
13.27,0.5302052064472592,0.4809563212110187,-0.03281051705858386,2.8782580437693523,-8.120700657367838,0.4059521674653175,1.375398646312287,0.575718957196202,-3.6375598067518373,2,left
13.275,0.53348083421372,0.4951132329199692,-0.03692970134601638,2.8774999863999575,-8.110098522742815,0.40801191194827413,1.3717557952847534,0.5809877601848175,-3.6260746979459686,2,left
13.276,0.5342435080875618,0.5063279822199283,-0.037219346080697796,2.878479989211749,-8.121899491455897,0.4059422022165724,1.3785338544687136,0.5712409967451245,-3.6474271098784143,2,left
13.277999999999999,0.5351219424417799,0.5195147075383022,-0.034205002694850675,2.877642098474264,-8.114293618649643,0.406939092031419,1.3698596255276816,0.5837894197400313,-3.620077985541738,2,left
13.279000000000002,0.5338423222507815,0.5316095188990255,-0.032517418495168954,2.8782630363821973,-8.111638347476024,0.40878318973436656,1.377087873879344,0.5732974233480006,-3.6428792437142805,2,left
13.284,0.5303076896886583,0.5399363307868027,-0.0279271359065413,2.877746120484714,-8.1296432253285,0.40232514643694467,1.3768560132830665,0.5735434006650202,-3.64217523444382,2,left
13.284,0.5248269321921049,0.5493882352747876,-0.019826880647746636,2.878305484292098,-8.095102481842236,0.4140098748722907,1.3632286803302924,0.5937170179459492,-3.5990682482582237,2,left
13.288,0.5174068480319545,0.5598102126793214,-0.0072431085449699735,2.8776796616159093,-8.13971020161381,0.39907254313589446,1.3967497637710031,0.5441580217251216,-3.7050857312998025,2,left
13.289000000000001,0.5049887200093126,0.5701492979636668,0.012211758561193858,2.8781607819454944,-8.102369295693176,0.41151476906204176,1.341173731220314,0.6263359820866148,-3.5293103344290535,2,left
13.293,0.49435353123326004,0.5777638376245975,0.026109912409047944,2.8782981876474403,-8.103771194649713,0.4112834198173449,1.4144686139095626,0.5179306788937597,-3.7611357667131426,2,left
13.294,0.4891882045004701,0.5798246799934079,0.03225833431390927,2.876898357689451,-8.173679778863292,0.3872164459297504,1.7220353144915665,0.0628735131191554,-4.733973611086363,2,left
13.294,0.4767208939063053,0.5850015661020569,0.04788251507498563,2.880151128398926,-8.001401302402549,0.44624239478665867,1.7953160694502088,-0.04554489691248059,-4.965764223645086,2,left
13.298,0.45653175065878004,0.6002253425516628,0.07689147550808233,2.874818995449154,-8.28715221797593,0.34841180103552283,1.7397620478477607,0.03664563961921098,-4.7900474354631495,2,left
13.299000000000001,0.44385985114872917,0.6112600046477124,0.09669361054030438,2.881829387634228,-7.9102554532851075,0.4774410290902876,1.7732651223096334,-0.012902279735868112,-4.896005090753009,2,left
13.302999999999999,0.4390739660485977,0.6139856584152016,0.10303793190259916,2.9116753618094022,-6.328620332558517,1.0192583397299504,1.7596361987839368,0.00721258145825579,-4.852926019910649,2,left
13.302999999999999,0.4250601054213047,0.6254198783369449,0.12380455928266754,2.918670497645534,-5.9518013529061955,1.148289594391796,1.7594405708478744,0.007577152647945794,-4.852264080820911,2,left
13.304,0.40549113082210786,0.6416190409534472,0.15251142971916207,2.9133548667698674,-6.237468117006468,1.0504568125396037,1.7665905997041507,-0.0030786177231236058,-4.874923247545448,2,left
13.31,0.3902009069622936,0.6545901559233045,0.17367695268642613,2.916613930589406,-6.065157608244384,1.1094819113261545,1.7580270755707854,0.00962506579397869,-4.847817760923892,2,left
13.311,0.3703130837262699,0.6714082319495821,0.19666351434817986,2.9151593160960028,-6.135345403389094,1.0854222439445425,1.7646964288679645,-0.0001741645049641756,-4.868875361424811,2,left
13.312999999999999,0.3457416725451774,0.6890932636782872,0.21846282573640052,2.91541457661887,-6.136146578494737,1.0851751960598555,1.7610989385892526,0.0049278527057164175,-4.857618136151679,2,left
13.314,0.31949494700906655,0.7049650232993576,0.23865593582643574,2.9157267338820407,-6.099666961686371,1.0976399128518506,1.761923477981556,0.004088892905947902,-4.860016191175591,2,left
13.318,0.28982052022255733,0.7229550460651002,0.25990726238968626,2.91526914213089,-6.143417050970924,1.0826802071403792,1.7628728363487856,0.0022160590437053144,-4.863276956125038,2,left
13.318,0.258845803825222,0.742825531825362,0.28142673823972364,2.9157559564604445,-6.10924629653185,1.0943745482415033,1.7612263791193015,0.005025706636454403,-4.857863345939144,2,left
13.323,0.22589590636961254,0.7634987527576629,0.30522654843121466,2.9150944887050017,-6.1279877760541215,1.0879358128872947,1.7627738560856039,0.002739308744438665,-4.862756538117107,2,left
13.324000000000002,0.19235335678732085,0.7828762909352529,0.3272971367532706,2.9161809129945553,-6.122959957137548,1.0897178780840653,1.7617304272902108,0.0035896323021779525,-4.859837476090396,2,left
13.327,0.16150012508811967,0.7997436859135316,0.3467980092242312,2.9145410579335174,-6.119441940750422,1.0908215595604953,1.7621985479954747,0.004482398974288917,-4.8604460579094795,2,left
13.327,0.1306665923321667,0.8170417964436243,0.36411023481735055,2.9165051783524953,-6.126226236534228,1.0886208883590918,1.7621749258509127,0.0021517480299362794,-4.861672882977938,2,left
13.332,0.0999169532143314,0.8351668525652327,0.374354463762291,2.914962674941692,-6.119623408285993,1.0907848942884375,1.7619534329001971,0.005001758401619937,-4.859584199994705,2,left
13.333,0.07116403866185644,0.8504418923183354,0.3774358773692362,2.9148470490680243,-6.124969606474095,1.0889528128131447,1.762246531980699,0.0031099763310834367,-4.8613143485843775,2,left
13.338,0.04280643095235677,0.8668137037777567,0.37616955021765236,2.9180304170172913,-6.120120411930371,1.090794166789546,1.761985780213904,0.0022410372450749217,-4.86117864950278,2,left
13.339,0.016222729776451804,0.8872631174056774,0.3706120845692107,2.910856431704974,-6.125880077993541,1.0884094540967464,1.7621802061190026,0.00744939974275112,-4.858771208672087,2,left
13.342,-0.006477881963798127,0.9057813054850412,0.3623019767217607,2.921534124518776,-6.1185614451068995,1.0915304613200032,1.76204272586067,-0.00254160019853594,-4.8639442418643295,2,left
13.343,-0.022929075687665397,0.9243494546634683,0.3469270713015435,2.910156526840392,-6.126127152862861,1.0882844047754499,1.7621397097700138,0.01040696018917471,-4.857047472647763,2,left
13.347000000000001,-0.0358152499721883,0.9430659818955309,0.3249744081550541,2.916722698419784,-6.122128694200054,1.0900322244885357,1.762090990742417,-0.00045362188399749323,-4.862911167867791,2,left
13.347999999999999,-0.04203930496129079,0.9653830816642318,0.2945525226839123,2.9224199904695243,-6.116830414196388,1.0921728493617195,1.762044027683603,-8.194024874907425e-05,-4.862590788386208,2,left
13.353,-0.038447969895796394,0.9901952268579262,0.2593734451071338,2.8975477852596008,-6.136990473591591,1.083841161777273,1.762266658717,0.02042020550866636,-4.85184142235989,2,left
13.355,-0.030740655412237507,1.0084753568566125,0.226240963866258,2.943661247837776,-6.100146886768597,1.0991063379127572,1.7617864879607152,-0.030083837077978907,-4.878492705865005,2,left
13.357000000000001,-0.008129033956591382,1.039837040672754,0.1679808961617447,2.8844535075637037,-6.14733794421473,1.079545351350353,1.7625613004097276,0.053696365065447976,-4.8342210715920775,2,left
13.357999999999999,0.009267996930720791,1.0662302547339084,0.12493294424555058,2.933879519949894,-6.10798286567535,1.0958615746321243,1.7615413870354943,-0.056824371853010355,-4.892638733855872,2,left
13.362,0.015219742240677146,1.073990346020913,0.1126503636419054,2.9325512117157264,-6.1088738704897185,1.0954790041245064,1.7572644749692508,-0.5206756174078905,-5.137767518835296,2,left
13.363,0.04475872910190888,1.1024862589332147,0.05921292510856131,2.8382800825450936,-6.184503247020681,1.0641676198019214,1.756224771266476,-0.6311983433595523,-5.196166836522233,2,left
13.363,0.08568261998725445,1.1426425336600787,-0.01203577642459395,3.069970485781265,-5.998805288598033,1.141063427895018,1.757025272667573,-0.5474072718149097,-5.151907281142657,2,left
13.367,0.13899866076335127,1.1906752079169043,-0.0922511728307086,2.685828215047536,-6.306671762751078,1.0135756493974268,1.7565380959309178,-0.597941373181311,-5.178593630476504,2,left
13.368,0.18130368243106704,1.2288259101985837,-0.15628343335416484,3.192498738735453,-5.900569394519772,1.1817421596669517,1.7567209339562104,-0.5773827093552005,-5.1677216984394505,2,left
13.372,0.19325597591669239,1.2384375875627072,-0.1723929602335818,5.3193088164759725,-4.195861543478706,1.8876463847853895,1.7567804562267941,-0.5770901071680705,-5.167627137295598,2,left
13.373,0.24188762878834796,1.2732065667244203,-0.23139908356043049,5.82595207810424,-3.789650727388751,2.0558531326697933,1.7565623521971316,-0.5878713523217339,-5.1731973947504954,2,left
13.373,0.3164365524013217,1.3200591058113318,-0.3085409240346346,5.441852644938875,-4.097674949310331,1.9283064889235797,1.75684887919576,-0.5749592672708072,-5.1665549341586425,2,left
13.376,0.3822735411971879,1.347433193791248,-0.35099787926989734,5.673507009404644,-3.911878468298778,2.005240041430921,1.7565908525736296,-0.5850135007856397,-5.171688599707635,2,left
13.377,0.45962667532407053,1.3742127341728714,-0.39100112848415636,5.579235464462474,-3.987413751639058,1.9739611166473605,1.756711842955637,-0.5795918467078077,-5.1689006625459175,2,left
13.380999999999998,0.5389596071543422,1.3952248569599344,-0.41278946616443934,5.577973137149308,-3.988704365795104,1.9734339160572247,1.7568412951170946,-0.5808347986224869,-5.169711709069746,2,left
13.382,0.6137795450976823,1.4122565566117105,-0.4235273653307975,5.627252435699064,-3.948618478020536,1.9900173886634998,1.7563748678736297,-0.5822598724986483,-5.1699689802049615,2,left
13.386,0.6889562388905096,1.4311340809267468,-0.43074843989753275,5.56825588632719,-3.9967344497579567,1.970115478834322,1.7571780244834128,-0.5797938646598819,-5.1695195616315734,2,left
13.387,0.7631688746382537,1.4481882556176515,-0.4217667459529772,5.6141573389879085,-3.959125601477101,1.985666663305891,1.7561994208004308,-0.582100416831495,-5.1696911619092285,2,left
13.392000000000001,0.8267426750715201,1.4656797433389008,-0.40605306583254747,5.589382342576923,-3.979335227518475,1.9773076422793812,1.7569766435507264,-0.5805580405065313,-5.1697105389006115,2,left
13.392000000000001,0.8760280226313459,1.4836781559152965,-0.3834759793343438,5.595245691549312,-3.9753288252753394,1.9789856853166012,1.756977271305927,-0.58124244423185,-5.170080673465985,2,left
13.395999999999999,0.9159198292101862,1.4997035253075435,-0.35127854002110603,5.60125374349409,-3.9682804905114284,1.981843098050049,1.755561698381256,-0.5811988343174528,-5.168506855234293,2,left
13.397,0.9364265507103127,1.512131194529478,-0.30880591281077985,5.590849874712562,-3.9804639051980555,1.976903466544014,1.7587998403721512,-0.5809228132793245,-5.171903131307595,2,left
13.401,0.932123653193359,1.5207337013611708,-0.2559144981965794,5.600319993615061,-3.9681574344345876,1.9818702361867202,1.7539701793741047,-0.5812463975846647,-5.166791339351725,2,left
13.402999999999999,0.8991915957229724,1.5248174832475767,-0.19172909680337002,5.594127811165471,-3.9768792695042903,1.9783614395144788,1.759117318265412,-0.5810183402426734,-5.172300586100247,2,left
13.405,0.8374622578507367,1.524567906215691,-0.11400335772875562,5.597275525419473,-3.9743900629737996,1.9793935250591363,1.7561438030257759,-0.5811499987010069,-5.169120396644599,2,left
13.405999999999999,0.7444247334304708,1.5119768030735026,-0.023723695877334836,5.59544028224477,-3.9688871221352184,1.981480491222828,1.7535813436089254,-0.5810103005148681,-5.166235391077059,2,left
13.411,0.6182625128259503,1.479896038898774,0.08542377840011085,5.597907865234006,-3.98284563786815,1.9761378464980268,1.764795589271146,-0.581297354680705,-5.178669535770392,2,left
13.412,0.46777445883992397,1.4322192722996965,0.22369292836841315,5.593825534044285,-3.9623446134277645,1.98397515451017,1.7439999140765532,-0.5807778721544691,-5.155625658795236,2,left
13.415999999999999,0.28997576053337065,1.3694215313444433,0.3881829554809376,5.598709630885994,-3.983771230173953,1.9757968473958911,1.770700993220565,-0.5814699521000581,-5.185219845568843,2,left
13.417,0.11331936732361061,1.2984125922425624,0.568864660684559,5.595893080468977,-3.9713886263992197,1.980524537837391,1.7484117044446292,-0.580877034738597,-5.160517624841764,2,left
13.421,-0.06641643654696655,1.2329355970724465,0.7531963337531087,5.592285684528544,-3.9616535030480664,1.984206980193949,1.7490106054146315,-0.5808785444750895,-5.161149615739324,2,left
