time,gFx,gFy,gFz,ax,ay,az,wx,wy,wz,subject_number,foot
12.005,-1.1793388552642128,0.4629542578076843,0.1899472007855929,6.951391920045763,7.078820476312479,-1.379633999179224,-0.9579364962177895,1.1336148666347388,-2.3012013151312596,3,right
12.008,-1.1311608006511653,0.4490919613427843,0.1431620189520449,7.053703819344539,8.080251559722837,-1.2886654623845395,-0.9546128911717017,1.0822227983789485,-2.332038915369098,3,right
12.009,-1.1204672082123102,0.44336930620519976,0.13367664854740874,7.483271594570802,12.283641034458164,-0.9068375758545554,-0.9545160483455534,1.0814342042970653,-2.332254758766352,3,right
12.01,-1.083549659340873,0.4232428058282408,0.10566374836165193,7.585311930370704,13.28473868875949,-0.8158580984534178,-0.9563404248001132,1.1084834114068314,-2.316445552368395,3,right
12.012,-1.0232011099792364,0.39411237438528296,0.08217511278736458,7.50807681360202,12.525902413038384,-0.8848398334359835,-0.9541701119761273,1.0761009254668705,-2.33544908122255,3,right
12.013,-0.9654740207113401,0.37124027514004454,0.08549102844424386,7.554616479760828,12.983518037670665,-0.8432338944367209,-0.9558367218489097,1.101291668973478,-2.320544073703517,3,right
12.017999999999999,-0.8899030332864787,0.35165921836386055,0.09292484681999019,7.535522708867576,12.797167908931502,-0.8601542719451658,-0.9550104838939067,1.0877955823986398,-2.3289042486751725,3,right
12.019,-0.8110183698783651,0.33440004542333396,0.10123289410612775,7.535831941387203,12.79514709645582,-0.8604204174290202,-0.9550293549185737,1.0906740737118519,-2.3262364408974623,3,right
12.022,-0.7312306993835767,0.322272486224654,0.10472198384651864,7.544604482917518,12.891534116597569,-0.8514913493723177,-0.9555781849330284,1.0946500665230894,-2.3254908399717955,3,right
12.023,-0.6482771606127579,0.3104433196289502,0.10333316944773928,7.534349117426494,12.776358519216164,-0.8621979006957889,-0.954787107758518,1.0879605703613302,-2.32748914987502,3,right
12.027000000000001,-0.5711283702805705,0.29593419533227805,0.10391133969782089,7.541984707286346,12.865671755073075,-0.8538442150342935,-0.9554746565947456,1.0941699639168434,-2.3253715235585903,3,right
12.027000000000001,-0.49744536965280706,0.2800907719348794,0.10494176820173318,7.537683889094555,12.817313027362873,-0.8583405662687685,-0.9552227718069501,1.0902602466167528,-2.32772261110177,3,right
12.030999999999999,-0.43253410138227494,0.25861462698853643,0.10389053460572722,7.540252198532875,12.830088058940142,-0.8573836430861436,-0.9547635245896235,1.0912826202239396,-2.324155280300979,3,right
12.033,-0.37805187387575867,0.23000365598852507,0.09953524169229225,7.537008688318522,12.838134871030746,-0.8559970212844652,-0.9560669441227752,1.0928509990629045,-2.3299730014662106,3,right
12.037,-0.33386610163031016,0.1987917670260687,0.09300254906985769,7.542580770216502,12.824164335544692,-0.858394987972428,-0.9540618580056699,1.0895761798996673,-2.321853739871555,3,right
12.038,-0.30472098472593684,0.16868005316180426,0.0837116633917359,7.535081104321311,12.83479474408542,-0.8560445595424085,-0.9562103485317921,1.0932411724963953,-2.330404060135999,3,right
12.040999999999999,-0.2851073329456538,0.14207936823104758,0.07567917368922253,7.541332415457829,12.829001909702733,-0.8576744964797259,-0.9549515425486889,1.0908487875285884,-2.3256294469570564,3,right
12.042,-0.27182369639391707,0.11524909712696181,0.07197147794739639,7.5420342633761575,12.835279474478192,-0.8571139702399115,-0.9539535901388267,1.0901480695853172,-2.320695160726351,3,right
12.046,-0.26517789729461766,0.08651615339172086,0.07671893602351758,7.527747683254825,12.819697128617696,-0.8564820800541904,-0.9584630452286718,1.0954429714469933,-2.340948197612356,3,right
12.047,-0.2636595743727431,0.06001893688827631,0.09540322199434095,7.560047847312058,12.851895445815769,-0.8582360510402294,-0.950075374181347,1.0852218535777283,-2.3036330372378884,3,right
12.052,-0.2727147557883671,0.03368096926140884,0.1183872159031013,7.5117811822625615,12.803068763084351,-0.8556914978436961,-0.960850082527659,1.0984357314940438,-2.3514898646143623,3,right
12.052,-0.286507690281339,0.006436997703214677,0.146340076436428,7.5633415720892785,12.856170563693075,-0.8583084622203858,-0.9518544077734671,1.08736879212703,-2.311563807095445,3,right
12.056,-0.3147761235968417,-0.02073880769114622,0.1751471080246067,7.533551352272552,12.82549959845603,-0.8567954048249955,-0.9521024706234543,1.0878057815696038,-2.312548285155569,3,right
12.057,-0.3636939743722932,-0.04627448161035809,0.1899492057789991,7.507632840157693,12.79672848936179,-0.8557028780683216,-0.9692363494831421,1.108454751886978,-2.3889838443623894,3,right
12.061,-0.421689644998072,-0.06494997715808357,0.19329024362905173,7.620755119301716,12.919625559329177,-0.8607583058845779,-0.9271218298519117,1.0575425975319317,-2.2012383612837008,3,right
12.062999999999999,-0.5124456296664512,-0.07928346423496946,0.17197851349421128,7.4109844424941125,12.691862028039594,-0.8513694741640871,-0.9969454029908217,1.1419954590850592,-2.512484545783532,3,right
12.065999999999999,-0.5817037515268542,-0.08745315508546228,0.14665417215367385,7.680360099995402,12.984514614756288,-0.8634074247684537,-0.9048552818432176,1.0306036494471977,-2.10197344151813,3,right
12.067,-0.599379447034809,-0.08883722095524801,0.13943518589658488,7.455461786569848,12.740106522789226,-0.8533659104808944,-0.5182407339980177,0.5631886472991607,-0.37852004753878693,3,right
12.068,-0.6695791060794687,-0.0908762647802015,0.10356532408807423,7.46152807556335,12.746473096902633,-0.8536589955471343,-0.4261634120524298,0.45182158412297624,0.031970139639873524,3,right
12.071,-0.7628978852843047,-0.09096530506747474,0.04945954973288319,7.890458314622734,13.213567094615088,-0.8727137552748729,-0.4959731358521825,0.5362476707060093,-0.2792534092156856,3,right
12.071,-0.8226574659917514,-0.08620447056357153,0.011497828222780455,6.836215286480538,12.065695403799326,-0.8258640459547397,-0.45385335453248027,0.4853253365921582,-0.09149933562685938,3,right
12.075999999999999,-0.8940719377796142,-0.07359635475705659,-0.020559661038919794,8.584195118527017,13.968943479934627,-0.9035413604160927,-0.47103315763549614,0.5060631122095186,-0.16800992917705115,3,right
12.077,-0.9360081699551779,-0.062442613669460294,-0.0348864308630678,6.278633042133353,11.458486622727296,-0.8010887230243229,-0.47118240170344505,0.5063090214578527,-0.1688329384064512,3,right
12.078,-0.9438663179994986,-0.05770102963692279,-0.03698826721146513,-3.398368469443792,0.9195798896372085,-0.3710138712411008,-0.46232841861485463,0.4955160558229486,-0.12913841281459065,3,right
12.081,-0.9785018208678837,-0.039487832580742704,-0.043617238311701,-5.703777968030403,-1.5911429031851494,-0.26854862591420514,-0.4729620246585116,0.5084571087003205,-0.17676465974434152,3,right
12.081,-1.0179005960283325,-0.010948283938536927,-0.04776151383416512,-3.95613613138625,0.31262602019301544,-0.3462586438256814,-0.4646352495911146,0.49835371791227084,-0.1395490332087212,3,right
12.088,-1.0426061586831419,0.01902625368795054,-0.050028520459440215,-5.0098294695264585,-0.8359619659722934,-0.2993466025893547,-0.4692658410466053,0.5038828791055728,-0.15999997396606438,3,right
12.089,-1.059829812567616,0.055693944186372524,-0.05491783576847658,-4.581614327845831,-0.3681200608121095,-0.3184953136548822,-0.467877623845763,0.5024275153803268,-0.15442801602973982,3,right
12.09,-1.066011008710716,0.0946230265962852,-0.06465742585628609,-4.574852949567183,-0.3622254639308464,-0.3186792422968131,-0.4672912892977165,0.5013354344353949,-0.15075223341803828,3,right
12.091,-1.0650429017286394,0.13482339092092893,-0.07630693881253248,-4.800072559826587,-0.606867306944811,-0.30871978925074844,-0.4686144581593643,0.5034046092221283,-0.15795391168567963,3,right
12.095999999999998,-1.05534677559851,0.17660112661149027,-0.08333139590432903,-4.5312204510983305,-0.31284472382364503,-0.3207690083814409,-0.4672674039564656,0.5014020808865189,-0.15091000394856852,3,right
12.097000000000001,-1.040498622834881,0.21645996876739798,-0.08566884677067324,-4.739198976228794,-0.543311110539668,-0.31120265893045473,-0.4685765825952384,0.5029817339591469,-0.15673695984832703,3,right
12.099,-1.0211764502716176,0.2553358407647939,-0.08586388570402285,-4.629235969618911,-0.41672467252191875,-0.31664622509015017,-0.4668964429765848,0.5016432185961694,-0.15117485587634927,3,right
12.1,-0.9934945685142841,0.295066080147782,-0.08378793011452573,-4.6511866256865355,-0.4490089058709378,-0.3149878573986244,-0.46943489369885716,0.503129033634325,-0.15808529495447865,3,right
12.106,-0.9630618270433907,0.33088158126797407,-0.07707392506034409,-4.684288004924083,-0.4783796667376084,-0.31406109027576934,-0.46595956297806707,0.5012890766747997,-0.14916535177611306,3,right
12.107999999999999,-0.9298442530452369,0.3595912775498904,-0.06623728221214331,-4.632409651515245,-0.42182458534842737,-0.3163715161885943,-0.4696064005817379,0.5031804934909552,-0.15841571011425795,3,right
12.110999999999999,-0.8928537679441042,0.3853055661746615,-0.05470006922900737,-4.675330906048375,-0.48094997947886325,-0.3134539278502654,-0.4675907182085607,0.5021983018148342,-0.15347887769235535,3,right
12.112,-0.8512970383416469,0.40437514207968306,-0.04508634988351841,-4.6558787025856105,-0.43146701635843876,-0.31662684196320817,-0.46539977384462256,0.5008030627660067,-0.14720119232362322,3,right
12.115,-0.8057549589194795,0.41411204715212135,-0.035234542747616004,-4.650487868583639,-0.46781328159764524,-0.3134225273600212,-0.47424655924992676,0.5060116068272174,-0.17136639698394796,3,right
12.115,-0.7594100423941514,0.41846094280134893,-0.021814345118363214,-4.671392913963732,-0.44557452173782724,-0.31616493556367914,-0.4579736783346824,0.496514098647391,-0.12714806031586406,3,right
12.120999999999999,-0.7115316204995734,0.4150161051222356,-0.008375348293773507,-4.6515736401346395,-0.449996823833006,-0.3149240139485956,-0.47883934421159885,0.5086733712434941,-0.18379414965580101,3,right
12.122,-0.6656553172372057,0.4036218751055309,0.0027100184572774145,-4.650791603378032,-0.4715551876783483,-0.31313088782634957,-0.4614309177394563,0.49853634961819493,-0.13655476480397555,3,right
12.124,-0.6223143819860133,0.3886637665313998,0.01569025077993844,-4.688627449669656,-0.41466678283967917,-0.31945139283888496,-0.4618575625707857,0.49875559299946,-0.13763157284063698,3,right
12.125,-0.5852900192180928,0.3746977659938364,0.02810187347154311,-4.608425192477814,-0.5092444908853078,-0.30817495984859306,-0.4951998822746825,0.5182668971129111,-0.22837507807027085,3,right
12.13,-0.5573359039250327,0.36290108974867075,0.03871049870330555,-4.715866565365868,-0.39265028279561354,-0.3224573342485283,-0.4132993541089572,0.4703743889662968,-0.005571418859991198,3,right
12.130999999999998,-0.5290090128881821,0.35006893666263506,0.05441883256483826,-4.624254803053245,-0.4879139594518546,-0.3106172948802023,-0.5490828421657241,0.5497670251382927,-0.3749353903797118,3,right
12.134,-0.5110790034731172,0.3425284128420408,0.065215925437697,-4.628409197249921,-0.4871362362532864,-0.31086677912861493,-0.36998405640841703,0.445048487130715,0.11225539574373161,3,right
12.135,-0.5052081744997633,0.34186955173669564,0.06748926693653547,-4.799976124370485,-0.30214744282202,-0.33357366895183993,0.3817823650781854,0.005453660342161576,2.1573368073377646,3,right
12.135,-0.49161256824161736,0.3400220518368102,0.0788799422983791,-4.3752763688505505,-0.7535968582229778,-0.27788967261883696,0.5608847138909315,-0.09927062538797653,2.644547137700693,3,right
12.140999999999998,-0.47504989917270096,0.3404485322953478,0.0931448871442557,-5.080902795111907,-0.006622014214553412,-0.37015692244768006,0.42510571229941124,-0.019876903715112523,2.2751865640561935,3,right
12.140999999999998,-0.4653965906843128,0.3421022775215915,0.09655623738249616,-4.14945051162122,-0.991113892210642,-0.24848418925197494,0.5069752286257703,-0.06774886492657813,2.4978952473414333,3,right
12.144,-0.46111835700792025,0.34235694776162184,0.09785297997733727,-0.23996041777314447,-5.123387466847134,0.2621862718214386,0.4737066075444628,-0.0482956721940932,2.4074011060244245,3,right
12.145,-0.45445198714907664,0.3486873009742919,0.1028250053562991,0.6919467573265653,-6.107446421344879,0.38384793609138607,0.473162083216793,-0.047976436102605255,2.405907491225321,3,right
12.145,-0.4434569202668557,0.3586092316674855,0.1063087804663812,-0.014611317802860319,-5.361418600116701,0.29161219194147736,0.49070694621697414,-0.0582367786920487,2.4536486343839448,3,right
12.148,-0.4351402037415103,0.3698843432112308,0.10384294473318541,0.411457925965555,-5.81135084541639,0.3472315677967817,0.4697461118620223,-0.0459797462972288,2.396622633888281,3,right
12.149000000000001,-0.4298383776780927,0.38418533789822407,0.09722633152129864,0.23831430598833098,-5.628303410742955,0.32462756493334344,0.485984489426864,-0.05547293377670966,2.4407825514127124,3,right
12.154000000000002,-0.42766769975041663,0.39756918944473624,0.09186336937747025,0.2354084308576611,-5.625683489432813,0.3242519783652785,0.47739354997110095,-0.05045548931234741,2.417455913302986,3,right
12.155,-0.42782156106490465,0.41262420512069775,0.08542097359596412,0.326946475779026,-5.721719230190944,0.3361965494043706,0.47905990306423196,-0.05141948640271215,2.4219137517269056,3,right
12.159,-0.43179564058824027,0.43107934092985445,0.07669891285844098,0.21743466641614698,-5.6066909885702625,0.3219053511918606,0.481809411443799,-0.05304007038607367,2.42948586099672,3,right
12.16,-0.440067235298806,0.44988581507125625,0.07095894279791701,0.302511110110406,-5.696257633969325,0.33300869168725905,0.477442607864417,-0.05047633765218605,2.417532811748104,3,right
12.164000000000001,-0.44934546375117096,0.4704922053712746,0.06436712692000676,0.257280780634823,-5.648013829198229,0.3271033656226216,0.48122205483023706,-0.0526862213152751,2.4278134029626264,3,right
12.165,-0.46285321821424996,0.4928912529889717,0.05684711806107324,0.26610143555615623,-5.658912115532734,0.3282603628316587,0.47930767717536144,-0.05158607751102556,2.422743356076194,3,right
12.168,-0.47769539151798346,0.5143540815159504,0.05294452099374612,0.2810305694593922,-5.671943368576667,0.3301991646694595,0.4789977859971191,-0.051360776188048435,2.421585633846864,3,right
12.169,-0.4889358293045978,0.5335815060255487,0.047467058086157476,0.25660713920997946,-5.649506946673004,0.32702332326197836,0.481109924025495,-0.05266169816205587,2.4278009661981512,3,right
12.174000000000001,-0.49731306012503373,0.5498915286102135,0.039261109255076546,0.2790326175392912,-5.670513841468938,0.3299408567929455,0.47825470892179106,-0.050921813163098885,2.4195330866446145,3,right
12.174000000000001,-0.5036223889554228,0.5625389209263756,0.02624652516185559,0.2658631216276578,-5.656586605154587,0.3282217742945467,0.48030907650033877,-0.05216388032624204,2.425411130058604,3,right
12.177999999999999,-0.5098654956420319,0.5715142195200611,0.008554933458135008,0.26654828794712393,-5.662260408112817,0.3283290090776044,0.48082201560886584,-0.05249850294108856,2.4270556354964694,3,right
12.179,-0.516542443297993,0.5778613979512343,-0.0044652287170672085,0.27814867974195956,-5.663194439259171,0.32980257462779805,0.47625649785271706,-0.04967602405526005,2.413544658660698,3,right
12.183,-0.5247144709107313,0.5849249477531195,-0.017762551910136325,0.2576898792934152,-5.65847204913244,0.3271926251167097,0.4852713317450223,-0.055231239973927315,2.4400921401644506,3,right
12.184000000000001,-0.5340118164609597,0.5940239045592435,-0.03422960765662887,0.2800863885448892,-5.66412588851464,0.33005161957419316,0.4734987037133751,-0.047982351516094646,2.405467181911529,3,right
12.187999999999999,-0.5423353361715713,0.6029193373496566,-0.042849057205179,0.2662184279834478,-5.659880504843024,0.3282784716152486,0.48340976424476967,-0.05408308279964165,2.4345993401790915,3,right
12.189,-0.5499745022026188,0.614893731877859,-0.04825693339051862,0.2588576122568083,-5.661069307304628,0.32735016095749037,0.4830147458335718,-0.05384233400708732,2.4334646481048163,3,right
12.193,-0.5570415311641406,0.6278891694778681,-0.05530271683927242,0.29859090830849844,-5.663801889545589,0.3323955388768919,0.4644540484133507,-0.04241052772802009,2.3788373780836025,3,right
12.193,-0.5627221784915254,0.637518929612958,-0.059771149332829926,0.223548364815673,-5.657302933589788,0.322861231094138,0.5102561474818964,-0.07061807640546505,2.513602854147998,3,right
12.199000000000002,-0.5670414645415782,0.6493266886515172,-0.06945333890454919,0.32021075480410033,-5.665967923322372,0.3351439356128338,0.43424695788183465,-0.023807057807616782,2.289970594063413,3,right
12.2,-0.5707443274481228,0.6566861975520961,-0.08002726343444078,0.23938936529605356,-5.658605860537417,0.3248729989125449,0.5345251348253737,-0.08556600191258547,2.5850035671178277,3,right
12.203,-0.5715589240630179,0.6581310182034152,-0.0825190993732968,0.24204893001416708,-5.659299861848298,0.325214150395563,0.9553760818011752,-0.34473349706149115,3.823198636045016,3,right
12.204,-0.5709081806941179,0.6656638474418368,-0.08808958565594859,0.39460951483578477,-5.671710288618323,0.34459292291836835,1.0556536910475738,-0.40649600388140583,4.118233619736035,3,right
12.204,-0.57147317127196,0.6739786214045198,-0.09543350470699746,0.019079088280202994,-5.64062862088681,0.29688647339991886,0.9796302160852263,-0.3596724192219838,3.894558650232388,3,right
12.208,-0.5674152649967308,0.6786357729858059,-0.09641805989901846,0.641867582662796,-5.692306354230266,0.3760073840327941,1.025485323440381,-0.3879093580056797,4.029466871580066,3,right
12.209000000000001,-0.5616878124432827,0.6817051987423459,-0.09601076086653912,-0.17959686851788154,-5.62414251433021,0.2716423682898451,1.0068137884948039,-0.37642672494343965,3.974550828540561,3,right
12.213,-0.5611340042745678,0.6831129442025834,-0.09546556459958987,-3.627022076265979,-5.338729023446692,-0.16634157367826502,1.0065845659826582,-0.3762528391458089,3.9738397296712415,3,right
12.214,-0.555749277293019,0.6848506052370913,-0.09124333167273427,-4.448425604690014,-5.270661640337904,-0.2707110474825384,1.0163161012209034,-0.3822917261946378,4.002522852637156,3,right
12.214,-0.5442162877169147,0.6867160952123407,-0.08389153004542574,-3.8257033090132393,-5.322212608317672,-0.19157681520507389,1.0046495553210395,-0.37506192294413077,3.968147294456117,3,right
12.218,-0.539277356183455,0.6916254877010485,-0.08067892720133718,-4.201257798003105,-5.291170609641906,-0.2393115314330334,1.0137535946410745,-0.3806878223847962,3.9949543695618646,3,right
12.219000000000001,-0.537912385017451,0.6969159284407503,-0.0828026052142211,-4.048480644702533,-5.3037635996068815,-0.21988670216795175,1.0087859620570385,-0.37766710816087834,3.9803831029505155,3,right
12.222000000000001,-0.5348595956975011,0.7005758316291024,-0.08673237133958325,-4.046288440946544,-5.303955490752395,-0.21960318936874698,1.0100591495388875,-0.3783274559957566,3.9839874333578247,3,right
12.222999999999999,-0.5359353066336503,0.7069376934584921,-0.09740358613227577,-4.126438619548002,-5.297400864936527,-0.22982467737076254,1.0111073515267344,-0.379185894582428,3.987315028780329,3,right
12.228,-0.5416041725259029,0.7121645276469672,-0.11353158506114985,-4.030446002274645,-5.305152495704902,-0.21754974846560843,1.0091643248658362,-0.37772818444167994,3.981299481682663,3,right
12.23,-0.5493093256029411,0.7181562926999279,-0.1280228633623452,-4.105196975972115,-5.2992506571680815,-0.2271577062921984,1.0110312751821928,-0.37908598802387655,3.9870305626377553,3,right
12.232000000000001,-0.5609357642298728,0.7275596919703001,-0.14135244966255556,-4.0648944725961424,-5.302299713720885,-0.22192820142227956,1.0096093170788507,-0.37821227169816674,3.9828491103110175,3,right
12.232999999999999,-0.5762460152878395,0.7354666883431247,-0.15613789967860026,-4.074099069668088,-5.301664295535638,-0.22314438769237688,1.0106964852861984,-0.37849547430392083,3.9856055304532734,3,right
12.237,-0.5925742735665414,0.7458378223419289,-0.1725018535751885,-4.084784324848004,-5.3010188818775195,-0.2245947635173906,1.0096286794200449,-0.3787204826152577,3.9834744084889313,3,right
12.237,-0.611757133964577,0.7584749978747318,-0.18603840702480834,-4.06629994279978,-5.3017697872611524,-0.22194798057404314,1.0108824262173215,-0.3781760866903597,3.9856555648658945,3,right
12.243,-0.6315078925147752,0.7674647443727878,-0.193437261188653,-4.083630623512369,-5.3016802354605,-0.22466335260325682,1.0096090191636096,-0.3787950748767621,3.983516157195288,3,right
12.244000000000002,-0.6488101666349375,0.7764351333284686,-0.19875796442166627,-4.072023488137516,-5.30098958641773,-0.22255882181065034,1.010245073270494,-0.37837637177722383,3.9844588075958205,3,right
12.247,-0.668157676074443,0.7852573194112178,-0.20299784590036063,-4.077094816666095,-5.301886669213642,-0.22370511595737624,1.0112875150435814,-0.3783186308817921,3.9867255795512158,3,right
12.248,-0.6860670086113434,0.7904317079810581,-0.20398525752177982,-4.077070454409424,-5.301899925592089,-0.2237065120136304,1.0075340234882533,-0.37906701258702874,3.979185207623464,3,right
12.252,-0.6991216981290966,0.7935978782075082,-0.20177674070318447,-4.074358843220367,-5.299682126911085,-0.22243064840537558,1.0143490607718602,-0.37759028883057133,3.9927394924009563,3,right
12.252,-0.7092509180323405,0.7939813576838172,-0.19576257793552443,-4.077729063015848,-5.304984904134129,-0.22498715285010645,1.0056307959844228,-0.37950558346107754,3.9754312724371674,3,right
12.255999999999998,-0.7139771275562645,0.7923877731509974,-0.1893244215138039,-4.075028951836589,-5.296881472501525,-0.22146910449335167,1.0128962419547034,-0.37789995930612585,3.989842361141714,3,right
12.257,-0.7112953660262799,0.7890335097535541,-0.1813406091826131,-4.076547400237363,-5.305632066363413,-0.22504657580821064,1.0127498735147107,-0.3779712841255911,3.9896012486372685,3,right
12.261,-0.7047675832000015,0.783041409335667,-0.17219502785880392,-4.076103060076393,-5.300541020557473,-0.2230346058871916,0.9987305955990742,-0.38093827065847996,3.9616327901605226,3,right
12.261,-0.6942435786111115,0.7773604744669848,-0.1657431369521522,-4.075907181651591,-5.2961340738756775,-0.22132379988264061,1.033129588953498,-0.3736160970984389,4.030201101108833,3,right
12.265999999999998,-0.6719396444120795,0.7696266537496977,-0.15316373114634224,-4.0762541189575625,-5.315457160417853,-0.22874578622258668,0.9761088840922068,-0.3857602369349856,3.91655577910426,3,right
12.267000000000001,-0.6548553747797723,0.7627173039319994,-0.14190481798752264,-4.076105400534693,-5.27958395535888,-0.21504469263094692,1.0513188854628073,-0.3697480569976809,4.066451380112465,3,right
12.272,-0.6493586252159964,0.7609600289910079,-0.13880497080923337,-4.075955609936467,-5.325672467628342,-0.23259408062863118,1.3670782669295019,-0.30254599579091507,4.695841675186276,3,right
12.272,-0.6287855088311195,0.7560459948297545,-0.12876021032570473,-4.076224203225534,-5.287187499838117,-0.21796147786950798,1.442297735212151,-0.2865547468139455,4.845759967877884,3,right
12.273,-0.596577000850108,0.749116018704103,-0.1136288798829836,-4.076255402063456,-5.288216934751652,-0.21836182804000895,1.385265364392633,-0.29866809710917025,4.732088390165804,3,right
12.277000000000001,-0.5685756691383911,0.7459017241544965,-0.09956567390388896,-4.075381865484729,-5.3616515800184885,-0.24621874851442405,1.4196655038097088,-0.29136615542781974,4.800653402035422,3,right
12.277999999999999,-0.542013864649231,0.7433885897407472,-0.08770529202597299,-4.077577263384477,-5.181172509200354,-0.17775719010026936,1.405669807690447,-0.29434879438769157,4.772753932505582,3,right
12.280999999999999,-0.5096050712079906,0.7444877820454785,-0.07858390883083763,-4.073872122232748,-5.4804065380031215,-0.29126040292238947,1.4054657562870514,-0.29434671345016383,4.772356065037178,3,right
12.280999999999999,-0.48703729913065175,0.7481047499987141,-0.07089759397502711,-4.078802725201397,-5.085728737309086,-0.14155667672762956,1.412819467352001,-0.2928781456631888,4.78699856708417,3,right
12.282,-0.48056981424406336,0.7486260873719414,-0.06914181512688095,-4.1000933871684655,-3.4288644521678115,0.48675758461921914,1.4040063643255083,-0.29461722816325997,4.76945159014615,3,right
12.286,-0.4564833990005087,0.7510798176475224,-0.06657568456312114,-4.105046935204664,-3.0342076637996493,0.6364570653011176,1.4108752191892542,-0.29329032278053535,4.783124340439951,3,right
12.287,-0.4234043001241625,0.7563495534471032,-0.06024845451613511,-4.101270333148571,-3.3334228214480617,0.5229643731298226,1.407173448017524,-0.2940199911123617,4.775753398287654,3,right
12.292,-0.40038872789763247,0.7616150516783948,-0.05835602220262378,-4.103621474251366,-3.1529214220636645,0.5914066840051044,1.4079981614303336,-0.29373003985948387,4.777413160655565,3,right
12.293,-0.3731451130942076,0.7683713601888509,-0.057991822034806864,-4.102489741612047,-3.2264596848735336,0.5635778089707693,1.4090383884955173,-0.29387746689884253,4.77943646846518,3,right
12.297,-0.34982238765572615,0.7775813159524121,-0.05709613163718732,-4.10284897336647,-3.2272850179893986,0.5631460311772915,1.4072381518926045,-0.29362540754621425,4.775933924746547,3,right
12.298,-0.3340823799419871,0.7888971609470483,-0.05619067597849156,-4.10282938848953,-3.189077602986503,0.5778005434571556,1.4089579225467126,-0.2940386925413369,4.779256944592497,3,right
12.3,-0.3172499737304685,0.7984655108162191,-0.051060131626757085,-4.102739017605249,-3.2349085781105993,0.5602582585437874,1.4077883783200555,-0.29366639152299234,4.777009173416873,3,right
12.300999999999998,-0.3038426180707636,0.8102288164735272,-0.04671956617510189,-4.10298723825135,-3.199111493627983,0.5739025788874936,1.4082536069196778,-0.29356198307750925,4.777937488794547,3,right
12.305,-0.29510244823587595,0.8256128352519689,-0.048291009580185174,-4.102309366447072,-3.218736388552868,0.5665982582862021,1.4084451369193545,-0.29467344529989237,4.778163998790559,3,right
12.305,-0.28674815877097704,0.8377692148355398,-0.04882547160715501,-4.103739583554775,-3.2134959817911795,0.5681429305391814,1.4077508987924632,-0.29218786774587385,4.777134521269544,3,right
12.311,-0.27967092007812616,0.8516993626996274,-0.04718391083555236,-4.101444147346133,-3.209762273173933,0.5703203202331152,1.408727161277822,-0.2959086487085866,4.778552253539616,3,right
12.312000000000001,-0.27606450066841803,0.8693452007201157,-0.0477279068571449,-4.104225115014205,-3.2169306693768305,0.5666681088716206,1.4077653310015086,-0.2919253182679763,4.777197759690184,3,right
12.315,-0.27294053687535025,0.8852355405638299,-0.0492090822481276,-4.102025415966693,-3.2099638210617325,0.5700542140603215,1.4083220950494466,-0.29422686956505006,4.777983054360898,3,right
12.315999999999999,-0.26820595967459837,0.9018005842797965,-0.04992012378376054,-4.101932418893882,-3.215563954661696,0.5679372658115126,1.408626296231354,-0.2962476165389526,4.778307725564655,3,right
12.321,-0.26420799357756014,0.9204122438993377,-0.05007912920177702,-4.1062446961435235,-3.210578251128992,0.5684472375085334,1.407067033039473,-0.2874510380476948,4.77642831702423,3,right
12.322000000000001,-0.2608985019954639,0.9368687888212344,-0.051190626120861116,-4.096462998417571,-3.2163957087014516,0.5693961353456918,1.4099704365163896,-0.30376242732746,4.779938820046588,3,right
12.324000000000002,-0.2562124022626072,0.9525066355640786,-0.05327673772928568,-4.1110374330382005,-3.209052431120472,0.5674744102027485,1.4062564161679765,-0.2828142609113313,4.775457538509835,3,right
12.325,-0.2533992495161055,0.9695977773280071,-0.05401558486937129,-4.095504785768382,-3.216632230066966,0.5696169308881175,1.4093510877139823,-0.30030492618015303,4.779189322391747,3,right
12.33,-0.2507314935544097,0.9861145770063123,-0.05553514743137977,-4.104473459996276,-3.2126445946268154,0.5682306601568481,1.4092474065508134,-0.2998338299113943,4.779042819545737,3,right
12.331,-0.24586003470674958,1.001820613841228,-0.05995305460293483,-4.112232699005318,-3.2072640853012766,0.5677715719614547,1.4034286753211496,-0.2664697843651934,4.772104752394838,3,right
12.334000000000001,-0.2414989225999532,1.018871144614962,-0.06426804878917464,-4.07832201353004,-3.227632460285232,0.570984381765106,1.4177473815698658,-0.34847480165894856,4.7892032376687474,3,right
12.335,-0.23069038710184792,1.0402946291427875,-0.07062620513444225,-4.1411995813975295,-3.1904315575821642,0.5648099759567432,1.3940053513909083,-0.2125039919502041,4.76084235581048,3,right
12.34,-0.2197371637128116,1.054123938819767,-0.0769403690192928,-4.060466075524838,-3.2380728390434443,0.572785320654693,1.425318850544458,-0.3918522361671591,4.798254945067864,3,right
12.341,-0.21641317168600543,1.0581674105135717,-0.07809389886142441,-4.127861792109914,-3.1983479181091896,0.5661100268684376,1.5566817173779879,-1.1446460161479375,4.955041532580055,3,right
12.342,-0.2051649236900721,1.073525199371808,-0.08034829864299409,-4.12604950937425,-3.1992319819452324,0.5663601978444561,1.58799262720125,-1.3240000392791256,4.992463913676406,3,right
12.344000000000001,-0.18943921724298984,1.0930153609552353,-0.08320162064125593,-3.9975082938922597,-3.275614171536139,0.5788552286075507,1.5642568100800118,-1.1880222431329734,4.96409923268183,3,right
12.345999999999998,-0.1777625206377525,1.1035706711105289,-0.0766751584650035,-4.313425782412729,-3.0880943536230197,0.5480670127250368,1.5785644979667892,-1.270027482390767,4.98116962067844,3,right
12.349,-0.16201801824548345,1.1132976376880444,-0.06000705352243682,-3.789633124744114,-3.3989619336073544,0.5991298820871667,1.5727613858991107,-1.2366788166254545,4.9743163135670345,3,right
12.35,-0.15204596110129215,1.119270760326198,-0.04855577409373305,-4.480503630502463,-2.9889248347586133,0.5317828512981195,1.572640741084673,-1.236171047957761,4.974020587419336,3,right
12.35,-0.14853996892165394,1.1201011142305068,-0.04560708580656414,-7.380695598553977,-1.2677824490243936,0.24901460395596314,1.575746410090178,-1.253717160975023,4.977939787191589,3,right
12.354000000000001,-0.13349301859001755,1.124597125985136,-0.03391762739453926,-8.071576022171913,-0.8577295924292023,0.1816704532431343,1.5720380836141592,-1.2327101988674978,4.973305031349298,3,right
12.355,-0.11279988901407918,1.1319478624443964,-0.019375417039430104,-7.547739445402142,-1.1685801417966515,0.23275382170622416,1.5749081193128012,-1.2490536081202708,4.9768201886811685,3,right
12.36,-0.09747373082658742,1.1383468607172231,-0.015818041471842636,-7.863770407777874,-0.9811875184691056,0.2018807751878951,1.5734151963541745,-1.240292192618634,4.975214442110018,3,right
12.360999999999999,-0.08300340163768402,1.1448208840303544,-0.017044894071257498,-7.735022435250157,-1.0572642992985861,0.21455858551142654,1.5736282298837585,-1.242173306206859,4.974901627306549,3,right
12.365,-0.06513765655281219,1.150062555134924,-0.019248299457950716,-7.733493111390398,-1.0586392377109966,0.2145306857043075,1.5742725284349381,-1.2447304160434665,4.976646808029016,3,right
12.367,-0.047141969978411344,1.150280645077432,-0.024008987552781906,-7.80061274518053,-1.0183436044484715,0.20816185667467801,1.5732771131832615,-1.240417563615979,4.974261368258247,3,right
12.368,-0.02669302417817214,1.1411754109849594,-0.02946903841502064,-7.719992249442019,-1.0663869394853989,0.2159472330139622,1.5741698728497506,-1.2444247826960597,4.97628137261662,3,right
12.369000000000002,0.005820703077781542,1.121946860119131,-0.029837695190705362,-7.78312171711834,-1.0293212902185522,0.20964086110312166,1.5737286951507905,-1.2418871494026806,4.975762779345785,3,right
12.373,0.04584228557438695,1.096160583422073,-0.02185479065057848,-7.748421193474208,-1.0486330256359429,0.21350975309382153,1.5734930464768202,-1.2425923109981434,4.973712154637214,3,right
12.374,0.09160031136157702,1.0633085379664804,-0.008352141077897614,-7.757532847697286,-1.0454323792089935,0.2117853122004278,1.5744739686507612,-1.2435155253522074,4.978927172306265,3,right
12.378,0.15102281190650735,1.022940019131449,0.008638711582421927,-7.764847906935567,-1.0383835653226,0.21209782862076393,1.572904511901013,-1.2415306974819842,4.97102013126765,3,right
12.379000000000001,0.22197092154526837,0.9793848313232448,0.025723650678322364,-7.750626007816632,-1.0489822548553192,0.21266686412455588,1.5745975866221102,-1.2437604359251169,4.979473773125097,3,right
12.383,0.30329685717728977,0.9328385954064742,0.04034244255340117,-7.765229217845037,-1.0403347621127863,0.21123556489603257,1.573587661553682,-1.242292141520774,4.974550190245586,3,right
12.384,0.39370535732463197,0.8869765936383835,0.05206384752752589,-7.752975527462979,-1.0436019861471926,0.21394794656456645,1.5728730282029948,-1.2419151551964762,4.970496148247694,3,right
12.388,0.49271270331680506,0.8496446363250765,0.05938894097572442,-7.762906799782607,-1.0468612168207663,0.2095116613956311,1.5762566305654557,-1.2450218981410404,4.988552672132625,3,right
12.389000000000001,0.5998031496421208,0.8196739191983391,0.06523511590723464,-7.754454852982989,-1.0382215769112564,0.21550918462711938,1.5699346595594612,-1.2389951290200483,4.955006947756885,3,right
12.392999999999999,0.7000662995421532,0.7995575597685457,0.07074725029274888,-7.761137399087432,-1.0488138893701349,0.20934280477644535,1.5780641143042555,-1.2467965814238269,4.998098964897551,3,right
12.394,0.7938202241903431,0.7895659781414182,0.07488171396026383,-7.7588349763237865,-1.0417668299906526,0.21275342839797745,1.5712707892775422,-1.2402534404282382,4.962110291705374,3,right
12.399000000000001,0.8759424405408931,0.7885024618768486,0.07544070791681556,-7.752004156716419,-1.0385735412025203,0.21616702952706995,1.571476072608311,-1.2405367748016785,4.963123366268404,3,right
12.4,0.9329080167192992,0.7981955587117353,0.08257547705139438,-7.772961024222749,-1.0578648384591238,0.20210117843347442,1.5843639227589872,-1.2526773530176765,5.031635256673212,3,right
12.402999999999999,0.973324127871175,0.810798378038315,0.09805356435468825,-7.736204502580609,-1.020832991145531,0.22797998207385733,1.5526577727894142,-1.222700673130647,4.863180391058441,3,right
12.404000000000002,0.9785878725168417,0.8311594314013575,0.0898825087439511,-7.78264705584841,-1.068836291697063,0.19482477936288883,1.60523999547308,-1.2724506950626657,5.142517938387381,3,right
12.41,0.9678607731407324,0.8490071570694826,0.07677303367650454,-7.7441849602375425,-1.0285695889629882,0.22247289188957292,1.5358785396807166,-1.2068136782681798,4.774053132277694,3,right
12.411,0.9606190778419079,0.8539342571531039,0.07192923616656188,-7.744756345109881,-1.0299539886670193,0.2217731379547137,1.2449204059544448,-0.9318815363621984,3.2280445833273848,3,right
12.412,0.9198412428466982,0.870070154792943,0.04029770420234591,-7.819353019603394,-1.1059510172536702,0.1689245692495827,1.1755669832133213,-0.8662726652589681,2.8596039614221302,3,right
12.413,0.8571706328374731,0.8921287254236387,-0.0026534009230987036,-7.636665566139485,-0.9187338074721871,0.29874952817695755,1.2281197932441246,-0.9159352668222345,3.1388402096282526,3,right
12.413,0.7667114004364479,0.9103324385925695,-0.05836958289658899,-7.939344239885321,-1.2293090207502253,0.08352048897518143,1.1964837335324483,-0.8861487893535931,2.9706415168434024,3,right
12.419,0.6946684130812375,0.9240418700168956,-0.10366659375068182,-7.5401594242700725,-0.8196037957834639,0.36739668310127666,1.2092491007360295,-0.8979743812999073,3.0386915599485897,3,right
12.419,0.6760555581139862,0.9269892578665146,-0.11608140219309754,-5.8644764133376235,0.8999029818507258,1.5590034631229335,1.2096168357237675,-0.8986575370462418,3.040331831922333,3,right
12.42,0.6076113556692919,0.9359526788873647,-0.16401170519088848,-5.465174979884637,1.3096185164430274,1.8428779185649802,1.202671518371563,-0.8917636320245246,3.003737328892261,3,right
12.423,0.5106530167396056,0.9495964004577765,-0.22879499635184497,-5.76798647907273,0.9989978288274654,1.6276564201226909,1.2108512363187454,-0.8996364510368956,3.0470660878236058,3,right
12.424000000000001,0.4375157865691735,0.9582547933536476,-0.2656376442452336,-5.585323449937137,1.1863323586003733,1.757462047994367,1.204695296635055,-0.894094976823782,3.0140988604401127,3,right
12.427,0.3522974309959987,0.966464128678918,-0.2932586950112511,-5.659550173437457,1.1101217174423934,1.704648567196806,1.2076031887219867,-0.8959512475629917,3.030383721197257,3,right
12.427999999999999,0.26904911441675017,0.9711455338027846,-0.30344074373865554,-5.660950011067044,1.1090295079306314,1.7039009266720595,1.2076768009571395,-0.8975565195546995,3.029338500824265,3,right
12.433,0.18506807552397458,0.9707540989397646,-0.2999979306703915,-5.621274088689157,1.1490113108040845,1.7315955944153596,1.205731165986494,-0.8938341915779935,3.0207624194145177,3,right
12.434000000000001,0.10024120992243661,0.9635440369431638,-0.286020150646911,-5.668957846126311,1.10112428083655,1.6984216428973216,1.2081238990541094,-0.8975966226118705,3.0320716875049554,3,right
12.437000000000001,0.03073346386127277,0.9465273434493945,-0.25660042619473844,-5.631605408777196,1.1384168707556372,1.7242572647461194,1.2066670499856897,-0.8962329869527275,3.0243188274983783,3,right
12.437999999999999,-0.02927866526253823,0.9225804213914182,-0.22477467950040197,-5.651635586238809,1.1183093177764114,1.7103256552610835,1.2061054214539566,-0.892918105675724,3.0239384739394217,3,right
12.443,-0.07188034916604014,0.8962644852510069,-0.1937071482752476,-5.6480290952868994,1.12289948908429,1.7135100758484503,1.209202373969848,-0.9022071979449473,3.0344430491236105,3,right
12.445,-0.10145559573098417,0.8679271946128374,-0.16604153844670733,-5.640035469781272,1.128239380672027,1.7172001983741607,1.2039436441816502,-0.8877463690199454,3.015378859916088,3,right
12.448,-0.12516333204031932,0.8432508289363856,-0.14541550650225507,-5.653846017034001,1.1189990429114876,1.7108133536114583,1.2097832594982365,-0.9033823062519089,3.0369433639069188,3,right
12.449000000000002,-0.143441135156904,0.8332717714935207,-0.1317907414351438,-5.639497891659339,1.127671187715161,1.7168035356567888,1.2062523595787877,-0.894200385360433,3.0236506173563553,3,right
12.454,-0.15776783670107064,0.8493799872617416,-0.12554676964199726,-5.64986603542518,1.1218557425106161,1.7127887688478713,1.2036961166305873,-0.8867440630574668,3.0147813180472234,3,right
12.455,-0.17210718006775658,0.900153832796799,-0.11879244410213534,-5.647434885255969,1.124393896606826,1.7145474842807984,1.2157828063961014,-0.9202221146455478,3.0583746839432586,3,right
12.456,-0.19305123181686756,0.9833459718801224,-0.09254689200536226,-5.638695662984675,1.124409277422043,1.7145312680382931,1.1931553664228338,-0.857937713344197,2.976401533524584,3,right
12.457,-0.20905095113301764,1.0918246117641992,-0.03582667107906028,-5.660027332536689,1.1229779966024704,1.7136010893698157,1.2222868366229669,-0.9379846287105509,3.0820662205145757,3,right
12.462,-0.23783475615263122,1.2030854965871933,0.032270262069196816,-5.628520538413215,1.1247890683206825,1.7147639441895544,1.1979337858991055,-0.871129181347836,2.9936794404780156,3,right
12.464,-0.24119063347516254,1.2993752389673277,0.09113395721500694,-5.661687865163762,1.1232883329256027,1.713822588305903,1.1986435167423384,-0.8729807584278059,2.9963385334810226,3,right
12.467,-0.18330535978867654,1.3560439360785037,0.11684482946851937,-5.642519808122653,1.12416087402061,1.7143694700092005,1.2449455477667493,-1.0003472820964345,3.1641652628356,3,right
12.469000000000001,-0.10345126050028274,1.3742512162720941,0.12143860318437527,-5.626924765874218,1.1239561029365315,1.7141803852988753,1.1310672039253271,-0.6872383990011801,2.751280634343577,3,right
12.472000000000001,0.04805746483271363,1.414253474439903,0.1693429204943153,-5.696376435100579,1.1236113959391298,1.714153433323272,1.3199111633653766,-1.2064044025840945,3.4360101148005056,3,right
12.472999999999999,0.1731787762280494,1.4493549917313517,0.21595329629458757,-5.567519217120652,1.1243144178824354,1.7142453414378318,1.0708155891010578,-0.5216272586504702,2.532798937021984,3,right
12.477,0.21625173253457458,1.4633341268378801,0.22784930253480196,-5.732899638525787,1.123488463455986,1.7141828400613441,0.025285739376510186,2.3527335926377493,-1.258194852978072,3,right
12.478,0.38048140035201383,1.5351788419060974,0.2908500394970617,-5.59486895011179,1.1241456407428787,1.7142090249235418,-0.22381586619585345,3.0374891075327515,-2.1614273654574054,3,right
12.479000000000001,0.6379797812006835,1.6782729295336292,0.3719667928622077,-5.598698219315572,1.1240186212883982,1.714141152237103,-0.03495751523916004,2.5183522206145366,-1.4766381628698748,3,right
12.482000000000001,0.8707328794195631,1.8557075606885345,0.4311786567644678,-5.861488721361965,1.1232154407946453,1.7143821035240632,-0.14886123892952302,2.831449759683215,-1.8896437898833063,3,right
12.482999999999999,1.1225024221555,2.0619666276784114,0.5183056048064705,-5.215516718399714,1.1252826097033526,1.7138378733547963,-0.10252341399705094,2.70404734722512,-1.7216260791546985,3,right
12.485999999999999,1.4042611294913159,2.3034668365720377,0.5882195340502723,-6.286554383638044,1.1218511768150994,1.7147485415279617,-0.10185232505997695,2.7023008718296673,-1.7191991674775937,3,right
12.488,1.5761925412098812,2.451997674904403,0.6082179360872462,-4.873890080649061,1.126361099604261,1.713527843548465,-0.12618069339765214,2.7689833002481583,-1.8073961478662732,3,right
12.488,1.6149794475714319,2.483202086454982,0.6036840117060762,1.055600345104096,1.1447504037817366,1.7082794805758237,-0.09703542621360926,2.6891365639911573,-1.7017417135417183,3,right
12.492,1.6721533634666135,2.5618876868714313,0.5447262865848685,2.4682297399204662,1.1492107434916246,1.7070336064692266,-0.11974008216012492,2.7512827982913013,-1.784042371373676,3,right
12.493,1.6410947687421276,2.6153767970042905,0.42934933988746693,1.397238469742543,1.145889283210686,1.7079788628896213,-0.10750103156586618,2.7177522060996706,-1.739675347595115,3,right
12.495,1.440027158311343,2.568327751310104,0.300459722939052,2.0431942813077604,1.1477773437804217,1.7074189611166954,-0.11026557559022693,2.725583081735947,-1.749720989402904,3,right
12.497,1.1746985907291427,2.493644880531136,0.17098037983642206,1.7803414915779927,1.1472075274653482,1.7076232243409009,-0.1135979348184592,2.7340031187721734,-1.7617338480883808,3,right
12.501,0.8583150571145355,2.3817038919457323,0.03421909025801448,1.7766883269349294,1.1468531778068356,1.7076701436879698,-0.10783167014216044,2.719425862554785,-1.7409467690264364,3,right
12.502,0.5418493489076788,2.2482667786392874,-0.11778714231355897,1.914432821228745,1.1476163044475585,1.7075030340262094,-0.11328635434058743,2.732858065594897,-1.7605763955319118,3,right
12.505999999999998,0.27417664615597875,2.105817891012136,-0.2773909885238205,1.74937948368648,1.146959646791806,1.707668873661655,-0.10960540188668579,2.723984487105032,-1.7473481372956308,3,right
12.505999999999998,0.05835763450733347,1.9370992103355842,-0.4183584757835148,1.8780173941764122,1.147079317682263,1.7075956594830692,-0.11114722051934305,2.7282344755519814,-1.752939692173749,3,right
12.51,-0.09691506072146909,1.7512425760402817,-0.49246932886256595,1.8084650104288715,1.1477651097708668,1.7075260974864384,-0.11142623950689184,2.72668983630472,-1.7537312341787206,3,right
12.512,-0.2226501215861767,1.5469192463820955,-0.45721149400012145,1.8246943682686947,1.1462637194374072,1.7077382603845401,-0.1099398880765836,2.727885924800702,-1.748845060694038,3,right
12.515,-0.3422779175366224,1.3287514174002082,-0.33839408351435984,1.8425936145976929,1.1482220143995772,1.7074439537326787,-0.11196003203975552,2.725559863066306,-1.7554191558280599,3,right
12.515999999999998,-0.46109641399373136,1.1116748216622676,-0.1854400204233309,1.8111700708102267,1.1466082967251072,1.7076939686649824,-0.11006814134321505,2.7287582455366453,-1.7493597156357774,3,right
12.52,-0.5798752899840105,0.9052194579342621,-0.030941985096297593,1.841008053330782,1.146687606060115,1.7076695992607036,-0.11116409986821021,2.726918685179335,-1.7528710610300262,3,right
12.520999999999999,-0.6937418272836509,0.7154099497102437,0.07329074131087335,1.8203023886681193,1.1494349518859632,1.707275063748659,-0.11152853705729143,2.7237355156992313,-1.7537938682519034,3,right
12.525,-0.7909066649491807,0.545220983943433,0.1057359477075204,1.8306690899705473,1.143042144420097,1.7082095004688371,-0.10918229077814312,2.735596698128441,-1.7470312842230995,3,right
12.526,-0.8475584567048984,0.3978889771321903,0.10251313526339109,1.8282168969450106,1.1526189530399948,1.7068038529451655,-0.11357085402171535,2.7137047869077335,-1.7597081792857092,3,right
12.53,-0.8511604083601885,0.28346398016810315,0.09632709807306349,1.8260697003071347,1.1423956342543309,1.7083065839738882,-0.10798377937376852,2.7419453435735885,-1.7436047559670786,3,right
12.530999999999999,-0.8068319338246768,0.1886778033610874,0.11692462069596973,1.8305024070469031,1.1483118888642363,1.7074354783201606,-0.11262633636611635,2.718311393993073,-1.7569694900498414,3,right
12.534,-0.7327940412008547,0.12178824176376918,0.16040477190888958,1.8243990621919888,1.1533829409979481,1.7066932584867494,-0.11243937958741562,2.7187765126742542,-1.7563857608292026,3,right
12.535,-0.6517851692016005,0.08727083869342445,0.20541180569336198,1.8328017264097725,1.1311369872006396,1.7099576401312242,-0.10384793781421214,2.764573637415561,-1.7318475473126593,3,right
12.539000000000001,-0.5762688547105204,0.06618740459459678,0.24896705159538535,1.8215431855272688,1.1724038853206227,1.7039000160212798,-0.12501143326001563,2.6521507826423427,-1.7923285501369337,3,right
12.539000000000001,-0.5198594455569853,0.10833978301480329,0.2499714911865507,1.8344432539848028,1.1194122310692496,1.7116796453004963,-0.08992536279821448,2.838554625930782,-1.692063107065612,3,right
12.545,-0.48832045630325605,0.1547617281456442,0.23667570036953336,1.8243278186361813,1.1636515448938778,1.705184309333946,-0.13618949478100514,2.5926591492393274,-1.8242607418920738,3,right
12.546,-0.48395051839836084,0.17258251943099695,0.22898418093013456,1.8235974307131464,1.162457569865284,1.7053608333466952,-0.3302161593725259,1.5599516764029493,-2.3785599945969427,3,right
12.546,-0.4861352118607345,0.26172581734494854,0.19038306220067203,1.8455590488688096,1.078094455129195,1.7177441967385434,-0.37645959218223196,1.3140144525614466,-2.5106818208843755,3,right
12.549000000000001,-0.4960072806566786,0.3841365685637942,0.14463229651832427,1.793026777259839,1.2854404473427312,1.6873064500410744,-0.3414072255543673,1.5004945520974218,-2.4105394026592037,3,right
12.549000000000001,-0.579883958637968,0.5353113620143475,0.03283967901034391,1.8795882405955187,0.941658233895658,1.7377738803568503,-0.36253918299755095,1.3879787597033069,-2.470906359804075,3,right
12.554,-0.6595449556916921,0.6525091678045091,-0.07475479470292268,1.7656039531274885,1.3950992721100883,1.6712076020247468,-0.3539560326087296,1.433853073697318,-2.44639550489367,3,right
12.555,-0.6859246821845542,0.6825869132034836,-0.10854095508312123,1.2866928285146484,3.298600241662543,1.3917924132072454,-0.3538064038883944,1.4343037717438645,-2.445952947861615,3,right
12.556,-0.8073209470209609,0.7931965011776896,-0.2564425358440521,1.172754402059418,3.752048219429396,1.3252259418282444,-0.3583512704155716,1.4105690722594986,-2.4589551119307793,3,right
12.559000000000001,-0.9983321490328891,0.9360558821031575,-0.4754295078627676,1.259107814509288,3.4082345133787033,1.3756942237738232,-0.3529166500556165,1.4390616357081918,-2.443412795575868,3,right
12.559000000000001,-1.171982443761848,1.0125454085493137,-0.6410650224004224,1.207117842678781,3.6156626036092527,1.3452542798208755,-0.357136968449012,1.416779306546365,-2.455476053069784,3,right
12.564,-1.345443301450691,1.0724282028806003,-0.7711002455641108,1.2280871412859238,3.53114925398484,1.3576416440146988,-0.3548959197041329,1.4290731801875052,-2.4490877747223623,3,right
12.565,-1.4838745516011789,1.0909577468443754,-0.8083759180846378,1.228718969522694,3.530161524206284,1.3578126954191954,-0.35532765706398906,1.4256127918643025,-2.4502776026939337,3,right
12.569,-1.5709884727498729,1.0699994117659437,-0.7424000834426674,1.2172691720091335,3.5741987988632804,1.3513226956502455,-0.3560771066896167,1.4236170942008566,-2.452492900018644,3,right
12.57,-1.612955928128388,1.0251261758581673,-0.5989055529277433,1.230725074817761,3.5212913252529425,1.3591001469253428,-0.3548552397668223,1.4276799925039287,-2.448911566604391,3,right
12.575,-1.615938941506247,0.9610317082130702,-0.4058960782425609,1.220661967613395,3.562739180456802,1.3530376396489656,-0.3559756581044211,1.4236597659422654,-2.452184520196399,3,right
12.577,-1.5984384136332865,0.9041153216947704,-0.22000426799349002,1.2252801399104625,3.539920276718136,1.356317308988459,-0.3553225992529732,1.4271535960218849,-2.450319496707955,3,right
12.579,-1.56149954298087,0.8649605767036742,-0.06676385937657105,1.2256780602379496,3.5459756275318277,1.3555489263269882,-0.3553416020370137,1.4234480428175744,-2.450240158826123,3,right
12.579,-1.510964640289798,0.8538881458960164,0.03372797742132662,1.222138947886331,3.550684891922587,1.3547097955563783,-0.3559510098619177,1.4284395816417255,-2.4522864309470314,3,right
12.585,-1.4516094928669105,0.8748985219482286,0.0775928439515838,1.2263445494978904,3.541423503777784,1.3561872035071256,-0.3548856069043762,1.4218261136403099,-2.448787320649749,3,right
12.585999999999999,-1.377312128596105,0.9270376295786884,0.08694531870043384,1.2239534294916514,3.551009394995414,1.3547809492161869,-0.3560504180698031,1.4287208534768434,-2.4526005581530597,3,right
12.589,-1.287360218266079,0.999794163733467,0.08351291517937234,1.2225189291961347,3.5428300466100597,1.355763260190487,-0.3553313806822941,1.4249821284236148,-2.4502656340895674,3,right
12.59,-1.1825378351496338,1.078110476612135,0.08447976239936358,1.228778165581988,3.5496598099004313,1.3552599946049537,-0.35493952200800527,1.4205460283084315,-2.448904807119013,3,right
12.594000000000001,-1.063199704093229,1.1533117753717026,0.10743537320138354,1.2183896031395731,3.5436486821905797,1.3553973005334399,-0.3570276420390367,1.4379742994667768,-2.455927860531767,3,right
12.595,-0.9322321064435505,1.2108178832941392,0.1550443377122504,1.2298497446269934,3.5485279970223944,1.3554756110579858,-0.35308781706527304,1.4060121388065108,-2.442710463245215,3,right
12.597999999999999,-0.781349950608881,1.2434999577536017,0.21046228873463624,1.2229680708808555,3.5467336989099953,1.3552794117400908,-0.3581619316394482,1.446972353458846,-2.4597262008864726,3,right
12.599,-0.6211351216262837,1.2537234228314096,0.2659735832498751,1.2178439135077812,3.542000322597178,1.355579620206556,-0.35391954766662237,1.4128097123010437,-2.4455018956551178,3,right
12.604000000000001,-0.4592541155771951,1.2398504908421346,0.2956494579759662,1.2417625769553133,3.5568368786670117,1.3551320226783825,-0.3540581884169673,1.4136086050400336,-2.4459568512646257,3,right
12.604000000000001,-0.30005697242491247,1.2113308180695426,0.2845632106048952,1.1970494575242154,3.5307112186900973,1.3557568712475265,-0.36206974147765214,1.4791616393332325,-2.4728528718267215,3,right
12.609000000000002,-0.16432610724475735,1.1811441815894976,0.24906094655390892,1.2545957404387518,3.5637574760245387,1.3550293072039103,-0.3423499529960087,1.3181892999092408,-2.4066606973192655,3,right
12.61,-0.03225749361214114,1.1518863704246014,0.1806853476962913,1.2064904902168596,3.5363798941018683,1.3556038227429226,-0.3750539788631351,1.585049390004245,-2.5164356287952003,3,right
12.613,0.04975569073565926,1.1360450653225262,0.12632413762819492,1.207896282409099,3.5367959880895463,1.355640320115392,-0.33191628954823266,1.2330668990251348,-2.3716358275506524,3,right
12.614,0.06710574938540509,1.1331109901562721,0.11235397096951175,1.2993538677215257,3.5898641038701946,1.3544076280182087,-0.1508833270264084,-0.24456309384546324,-1.7639657204234778,3,right
12.614,0.12445522104816198,1.1292591052165915,0.06686197394206303,1.0743983087761442,3.4598984013159217,1.3573594963581272,-0.10774665569100786,-0.5965573547316061,-1.6191593088256997,3,right
12.617,0.1823317552255867,1.1281243340657143,0.009541699445954864,1.4474665887167193,3.675211361152103,1.3524983587124546,-0.1404505335234595,-0.3296865552987118,-1.7289486959947706,3,right
12.620999999999999,0.18866659304945274,1.1277458882343179,-0.008889053511450487,0.9553333072843672,3.3912771607047114,1.3588926978800808,-0.12072694935625579,-0.4906468791347619,-1.6627333716720853,3,right
12.623,0.1922355058622878,1.126490038763474,-0.015026580912014132,-1.110102776179308,2.1992235777705265,1.3858131685592605,-0.12874911738252637,-0.4251508720237604,-1.6896590016765114,3,right
12.623,0.1759047636097485,1.1259836607347649,-0.02068042172421323,-1.6023480488045394,1.915294877761549,1.3921851849737128,-0.1288695695181334,-0.4242391565423531,-1.6900858791752595,3,right
12.624,0.12667219603642352,1.1162781479464101,-0.021896214974216108,-1.229096553995023,2.130566773328515,1.3873637074988996,-0.12464954070267951,-0.45855565356633626,-1.6758733052569117,3,right
12.628,0.05578185714304493,1.0955225990743709,-0.020187266412861084,-1.4542258036221434,2.0007231791186832,1.3902698303671839,-0.12970604561512541,-0.41745211026700835,-1.6929129957908176,3,right
12.628,-0.035797546105220665,1.069745320708262,-0.018904152692535918,-1.3627170561599145,2.05355463081609,1.3890702702747901,-0.12576518090313513,-0.44945776733630227,-1.6796190869872762,3,right
12.633,-0.13497060305481282,1.0419725522540997,-0.023391379449438136,-1.3611186541113742,2.0543086440856686,1.3891111355591947,-0.12788832746376771,-0.4321948526016533,-1.686774064908651,3,right
12.634,-0.23684764560088123,1.0144841298931075,-0.03368298956274158,-1.4097424129195086,2.0265836933689054,1.3896188164033743,-0.12741788005895216,-0.4361710235965913,-1.6852505985492598,3,right
12.637,-0.3372371968351707,0.9937120980239617,-0.046092074495130086,-1.3513770780518748,2.059804559269092,1.3890334684551267,-0.12681481842508416,-0.44066094330298267,-1.6830470091256977,3,right
12.638,-0.43165789249132513,0.9813045863861313,-0.052890769881992136,-1.3970057800958475,2.0339216514441167,1.3894564456177276,-0.12785793321189243,-0.4328881285290413,-1.6868571516768687,3,right
12.642999999999999,-0.521687949098299,0.9720336594518044,-0.05434613656824423,-1.3724950051529698,2.047875311715888,1.3892104985935525,-0.1268587353565847,-0.44013618377787866,-1.6831244171858257,3,right
12.644,-0.604704588279531,0.9641593612723289,-0.056806455509651924,-1.3772980129573005,2.044725013106242,1.389418120181289,-0.12753965855167493,-0.4353009476293078,-1.6857119701455558,3,right
12.648,-0.6773971619927073,0.9566729720010598,-0.06037112982501765,-1.385998007449266,2.040918899758916,1.3890652779004293,-0.12727312432390414,-0.4374833426130219,-1.684819894497116,3,right
12.648,-0.7435550379029943,0.9543822735335791,-0.06728105351537231,-1.3709632542003716,2.047506867802296,1.389671550214262,-0.12714391213029397,-0.4371970717895789,-1.6838262664773707,3,right
12.654000000000002,-0.8037955381699962,0.9567609408838664,-0.0817788418349972,-1.38620761941172,2.0412696258509646,1.388886475277407,-0.12758606921407462,-0.4366514122332614,-1.6865901135730825,3,right
12.655999999999999,-0.8527122827053776,0.9572561554098585,-0.10481806678005895,-1.3753746995121974,2.045481517567689,1.3895292690289434,-0.1269606530583811,-0.4371869681113806,-1.682581667916898,3,right
12.655999999999999,-0.8879335787360227,0.9614412509736566,-0.13494334556933169,-1.378388333554999,2.043723818847143,1.3895754449029707,-0.12758201381233392,-0.43698565271230294,-1.6867026561940441,3,right
12.657,-0.9079772118372443,0.9700186893397488,-0.16343630379550286,-1.385547403884011,2.0433765004770272,1.388214659398932,-0.12722256342924282,-0.4371060334789864,-1.6843199052859035,3,right
12.662,-0.9051210671239613,0.9792858126982685,-0.1798427950002197,-1.367511725806209,2.045138294669374,1.3913025680835904,-0.12701300787352066,-0.4363895940596967,-1.6826032556146422,3,right
12.663,-0.8747507255049305,0.9879970407877032,-0.18371396712657073,-1.3940268692607956,2.0427344825745317,1.3866909216444203,-0.12805982565794616,-0.4384630454600186,-1.6905528871450493,3,right
12.665,-0.8235611395485471,0.9931270801642532,-0.18049211384932204,-1.3662793686980008,2.044998988276616,1.391613784485735,-0.12611216942170356,-0.43467081283729947,-1.6757884293976626,3,right
12.669,-0.7547519339669988,0.9993978472924875,-0.17195280738938995,-1.3823153831024737,2.043687143208931,1.3887693082478312,-0.1286045828037156,-0.4396080670158979,-1.694718832444018,3,right
12.67,-0.6760708210396598,1.0076003691381474,-0.16123617872011176,-1.3949986910348078,2.043218294606353,1.3863028192676672,-0.12652778355359284,-0.43545542093509715,-1.6789273765640889,3,right
12.674000000000001,-0.5869842156454418,1.0154140004239225,-0.1551427404145574,-1.3380196791893395,2.046127695839039,1.3970789078457977,-0.12659411983544203,-0.4354811540231466,-1.6793906412604684,3,right
12.675,-0.49478524769967636,1.024586739586947,-0.1522197034645629,-1.4437561725636918,2.0406890816149392,1.3770951567384562,-0.13051013075655415,-0.44376825255574703,-1.7093495799330056,3,right
12.679,-0.405582729093149,1.0319158804690045,-0.1504814405222148,-1.3080856981758124,2.0476181391956088,1.4027568658243166,-0.12087796261679117,-0.42346585834545536,-1.6356864956642743,3,right
12.68,-0.29187798964117617,1.0369235583634038,-0.15601039361607993,-1.4212994040611442,2.041857769160605,1.3813320793794506,-0.1368470535194635,-0.4571334827700363,-1.757821415625382,3,right
12.685,-0.20912137740303255,1.0395638529555489,-0.16267699173464986,-1.4181314023359797,2.042084669725101,1.381911692366267,-0.11578722627107205,-0.4127065514839644,-1.5967336623853101,3,right
12.685,-0.18542555815176884,1.0409640021096334,-0.16460369089484586,-1.202730076961771,2.0527684688505667,1.4227680793713584,-0.027411241065460893,-0.22600061436726937,-0.9206637989901312,3,right
12.686,-0.10862643799623448,1.0453157340748946,-0.17263725364635346,-1.732216503020578,2.026453279548834,1.3223465902000393,-0.006356932958415319,-0.18154787928519034,-0.7595851874431483,3,right
12.689,0.018888272495335715,1.0487177527015281,-0.18376165561709903,-0.8543406426511395,2.0700826007573214,1.4888522993477156,-0.022317396314885878,-0.2152558382142732,-0.8817058167802916,3,right
12.69,0.0830526574795046,1.0500883748707925,-0.1877425749097224,-2.01219423561332,2.0125493953225844,1.2692292359896462,-0.012692365384169377,-0.19492008266219735,-0.8080545553326883,3,right
12.694,0.10346365916300215,1.0512092818754315,-0.18916504865409828,-6.872138775605156,1.7712463683801558,0.3473728197421675,-0.01660878776953445,-0.20320524210272445,-0.8380141734296807,3,right
12.695,0.16566566369963343,1.048570107173889,-0.18893232932822288,-8.029873495063196,1.7137284172912506,0.1277423537771503,-0.016661280809423716,-0.20329571967715993,-0.8384545118423352,3,right
12.695,0.23712121593489083,1.0427685915106113,-0.18404826274352248,-7.15218345697426,1.7573338952914495,0.29425963427350965,-0.014614704564274637,-0.1990017466765382,-0.8227131128253667,3,right
12.698,0.27546542915084316,1.0354887158003319,-0.17789104447311316,-7.681516163562856,1.731038423822757,0.1938285738007311,-0.017064062582706555,-0.20414031289217482,-0.8415722025609059,3,right
12.699000000000002,0.30167552379897405,1.0257485997554912,-0.17006634212375343,-7.4661059663553475,1.7417233781036603,0.23468440571724258,-0.015159050712732876,-0.2001487168547727,-0.8268783810814231,3,right
12.704,0.30892819139674577,1.0161218960730474,-0.1593686426428876,-7.463236140154974,1.7419119907835139,0.23528259085826647,-0.01618738243917857,-0.20230854060646786,-0.8347973853248387,3,right
12.705,0.2962603842051157,1.0092951422154135,-0.15179510219725892,-7.575798875502063,1.7362351825802076,0.21381726237951415,-0.015941973824961563,-0.20175983092285169,-0.8330213644343542,3,right
12.708,0.27259508049836767,1.0014125371052398,-0.14675968064931985,-7.44105575374714,1.7430452230804176,0.23953672287163558,-0.015698451087938055,-0.20133807401189358,-0.830830612679462,3,right
12.709000000000001,0.23658482357183536,0.9919492887744615,-0.13656847295722735,-7.545873763551723,1.737724458418684,0.21949577726599487,-0.01612004761728939,-0.20207084561834388,-0.8346207361778877,3,right
12.714,0.19355938355932245,0.9879980370469151,-0.12219234833428695,-7.489292877065944,1.7405828313817715,0.23029664876614617,-0.015739753966665482,-0.20146034267942098,-0.8310182977821228,3,right
12.715,0.14558766406852053,0.987489807378113,-0.1076953565013202,-7.502748467975548,1.7400147662576662,0.22787826999019908,-0.01598648763893272,-0.20182819509950228,-0.8334584315662747,3,right
12.719000000000001,0.09668791127606242,0.9859517136795327,-0.09373762224125119,-7.516287499930852,1.739023494167117,0.22487827577164654,-0.015855635412957085,-0.20155000730928968,-0.8324621440958213,3,right
12.72,0.04685351895680763,0.9884783046087905,-0.08082814435632865,-7.492842679293175,1.7407357276719408,0.23006910033198819,-0.015951426584673047,-0.20203774687927684,-0.8321701189109998,3,right
12.722999999999999,-0.004076255318432036,0.9951482479507072,-0.07250384002473277,-7.5140782554876715,1.7390094449197866,0.22512867433004954,-0.015804196964753534,-0.20107516114182297,-0.8333860564429421,3,right
12.724,-0.052859933817452395,1.0015348083227906,-0.07224206554223503,-7.500251589275071,1.7402312915040206,0.22847866402157857,-0.016040535442681532,-0.2025461447491466,-0.8316997433247082,3,right
12.727,-0.09818143711031696,1.0068977907009091,-0.0741910239550515,-7.50744624045991,1.7398789554166454,0.22712016500842264,-0.01576645747681516,-0.2009314644533714,-0.8333281148759815,3,right
12.728,-0.1350923712962527,1.0104374661938889,-0.07612897340405514,-7.502655551552646,1.7391234641480011,0.226680229062371,-0.01592461481134462,-0.2018638059590102,-0.8323855670013447,3,right
12.732999999999999,-0.1598029113852139,1.0093690574799232,-0.08234353990192633,-7.509660193968439,1.7410455321653895,0.22843395137951,-0.016109893387936232,-0.20277143405108344,-0.8319478349123175,3,right
12.732999999999999,-0.17446519100540336,1.0030850944789007,-0.09048265261005671,-7.498292752504694,1.7382238142480064,0.22599158831697624,-0.015362307934880427,-0.19893403413174204,-0.8343483772298961,3,right
12.738,-0.1822489195008436,0.9950776527606988,-0.09897412772389948,-7.511628107503317,1.7411713889360234,0.22836452388297546,-0.016745638156181235,-0.20604358987599497,-0.8298727483321576,3,right
12.738,-0.18123487330962987,0.9856821712063655,-0.10761379773745178,-7.503933541146377,1.739467627528691,0.22699097321796347,-0.014965224423811473,-0.1969062187719814,-0.8355882085524058,3,right
12.742,-0.1741925022837048,0.9747935758656426,-0.1151307256211937,-7.494611451524774,1.738132929381424,0.226318511709742,-0.01645357929409881,-0.2045381372990923,-0.83083133867632,3,right
12.743,-0.16353835459943067,0.9643243896411303,-0.12340395045206022,-7.531934207975595,1.7441476972136813,0.22992377345280732,-0.01641815907653823,-0.2043432258822661,-0.8309983753326615,3,right
12.747,-0.14835945179850155,0.9553559397825735,-0.13157619882022392,-7.4628856855326315,1.732984555828139,0.2232048469330075,-0.013558879328932568,-0.18974235249233673,-0.8399032873307455,3,right
12.748,-0.1314478968481287,0.9469453685770818,-0.13744321389023484,-7.551777953780621,1.7473075759079801,0.23178984580049966,-0.0205833039982127,-0.22561979381372915,-0.8179885304279955,3,right
12.753,-0.10878740796467765,0.9364283409407297,-0.14420723870942193,-7.477453831381809,1.73535486015545,0.22464197167781677,-0.00893572161359379,-0.16613353572908135,-0.8543197082910855,3,right
12.754000000000001,-0.09104051186699949,0.9302335279663195,-0.15040717917293875,-7.47920696489285,1.7356929886928927,0.2248893233467611,-0.024300382980036415,-0.2445975423585337,-0.8064099856175893,3,right
12.755,-0.084926269732096,0.928256223812845,-0.15180071943351353,-7.622076798889654,1.7584230196421413,0.23828912744925906,-0.08879908300226028,-0.5740012285627829,-0.6053858427257129,3,right
12.757,-0.0668639257071178,0.922669349921934,-0.15464728497277863,-7.271086335341913,1.7025437231262788,0.20531320398591327,-0.10416547929166534,-0.6524703450541763,-0.5574906286050376,3,right
12.758,-0.03644814585125466,0.9207449711432211,-0.1614854873651307,-7.853098283543909,1.7951937606352946,0.2599848469832968,-0.09251593321133075,-0.5929733779634709,-0.5938011703064545,3,right
12.761,-0.019587592147645334,0.9226941856194264,-0.1652789256357225,-7.085332916337768,1.6729918209160466,0.18788646815547605,-0.09953995078413391,-0.6288670659570734,-0.5718979367405119,3,right
12.762,-0.014882430773196696,0.9219268355899775,-0.1662640439273281,-3.8625957667707325,1.1601066137525016,-0.11459228306097823,-0.09668626496131327,-0.6142467023244562,-0.5808188537648025,3,right
12.764000000000001,0.00025810516447834003,0.922535927502973,-0.1699791906371697,-3.0947446429609844,1.0379109347920144,-0.18666907458693416,-0.09663838608934766,-0.614068454497014,-0.5809273598729052,3,right
12.765999999999998,0.02032087972423518,0.9250139175068113,-0.17470648713164133,-3.6768208910105273,1.1305487027534227,-0.13203375423750574,-0.09814494262359866,-0.6216967142154244,-0.5762737015845419,3,right
12.767000000000001,0.033001524711901375,0.9274070751306455,-0.17757019803070986,-3.3259666043009775,1.0746862962847799,-0.16497263276353213,-0.0963459807753714,-0.6125377126090253,-0.5818622868014478,3,right
12.770999999999999,0.04423008186847176,0.9303221507515402,-0.1826803986567455,-3.4683206754998457,1.0973986647091616,-0.1515900392058363,-0.09773810026977611,-0.6197035352046703,-0.577486154616015,3,right
12.772,0.04922613724146956,0.9329779694869298,-0.19216370986250977,-3.471044589957758,1.0977479858779855,-0.15136891268322333,-0.09700462996284252,-0.6157765613410356,-0.5798925182893466,3,right
12.777999999999999,0.047133336942621035,0.9350140301016945,-0.20277787599875724,-3.3954398006642705,1.0858006872937267,-0.15842854067714357,-0.09714132454014157,-0.6167866812077332,-0.579258635687448,3,right
12.779000000000002,0.043886181390081484,0.9373766170851037,-0.2116087260531906,-3.4854684164165057,1.1000915003801834,-0.14999467899064656,-0.09738495895993032,-0.6176480423963906,-0.5787547477062305,3,right
12.782,0.03725788959292598,0.9389768516111432,-0.2159648238526393,-3.4161875396533934,1.0889920470481642,-0.15653091155032722,-0.09700411218787502,-0.6160083154754408,-0.5797378962892401,3,right
12.783,0.027949770563600623,0.9396068738605776,-0.2139151648586689,-3.4519401571448647,1.0949197378056046,-0.15306658066609596,-0.09732834700040043,-0.617666815642721,-0.5787255650978127,3,right
12.786,0.016405648505338127,0.9415717105486946,-0.20963699412689815,-3.4466532720532186,1.0936681608134133,-0.15375076832433915,-0.0971755396051262,-0.6163201966339881,-0.5795803096649907,3,right
12.787,0.0039479641118076465,0.942808173211382,-0.20547659414734118,-3.432586666123849,1.0919332240103363,-0.15483976304302705,-0.0971227579787039,-0.6173448083191828,-0.5788796395283893,3,right
12.790999999999999,-0.007087871430129285,0.9418252285314364,-0.19698313425646072,-3.4531248707444613,1.0948000785337202,-0.15309673127438067,-0.09734308613960398,-0.6165392227952615,-0.579483829410731,3,right
12.792,-0.018791837875229297,0.941049107903956,-0.1891121674420127,-3.436938008784248,1.0922204481419264,-0.15461767679755428,-0.09705638336171235,-0.6171334633130361,-0.5790010977809366,3,right
12.798,-0.030416478926702892,0.9400578104822134,-0.18350333741556296,-3.4417729347654693,1.093735536179295,-0.1538206807285124,-0.0972568155877255,-0.6169674518568327,-0.5791718646755155,3,right
12.798,-0.04148145200626381,0.9376626226511628,-0.1734577969686596,-3.450808577272812,1.0934693783123377,-0.15375712443164735,-0.09732147898315391,-0.6162730066895218,-0.5796553876854464,3,right
12.802,-0.055303208521620614,0.9370794066438112,-0.16674898605278388,-3.4302554084572456,1.0927408400896033,-0.15451564637636295,-0.09683898767672253,-0.6182951014154239,-0.5781596240500745,3,right
12.802999999999999,-0.06865623901505054,0.9396183377207324,-0.16346155230131953,-3.4547539498774946,1.09392931882538,-0.15346426771194865,-0.09778095567055603,-0.6147853587906049,-0.5807870850953447,3,right
12.807,-0.08002118606581357,0.9406620805541839,-0.15585967731856637,-3.438863179637729,1.0929664926874025,-0.15423449291905728,-0.09655434411232877,-0.6192055508421334,-0.577465905411778,3,right
12.808,-0.09384794735928562,0.941547720961619,-0.15176745006706455,-3.430560532939305,1.0929950264118165,-0.15439239315823786,-0.0975857211438744,-0.615551722947968,-0.5802166461691649,3,right
12.811,-0.10579403984803627,0.9470741512987019,-0.1480254397253838,-3.4768510969156843,1.0944539291628503,-0.15276790137249574,-0.09754634722000241,-0.6155947814983604,-0.5801756913410696,3,right
12.812000000000001,-0.11488021367782339,0.9544734943291106,-0.1366054945572231,-3.3886530364226513,1.0913742814479797,-0.15600089605668818,-0.09561010935515865,-0.6227105391312053,-0.574841271919122,3,right
12.815,-0.12437747997309062,0.9603928963683297,-0.12433899439506413,-3.50275109092982,1.0954634002183945,-0.15177039034335435,-0.1003859162304258,-0.6053013531672123,-0.5879046343175842,3,right
12.815999999999999,-0.12873212349117474,0.9641461562212253,-0.11429833188852995,-3.407138519705228,1.0919928779638561,-0.15533533091964813,-0.09246084870848928,-0.6341365349872329,-0.5662625608484508,3,right
12.82,-0.12755316164048755,0.9650921439061397,-0.10969572355772801,-3.4102776565951842,1.092174045642575,-0.15518815432658228,-0.10291656064544442,-0.5961136843695705,-0.5948024439858965,3,right
12.821,-0.126719030239213,0.9643068744208182,-0.10915813814640685,-3.591125133682273,1.0985593890935665,-0.1485257469568344,-0.14678344511132557,-0.43648613916729123,-0.7145977071904492,3,right
12.822000000000001,-0.12569217381968933,0.9645428923830776,-0.10570971950351546,-3.145827359709938,1.0827392679614554,-0.1649736299771889,-0.15723907444106783,-0.3984657975829111,-0.7431354337269953,3,right
12.825999999999999,-0.1183872730150057,0.9659684696237854,-0.10436259638148235,-3.8844515668062316,1.1090165592177672,-0.13767612683077946,-0.1493143822485098,-0.42728960260662296,-0.7215031461692369,3,right
12.827,-0.11056494940588946,0.9667620288262138,-0.10641184877810067,-2.9101016630712113,1.0743409533938022,-0.17368900838439316,-0.15408921026026873,-0.40991006588497214,-0.7345409986523975,3,right
12.83,-0.10838725183576672,0.9668444913685035,-0.10836804976528196,1.1793003675608889,0.9288580709779464,-0.32481316830524654,-0.15215476402893652,-0.41697157484075853,-0.729253260139229,3,right
12.831,-0.10009874830327861,0.9660499064118862,-0.11038286735708103,2.1536687509740773,0.8941840128210212,-0.3608190552034181,-0.1521129301557729,-0.4170890992793299,-0.7291482217221368,3,right
12.831,-0.08587525375806185,0.965505117392315,-0.11227508265627718,1.414960690854541,0.9204667054604652,-0.33352912946503976,-0.15314671742299388,-0.41336233379286325,-0.7319617381307864,3,right
12.835,-0.07379229716034183,0.9639407654136577,-0.11198532674725209,1.8604770516055322,0.9046208845698186,-0.349979856621933,-0.1519191007985573,-0.4178128979841414,-0.7286144045611618,3,right
12.835999999999999,-0.0603385120248062,0.9607804810063637,-0.10765428063687854,1.6792295810114817,0.9110634521291638,-0.3432924164134763,-0.15285891195436818,-0.4143685226216018,-0.7311856360129876,3,right
12.84,-0.04535021283648997,0.9588252353296906,-0.1045352926526921,1.6766395544090806,0.9111560130469037,-0.3431991486367284,-0.1523832528441867,-0.4161837178361004,-0.7298679003482693,3,right
12.841,-0.032849964968591085,0.9558923771924723,-0.1031539395962417,1.771714224019123,0.9077848999195679,-0.34668675574199515,-0.15243617703564533,-0.4158446762096083,-0.7300455846473008,3,right
12.844000000000001,-0.025134105102433767,0.9544867126411646,-0.10196515430343099,1.6578402700410988,0.9118095453710118,-0.3425333092734987,-0.15265100634703527,-0.4152428950966741,-0.7305913798784908,3,right
12.845,-0.020439132199170533,0.9559141286454246,-0.10059356073423241,1.746520147230266,0.908693621540882,-0.34573295469532206,-0.15235282665447095,-0.4161843670881292,-0.7298097699960782,3,right
12.849,-0.01728562631485541,0.9552658377005177,-0.09693490526969106,1.6987041178922961,0.9103555742128493,-0.34404252935438506,-0.15257305316900605,-0.4153822034461786,-0.7304111223706211,3,right
12.85,-0.01752636876918611,0.9551633156443325,-0.09702396278458897,1.7096273940398445,0.9099841163565436,-0.344413205742381,-0.15254157158002468,-0.41576159258898315,-0.7302655779103386,3,right
12.855,-0.02160400266121628,0.9553413489425401,-0.10259894082558944,1.7223046782318727,0.909566223645984,-0.3448166227511383,-0.15234007935702443,-0.4158891089544545,-0.7298518350985992,3,right
12.856,-0.02753072724827043,0.9543751245301603,-0.10841199945635319,1.7003671103237987,0.9102391892898068,-0.3442155421356303,-0.1527369554195882,-0.41534859932965096,-0.7307318999671291,3,right
12.86,-0.03177717467373664,0.9559089527283173,-0.11102805539980756,1.7209446140398232,0.9096925900801309,-0.34461499462680734,-0.15227865353991665,-0.416052986506256,-0.7296975871583609,3,right
12.86,-0.03555391374822922,0.958314048714105,-0.11340546176468147,1.7071522624320352,0.9099555552041241,-0.3445481496848759,-0.15256707318577084,-0.41556002658721936,-0.7303596269604616,3,right
12.865,-0.04439258944516275,0.9624342440834756,-0.11602778995558466,1.713186594597496,0.9099224468181473,-0.34441818534971463,-0.1527422745974011,-0.4154023298895414,-0.730730067136941,3,right
12.866,-0.05666795720655683,0.9703559113922386,-0.10999493169812535,1.7131581560678117,0.9099250666835044,-0.3444139375666632,-0.1518400709794367,-0.4165855565911469,-0.7287394650003063,3,right
12.87,-0.0682981904183893,0.9772353399460805,-0.097144362316403,1.7099068607486343,0.9097038156756441,-0.3449487747037371,-0.15354519528446092,-0.4142747225095507,-0.7325182273078532,3,right
12.87,-0.08514629066287993,0.983648984894328,-0.08346036182170669,1.713983098880857,0.9103287592506037,-0.34360271156585515,-0.1513442341196653,-0.41728398672635447,-0.7276348433719892,3,right
12.875,-0.10766810006790774,0.9905303674946703,-0.07299668920668198,1.7106641880314615,0.9092982242917362,-0.34571274524427986,-0.15318652280940204,-0.4147538726184198,-0.7317247044170793,3,right
12.876,-0.13022167440894955,0.9924160489273871,-0.06743764868651422,1.712587745814413,0.9104541501044092,-0.34340390068598625,-0.1531292779176714,-0.41484990415269163,-0.7315942837630991,3,right
12.879000000000001,-0.1531644974325879,0.9907923365141796,-0.06084805736059634,1.7119921550463482,0.9097680755316452,-0.3447567488908656,-0.14963607400521983,-0.41960110162095693,-0.7238484099214177,3,right
12.88,-0.17505102282092339,0.990174854834683,-0.05276819454956827,1.7116939658262988,0.9091684554216326,-0.3459317109240653,-0.15823253681654253,-0.4078832668353479,-0.7429148870399238,3,right
12.884,-0.1959085135390798,0.9913567514047033,-0.04123650872670667,1.712379284348294,0.9118135643532563,-0.34076836047377745,-0.14397531487903542,-0.4273272286663593,-0.7112918139172297,3,right
12.884,-0.20829924912961456,0.9925272758602415,-0.030709183574595792,1.7117011831437876,0.9068875875605846,-0.3503650124448091,-0.16278179968642337,-0.40167498320419726,-0.7530053339118052,3,right
12.889000000000001,-0.21201854936253473,0.9910770763450759,-0.02827616367174176,1.712161667334136,0.9132268669378105,-0.3380280345304495,-0.24171828109685625,-0.29402527815073887,-0.9280952295574633,3,right
12.89,-0.22495117444145674,0.9893050762881388,-0.025309036764360356,1.7119563510461022,0.9079289254832701,-0.34833304545248456,-0.26052470141844664,-0.26837148387454657,-0.9698074719469163,3,right
12.89,-0.24367225856559777,0.9877605940066192,-0.021764989588423402,1.7119870299532833,0.908069576794785,-0.3480577389238523,-0.2462666794179693,-0.28782028463380693,-0.9381834060798382,3,right
12.892999999999999,-0.25900166600874314,0.9857026381673777,-0.02059105482445289,1.7119989921933958,0.9181897179255978,-0.32838756665424074,-0.25486624973406713,-0.2760918829918131,-0.9572588213419844,3,right
12.892999999999999,-0.2765062099020432,0.9847008801215064,-0.011851934687071297,1.7120684787781508,0.8933157150532162,-0.3767328966747284,-0.251366462672883,-0.2808606204687665,-0.9494910193181619,3,right
12.9,-0.292462008310633,0.981664948955224,0.0051342163432114025,1.7118445501920563,0.9345594038967346,-0.2965736158004637,-0.25131913892755287,-0.28093434364786324,-0.9493961937350113,3,right
12.901,-0.29932673046184555,0.9785475165438333,0.015318471729473404,1.7122233124921569,0.8801580503488312,-0.4023037230630859,-0.2531505999596818,-0.27842386082683424,-0.9534442946874504,3,right
12.902000000000001,-0.3005866096084111,0.9780984377764994,0.017121395769179468,1.7141555098427,0.6517428411824084,-0.8461952950465208,-0.2509561774029251,-0.28142900811010046,-0.9485909084987013,3,right
12.902999999999999,-0.30143537810688587,0.9741015291084187,0.020864356390056682,1.7146147439172883,0.5973366610273121,-0.9519312080818135,-0.252666360388304,-0.27909129431366875,-0.9523782431596952,3,right
12.904000000000002,-0.30148732141035794,0.9688137830050629,0.020781821756461476,1.7142482678535567,0.6385943253756339,-0.8717538197908388,-0.25174038468777027,-0.2803440866603111,-0.950312304079556,3,right
12.909,-0.29744570530366754,0.9664941530176524,0.011637853519910599,1.714481160016618,0.6136913037532841,-0.9201386485835548,-0.2519609250550304,-0.2800758972410281,-0.9508401330735916,3,right
12.911,-0.28838993106662647,0.9634670622825102,-0.004519162606974406,1.7143767841942168,0.6238580422564128,-0.9004029568064345,-0.2521889580232556,-0.279708829029771,-0.9512794077708818,3,right
12.913,-0.27844826980092313,0.9604748178902718,-0.023215119591133516,1.7143871143324674,0.6239411356944166,-0.9002109327527017,-0.2517859307636455,-0.2803272103221812,-0.950467055663826,3,right
12.914000000000001,-0.26692384627903415,0.9581278522137607,-0.03420411997755776,1.7144276815392494,0.6186915323125091,-0.9104427219144319,-0.2521668813096747,-0.2797529278815555,-0.95124700330425,3,right
12.919,-0.2549087690316639,0.9566779370401367,-0.03751113807553047,1.7143726082593944,0.6250253820475418,-0.8981209632656562,-0.25190045267831207,-0.2801157736032147,-0.950655450053114,3,right
12.92,-0.24590672629063515,0.95653447575948,-0.038966352209362884,1.7144196969354917,0.6200224451525053,-0.9078181859404957,-0.2520471907696873,-0.2800171996219134,-0.9511016225972573,3,right
12.923,-0.2370307525296762,0.9543430286932957,-0.03803943963550009,1.7143892288665146,0.6228549519200983,-0.9023948935161501,-0.25197760214352016,-0.27988013002943624,-0.950671467378138,3,right
12.924000000000001,-0.23162717740750555,0.9518472397132363,-0.038200143802300066,1.7144039394975623,0.621966038298915,-0.9039824928057367,-0.25201774355755513,-0.28017135759886114,-0.9511719392943792,3,right
12.927,-0.23059316814813058,0.9503536886909331,-0.04636074082949887,1.7144002886631253,0.6215999662381886,-0.9048654547522232,-0.2519868485777529,-0.2798447897348759,-0.9506648245654851,3,right
12.927999999999999,-0.22904722325629598,0.9482997386569896,-0.05635959526881211,1.7143967038101167,0.6225526865740046,-0.9028772305852075,-0.25198590200712034,-0.28005893925738257,-0.9509161238017281,3,right
12.933,-0.225980449522333,0.9467305279197196,-0.06396468276628207,1.7144070168796521,0.6214010325687451,-0.9051141780596388,-0.2520780547478711,-0.2801172935407159,-0.9513390138536596,3,right
12.934000000000001,-0.22153212629579339,0.9451343902013856,-0.07308766841092498,1.7143874451801704,0.6226766818318548,-0.9028885964974925,-0.2518270457774089,-0.2796553617209232,-0.9498261587800149,3,right
12.937000000000001,-0.21917046688656383,0.9433162742776349,-0.07813234569004505,1.7144190808399622,0.6211848838271096,-0.9052083334892984,-0.2522649303218566,-0.28054919203141787,-0.9525704683280559,3,right
12.937999999999999,-0.21477636773993947,0.94391124437185,-0.07807606594996543,1.714376666562908,0.622909086878942,-0.9027219909766148,-0.2517090338621537,-0.2793932695477086,-0.9490608098111756,3,right
12.944,-0.2045811988890791,0.945279258045391,-0.07539866723788098,1.7144200877702498,0.6212544588976985,-0.9050159238547426,-0.25217030724093115,-0.28036142359570493,-0.9519845396111407,3,right
12.945,-0.1960496033239734,0.9437425345863211,-0.07295495572332858,1.7143960930388058,0.6220875746133963,-0.9039296237734933,-0.2521681298476589,-0.2803228015186545,-0.9519284054215231,3,right
12.948,-0.18869144773387203,0.943358918482647,-0.07499794359805755,1.7143722256387433,0.6231879078559487,-0.9022497499887743,-0.2512554300450073,-0.27851800096569346,-0.9462795950237375,3,right
12.948,-0.18041289346517253,0.9467002570467601,-0.08008237174400264,1.7144707428305552,0.6190773293751298,-0.9082299924260482,-0.2534859468004444,-0.28296809806974854,-0.9601350367118285,3,right
12.953,-0.17100883638156794,0.9534005200186494,-0.09279089928700307,1.7142894147801573,0.6265339638276135,-0.8974637678931631,-0.2497917136630436,-0.2755866102784329,-0.9371713105860671,3,right
12.954,-0.16281367039432526,0.9595908867666451,-0.10383053300688803,1.7145218554519028,0.6170191268452703,-0.9111711308541789,-0.25466298637674434,-0.2853221309718872,-0.9674570280398702,3,right
12.957,-0.16077635035399035,0.9622292545211244,-0.10464894088191629,1.7143277574124698,0.6249375681090105,-0.8997772227540121,-0.27513725362752606,-0.32617885670654156,-1.094643606646635,3,right
12.957,-0.1512433687765658,0.970158787706042,-0.11196384485797643,1.71433336376868,0.6247614776920605,-0.9000087747919564,-0.28000775548748097,-0.33591120443903266,-1.1249272857326424,3,right
12.958,-0.13418265244748143,0.9795805865833357,-0.12393606096191921,1.7147026426612615,0.6095607233018272,-0.9219388735161004,-0.2763143557119361,-0.32853315003544625,-1.1019657626422577,3,right
12.962,-0.12041440349172255,0.9883285533732236,-0.13162643228160098,1.7137941651448658,0.6468674475342463,-0.8681489108083669,-0.27854519197620553,-0.3329845511929886,-1.1158220514123316,3,right
12.963,-0.09983617240984707,1.0044527714285483,-0.1388252358390249,1.71530116710346,0.5850314063639499,-0.9572925590904219,-0.2776297209173552,-0.3311683665716434,-1.1101659084385243,3,right
12.967,-0.0846798481696964,1.013947035656464,-0.14180186956305676,1.7133128309931032,0.666585937893863,-0.8397284146984116,-0.2776335030505762,-0.33115424094540624,-1.1101255397631589,3,right
12.968,-0.08142996288344534,1.0158436369708763,-0.1419473791017181,1.7049871144435165,1.0089142241820208,-0.3461714661585102,-0.27808623422449796,-0.3320872702999249,-1.1130266741809556,3,right
12.969000000000001,-0.07105349604674828,1.025168789399807,-0.1434887045878497,1.7029995458500589,1.090466460313561,-0.2286090205376594,-0.2775388408367081,-0.3309663268709133,-1.1095395044992113,3,right
12.970999999999998,-0.06030458954216591,1.035200630045289,-0.14423830736037524,1.7045030759841004,1.028640818107309,-0.3177449612458925,-0.27797306237109853,-0.33184506029997873,-1.1122741317944176,3,right
12.972000000000001,-0.05494972970864648,1.0424146852463254,-0.14090324595236314,1.7036036386241271,1.0659204499953285,-0.2639750898347415,-0.27771473809913927,-0.3313531009267755,-1.1107419162974215,3,right
12.977,-0.05202054230214425,1.052514853731926,-0.13108078350708063,1.7039563837700478,1.050769258464407,-0.2858684239563952,-0.27783043201247376,-0.33150819831784417,-1.1112270872942975,3,right
12.978,-0.05340204842900538,1.0594054599843872,-0.11948873237944552,1.7039846788481388,1.0505251416731036,-0.28615044577131316,-0.2777889363274901,-0.33155564633223245,-1.1113711217468216,3,right
12.982999999999999,-0.054836270300862175,1.0593262805022485,-0.11092109703640125,1.7037683662273775,1.0585102038871068,-0.2747070988525474,-0.27780779113997484,-0.331433672650788,-1.1109955969411411,3,right
12.982999999999999,-0.0570398477733756,1.0596642303793007,-0.1049615923593818,1.704010041807909,1.0489676420813598,-0.28843505764309574,-0.2778082907416904,-0.3315617734869479,-1.1113912350033828,3,right
12.987,-0.05944434050299377,1.061468720788592,-0.09978049515185215,1.7038486581760848,1.0563645314223697,-0.27771312026369255,-0.2777383002144569,-0.33142328325092857,-1.1109599706292572,3,right
12.987,-0.05961380471012491,1.0604346324976113,-0.09284864277016258,1.7038841069355666,1.0524429923636014,-0.28355315170514783,-0.27795871458863686,-0.33162735348824834,-1.1116010883548024,3,right
12.991,-0.05688318786527706,1.0579468035516066,-0.08584416906966191,1.7039685414760948,1.0532186390794092,-0.2821141463437564,-0.2775239993603481,-0.33129849656054405,-1.110564337840307,3,right
12.992,-0.0522852380527522,1.0576816822559956,-0.0828483444659185,1.7038117915263995,1.0544498214141234,-0.2807324901765317,-0.2781559354733365,-0.3317561700819368,-1.1120081931411123,3,right
12.997,-0.0479235432912201,1.0589689161310214,-0.08236920059921857,1.7039609405405036,1.0524780644269565,-0.2832618009670954,-0.27748543819448257,-0.3312744031141187,-1.1104884111596136,3,right
12.998,-0.04009609711813232,1.0570372563632153,-0.08031492751455781,1.7039196939068326,1.0541990047046186,-0.2807777061396954,-0.27786786559153465,-0.3315430926125982,-1.1113359017197868,3,right
13.001,-0.02860957131233593,1.0549442537030753,-0.07707548281528723,1.7037545788574606,1.053296808399709,-0.28266023076590246,-0.2782219702743377,-0.3318226624826081,-1.1122173158080937,3,right
13.002,-0.015726548207544357,1.0552327671293344,-0.07378762664486302,1.7041842939157452,1.0532256484999793,-0.28143367569927746,-0.27671244712016363,-0.33067760743064833,-1.1086074801016443,3,right
13.005999999999998,-0.0022240340759201015,1.054527284561651,-0.07267599893067556,1.7035245767345397,1.0540828672210973,-0.2821802418736428,-0.2795044108989134,-0.3327869760645106,-1.1152565043106526,3,right
13.007,0.012196688278877477,1.0577287481929702,-0.0780332416053981,1.7042350086867137,1.0528944045019042,-0.2817808728585631,-0.2759213416313211,-0.3300815954845021,-1.1067300460262732,3,right
13.011,0.028454988093640242,1.0653750647280305,-0.08880714980187318,1.7038192207542986,1.0537649836274436,-0.28174564541916275,-0.2789115052643131,-0.33233893701386935,-1.1138424336540664,3,right
13.012,0.04434830855443783,1.0751951131048632,-0.1015684890769502,1.7034773232787517,1.0539437640338898,-0.28254220013052544,-0.2788342376454873,-0.3322826787575849,-1.1136697342221396,3,right
13.015,0.05859008850099855,1.0877831100058206,-0.11367599177324486,1.705004751769724,1.0521070058153712,-0.2805818749424281,-0.2731216266804202,-0.32796241459274944,-1.1000467790697597,3,right
13.015999999999998,0.07255280696178132,1.0999311291056464,-0.12112521749898901,1.7021638366876197,1.0557618785686549,-0.2838565660143096,-0.28715719824036023,-0.3385754782230891,-1.1335032492804284,3,right
13.022,0.08777976380458144,1.114257743769655,-0.12146230099954886,1.7058160228695058,1.0509799863844087,-0.27978207946566624,-0.2638881599544486,-0.3209798782314136,-1.07804236431951,3,right
13.023,0.09796979401212753,1.123188387875303,-0.11952794976392851,1.7027630917743113,1.0550085400706752,-0.2831280225761381,-0.2945780062217262,-0.3441884262928631,-1.151187783923033,3,right
13.025,0.09915387862310292,1.125226536420469,-0.11701643109684158,1.7028537952189646,1.0548445530074018,-0.2831237449925175,-0.4234228436361591,-0.4416112907453219,-1.458315154974179,3,right
13.026,0.10105499028233006,1.136093340072208,-0.10663886253274468,1.7086558951811446,1.0473103096802192,-0.2765147978466905,-0.45410995982248176,-0.46482074797733347,-1.5314511338352221,3,right
13.027000000000001,0.10151915823318623,1.1444729334946282,-0.09383196334533353,1.6943786349483205,1.0659054127418504,-0.29263272579095057,-0.4308438751349281,-0.4472241635548868,-1.4760004618264553,3,right
13.03,0.09033890918306683,1.1428164793644053,-0.08754200162526302,1.7180643220197993,1.0350488145103247,-0.26595794530245365,-0.4448805707098662,-0.4578368557866474,-1.5094608214942333,3,right
13.030999999999999,0.07990422578114734,1.1435370123527155,-0.08490764437436837,1.6868068640010478,1.0757513929613842,-0.3011208665333517,-0.4391581605748843,-0.45351984891695163,-1.495803975089024,3,right
13.036,0.07652010683874633,1.1434634759709699,-0.08541004146587125,1.555607245325627,1.2465561604147632,-0.44878311043972485,-0.43910197626426234,-0.4534565784373398,-1.4957041905214536,3,right
13.037,0.0659833732606427,1.143418655188178,-0.08813612636851417,1.5242961627795293,1.287231490072783,-0.48392885030658,-0.442061911386328,-0.45572397706772905,-1.5027120381891677,3,right
13.038,0.05062061780481413,1.147994249231775,-0.09092127672404067,1.548076882872837,1.2564176821589808,-0.45729230813517563,-0.43850894256385986,-0.4530085779720002,-1.4942896734420883,3,right
13.04,0.037049574957520745,1.1542451238798792,-0.09443679453984816,1.533690581761043,1.2749768576126477,-0.473347708187579,-0.4412879201240492,-0.45512227635881275,-1.500893795188563,3,right
13.04,0.020956440263375127,1.1642798395665357,-0.09668778082903123,1.5395705183972652,1.267442005306656,-0.46682058172895824,-0.4397525457555589,-0.4539858083112614,-1.4971945455544344,3,right
13.045,0.007371682397950111,1.179139406104928,-0.09529523324433553,1.5396743193872835,1.2673442552096206,-0.4667361125962939,-0.44018991808165525,-0.4542376895388843,-1.498363938972472,3,right
13.046,-0.0005348535013410136,1.198481177456688,-0.09233305305990311,1.536458033513728,1.2712258537628784,-0.47012028895732055,-0.44042887542776754,-0.4545541033433822,-1.498715256237377,3,right
13.05,-0.009642074928471746,1.2244689929599237,-0.09439625025828757,1.5404534892791375,1.2666552397113302,-0.46610359559027587,-0.43993444805664256,-0.45401375010936734,-1.4978043744332792,3,right
13.050999999999998,-0.016389324533788285,1.254003953007869,-0.10235114033227155,1.537129061190671,1.2700983412230311,-0.46917532427388003,-0.44042601846074275,-0.45451815618240865,-1.4987628282950394,3,right
13.055,-0.01573395957761819,1.2830167781211608,-0.11571357718760798,1.5391346097948428,1.2683580953525375,-0.4675755985884006,-0.4399900391619772,-0.45418965875187606,-1.4977216526327202,3,right
13.056,-0.009577983336122767,1.3154317358234175,-0.14027527247043298,1.538582074893399,1.268704065138858,-0.46791627092059707,-0.4404709654550882,-0.4543071363860047,-1.4992637752864684,3,right
13.059000000000001,0.005757000191371911,1.351493204388041,-0.1656491998030737,1.5377746286433074,1.2690152625642899,-0.468265955573008,-0.4398056424782175,-0.45436664239750213,-1.496773595417312,3,right
13.06,0.026504046575462726,1.3870876816195135,-0.17356269079483336,1.5397667558821182,1.268801230497016,-0.46781955240394546,-0.4406942622064126,-0.45419928212852345,-1.5002406562907535,3,right
13.065999999999999,0.0495927075354734,1.4217069129515782,-0.1676990142544385,1.5368891390820105,1.268451807433565,-0.46796829472846246,-0.4397663832793979,-0.45439237858745163,-1.4965910987524216,3,right
13.068,0.08070578425383737,1.450880276526298,-0.15986848005332208,1.5400513932933322,1.269358581931216,-0.46819876988218745,-0.44027186356201986,-0.45425760769608936,-1.4986265434649275,3,right
13.07,0.1190131631840905,1.4765768998154853,-0.15104083432460352,1.5376901630752187,1.2684287640206104,-0.4678362308204065,-0.44085921893427027,-0.45425616388340323,-1.5007432072042954,3,right
13.071,0.16057736045215662,1.5006700775836666,-0.14127067262120419,1.5376717659982355,1.268417052885069,-0.46782993130574513,-0.4385370027500428,-0.45445043130201757,-1.4920730045690136,3,right
13.074000000000002,0.2028520979148576,1.520099516149367,-0.13117334763357258,1.5417975371866381,1.2704739011990116,-0.4687894499273453,-0.4427985990385688,-0.45405608087732463,-1.5080441880543662,3,right
13.075,0.248616021797678,1.5432053480916963,-0.11809291552592281,1.5324768530222532,1.265633467409201,-0.4664758506058446,-0.43733680077169523,-0.45457030639368895,-1.487561535810205,3,right
13.079,0.2896264677298933,1.5701893375850582,-0.10512155246678116,1.5462928034697478,1.272969773801944,-0.47002689558519295,-0.44189213091658575,-0.45413752877750374,-1.5046500268612404,3,right
13.08,0.33036090835943144,1.604637139693488,-0.08610817143144389,1.5316166742027408,1.265081785587409,-0.4661832051706557,-0.4417853110855814,-0.4541619639247424,-1.5042287081562593,3,right
13.084000000000001,0.38122237236452033,1.6446159956137125,-0.057135434013276094,1.5400798668621025,1.269660923602931,-0.46842266486032313,-0.4330459523830752,-0.4549462793416599,-1.4715128156849624,3,right
13.085,0.4288655894656307,1.6829235512496576,-0.023323785230099526,1.5473686656961405,1.2736174033801415,-0.47036098406735966,-0.4545060543552273,-0.4530027450383671,-1.5518724798141046,3,right
13.089,0.4886040483930701,1.7344361832424569,0.01781937673403679,1.5154899440955278,1.2562765745830966,-0.4618558135974292,-0.41893033081232056,-0.4562302325305726,-1.4186500091433278,3,right
13.09,0.5361139385553542,1.7685996339239907,0.04203397024047795,1.5745899008264375,1.2884596601820495,-0.47765004653935034,-0.46585277785658,-0.4519714598792007,-1.5943626131567954,3,right
13.093,0.5479443796567842,1.7781966665282134,0.047481622910586066,1.4987164698046,1.2471186436726458,-0.4573547441453941,-0.6628473195843528,-0.4341288422854723,-2.3320391492081862,3,right
13.094000000000001,0.5847149203447166,1.8144758630254998,0.07365511622755361,1.5620522901403906,1.2816378324494013,-0.47430465260671706,-0.7097694535851378,-0.42986909803652606,-2.5077460911231984,3,right
13.095,0.6292009598613135,1.8701230540462779,0.115129311233511,1.5603412036492328,1.2807101860533607,-0.473846980940674,-0.6741940688245445,-0.43309764079719704,-2.374529749162281,3,right
13.1,0.6446430160896729,1.9239455234611154,0.15039832121025576,1.4395734070330666,1.2148571169592497,-0.4415127102890055,-0.6956542992941482,-0.4311544919071734,-2.454891733681091,3,right
13.100999999999999,0.6553019002553961,1.9807741764205227,0.185037393364546,1.736397768343735,1.37671337049723,-0.520989650017633,-0.6869138177726088,-0.4319353500523355,-2.4221555402776542,3,right
13.104000000000001,0.6544170479764715,2.0463168888923176,0.22227873573340673,1.2442507119588335,1.1083400176162859,-0.3892093913225891,-0.686809414265146,-0.4319672437755005,-2.421777914690761,3,right
13.105,0.6496223295414354,2.089363012170959,0.24356000672251082,1.8934012260287834,1.462347381147081,-0.5630301812090002,-0.6913612795427978,-0.43152375620693845,-2.438803748188432,3,right
13.106,0.6478351569285479,2.10130253360441,0.24847515179979476,4.618671410361829,2.9490101495571612,-1.2926682391222468,-0.685902931997264,-0.43204866642212636,-2.4183835028918805,3,right
13.110999999999999,0.6335177967932211,2.143278445156703,0.2612547508709471,5.267938723990815,3.3031979041435484,-1.4664954022061818,-0.6901630385525407,-0.43164966893862466,-2.434327734606683,3,right
13.112,0.6154897995443369,2.2001598571602567,0.27426625886175116,4.7755364212426485,3.034433310172714,-1.3347024562423944,-0.687837861061958,-0.43183484610116063,-2.4256039984534135,3,right
13.113,0.5991642291393016,2.2366306393873794,0.27927150086408015,5.072769206372403,3.1969098193456373,-1.414197288457618,-0.6884347588285962,-0.4318628304102463,-2.4278932047757262,3,right
13.114,0.5818604705950449,2.2698359203581893,0.2802944026433183,4.9514794956116495,3.1302723982152476,-1.3818435967179605,-0.6889237953485023,-0.43167727082861385,-2.429631296777455,3,right
13.118,0.5664991552060833,2.292597020418375,0.26835884691911693,4.950262676122348,3.130075900926361,-1.3813994572957666,-0.6880160989699692,-0.43193278565963356,-2.426346723537604,3,right
13.12,0.5548003782519502,2.3028201779174164,0.24866502462632506,5.013393143932081,3.164312518784057,-1.398352584192976,-0.6888886253178823,-0.43171553115058486,-2.4295227147723155,3,right
13.123,0.5444856704611393,2.299869167391199,0.22796744890959844,4.937095532479766,3.1222964389245083,-1.378025821428606,-0.6882231655460419,-0.4317748947285996,-2.4270301401462038,3,right
13.124,0.5297187770477401,2.2799582669368634,0.19912837143797335,4.99754586695657,3.15654679538095,-1.3938860979801495,-0.6887339417095244,-0.4319842696941538,-2.429111954360166,3,right
13.129000000000001,0.5082882678954229,2.250530200480531,0.15913630221483316,4.963341656824732,3.1356935092018716,-1.3852870423243338,-0.6882297335139029,-0.4314452080127662,-2.4268370426969215,3,right
13.130999999999998,0.47910285328832664,2.2097997449468143,0.11046518077082476,4.9734938051728275,3.1439240877963934,-1.3873197954132992,-0.6888230999831275,-0.4322641813572945,-2.4296363199513706,3,right
13.134,0.439897086806171,2.15756437670146,0.05592857083399496,4.979651019976693,3.1451364612202264,-1.3895146274859025,-0.6882201437711546,-0.4313879531651943,-2.426762721476682,3,right
13.135,0.3906199520975726,2.0961928122424136,-0.00627024000016154,4.965013232810326,3.1371332677804435,-1.3856002876364784,-0.6885218285037581,-0.43189935401411783,-2.4282486895306112,3,right
13.138,0.32422974969471574,2.0252032580431303,-0.07758129155170657,4.982971490232355,3.150909595313605,-1.3893950575021288,-0.6890132132310214,-0.43231643534928854,-2.4303943320670296,3,right
13.139000000000001,0.23581085937778057,1.9540865583542673,-0.16827057779674082,4.964076679936685,3.1315056599866606,-1.3866521467226836,-0.6872413281248642,-0.4304509077929932,-2.4224186608261844,3,right
13.142999999999999,0.13282920652678476,1.8899515876807524,-0.2771737045152426,4.982573882190616,3.1551675254779283,-1.3881494088895792,-0.6904589700408146,-0.43391917702583965,-2.4369550692556983,3,right
13.144,0.019451702436630972,1.8246481341240954,-0.36064356557619365,4.967124275806287,3.132271080128812,-1.3876964396404747,-0.6863426820783229,-0.4294619344932575,-2.4183456475542062,3,right
13.147,-0.08679048674082519,1.7661882169806216,-0.39171539689754054,4.973871439387007,3.1443135306059657,-1.3873741892883626,-0.689772981646974,-0.43318719483572954,-2.433860530688765,3,right
13.148,-0.18232985085910108,1.708133202780083,-0.35658963187966153,4.984278019067652,3.1571924590790443,-1.3883267244841275,-0.6897038860181872,-0.433075918228475,-2.43352498148244,3,right
13.152999999999999,-0.2656845137190389,1.6445720686751075,-0.27167380898049737,4.948423804057296,3.106101518167586,-1.3867550709329457,-0.6830850175519565,-0.4259995504684523,-2.403660136539536,3,right
13.152999999999999,-0.32860060909520145,1.587990511919481,-0.17270559000345476,5.012090248496399,3.1993139375438284,-1.3889120847260292,-0.6993254626570135,-0.44341171286495706,-2.4769689229009515,3,right
13.158,-0.41349175257758186,1.5089561986884776,-0.0397251518558963,4.931594184404693,3.080304091152497,-1.3864794345612337,-0.6724051840060232,-0.4145281713435495,-2.3554392797920496,3,right
13.159,-0.4750807025984092,1.454098071884979,0.05422811533422984,4.9982582373968665,3.1793732096647798,-1.388364648484989,-0.7079124420827672,-0.4526382805505214,-2.5157416079891775,3,right
13.162,-0.49188399994769294,1.4394255344132325,0.07611216997642878,4.996922932545992,3.17693092619062,-1.3884429238191132,-0.8569865614781824,-0.612455112878707,-3.188650981856408,3,right
13.163,-0.5642885632852566,1.3769676546639174,0.14379864181284796,4.868936199400424,2.9875900194459213,-1.3846059892982119,-0.8924970200071707,-0.6505864458188784,-3.348977113149384,3,right
13.163,-0.6604156726573462,1.3016447733200085,0.2120479022230971,5.182669527940101,3.4525420280789136,-1.3938034239438717,-0.8655732811313581,-0.6216799393435433,-3.2274217237655427,3,right
13.167,-0.7445860491251948,1.2295733865767653,0.20855391656637448,4.662891507919223,2.681823725401651,-1.3786686851214527,-0.8818124005749374,-0.6390833763272683,-3.300720690096778,3,right
13.168,-0.8078261166865868,1.169587627281921,0.1992935229649725,5.3482722732315064,3.698318054846283,-1.3985696359093707,-0.8752050360650465,-0.6320831614033735,-3.270941323503738,3,right
13.173,-0.8207346017044421,1.1549356121781236,0.1922658098256898,8.225158032060563,7.964875201497054,-1.4821436760903963,-0.8751112002112997,-0.631808021397235,-3.270421891650619,3,right
13.174000000000001,-0.8567296698339357,1.0991942864111142,0.1604593708312225,8.910412238180275,8.98138430535599,-1.501992024238939,-0.8785769626432446,-0.6357682373766204,-3.2862003973146794,3,right
13.175,-0.9084462233010757,1.016138715796366,0.1173531796357774,8.390901404844762,8.210680744276436,-1.486958079136397,-0.8744253730607456,-0.6310770171057859,-3.267328497409843,3,right
13.177999999999999,-0.9378368539506157,0.9539054807237287,0.07606300581757688,8.704225434020344,8.675517838461637,-1.4960217312751065,-0.8776582247040869,-0.6346462637476542,-3.281978095660552,3,right
13.179,-0.9812950986136939,0.8789081921681787,0.0347655725325746,8.576735672955081,8.486454331405163,-1.492316443049767,-0.8759167048258771,-0.6329816087332968,-3.2742279665379,3,right
13.182,-1.032111351697317,0.8066692636783563,-0.001137829191334646,8.574966505032924,8.483565076581375,-1.4923255300774778,-0.8763103630972497,-0.6327515438582232,-3.275647332381041,3,right
13.183,-1.0843523042731469,0.7394425090916796,-0.018662115203876,8.641743907115107,8.583155071267903,-1.494138565463377,-0.8767803844276482,-0.6343780500355163,-3.2783845595545245,3,right
13.187000000000001,-1.1443159547394774,0.6717132245503268,-0.015817141274686076,8.561770384433784,8.463776393402899,-1.4919918551186302,-0.8759708902924483,-0.6321332599877592,-3.2739755075573447,3,right
13.187999999999999,-1.2049552734799749,0.6146255313137663,0.00010022779715202889,8.624031477585135,8.556869736718438,-1.4936279903900203,-0.8767288391490924,-0.6340433884857775,-3.277998690584953,3,right
13.190999999999999,-1.264657423510895,0.566341051915666,0.01991576233078154,8.590447180520737,8.506736504233086,-1.492726714451075,-0.8762262809168224,-0.633513886147183,-3.2757352197995666,3,right
13.192,-1.3214305517735179,0.5286992992104547,0.04574473960661958,8.598219084415597,8.51763339840997,-1.4930955539858062,-0.8764312152667246,-0.6316987429915167,-3.2755445635633644,3,right
13.197000000000001,-1.3704893679331833,0.4996265771430505,0.08083076147083443,8.606850073501276,8.532464403037789,-1.4928843630502873,-0.8764643732489252,-0.6363851024115658,-3.2782443710073004,3,right
13.198,-1.4087880854525445,0.47894094737650655,0.11518569564537498,8.591909981554961,8.506811895795812,-1.493245435333886,-0.876294941992174,-0.6292648822723576,-3.2736749483210286,3,right
13.200999999999999,-1.4376086962951276,0.4632746780401734,0.14965416463671133,8.60578384393554,8.531674211032374,-1.4926734981877228,-0.8764976705680758,-0.6368794166204885,-3.2786462193381025,3,right
13.202,-1.461677004933244,0.4490543284981905,0.19387774065873004,8.596560325878666,8.514578849864277,-1.4931825610973206,-0.8763456697334588,-0.6324413653632978,-3.275615769003476,3,right
13.207,-1.4817568897714402,0.4398044940931191,0.24423799318886777,8.600807909141308,8.520849665303421,-1.4933124726600973,-0.8763881893410923,-0.6288049521021399,-3.273789014156547,3,right
13.209000000000001,-1.4955513947421148,0.43867418630495103,0.29564772342762263,8.599905642849578,8.525843689168259,-1.4918461244712355,-0.8764854764111798,-0.6450301442347557,-3.2830674293788276,3,right
13.212,-1.509262402913934,0.453122776649948,0.3404163340013171,8.59963607319121,8.510971466038567,-1.4951297331043238,-0.8762546600173002,-0.6148835789072293,-3.265631163268549,3,right
13.212,-1.5207881557185738,0.4817356931141156,0.38046519605130846,8.599493032254806,8.532350448251076,-1.4902152239325734,-0.8765613259403128,-0.653607022711507,-3.2880684754434872,3,right
13.216,-1.522105628997111,0.5147084882612749,0.42980738302931154,8.600368575037773,8.510631157969174,-1.4954753759409787,-0.8763025463664362,-0.6212717158531471,-3.269321472493928,3,right
13.217,-1.4988032141039174,0.5329624428536325,0.4576596733443123,8.599864616961261,8.523185945545045,-1.4924356899356146,-0.8763230738132859,-0.6221709566143236,-3.269896365385927,3,right
13.220999999999998,-1.4477532087613407,0.5286180262437643,0.4354802363642796,8.59785222160846,8.531659806380837,-1.4897710414601661,-0.8767681718096081,-0.6837531536036399,-3.305409470089071,3,right
13.222000000000001,-1.3890650782566607,0.5076181877577151,0.3782453741037137,8.604631409321794,8.491549132404497,-1.5013768950526236,-0.8756620511331041,-0.5323593610873469,-3.218054863072602,3,right
13.227,-1.3169995215334487,0.4553638408723684,0.29971127566210287,8.592145982738124,8.56607038914173,-1.4798550306617924,-0.8774946051431499,-0.7833902668062823,-3.3628961416733936,3,right
13.228,-1.2639253950768843,0.41088806274461775,0.2512407415383292,8.608326743644227,8.470594931830519,-1.507495721855412,-0.8750840090126826,-0.45227402501079095,-3.171870770047027,3,right
13.232999999999999,-1.252799023531586,0.4005313948234032,0.24317175522691034,8.594732888316095,8.55018729499264,-1.4844154863662187,-0.8649116657712151,0.9374708503459009,-2.3699149588274997,3,right
13.235,-1.211891439578734,0.3601569708715846,0.21817230010946004,8.59499261759208,8.547845408390152,-1.4850417027639442,-0.8625149636770715,1.2685972903219525,-2.178935430596426,3,right
13.235,-1.1556347422139255,0.30533300845061706,0.19905871099501576,8.621483537789633,8.396990933116708,-1.5290561880781626,-0.8643324873440509,1.017555351937997,-2.3237271175296645,3,right
13.235999999999999,-1.1174044582881133,0.27372928566653554,0.20943666295694147,8.556383725718824,8.76784233104413,-1.420865329320961,-0.8632206419401356,1.1689449440757915,-2.236353618317087,3,right
13.237,-1.0461435338979332,0.23588939070645262,0.21814931511318778,8.664412216818839,8.153052285815487,-1.6002593304792005,-0.863715619219831,1.1073993551254617,-2.272031306906234,3,right
13.24,-0.9932274673279173,0.21197556963444858,0.22288791940696462,8.521823166647554,8.963835240725125,-1.3636321408276588,-0.8636288353667869,1.1064213529484563,-2.2722521154428943,3,right
13.241,-0.9790473599255645,0.2064374171371472,0.22318311401820856,7.924590435050478,12.368187015650024,-0.3705678933155039,-0.8635239101950821,1.138869583370468,-2.2540127666625516,3,right
13.242,-0.9201376267242944,0.1847092860670973,0.21424624578005452,7.78199865167797,13.178936241975482,-0.1339457535997889,-0.8636773795194144,1.100033696666205,-2.2759445998900656,3,right
13.245,-0.8394331449056758,0.16185377486628555,0.19972126305314275,7.889847408109863,12.564014236910541,-0.3133112786995418,-0.8635126455345769,1.1302287689887556,-2.258726366787725,3,right
13.247,-0.7721537121039815,0.14912335857612777,0.18404111101981235,7.825395820170255,12.935476175524656,-0.2051998523137096,-0.8637415283031307,1.1141001560158272,-2.2684390081590697,3,right
13.25,-0.7036468871602981,0.13760707566504965,0.1763995982801962,7.850542872141883,12.783270575532823,-0.24906441962775294,-0.8633602177333097,1.1174255010909548,-2.265213776401592,3,right
13.251,-0.6391292711109411,0.12794651513534888,0.17605823107971275,7.852802874411896,12.783014042589286,-0.24990094173430774,-0.8639384507831167,1.122399513051429,-2.2645927977607707,3,right
13.255,-0.5757616087201763,0.11769800953880019,0.1730730287208861,7.837054556556421,12.860274336478266,-0.2266090483610235,-0.863245045274768,1.1141272447932853,-2.266607215681768,3,right
13.257,-0.5208656539139324,0.11181759649438261,0.1596183757387326,7.854489465697021,12.766299363152909,-0.2543482412805822,-0.8637899865875474,1.121771805856028,-2.2643948805957237,3,right
13.26,-0.47769962559117907,0.11417158726728993,0.13435961041248676,7.843117889995641,12.841699158508305,-0.23299234693339668,-0.8638296691845995,1.1170902027772223,-2.2671162885982796,3,right
13.261,-0.43982126642140534,0.12018413648776638,0.10198826815047984,7.845006664929346,12.796783854794796,-0.24403324896144168,-0.862708553424091,1.1179321158968962,-2.2625501354184765,3,right
13.265,-0.40534169968552936,0.1277346066799695,0.06805877590204831,7.852186945117989,12.814685512153005,-0.2423620485991125,-0.865236173304323,1.1206856208238287,-2.2702850505956214,3,right
13.265999999999998,-0.3694289685636673,0.13087983798305147,0.040266654150540815,7.839568401869746,12.81443028727585,-0.23807978935227553,-0.861473819074613,1.1154577633751384,-2.2593931316266396,3,right
13.27,-0.3382506756716349,0.12575607612200784,0.02707251107797672,7.851355367111557,12.804784090155476,-0.24436658258132024,-0.8654827934991427,1.121239182579808,-2.2708828733371247,3,right
13.270999999999999,-0.3135104185008164,0.11386159043373884,0.03658985318823116,7.848424817277792,12.821989145908145,-0.2393781406316668,-0.8631692200008605,1.1175694915567413,-2.2644357018335888,3,right
13.276,-0.30137396201914946,0.0953853369510181,0.06685913825763475,7.834518569413602,12.794527191253545,-0.24094679488303627,-0.8611616894560767,1.1160373738456255,-2.257931713869482,3,right
13.277000000000001,-0.31046758545986974,0.07116340512470995,0.1029144079034982,7.87002234480412,12.836070461422345,-0.24355102366912043,-0.8699254317138805,1.125412279559813,-2.284845000984281,3,right
13.279000000000002,-0.3390883467369574,0.0422501231335974,0.1340067660154093,7.815745480133403,12.781567272364795,-0.23748632287298777,-0.8536776133609945,1.107545082124219,-2.235216317432068,3,right
13.28,-0.39252302529662125,0.012805195976445633,0.14948588921741482,7.874085957892616,12.836933954437434,-0.24474908151112343,-0.8745387275201871,1.1305947932216251,-2.298875555911491,3,right
13.287,-0.46211731350903135,-0.014165206919784623,0.1432063432417021,7.840054266748928,12.806777930983698,-0.24001764166044173,-0.8571247272564089,1.111309128274275,-2.245760732448378,3,right
13.288,-0.5468658654394405,-0.035106836211043914,0.11597517591459135,7.81172128922815,12.775078092840207,-0.23760249654697593,-0.8575911996949315,1.1119964525546338,-2.2470879978307874,3,right
13.29,-0.6415405493303461,-0.04860758092661886,0.07358373970571383,7.937571016062546,12.90328583585961,-0.2512413654435772,-0.8908089270292867,1.1482254990498753,-2.348717500434841,3,right
13.290999999999999,-0.7249795962371139,-0.05478603147932794,0.02900461692445581,7.703743236635671,12.668012135741357,-0.2252226051445347,-0.8091726280208462,1.0589864779743112,-2.09906598787284,3,right
13.295,-0.8072799825968504,-0.04512532541007526,-0.01733035677581932,8.004148860389346,12.969215471399268,-0.258893738391135,-0.9445233813901392,1.2069956381275895,-2.5129495987863963,3,right
13.296,-0.8559578711497036,-0.036969921825235105,-0.047755253086537275,7.753285606389266,12.718139949831992,-0.23067221370355942,-0.7660020614886238,1.0117725490097986,-1.9670621745067103,3,right
13.3,-0.8674113367557656,-0.03387277029777267,-0.05358484420357418,7.760185466477868,12.724340136284914,-0.23160801520067126,-0.016595132282504338,0.19251879860474674,0.32466896599610146,3,right
13.300999999999998,-0.9046214288263552,-0.01439873241097887,-0.0691110274247702,8.238241465729804,13.204670493013369,-0.2849640445764321,0.16191717262364244,-0.002676494680820582,0.870534572761726,3,right
13.302,-0.9410981003388594,0.011506533853919284,-0.08957567833907451,7.0630739377490155,12.024947396630042,-0.15357144078698,0.026576173548421025,0.14530258976831278,0.4566745680768036,3,right
13.305,-0.9580336140982408,0.04920526550548886,-0.0949017575023462,9.011625892151336,13.980640628882115,-0.3715227883795176,0.10821617983536831,0.05605213950249999,0.7063350544878998,3,right
13.305,-0.9729203288730037,0.07988005686050412,-0.09472425602666654,6.441456187959684,11.401235505404298,-0.08400774129618849,0.0749661036052078,0.09238092405272104,0.6046272595902047,3,right
13.31,-0.9738535064289423,0.08837675493630531,-0.09389122404214499,-4.3467371198832305,0.5737389015008953,1.1227029580914478,0.07456923707917931,0.0928536375591122,0.6034684552714832,3,right
13.311,-0.9779363594747678,0.12183669333993981,-0.09671307555904218,-6.916981761763842,-2.005554693521421,1.4102403507995847,0.09188343404303914,0.07387569032714111,0.6563417355011054,3,right
13.311,-0.9836336389063429,0.1703985593387407,-0.0993626628019754,-4.968287704186666,-0.05011286228883377,1.1922336959471789,0.07112170632151132,0.09661896704179591,0.5929230289834204,3,right
13.312999999999999,-0.9814465530449035,0.21167687706676128,-0.0991732285035006,-6.143640549260121,-1.2294187873517446,1.3237273705090478,0.08732663536303498,0.07888401220026577,0.64244791758798,3,right
13.312999999999999,-0.979147857446747,0.2564910214736943,-0.10434400113693153,-5.665407872606558,-0.7496428189292683,1.2702242134940664,0.07847756241012872,0.08852200640495175,0.615328105578155,3,right
13.319,-0.9668842653785664,0.296122672860742,-0.10957648745171818,-5.658590450274103,-0.742887566575754,1.2694531088107055,0.08075998993017208,0.08614232196530239,0.6224974059571394,3,right
13.32,-0.9473458008492343,0.3319827634610042,-0.1069483318754912,-5.909573861035038,-0.9942483223872525,1.2975600800384983,0.08259989134959753,0.08393307240404144,0.6277981946214698,3,right
13.323,-0.9276224951903865,0.36151019052400857,-0.09699543936747612,-5.608750839093119,-0.6933987854169229,1.2638511387609097,0.07917224517729568,0.08792211238045022,0.6177153750179032,3,right
13.324000000000002,-0.9044541154218282,0.3797372384937181,-0.07948669054871647,-5.843311658957296,-0.9273353519991226,1.2901682548415947,0.08247111585570244,0.0841233026921546,0.6274855937073349,3,right
13.329,-0.8778575755119962,0.39001612279286324,-0.0572123945142528,-5.716546180852619,-0.8015531995184784,1.2759119439373983,0.0799394129386429,0.08688936684136217,0.6197407605648799,3,right
13.33,-0.8491340693577585,0.3896428270965609,-0.03668495002987511,-5.74563717178708,-0.8301349022120794,1.2791979955849464,0.08192052315782117,0.08507974825072115,0.626388313885905,3,right
13.333,-0.8224573582592761,0.3796127093961738,-0.017258875285578044,-5.779606880172999,-0.8629982880332913,1.2830635035215952,0.07991538123315003,0.0864580962056744,0.6189100722679445,3,right
13.334000000000001,-0.7963889437449407,0.36003952782236315,0.0013750984708228334,-5.7200216782584015,-0.8071390549230943,1.2761895147112072,0.08230265506018083,0.0850619384681812,0.6282189447605628,3,right
13.339,-0.7681287416204645,0.3332492174942582,0.016138266608796116,-5.777263299681571,-0.8578077679611644,1.2829509950993996,0.07987016428326078,0.0864276067209227,0.6186393076262799,3,right
13.34,-0.7452444200083688,0.3036774471663679,0.032073871432726775,-5.737246721792454,-0.8259603337461028,1.2780355611081595,0.08109819814014141,0.08583234757150329,0.623631659829662,3,right
13.343,-0.725864006739001,0.27353779522272575,0.04815578484915547,-5.756062063452698,-0.8382184434235003,1.2804900704978486,0.08303618968792795,0.0843582489170546,0.6306245845570553,3,right
13.344000000000001,-0.7051934278108614,0.24462238638221653,0.05872199722557469,-5.756011469629039,-0.8381080145337878,1.2804876875177644,0.0759937561378626,0.0892372599676345,0.6044215812600868,3,right
13.347000000000001,-0.6876754249117488,0.2183596204594187,0.06760303838249965,-5.742062379851715,-0.83640090002124,1.278278079979723,0.08879460848972665,0.0804722450587332,0.6522218257204018,3,right
13.347999999999999,-0.6706046181758285,0.19945825674442336,0.07719386134284838,-5.7650944954234795,-0.8314265066211577,1.282337887479924,0.07241543213823495,0.09166424292120273,0.5910207434167336,3,right
13.353,-0.6553494826389752,0.18601166419092646,0.08634341930355346,-5.738020234905347,-0.8461581533123024,1.2770965059128807,0.08606683440164942,0.08234491086352015,0.6420446454360305,3,right
13.353,-0.6411749823311874,0.1780454421019781,0.09313801585139966,-5.762623364136822,-0.8261805705176455,1.2822074752171668,0.08578594910833104,0.08250153120334322,0.640935096654624,3,right
13.357000000000001,-0.6242656748907686,0.1777109992432761,0.09750983883935799,-5.749768331666489,-0.8390888003944451,1.279406607839062,0.05946293252162512,0.100588507453691,0.5427469861511591,3,right
13.359000000000002,-0.6093911889431558,0.18155580571231622,0.09954914004933135,-5.739254924347906,-0.8507867083323755,1.2770556378554787,0.12405910294511155,0.0562424639120069,0.7837665614650309,3,right
13.362,-0.5917876767109136,0.19273067063146304,0.09868078117030037,-5.78363224238695,-0.7979525864796173,1.2871615697993355,0.016979812498415563,0.12974599249821364,0.38421970191730376,3,right
13.363,-0.5785128062900387,0.20151174900057606,0.09906414338730427,-5.702897754026431,-0.8975027333921469,1.268595032617263,0.15821854119912682,0.03279098215324821,0.9112241755483582,3,right
13.367,-0.5753592062647672,0.20505018497405847,0.09938315638897095,-5.8054829628826905,-0.768589793758911,1.292314253680461,0.751175148032871,-0.3742824053673041,3.1236571695250586,3,right
13.368,-0.5672546039798794,0.21965192972052108,0.09610498604625714,-5.720311192508147,-0.8766868474942535,1.2725651979390724,0.8924351997017179,-0.4712667682535159,3.6507245316751544,3,right
13.369000000000002,-0.5576696299333843,0.23983214509367956,0.08832534038476843,-5.722686234060577,-0.8738272798105915,1.2731069902666916,0.7853281561498323,-0.3977234534846923,3.251096426129704,3,right
13.373,-0.5531050682480798,0.256077499701542,0.07830899601439037,-5.884080199632495,-0.666704307531741,1.3106528562663664,0.8499321397610053,-0.44208585629450975,3.4921368946557623,3,right
13.373,-0.551384931706093,0.27256023497834336,0.07215335465463835,-5.487650908433148,-1.176048849742152,1.218399183050681,0.8236514521612143,-0.4240455959342222,3.394078059797873,3,right
13.377,-0.5517603480165958,0.2934043842102013,0.0645815774295725,-6.144658207051126,-0.33124591208806986,1.3713277548418201,0.8232566450811263,-0.42374929371828585,3.3926259406215706,3,right
13.379000000000001,-0.550414113544688,0.30757461560767607,0.05687611232276246,-5.278305107005794,-1.4457537260021467,1.169640356743372,0.8370896791444624,-0.4333002596180535,3.4441925941815446,3,right
13.379000000000001,-0.5493788404890386,0.31051779380389166,0.05513745216271568,-1.6432085069932911,-6.124696235932701,0.32315371012246263,0.8205067869195222,-0.42183843111287833,3.382386618972709,3,right
13.383,-0.5479136379596803,0.3218810341897474,0.04819847855299354,-0.7771975252227834,-7.239391343054615,0.121488702165603,0.8334379701161329,-0.43079261739440233,3.4305675062802234,3,right
13.384,-0.5447462003234138,0.3392746485986695,0.03703290617962876,-1.4335465158412533,-6.394267356641318,0.2743781959274463,0.8264726935195534,-0.4259776846206689,3.4046082331607064,3,right
13.387,-0.5438868989918482,0.35524932769066286,0.031853819064278095,-1.0379971093291331,-6.903954237883969,0.18216792014924868,0.8279939421974838,-0.42695700747315124,3.4103417671242866,3,right
13.388,-0.5433651104197454,0.3783494324187938,0.03249421642517103,-1.1985146992279572,-6.6966387915824175,0.2196856798999796,0.8300355133614736,-0.4285684640467881,3.4177733031540622,3,right
13.392999999999999,-0.5392080557315873,0.4032136722512224,0.036523924965052953,-1.2013696387980681,-6.6936157023713205,0.2202154855440685,0.8265032467898161,-0.4257818914611821,3.404914368131358,3,right
13.394,-0.5306848451128099,0.42351660816831493,0.03432956613458542,-1.1166352491029086,-6.8024097192122905,0.20054163241525474,0.8299186923856003,-0.4285703858270312,3.4172644920186026,3,right
13.395999999999999,-0.5214687572690494,0.4365279145373213,0.021696793087528476,-1.217379096620874,-6.67222497381797,0.22411349325776497,0.8275743195383819,-0.4266071559922555,3.408830992262075,3,right
13.397,-0.5192075412521167,0.4421913957391521,0.005219743181714312,-1.1400497188951375,-6.773396909312274,0.20574513355506158,0.8284465064009292,-0.42720293753362043,3.412087974593397,3,right
13.402000000000001,-0.5228136440647193,0.44705544673612696,-0.012463408292225036,-1.17999272023408,-6.719182159876408,0.2156674440117063,0.8290812538887863,-0.428294731271434,3.413874306092745,3,right
13.402999999999999,-0.5271642356068971,0.45103730526416574,-0.027809725527335547,-1.173414729659366,-6.73107403618169,0.21337444156456448,0.8271492012386286,-0.4254688766263668,3.4079957302848376,3,right
