time,gFx,gFy,gFz,ax,ay,az,wx,wy,wz,subject_number,foot
1.743,0.16390899829618671,1.0109240856480919,-0.018746073362271968,-0.24472220764608188,0.027869114507800708,-0.39597484193701527,-0.23337767937014542,0.004564085457711277,0.009988241148202086,3,left
1.749,0.15991419785423977,1.0123346489958625,-0.021397216464175063,-0.2493957847812885,0.025458514281558074,-0.37092262099243634,-0.21953266236474478,0.008971741386661654,0.022551838639342285,3,left
1.749,0.15507993924753938,1.0134445759111839,-0.021336178134458886,-0.2432280917533082,0.028639127946509607,-0.40396508658467756,-0.2278827982810556,0.006314144681265604,0.014974474726885654,3,left
1.75,0.15297657025862474,1.0145908965442967,-0.021300219097884127,-0.21747000923883286,0.04196083271026106,-0.542733080521409,-0.22448666463703076,0.007398557128518505,0.018058767093524053,3,left
1.751,0.14860033751526455,1.0166870801333514,-0.02313857939974772,-0.2113103988709057,0.045140627452193285,-0.5757816659646535,-0.22443489810140027,0.00740254554836673,0.01809811553183021,3,left
1.751,0.14038875249372162,1.0195923068849142,-0.0238035942100613,-0.21596639027628844,0.04273512941731754,-0.5507217899577331,-0.22622323448976228,0.006858181357350333,0.01648972587970266,3,left
1.758,0.13302690694927355,1.0214225156766013,-0.02213601888907904,-0.21318535663469806,0.0441740957277473,-0.565840926921481,-0.22407992793213288,0.007505311147595405,0.018414711045968084,3,left
1.7590000000000001,0.12283764024225308,1.0230792870644256,-0.02283750397234261,-0.21427017047609828,0.04360994620885007,-0.5596825196601023,-0.22575095345916368,0.007008197942404967,0.016917928477086147,3,left
1.761,0.1119849847456347,1.023132897591145,-0.023426602071578213,-0.21436698344543412,0.043564297306366274,-0.5596066912995102,-0.22485095152426093,0.007279859132364629,0.017726371593840565,3,left
1.7619999999999998,0.10315449380227411,1.023077218618472,-0.0224969072261873,-0.21368891464006076,0.04391078189284063,-0.5628211303313002,-0.22504785108472442,0.007186723062795577,0.017530514939530936,3,left
1.767,0.09250697279806738,1.0232678637606318,-0.02206206029387489,-0.21444066881814028,0.043523988894564075,-0.5589627048753372,-0.22531051128104662,0.0072005729480192305,0.017346909616044355,3,left
1.767,0.080847697135112,1.0232650623528148,-0.02245095529636842,-0.21394704457087466,0.04378167589462571,-0.5619787861279839,-0.22485621189142568,0.007177428989168023,0.017665033024155424,3,left
1.771,0.07017462542641677,1.0250589868830817,-0.02347252274258842,-0.21403740429949286,0.043726426664661665,-0.5603315818944928,-0.22529481758861766,0.007243640975708378,0.017382460628478986,3,left
1.771,0.059631678659774034,1.0272672935443734,-0.02160392427752556,-0.21433179601653965,0.04358890413533212,-0.560745065939005,-0.22499410844739937,0.007175288783592555,0.01756334187036543,3,left
1.776,0.04932932166422016,1.0303089382199069,-0.019745344222174048,-0.2138065066263907,0.043842577244295355,-0.5611227641461123,-0.2251068424687136,0.007137881778658574,0.01746016981316231,3,left
1.776,0.039439032878672384,1.0332871377439874,-0.01896382418900494,-0.21429962064603414,0.04360181488841483,-0.5604201201455523,-0.22518461661645228,0.007417776051947591,0.017560438501970574,3,left
1.78,0.028679151413554763,1.036660999603065,-0.017110860951817332,-0.2141731731797786,0.04366739355797312,-0.5611186428018611,-0.22494468789306313,0.006797984710214015,0.017387794944424786,3,left
1.781,0.0185893467869159,1.0415157827036852,-0.018238337215488357,-0.2136017886729351,0.043936441305084735,-0.5605736994092438,-0.2252881489746688,0.007727202188701227,0.017658456418481766,3,left
1.786,0.009281438594246641,1.045546866509666,-0.019127416324503453,-0.2150678371832725,0.04323849563617531,-0.5609541954786532,-0.22494119993336564,0.00673052910827825,0.017352524725649878,3,left
1.787,-0.001200716769406617,1.049646555384442,-0.017034838307413088,-0.21282455663556848,0.044308989599101005,-0.5606912690877345,-0.225141862276451,0.007306336941351714,0.017529103460502134,3,left
1.791,-0.010446679605512479,1.0525411963569584,-0.015819871904412794,-0.21523618631043107,0.043157069028784384,-0.5608599092480023,-0.22527233325256177,0.00781626427325471,0.017719922311942783,3,left
1.7919999999999998,-0.019408752136938063,1.0540374151079472,-0.015386186436671166,-0.2138295959113805,0.04382991671922673,-0.5608375129779553,-0.22464633149519975,0.005602154754518729,0.0169347918840568,3,left
1.795,-0.030358269078565335,1.0571664662784914,-0.014751943527916577,-0.21265800187443287,0.044387320176130694,-0.5605849227221882,-0.2258099668947066,0.009707358613048719,0.01838831917782372,3,left
1.796,-0.03854532917702149,1.0602088283872875,-0.013270518313903395,-0.21786032580701198,0.0419060803934448,-0.561259713041063,-0.2243193659780035,0.004434961661160917,0.0165187673764963,3,left
1.8,-0.04438003704746766,1.0600709469491751,-0.011238763066193947,-0.20819574115550046,0.046517540989965314,-0.5601104431967232,-0.22556212019558158,0.008837120549448758,0.018080884184425487,3,left
1.801,-0.053748420410677636,1.0593619604547821,-0.011024521040339082,-0.22061037066834865,0.04059244635293808,-0.5615488076299413,-0.22552419259358825,0.008719427350342202,0.018043104569911414,3,left
1.805,-0.06190979038550543,1.060109062133363,-0.01163720266442276,-0.21024594429612858,0.045540855036975816,-0.5603646387126672,-0.22317309835409047,0.00031922629524613194,0.015045851523955645,3,left
1.806,-0.06801193352648162,1.0590304756104643,-0.010586660725171414,-0.21052454861986863,0.04540380155214173,-0.5603701330666929,-0.22895492177811438,0.020964770324287972,0.02240918405235668,3,left
1.811,-0.0781688768670047,1.058376683162459,-0.010080180018971305,-0.2302906585107164,0.03597623009650236,-0.5626979118409359,-0.21936872711226219,-0.013266599473410565,0.010199724457702331,3,left
1.8130000000000002,-0.085032411380631,1.0595173045491453,-0.010789417285181041,-0.1817147973645617,0.059153086243239034,-0.5570167051231709,-0.2320121563391745,0.031884846697615446,0.02630685654832045,3,left
1.8130000000000002,-0.08766371297243017,1.058960633826529,-0.010589502840739883,-0.2622475054301728,0.020722142747008176,-0.5664187147259305,-0.2850874157185741,0.22141479313892,0.09398900644737627,3,left
1.817,-0.09074353672713514,1.0584861044611629,-0.010078453611462802,-0.15603646374573985,0.07141441876069954,-0.5540275522402808,-0.2977329805671966,0.2665676722312951,0.11011346551100024,3,left
1.817,-0.09370845912920453,1.0581654772207023,-0.00962855860693012,0.28984505245262043,0.28418439732921685,-0.5019685628515085,-0.28814108169049524,0.2323335214909336,0.09786725348111963,3,left
1.818,-0.10253722122057563,1.057362138041547,-0.009356221327942076,0.3960252769830731,0.33488099370331126,-0.489591984639047,-0.29393404659835026,0.2529828347585137,0.10528723312835445,3,left
1.82,-0.11272611034354887,1.058035618858054,-0.008104833016840266,0.3155403012071002,0.2964430694713175,-0.4989688299669166,-0.29156583575476347,0.24457879001999464,0.10222068149357888,3,left
1.821,-0.11998071005910113,1.0578600116596286,-0.006658249381621972,0.3640778732372362,0.3196263170929963,-0.4933148639500291,-0.2915481818017938,0.24446336367955576,0.10224416923052669,3,left
1.824,-0.1291257430833658,1.057019561019481,-0.006960278661943895,0.3443062439511033,0.3101974091781471,-0.495626452376212,-0.2927751211350949,0.24886707858987042,0.10378876266025056,3,left
1.825,-0.1377303222042191,1.0580508615384225,-0.005868370329930009,0.3441097158676906,0.3100519798363438,-0.4956209986585168,-0.2912837150416543,0.24358712889083556,0.10184882628761399,3,left
1.83,-0.146525803900645,1.059020752230411,-0.004400459027684148,0.35430025626695655,0.31502140607522533,-0.4944891828075312,-0.2924784346896194,0.24770673915783348,0.10349582034457548,3,left
1.831,-0.15565427496856624,1.0588596200235765,-0.0018893986434493555,0.3421289905361901,0.3090641296204518,-0.4958296263108781,-0.2917823039622684,0.24547342929109064,0.10239533002603501,3,left
1.8359999999999999,-0.1631870016522196,1.0590203379950758,0.004262603734911592,0.35155818390390586,0.3137103729960269,-0.4948076378629109,-0.2920168292731133,0.24600101501573998,0.10295545208010712,3,left
1.8359999999999999,-0.17266840602776912,1.0601224254547588,0.008107397613554652,0.3464473318998388,0.3112086146238131,-0.4953705774226208,-0.29210739631446375,0.24657148726579517,0.1028628265467148,3,left
1.839,-0.1833839765594694,1.0604341257980288,0.011113026990020421,0.34784111823664277,0.3117492775231907,-0.4951412224017727,-0.2918220380961809,0.24555471005181745,0.10249726078892979,3,left
1.84,-0.19254476899007444,1.0593883514359232,0.01524397877710307,0.3485714937636536,0.3124979901034103,-0.4952701254264095,-0.29222631789323306,0.24653978617947006,0.10339841456064011,3,left
1.844,-0.20205252851568056,1.0600246893440943,0.017492272247887033,0.3473012115088048,0.3112030413636413,-0.4950499241281639,-0.29173371469010734,0.2458287695920583,0.10188878871298246,3,left
1.844,-0.214018153914629,1.0624154377626684,0.022249950603959272,0.34816941212247005,0.3124621252242852,-0.4954004490109955,-0.2922798697054787,0.2462154893595213,0.10390034258933986,3,left
1.849,-0.22554982339443944,1.0622092486046602,0.027303204103741936,0.347761615463191,0.311594251121621,-0.495087947480097,-0.2917807856292737,0.24610018527066715,0.10186185722048324,3,left
1.85,-0.23444721328269097,1.0613810661022165,0.030665350696186085,0.348429452492817,0.3119069517035715,-0.4950067910777877,-0.2920267163287246,0.24601510290007897,0.10298581437167074,3,left
1.854,-0.2443651485536887,1.0637135784537235,0.03609829558361743,0.3463928843985199,0.3121841392759652,-0.4959125185850859,-0.2923280924600272,0.246261386232744,0.10406788759893165,3,left
1.854,-0.2558555761318695,1.0650433514470494,0.041899321403139164,0.3506849438994006,0.3113779932481012,-0.4938849964480195,-0.29119779226748466,0.2458582336708366,0.09957119406229843,3,left
1.861,-0.26704758717316224,1.0660854149605026,0.049606023643026534,0.3441979769071989,0.31254046304195304,-0.4969194512061386,-0.29323894076905943,0.24640904737224611,0.10784086513091622,3,left
1.8619999999999999,-0.27725601636860653,1.0685590995446934,0.0580414399375577,0.3512247095149609,0.3113545089087947,-0.49367167533302353,-0.2906424176601492,0.24578936511848432,0.09725269983104344,3,left
1.864,-0.2855222770502377,1.0699962769782552,0.06401266461579319,0.34716589640475615,0.31204029687564516,-0.4955480812168088,-0.2927996827042165,0.24626881326658745,0.10607982835412069,3,left
1.864,-0.2920059565393955,1.0737326026662743,0.07224786572621228,0.34341965509822736,0.3125134578915012,-0.4971944911703979,-0.29275034346106793,0.24628953982101295,0.10585035134060977,3,left
1.869,-0.2957931483623121,1.0779987343724708,0.08208209991713496,0.35949453071044574,0.3102899889849553,-0.4900264753206615,-0.28862009361688656,0.24531213704177124,0.08900236603552861,3,left
1.87,-0.2967296119411527,1.080168514633614,0.09059842248476119,0.32969963162903504,0.3144209501782097,-0.5033177493617341,-0.29875551377492837,0.24765363441605487,0.1303963228770143,3,left
1.8730000000000002,-0.29558616857760023,1.0851765824431299,0.09988085762470932,0.36797788530570896,0.30912650255787205,-0.48624869103018015,-0.28195828951527663,0.2438014008583858,0.06176961507532923,3,left
1.874,-0.2947974901062643,1.0900842312360481,0.10473812555558595,0.33601286509076345,0.3135418861852857,-0.5004999872331072,-0.3041099395015934,0.24886622994273738,0.15228705268765802,3,left
1.879,-0.29396889380200975,1.0904283062419522,0.10598865217220971,0.3368491375198417,0.3134105855162944,-0.5001169178713393,-0.3970905273081612,0.27013738743564497,0.53221063417759,3,left
1.88,-0.2904979066285403,1.090787278983209,0.11284942741823176,0.39791937446215064,0.3050425979415675,-0.4729307150339075,-0.41924015688899546,0.27518797831162745,0.6227359685426364,3,left
1.881,-0.28457115072771816,1.0942837639843896,0.12249878374006791,0.2478391225270311,0.3256186110612502,-0.5397491682819675,-0.40244744142088584,0.27136282425338043,0.5540986388429389,3,left
1.883,-0.2738054597983385,1.0998397510938194,0.13087414465860053,0.49668341856289255,0.2915034853813607,-0.4289612691474374,-0.4125754653700558,0.2736688284709843,0.5954967069550513,3,left
1.8840000000000001,-0.2663590647320345,1.1040583343975414,0.13473515624278298,0.16844072398998067,0.33649962691789814,-0.5750890344568067,-0.40845492657690974,0.27272557797120733,0.5786618874605893,3,left
1.885,-0.26512722354354157,1.104817208276013,0.13619266950377518,-1.2098146069289657,0.5253982973408515,-1.1884137860970194,-0.40839602425893506,0.27272977427496503,0.5783939443542168,3,left
1.8880000000000001,-0.25492140797660656,1.1076215194603853,0.14446350903522415,-1.5381666589797849,0.5704041463211927,-1.3345293320413405,-0.41055792900333254,0.2731873271161044,0.5872843432338648,3,left
1.889,-0.23793201034918696,1.1135382693351978,0.1540437308833929,-1.289090500539582,0.5362649624950984,-1.2237687406667737,-0.4079681166455389,0.27264640081146674,0.576623031869497,3,left
1.893,-0.22159646356427914,1.115115535583263,0.15980403911391994,-1.4395279317353493,0.5568849944969103,-1.2905423247598777,-0.4099853296534579,0.2730574760357856,0.5849431014898183,3,left
1.893,-0.20183925672968817,1.1150812797965868,0.16606741571486833,-1.3780210316223767,0.5484528609734634,-1.2634151366904631,-0.4088977456276907,0.27283037888151146,0.5804658056936172,3,left
1.8980000000000001,-0.1808744423236643,1.1175972310741629,0.1745916705039527,-1.3775703916073454,0.548393451967286,-1.2629738108731936,-0.4091449291308758,0.27292878043744445,0.5814107272739302,3,left
1.899,-0.16047052440295928,1.1172636934447597,0.18364132053676996,-1.4094259421972244,0.5527586969161113,-1.277253617819079,-0.40943687499099535,0.27286047491665966,0.5828133616250731,3,left
1.903,-0.13831831177642032,1.1156820344792227,0.18834373504045335,-1.3707028134523493,0.5474480552131324,-1.2602248866223191,-0.4089316359741706,0.2729774183188871,0.5803879411014351,3,left
1.9040000000000001,-0.1162577282724734,1.1138286281487015,0.19081666807658182,-1.4017181612389886,0.5517087808486538,-1.273371160864007,-0.4094074845625084,0.27280114049847104,0.5827749899361454,3,left
1.9080000000000001,-0.09560464779427943,1.1099686831893774,0.19451539585180755,-1.3836555037852145,0.549216326992951,-1.2664625213605176,-0.40908749042265735,0.2729551722877082,0.5811146529386544,3,left
1.9080000000000001,-0.07499914378603911,1.1095117726274615,0.19604267070306636,-1.3897277327223907,0.5500692382310607,-1.2677792468635851,-0.40922463926498365,0.27298847220809563,0.5816720092279696,3,left
1.913,-0.054015369094219105,1.1092865441996165,0.19540576335432006,-1.392093840130676,0.5503770874630829,-1.2699364855709505,-0.40923592400180486,0.27256983429217563,0.5823723385719013,3,left
1.9140000000000001,-0.033077006470217135,1.1062739387475276,0.19424954207655468,-1.384685041034944,0.5493612948964078,-1.2666492134383376,-0.4091346869513416,0.2735093462330822,0.580463540617832,3,left
1.9169999999999998,-0.013189935642629564,1.1058381097171193,0.1925864332065617,-1.395152692196207,0.5508271188158317,-1.2692590125757195,-0.4092681623748843,0.27210373279705147,0.5832394199988787,3,left
1.9180000000000001,0.008079282071798574,1.1056854997438108,0.19067996287853894,-1.3824296581935056,0.5490124146713243,-1.2682783230502062,-0.40914915946971375,0.2736075013923478,0.5803753836294165,3,left
1.922,0.032133526934642144,1.1030264006450206,0.18636964866829514,-1.3965098905233986,0.5510478432284167,-1.2675607754254048,-0.4092181306006983,0.27273858878337565,0.5820311853865785,3,left
1.922,0.05485475145938279,1.1000548077726255,0.17994249860179012,-1.3836583380209322,0.5491740380976855,-1.2692860129947303,-0.4092261131756808,0.27197809033795695,0.5832478556037031,3,left
1.9269999999999998,0.07562528718373346,1.0974492309398152,0.17619820477483106,-1.3899827229996546,0.5501054334828615,-1.2677992940008143,-0.40912464109446883,0.27529177417662887,0.5776505477293514,3,left
1.9280000000000002,0.0989751787996685,1.0937763373740683,0.17590024513622715,-1.3977525772810626,0.5512271750685742,-1.267548753014138,-0.40931603791532856,0.2691470111463244,0.5880442341642221,3,left
1.931,0.12547327285404838,1.088464438894159,0.17447307130463666,-1.368641412805856,0.5469909644278481,-1.2708216930489673,-0.4090746621803366,0.27703843663996885,0.5747158647760483,3,left
1.932,0.14873241595052805,1.0845173615391324,0.1720718475044844,-1.4212022812736493,0.5546506287958466,-1.264117892164363,-0.40927406224218216,0.2704494119800443,0.5858348851827968,3,left
1.936,0.1730858152691852,1.0816975739160828,0.1714558796944096,-1.3543432659984393,0.5449027896614647,-1.2730065104763082,-0.40926362532427996,0.27062753810556506,0.5855122080469526,3,left
1.9369999999999998,0.1983605395432485,1.0775793619914067,0.16948267243660797,-1.4098925983458441,0.5530026369135936,-1.2654673369173175,-0.4089056144376916,0.28319425645720236,0.5644039871921411,3,left
1.9409999999999998,0.2175409291231673,1.0748464976657912,0.1669546698426358,-1.4086164994877781,0.5528178628163007,-1.2657710060182499,-0.4097889186343452,0.25230576494635526,0.6163013046328,3,left
1.942,0.23915806606358958,1.0741387076326203,0.16688428707686415,-1.302277653173069,0.5373079780169663,-1.279964727899098,-0.4083252688195321,0.30352170565215275,0.5302554460455152,3,left
1.9469999999999998,0.25400636947563027,1.073158198565862,0.16597044156627702,-1.5632393755166396,0.5753670567138289,-1.2449008029929463,-0.4102540943114033,0.23596684507634025,0.6437435474853743,3,left
1.9469999999999998,0.260686027859349,1.072655100138113,0.16259187025260596,-1.130743107632653,0.5122944789264532,-1.3031205600785265,-0.4183464624509436,-0.047566791304901004,1.1200588161131384,3,left
1.9480000000000002,0.2719413831533192,1.0722390859055762,0.1590276588085855,-1.7011160485276031,0.5954698258639634,-1.2262925401468339,-0.4202735363512934,-0.11512100889826242,1.2335384919060575,3,left
1.9509999999999998,0.2793077310301755,1.0717425811112475,0.15596308671868597,-4.095090532941514,0.9446337202011242,-0.9037092334903004,-0.4188116167294977,-0.06390940204162532,1.14750546333283,3,left
1.952,0.29131399298964733,1.0727046420282584,0.1507566023336107,-4.665428296228762,1.0277957519256273,-0.8268692708328966,-0.41969622583262933,-0.09478527158942768,1.1993930927596517,3,left
1.952,0.3107139692395503,1.0742306941689606,0.14338495347025787,-4.2330326857256235,0.9647461601414126,-0.8851298025409319,-0.41933072441658265,-0.08224281252456543,1.1782817537307886,3,left
1.959,0.3243232178982377,1.0755273487516066,0.13803784550111664,-4.493787161033396,1.00278032798615,-0.8499721344417109,-0.41933559985989044,-0.08203023772687115,1.1779839041223346,3,left
1.959,0.3364723242733905,1.0754508081176724,0.1344503790928864,-4.38777917026141,0.9872853086067725,-0.8643263880873367,-0.41951368902544384,-0.08865444539485809,1.1890528205767874,3,left
1.962,0.3468753316706473,1.0750103107625941,0.12878699841185434,-4.38609656214215,0.9871104043861477,-0.8644205294144196,-0.419292730454323,-0.08074573373797217,1.1757924651100227,3,left
1.962,0.3534268933321919,1.0750925694779059,0.12379932267830107,-4.441984272551985,0.9951625919173467,-0.8570729951788905,-0.41947681018774763,-0.08686499680534374,1.186123152962446,3,left
1.966,0.36062271936494955,1.070870819890684,0.12193744200396014,-4.375093658589597,0.9855040648463606,-0.8659066515327357,-0.4193543675031627,-0.08364210098740546,1.1805449866485054,3,left
1.9669999999999999,0.36428763145798526,1.0650455735726663,0.11937890652040203,-4.4271011573556365,0.9930474774101821,-0.8589742717447442,-0.41942398442199436,-0.08424079975448365,1.1818333935466636,3,left
1.9709999999999999,0.36313999320652257,1.061903440866604,0.11404984519392417,-4.399323583277075,0.9889136403571323,-0.8628757287701032,-0.4193901206050149,-0.0853143240184403,1.1832898736551152,3,left
1.972,0.36405605416296416,1.0574735466731977,0.10799963718364777,-4.405045326652142,0.9900136919903709,-0.8616007203844775,-0.4193937418249595,-0.0836382273492843,1.1807508391793706,3,left
1.976,0.363405509243093,1.0529950390796703,0.10412515532744983,-4.413622382488299,0.9908075252998524,-0.8613112948500021,-0.4194348198285967,-0.08506351463255934,1.1831475682008086,3,left
1.9769999999999999,0.3588844720950477,1.0493342396147294,0.10024691795285501,-4.399362179403414,0.9892883925664673,-0.862170492747371,-0.419320378413763,-0.08439521126553849,1.1815116578402,3,left
1.982,0.35553419783462237,1.04410534953151,0.09710624014383493,-4.41253867991542,0.9907632634675675,-0.8612415594623254,-0.4195315939065325,-0.08415546056291677,1.1822819554943322,3,left
1.983,0.35232627663073635,1.0387958804273576,0.09767292319097114,-4.404475641239554,0.9895833798573063,-0.862336081502308,-0.41923416691696835,-0.08513542549774639,1.182178055131585,3,left
1.986,0.3487044564152065,1.0330742927024432,0.10039837717937065,-4.405906777063699,0.9906210140483839,-0.8605710309015026,-0.41954483740945325,-0.08386304336216806,1.1819064416231053,3,left
1.986,0.3449316750578332,1.025859628036534,0.10615284947570537,-4.41069210831232,0.9894245941128188,-0.8635185798834838,-0.41936951586743043,-0.08475093573474879,1.1823196503294768,3,left
1.992,0.3432932689181163,1.0164295581597758,0.11223330280062219,-4.401624405484371,0.9909281606261594,-0.8593814501746414,-0.419205377394811,-0.08504152571012571,1.1818790573364164,3,left
1.993,0.3435855995548292,1.0065390223640294,0.11637346008444296,-4.411649193871599,0.9893775370591673,-0.8637433679134471,-0.4198998697538697,-0.08289381556019998,1.182337522886464,3,left
1.996,0.34199915808975845,0.9994312534098131,0.1193816563656297,-4.405290846091836,0.9901910759925434,-0.8612993557151807,-0.4186173609573731,-0.08708374096394111,1.1818342737213012,3,left
1.9969999999999999,0.34053993889684364,0.9926926799434584,0.11967664265346431,-4.4026163652242,0.9913012219164121,-0.8588142577429294,-0.42026249817978334,-0.08162904576509131,1.1823558119673296,3,left
2.001,0.34004816306669183,0.9870379831947308,0.11894416639389004,-4.418912885728368,0.9871114101949435,-0.8690712944721225,-0.4188892909231988,-0.08621448209502941,1.1819724468692006,3,left
2.002,0.3404620194883695,0.9827199594560845,0.11748553780173068,-4.387864420125781,0.9947613261478095,-0.850160903153062,-0.4189265869944252,-0.08604163359893793,1.1819032754571857,3,left
2.005,0.340711986853169,0.9770256812017959,0.11640055723656963,-4.427914446669344,0.9849646418880128,-0.8744182374105178,-0.4215451233016027,-0.077427716985169,1.1828464731647386,3,left
2.005,0.341157885640343,0.9735840131952428,0.11631315549612276,-4.394409151266794,0.9931338699943338,-0.854176286824093,-0.41510793339570584,-0.09867026712942648,1.1806419614708266,3,left
2.01,0.3414658904407976,0.9703293179771001,0.11119217282160607,-4.395591805245454,0.9929515450652749,-0.8546872413067458,-0.4257828875583698,-0.06342234271189351,1.1842560416786128,3,left
2.01,0.3388378406045006,0.9670533481337493,0.10694292500046448,-4.45856277114253,0.9772441944735768,-0.8934075471237907,-0.4117000622840271,-0.10992414970247613,1.1795013877278189,3,left
2.016,0.33874151372017286,0.9664092149051395,0.10789321822401172,-4.303474519949513,1.0158081417067837,-0.7982795063365103,-0.35260201404920327,-0.3050754378344965,1.159501158036853,3,left
2.017,0.33662913719123655,0.9614079906561771,0.09986312575451087,-4.5606847306597755,0.9518749004887094,-0.9559975209817473,-0.3385117466827534,-0.3515799455668589,1.1547393789578049,3,left
2.017,0.32973339306310523,0.9560162888473388,0.08946855842045665,-4.221440053702086,1.0362068294983995,-0.7479659249778865,-0.3491981958492183,-0.31632296325445486,1.1583564716379957,3,left
2.02,0.32851105737736574,0.9556024875832398,0.0876016455396879,-2.7976378195485627,1.3901887337956758,0.1252626323018863,-0.3427518726222528,-0.3375861354675087,1.1561715268705515,3,left
2.021,0.32698601404848715,0.9521871845834199,0.08113738533530783,-2.458464223784989,1.4745349150209748,0.33330480592344625,-0.3453688426899237,-0.32893710596989545,1.1570548586162177,3,left
2.021,0.3186798547286883,0.9440257020342073,0.07261069483696364,-2.7155975279824527,1.4105862558231577,0.1755753466005368,-0.34542630569684774,-0.32880987446848964,1.1570915857796222,3,left
2.025,0.30668538865236084,0.936364623795956,0.06798070669969652,-2.5604800319821086,1.4491443313305652,0.2706990361386044,-0.34401073483221933,-0.3333538698681999,1.1565747254375043,3,left
2.025,0.2936505710632633,0.930426145525129,0.06280660206408238,-2.6237060899481843,1.433488144679322,0.23201668925884505,-0.34571485652884226,-0.32791050709472,1.1572062877784859,3,left
2.031,0.2811397352378449,0.9237340915743553,0.06183599437926882,-2.6243398750153983,1.4331957438127576,0.23142405948214356,-0.3443756997622295,-0.33215112943082725,1.1566981044028437,3,left
2.032,0.2656663704721608,0.9172076295361629,0.06334301054150951,-2.591621551159753,1.4415227906792454,0.25178311734637737,-0.34509143094612393,-0.32986560271403575,1.1569640755653952,3,left
2.035,0.2501665237115443,0.9117968791540334,0.064883025351143,-2.6308879121577196,1.4315689616126668,0.2274091668336971,-0.34498254350520197,-0.33037978385557587,1.1569749229046558,3,left
2.035,0.23613709217569548,0.9053170564706696,0.06944330204120522,-2.600177595094748,1.4392866645454863,0.24636987933308307,-0.3446418276053942,-0.33100751732330647,1.1567060389130706,3,left
2.04,0.22087333835323608,0.8975687626728515,0.07625631485587689,-2.617147032192514,1.4352318366106973,0.2362129744608035,-0.34523000204942045,-0.32992155669521805,1.157169786165818,3,left
2.04,0.20760374941394918,0.8910436612487972,0.08489998112506915,-2.6123048573628047,1.4359072344604122,0.23837550667536522,-0.34460004131508326,-0.33095139908401694,1.1566317032409092,3,left
2.044,0.19507559112226483,0.8870269904741122,0.09204125532570565,-2.6096815609897996,1.4374698215049095,0.2413753206695099,-0.3450644311769901,-0.3302550766057193,1.157047835374599,3,left
2.045,0.1846221198316355,0.8814628543134213,0.09904854985372377,-2.6151224797431034,1.434999971694936,0.23633128683108295,-0.34497960425829,-0.33054277402701837,1.1570216570846907,3,left
2.049,0.17855907121661213,0.8745302670512094,0.10738831398827196,-2.609709295829166,1.4372363245512636,0.24101224426143414,-0.34448819976131523,-0.33061193651543697,1.1563741781175463,3,left
2.05,0.17316221295390488,0.8681370054652984,0.11273433899595586,-2.6145271108875603,1.4360465850083979,0.23806951436810125,-0.34565906235399413,-0.33029553089292263,1.1578697161572307,3,left
2.0540000000000003,0.1697899064878305,0.8585255363995542,0.11834590077784085,-2.609176616787601,1.435724017185688,0.23882542721348252,-0.34392358532859435,-0.33073067968884073,1.155642704820682,3,left
2.055,0.1686364108524317,0.8480605102579638,0.12514004634334344,-2.616612011142176,1.4376523750118517,0.24003716963256225,-0.3457587490500366,-0.3303156856810959,1.1580113567328651,3,left
2.06,0.1696026750938037,0.8388342667542701,0.1296364295066434,-2.606667241930464,1.434490473547743,0.2375254924754807,-0.344698391450292,-0.3305559402173932,1.1566433883571974,3,left
2.061,0.17483187431508318,0.8267770729191153,0.1309798750593742,-2.617055022098771,1.4379139816100646,0.2403341129230259,-0.34381665344898715,-0.33065487977754826,1.1554730621352818,3,left
2.064,0.1821487611506078,0.8137992278080016,0.1303815997747061,-2.6113903661781084,1.4358524533661627,0.23850422409958308,-0.3477169907234401,-0.3300819736129734,1.1606047136052962,3,left
2.065,0.19104276172718232,0.8012433347040636,0.12977231916142612,-2.6048355573273474,1.4344895100087265,0.23795244880151348,-0.3404820954075215,-0.3311512754991841,1.1510892168007008,3,left
2.069,0.2007166918867157,0.7856101923207217,0.12480531753341878,-2.6307863661332913,1.4411315583138842,0.24204613523312116,-0.3497689110490556,-0.329787350612085,1.1633047570925046,3,left
2.07,0.20815264382229617,0.7700005572445964,0.11731745826636766,-2.583153942159079,1.4286923600592782,0.23415130074588597,-0.3420176648587985,-0.33092175006155067,1.1531098247287659,3,left
2.075,0.2137621101549474,0.75636937878265,0.11291192080823698,-2.644205853646911,1.4446911464209449,0.24435670737278067,-0.34222950805247465,-0.33088006605631837,1.1533804650114594,3,left
2.076,0.2188283189815034,0.7433556225440594,0.10809369635834665,-2.5932809971447526,1.4313252311864808,0.23580909146838724,-0.3569982230560739,-0.3287646049494636,1.1728306759265201,3,left
2.079,0.2238909564094522,0.7319114946142157,0.10264426494806073,-2.594488449352199,1.431725738962606,0.2361462806352887,-0.3206987628429955,-0.33397194445600153,1.125036643973771,3,left
2.08,0.22895685190320117,0.7202837420664201,0.09920940443646464,-2.692153827096562,1.4570808607960672,0.2520978841963159,-0.3808825172718302,-0.32533939077519325,1.2042713169390948,3,left
2.083,0.2317616623246862,0.7129749098329825,0.09791093753444813,-2.4523043704489513,1.3947194089984765,0.21276585248659288,-0.30150344595397016,-0.33672231564792643,1.0997714530545197,3,left
2.084,0.23341671977199624,0.7106909767830669,0.09732106748806088,-2.849935916212008,1.4981228887059257,0.27801270519606314,0.03170487813440542,-0.3844791114960299,0.6610232705670094,3,left
2.085,0.23553130760423402,0.706487410737868,0.0960841319466678,-2.325462855314419,1.361742808303147,0.19194922506298234,0.11107920542653864,-0.39585697819327814,0.5565404043867518,3,left
2.088,0.2366004110175502,0.7042582564118862,0.09586164980113498,-0.12374683877320936,0.7893471296058869,-0.1691525668625237,0.05090122253655588,-0.3872320092359253,0.6357564744509084,3,left
2.089,0.23814800077648698,0.7034424189374815,0.09597224522465962,0.4007590262901773,0.6530042684298936,-0.25520581705518386,0.087200372195871,-0.39243394901884576,0.5879562007219201,3,left
2.089,0.23938854525736458,0.7004452410839862,0.0958773326420619,0.0030845738132791456,0.7563456457527223,-0.18996777836144224,0.07241929620627888,-0.3903157577639318,0.6074658626075574,3,left
2.093,0.24071929237642273,0.7006076206150966,0.09721948174235245,0.24294679493929755,0.6940462135255933,-0.22931200372340904,0.0722371655931495,-0.3902902516738592,0.6076075500449137,3,left
2.094,0.24448210784798072,0.7032062603410616,0.10022097301837135,0.14534500348110674,0.7193754776904673,-0.21330722625795584,0.0799433148973249,-0.39139320577800385,0.5975983398175224,3,left
2.0980000000000003,0.2478840501494297,0.7055925937618435,0.10470301079833547,0.14396456530235896,0.7197251083957326,-0.21307345095240582,0.07070452309413083,-0.3900708988478464,0.6096279029140661,3,left
2.0980000000000003,0.24977794802572206,0.7090087069927731,0.10932049460086485,0.19516640970296256,0.7065174201797935,-0.2214815967070098,0.07791290899577692,-0.3911031063585266,0.6001945770587915,3,left
2.104,0.2510532260213012,0.712691689422877,0.1124859304073963,0.13380249813098466,0.7222521149772876,-0.21140407494212282,0.07398467068937419,-0.3905385606529711,0.6054814929218519,3,left
2.105,0.25289199137027313,0.7162922966805743,0.11350821704218939,0.18163673083846718,0.7101247063243357,-0.2192641545519592,0.07497922951496258,-0.3906864287591413,0.6038033857988909,3,left
2.108,0.25732071039960525,0.7193591967762576,0.11486269892296248,0.15579901614502364,0.716537634435241,-0.2150135844998254,0.07583216888751473,-0.39079931826869896,0.6033146766660106,3,left
2.109,0.2627698434854808,0.722936639683423,0.11692662009217944,0.16172319094200524,0.7151285171945712,-0.21598976006867132,0.07426538595272328,-0.3905863485051012,0.6045996584008932,3,left
2.113,0.2641856835247238,0.727321580510609,0.11602441484355887,0.16862561435857049,0.7135916552095143,-0.21713434298569018,0.0757662476481803,-0.3907921605284399,0.6032434688925089,3,left
2.114,0.2634590033926769,0.7297936604836921,0.11385429049145333,0.15655832279206533,0.7158987692183396,-0.21511798330734083,0.07464081819044208,-0.39063084147423155,0.6047309616570067,3,left
2.119,0.26272787530636826,0.7349629616288464,0.11098116734294201,0.16808167190290266,0.7143324230218068,-0.21707087032208694,0.07545860364436957,-0.39076519094861595,0.6025037200852208,3,left
2.12,0.25726963728703645,0.7429625707285628,0.10683428360812972,0.1601090152825584,0.7146515342223578,-0.2156865384392827,0.07471130503296111,-0.39061878722992605,0.6061165056864743,3,left
2.123,0.2502847142258816,0.7473155826493652,0.10540904829003311,0.16379446308897616,0.7150911772293458,-0.21635197669818573,0.07555748334020845,-0.39079877933994717,0.6010808890740833,3,left
2.125,0.243792545419804,0.7528612837156199,0.1057026793927307,0.1637826156716486,0.7151064752277647,-0.21635069467127382,0.07470552273284259,-0.39061399153055476,0.6063827122202206,3,left
2.127,0.23603108746524654,0.7596791660740612,0.10591105165432949,0.16122265510869066,0.7131793204116086,-0.21581747644505533,0.07511868557342852,-0.3907095630108902,0.6034239451271969,3,left
2.128,0.2276705663570302,0.7636036254779655,0.10865819981047059,0.16526783966441833,0.718052883976191,-0.21673984033477123,0.075866471857579,-0.39084765506530844,0.600356308984958,3,left
2.1319999999999997,0.2169299111379184,0.768406685433783,0.1119920966681986,0.1607200425062937,0.7103957704586935,-0.21560769245307976,0.07323499484486004,-0.3903343030567417,0.6129344051188055,3,left
2.133,0.2075893591651446,0.7740186658550632,0.11564258408944114,0.164698771741371,0.7187844987835539,-0.21667214293132553,0.07799921277081434,-0.3912700819426977,0.5897620774871328,3,left
2.137,0.1977749268265026,0.7800624568736737,0.12450488518258941,0.16267801014547817,0.7138649920549036,-0.21610241405434205,0.07190793345009425,-0.3900718864230814,0.6194806930733763,3,left
2.137,0.18569420943041104,0.7851158732695682,0.13402671415335482,0.16105048641292427,0.7095951663897304,-0.2156310624176168,0.07698234156451095,-0.3910711724131674,0.5946863060125804,3,left
2.1430000000000002,0.17822386053852668,0.7894975357707932,0.14090283363259676,0.167836613506879,0.7283707989842682,-0.21764081362705856,0.07688619059772436,-0.3910487929074028,0.5952989029645581,3,left
2.1430000000000002,0.1710212313346952,0.7971027050554941,0.14872911006243764,0.15557217923007555,0.6934673552329427,-0.21396536525204468,0.06707596352189871,-0.38912706254702983,0.642763903097961,3,left
2.147,0.16187966372905782,0.8034314869639451,0.15500572716113664,0.1710980243999759,0.7383434223576234,-0.2186493204482823,0.09113900313159337,-0.3938458783358053,0.5261742776875742,3,left
2.147,0.153561894418991,0.8096188765203165,0.15882404387021193,0.15823492563105962,0.7008521129531349,-0.21475362202480702,0.05125499626649408,-0.38602191804126595,0.7194607336394947,3,left
2.1519999999999997,0.14619868103545677,0.8174171894218192,0.16097103148230368,0.15859130352623813,0.7018669095959272,-0.2148639544690053,0.10385945527826804,-0.3963432574688527,0.4645265374490847,3,left
2.153,0.144447748327017,0.8198372043757585,0.16291692885630354,0.1829273026540496,0.7733996741384472,-0.22225221191339234,0.3247396837744325,-0.439655622532733,-0.6057287573630395,3,left
2.153,0.14292363357138732,0.8229920469097715,0.1654883056268172,0.12317590375485428,0.5975602108181303,-0.20409634791163855,0.37734690852623487,-0.4499805599485916,-0.860655821984531,3,left
2.1590000000000003,0.13376677363784417,0.8329298930723448,0.16827233305920614,0.22218100821188816,0.8891298456284767,-0.23419346445707995,0.3374599093260102,-0.4421527066062688,-0.6673770829225523,3,left
2.1590000000000003,0.1260725976495348,0.83979011355246,0.17159040078247711,0.09164392452735881,0.5045359033666841,-0.19450027023037703,0.36152181079972134,-0.44687004276660314,-0.7839696393891066,3,left
2.16,0.12427163128484196,0.841636592825231,0.17249528894396843,-0.45625492720201327,-1.1097332216045088,-0.027997654852362136,0.3517215097308233,-0.44496122324500886,-0.7364790522285698,3,left
2.162,0.1188205862412954,0.8463839815115883,0.17514532141520775,-0.5867543466900224,-1.4943343981858956,0.011685529692674966,0.3516040017891662,-0.44491106318589324,-0.7359215138411727,3,left
2.162,0.11049844810051862,0.8531828954558043,0.1774310201251405,-0.48780033416092966,-1.20276309431316,-0.018385841925217684,0.3567090314061596,-0.44595018185628055,-0.7606369542133369,3,left
2.167,0.10431890026568844,0.8599186665986682,0.1749704006545285,-0.5475306012258573,-1.3785777688932712,-0.00027868866114714487,0.35058725954160275,-0.44471232004599054,-0.7309969578981937,3,left
2.168,0.09691364063242747,0.8665405653970328,0.17647517382969502,-0.5231349459782315,-1.3071159349936796,-0.0075939563352395,0.3553646342829122,-0.4456652165305558,-0.7541353537740922,3,left
2.171,0.09058589336221282,0.8704399505218887,0.18008466074209672,-0.5229573782754877,-1.3059785622931464,-0.00778857434308002,0.3527593419268751,-0.44518592106457183,-0.7414897670782774,3,left
2.1719999999999997,0.08710631818796398,0.8759111409841399,0.18176162212654,-0.5355237010733581,-1.343621571882265,-0.0038302817681846895,0.353422780855706,-0.4452142984241444,-0.7447748444937964,3,left
2.176,0.08090538880148002,0.8842384383904368,0.18356928774253845,-0.5203438556905536,-1.2986244794432542,-0.008503800922123156,0.35398127731450835,-0.4454989180744804,-0.7473589310793198,3,left
2.176,0.07376386419768077,0.8880048360041468,0.18346394514262054,-0.5323652492996083,-1.3335243727387254,-0.004967984037026207,0.35295095636318397,-0.4450821153036514,-0.7425169561714889,3,left
2.181,0.06979728702898058,0.8889379672890172,0.18267390915170967,-0.5254980684351085,-1.3149811636360864,-0.006675321891286811,0.35393933145675677,-0.4454470890558002,-0.7471859277718492,3,left
2.181,0.065520976551048,0.8919554996056511,0.18239156789217986,-0.5277582772946996,-1.3187233845305895,-0.006642462926686775,0.35319330166350377,-0.44530231518547886,-0.7435699479523148,3,left
2.186,0.06025685250083639,0.8941114006531349,0.17976852284818773,-0.5284781008770421,-1.3244264126524916,-0.005621274778666327,0.3537472037234659,-0.4450934303141444,-0.746477417871408,3,left
2.187,0.05588934953724975,0.8946502821570346,0.17771688111598674,-0.526319504641621,-1.3152095483482502,-0.006916876096084615,0.3532248326855414,-0.4457165497682343,-0.7434352444880105,3,left
2.194,0.051537723069624064,0.8956692895388543,0.17825855823226305,-0.5290828136701418,-1.3233273472611737,-0.006082801751207959,0.35382603142957625,-0.4447520796648937,-0.7471108709871914,3,left
2.194,0.047444978832874234,0.8953281150948345,0.17654484715217542,-0.5257880855478956,-1.3189176445038466,-0.005897441014757031,0.3532183080527546,-0.4457866922876729,-0.7433531846673422,3,left
2.1959999999999997,0.04309456432188602,0.8941597638051686,0.1760887225340158,-0.5299036605170637,-1.3189343822648236,-0.0073583654598185,0.3535171136992935,-0.44517867925963883,-0.7452708253444694,3,left
2.1959999999999997,0.0404071131354716,0.8958492546518491,0.17843779612047356,-0.5249661746478834,-1.32245270468704,-0.004813771992253479,0.35403395416275735,-0.4447052578618589,-0.7481800914914907,3,left
2.2,0.040773230961927476,0.8971805309475362,0.17870415083343508,-0.5297897170804029,-1.317405287459867,-0.00765976757129421,0.35219635280521433,-0.4468600792240127,-0.7375037338730285,3,left
2.201,0.04067059450809805,0.8971174872423262,0.17851326130938086,-0.5272977259722751,-1.3211916175923073,-0.005926178742179163,0.3555276685332686,-0.4428490677773508,-0.7569323865694504,3,left
2.206,0.040625346807178234,0.8992597863971479,0.18022172757284266,-0.5242321602029554,-1.3217508185726148,-0.004709054523262175,0.3512671846311034,-0.44800261905855715,-0.7320677652037363,3,left
2.206,0.04149039662892339,0.8993252174447677,0.18464770739206893,-0.5359559984724667,-1.3143131497114124,-0.010546880048668047,0.35481725918985463,-0.4436990429292116,-0.7527931962842492,3,left
2.21,0.04433406859973215,0.8984693006204969,0.18864466974894403,-0.5146139731611424,-1.3292861173375865,0.00039959518451058865,0.3547474552417117,-0.4438202200508211,-0.7523593608178036,3,left
2.211,0.05062763798555624,0.9011973280070855,0.19143050060381228,-0.5418739383787647,-1.3096338881718506,-0.013698678226310284,0.34789159911103357,-0.45201041561194255,-0.712421166607053,3,left
2.215,0.05563020587998452,0.9030779231064103,0.19177241027690672,-0.5191770584957285,-1.3262223204969814,-0.0019121678466849888,0.3647118068320854,-0.4318748010358632,-0.8104363095463654,3,left
2.2159999999999997,0.05766289471036684,0.9046628978226436,0.1844545526605414,-0.519697061829386,-1.325491334635418,-0.002255238046809983,0.33683068670491223,-0.4652614454888154,-0.6479590182792079,3,left
2.221,0.058827961705889886,0.9060338098913083,0.1787243614367455,-0.5632262083102166,-1.294609184573062,-0.024664581565836972,0.3736055358338327,-0.42122505372934116,-0.8622649641048952,3,left
2.221,0.059067476335568615,0.9060998606899003,0.17816871646661553,-0.4563735910007573,-1.3709247436863348,0.030447038817559703,0.5279934322489477,-0.23637477702644943,-1.7619300532727837,3,left
2.222,0.05867478365316371,0.9106238859006102,0.17433357048804543,-0.633488138822365,-1.24423069158689,-0.06093924525707298,0.564771253492599,-0.19233849989594454,-1.9762501357994968,3,left
2.225,0.05912564781974196,0.9153449392400264,0.17183440360882435,-0.39989428739226196,-1.4114028162215044,0.05959755044584952,0.5368884469156758,-0.2257269339656615,-1.8137658885050993,3,left
2.225,0.05874175120832389,0.9159439894396061,0.17110069294137087,0.5806948408530525,-2.112791936353969,0.5656059219065446,0.553702015220818,-0.20558449406479562,-1.9117456774724115,3,left
2.226,0.05593521280123204,0.9201230760832797,0.16689547231976185,0.8142844811628658,-2.279988090900037,0.6861323023057875,0.5468679920982069,-0.21378907484097892,-1.8719191111411784,3,left
2.23,0.0559990966311526,0.9269731640213963,0.1630075121321003,0.6371853416052584,-2.15323604839833,0.5947539889975799,0.546758671551438,-0.21388863571225727,-1.8712857744402718,3,left
2.231,0.05701673812920524,0.9313472441646329,0.16069190047742077,0.7440012533123832,-2.229655034487264,0.6498815764980811,0.5503594324416223,-0.2096085789177083,-1.8922646807891832,3,left
2.235,0.05437581876368238,0.9372147581829263,0.15648711557252185,0.7005362382373207,-2.1986255146803453,0.6274107716312367,0.5460559356693994,-0.21474804553433985,-1.8671883326320602,3,left
2.235,0.05191554076635074,0.9446534707428291,0.14848786038532918,0.6999311882254726,-2.198055547909499,0.6271838549448454,0.5493919574813138,-0.2107257753745269,-1.8866327972995056,3,left
2.24,0.04616356930317763,0.9497482004138491,0.14013896881918436,0.7227076233691339,-2.214538059195005,0.6388167052418425,0.5476232127514928,-0.21293263759129144,-1.8763123236208112,3,left
2.241,0.0363185270130441,0.9563568139374212,0.13307402677948904,0.6954213797165901,-2.194835234254011,0.6248553563026373,0.5479731633025021,-0.21236030091874836,-1.8783746592319521,3,left
2.244,0.02677890574685638,0.9668639689838214,0.12455386329267999,0.7166764325482888,-2.2101198505598196,0.6357726275986147,0.5485283499676255,-0.2118837075827354,-1.8815815805180591,3,left
2.245,0.013253192491417681,0.9781682723791056,0.11696873751512223,0.7052016918703462,-2.202057821062314,0.6297483810830136,0.5476390952252657,-0.21279847240876765,-1.876422192509227,3,left
2.25,-0.001160620120042425,0.9885487647947488,0.11178197240872208,0.7078545668978,-2.203479376292753,0.631447583513739,0.5484152697425588,-0.21186763786851665,-1.8809455279482235,3,left
2.25,-0.010911872765420185,0.9974006730324054,0.10587058245550705,0.7108363876123017,-2.2064320815254472,0.6324177699801397,0.5480083687286135,-0.21263360576448906,-1.8785320876315676,3,left
2.254,-0.02015011994941386,1.0070528730017942,0.09829335966851527,0.7056466882058607,-2.2017149995332517,0.6304372484680104,0.5479762022716886,-0.21203523459071988,-1.8784411851407419,3,left
2.255,-0.02896814781984095,1.017123877355713,0.09200744373105954,0.7105249888504839,-2.2060050005157965,0.6323985439326393,0.5483630074592031,-0.21252211794646186,-1.880551252067255,3,left
2.26,-0.03721128723248288,1.0246518992173834,0.08783830375083457,0.7072172690749987,-2.203645537597441,0.630686755126094,0.5478266946463242,-0.21215164101053882,-1.8775794039363292,3,left
2.26,-0.046617075974002345,1.031210247149497,0.08157569761592867,0.7087670545160307,-2.203271599079307,0.6325182260619708,0.5482196705994271,-0.21226599271855554,-1.879780869361376,3,left
2.2640000000000002,-0.05256940294702027,1.0357197537804304,0.0731307132150833,0.708525878011931,-2.2064869870438626,0.6300357974653754,0.54830010140385,-0.2126745762095978,-1.8801728692477746,3,left
2.265,-0.05609070188941993,1.037926263648453,0.06696151112767199,0.7080950595297268,-2.2011251800056044,0.6333313468955897,0.5474715455366673,-0.21145848791649194,-1.875679486668266,3,left
2.269,-0.06022654456155194,1.041065586928128,0.06283232977108741,0.7087016988698804,-2.2069457657152354,0.629894023464181,0.5491206540678979,-0.2135783762680619,-1.8846686521523557,3,left
2.27,-0.06099373753916348,1.0425143314863554,0.0563078149868322,0.7081184557868851,-2.2034170062512386,0.631760437482477,0.5469626358124641,-0.2109054189851891,-1.8728899035552076,3,left
2.275,-0.059895959239697504,1.0408145119710683,0.04889610673014931,0.7087679859818052,-2.2011970253821946,0.6339626381477526,0.5487812252193736,-0.2131156929139979,-1.8828227522093908,3,left
2.275,-0.05797153759226164,1.040060388960994,0.044861209663663255,0.7078118559758626,-2.2122569528126927,0.6252954881892197,0.5487060133091264,-0.2130891969684891,-1.882401302774149,3,left
2.279,-0.054149922290632396,1.041357004947042,0.041942945990914894,0.7092441327746641,-2.191504690076929,0.641194067982475,0.545307552555557,-0.2087863526365844,-1.8638675775607072,3,left
2.279,-0.05026001229860719,1.0426369739102843,0.03844859408018146,0.7074820158307329,-2.218204353024566,0.6208180718130313,0.5536979198885112,-0.2193132030620426,-1.9096411849082098,3,left
2.2840000000000003,-0.045819957736181596,1.04355201902569,0.03371142673955397,0.7089212427298877,-2.1958947206926354,0.6378142623552885,0.5397724644606161,-0.2018786510391729,-1.8336642877710592,3,left
2.2840000000000003,-0.04385203935423673,1.04417866179466,0.029442058764616356,0.7090030909936829,-2.196577223547372,0.6374125152879584,0.5581448576854589,-0.22486682817327538,-1.9339064632887253,3,left
2.289,-0.04329836623546025,1.0439766430814559,0.02909447406419103,0.7058644293484684,-2.238853637645529,0.6048104357975312,0.6352550473309553,-0.32143312028689397,-2.354593070793748,3,left
2.29,-0.040169077046524906,1.0440667125952683,0.027614625964640368,0.7134346634963895,-2.1348559644108014,0.6848761528659006,0.653628789582015,-0.34442203155093615,-2.4548418691455685,3,left
2.29,-0.0369696367772744,1.043710886713329,0.023574386654450594,0.7009222747466537,-2.3073050847907783,0.5521376373874266,0.6396972187230868,-0.32698414941406584,-2.3788349436699283,3,left
2.293,-0.03429736889937354,1.0418780980268063,0.021885689288850797,0.7174197990824361,-2.0798531199176993,0.7272221290974139,0.6481035221654206,-0.33751967973884706,-2.424686806636855,3,left
2.294,-0.03319466372400369,1.0415634633301625,0.02278049421679352,0.7868773840887701,-1.1251386930592804,1.4621730771325712,0.644675904640045,-0.33320095286672624,-2.406009900030649,3,left
2.294,-0.032594581502523805,1.0429777099403927,0.02383101379394066,0.8033839567251795,-0.8977130293858979,1.6372729686147673,0.6446407143287056,-0.3331962595836409,-2.405784990876054,3,left
2.298,-0.028509848368983525,1.0423862583209016,0.023496484787812463,0.7908617809761644,-1.070133689741029,1.5045177913056467,0.6464201050467577,-0.33538517697080783,-2.4155253347668983,3,left
2.298,-0.023393450224267625,1.0389534505366869,0.025200338909830856,0.7984282823496369,-0.9661252073607657,1.5845771724755626,0.6442784068270302,-0.33272111528209386,-2.4038267442430996,3,left
2.3040000000000003,-0.019907790995548826,1.0351922740832802,0.029120024999765504,0.7953221134370014,-1.0084959851268973,1.5520303587907103,0.6459626519399113,-0.3348601379121363,-2.4129884417340577,3,left
2.3040000000000003,-0.017073259290239305,1.031788284182793,0.03192055627531154,0.7953340625450929,-1.0089754339699104,1.5515096990369706,0.645022892964203,-0.3335834766771767,-2.407948976175274,3,left
2.309,-0.012872292583477926,1.0281002547944822,0.03836964111020358,0.7968735001933218,-0.9869569548328176,1.5686763873059912,0.6452943377260117,-0.334096115352263,-2.4092790076731263,3,left
2.31,-0.006455642073916607,1.0245339129182924,0.04973097851103386,0.7950116073189879,-1.0133666712951817,1.5481306096551068,0.645453113037045,-0.3340828764480508,-2.410330335747571,3,left
2.313,0.00047180704425074963,1.0199300777056934,0.060569391523901325,0.7964869113265975,-0.9927395497565276,1.5641024494774576,0.6451034069134363,-0.3338140753636635,-2.4082749321058556,3,left
2.313,0.007795233093206965,1.0149814801164052,0.07201668686077672,0.7956165159796914,-1.0040483777785036,1.555581087192731,0.6454920737882408,-0.3343019407843618,-2.4103940578250973,3,left
2.318,0.014788606194552122,1.0114509538349288,0.08412685141365836,0.7959899674825772,-1.0010264824475463,1.5573136560082383,0.6451131042482303,-0.3335146821020827,-2.4086001629622467,3,left
2.318,0.020848825469363827,1.008268341671446,0.09160164338271873,0.7958823647580555,-0.99887953259837,1.5599892705707892,0.6454985006232932,-0.3347122361045495,-2.4100774877336613,3,left
2.322,0.027503830817631667,1.0042489336151168,0.0954760257831194,0.7959053323321732,-1.0030042093127283,1.5555588497110522,0.6450928154757167,-0.3331375631922558,-2.4087968971519533,3,left
2.323,0.03486227209701565,0.9992237468959756,0.09806483965385507,0.7959397581399534,-0.9989945853511458,1.559646152417922,0.6454633665626713,-0.3347386865900097,-2.409824367006753,3,left
2.327,0.042024758733867365,0.9949731836799566,0.09726466504836595,0.7957029280740535,-1.0022217413848251,1.557170761133007,0.6452907640647303,-0.33386548553548423,-2.4094568857767977,3,left
2.3280000000000003,0.04648030339198002,0.9894057456132964,0.0936314861151438,0.7963888834005904,-0.9993391555757418,1.5575329895980496,0.6450129347251523,-0.3329513516320234,-2.4084368081559866,3,left
2.332,0.04966959176978955,0.981510502309314,0.08925756639202145,0.795054939267986,-1.0027132971957202,1.5591789419213118,0.64599081308798,-0.3366542758331498,-2.411604019355417,3,left
2.332,0.05116343577383011,0.9756682269038491,0.08535709671017769,0.7969889785662204,-0.9984492828064441,1.5561310063796805,0.6442335256782739,-0.32985745361430674,-2.4060363579339006,3,left
2.338,0.04782646256126943,0.9696097796195797,0.08183149152522744,0.7949375752814334,-1.002851484128775,1.5594904770440974,0.6464697734799212,-0.33855967668515907,-2.413075952750104,3,left
2.339,0.045997794006017945,0.9638841492228453,0.07707843750132132,0.7961067196532704,-1.0005342827011707,1.5573751985073088,0.6446112813770928,-0.3313051115387049,-2.407244094548145,3,left
2.3409999999999997,0.04175957623215548,0.9612067726772452,0.07230328808492381,0.7971950151874645,-0.9974154323580726,1.556414664712184,0.644648676472525,-0.3314855035220472,-2.407333554497315,3,left
2.345,0.032834207346400815,0.9573994762532396,0.0696332512527651,0.7925634018411172,-1.0092294299690598,1.5620307270198976,0.6482268716776045,-0.3453611222357577,-2.4186367418774455,3,left
2.347,0.029296693278906535,0.9539774813814726,0.06900846244397912,0.8011295610391371,-0.9876516129769746,1.5513609039300094,0.6394505801081883,-0.31127927781904363,-2.3909514471800364,3,left
2.349,0.02237676956457583,0.9530976162895811,0.06876643236373423,0.7901347297696799,-1.0152841602091773,1.5651184804757878,0.6539953743332826,-0.36778046915187323,-2.436821818239833,3,left
2.35,0.014169636014586593,0.9525463382043696,0.06695886806032983,0.7993128562244823,-0.9922453616853312,1.5536101024933515,0.6348129008432841,-0.29325786251746877,-2.3763262729680346,3,left
2.354,0.012387277430287114,0.9523047921159453,0.0666888531529739,0.7990698734987313,-0.9927532058530346,1.55400978810384,0.5542874888823646,0.019557081740975493,-2.1223786054895744,3,left
2.355,0.0052578251255971185,0.9508459154917734,0.06881061051814444,0.7815485088268528,-1.0370629907548685,1.5756639863451154,0.5351039427127174,0.0940820862987514,-2.0618672972059695,3,left
2.355,-0.0026430458336976327,0.9491062830055683,0.06885063419352375,0.8246101376324968,-0.9282915734332379,1.522337319917856,0.5496490978503323,0.03757879241198657,-2.107755129780811,3,left
2.36,-0.01112305681583161,0.9514158955781348,0.07038926505539513,0.7532095514320191,-1.108604038964795,1.6107812093839655,0.5408760800915784,0.07165790797096029,-2.080074880029051,3,left
2.36,-0.021047914730222134,0.9540299559346175,0.07461220816673458,0.8473920142301874,-0.8707760703162186,1.494123297082807,0.5444445862745921,0.05779448671153596,-2.0913244673247715,3,left
2.364,-0.02335740863697109,0.9553178307850178,0.07492990976754324,1.242703557261879,0.12767188212919325,1.0045724589679241,0.5444989275711191,0.05759024966545299,-2.091531240360923,3,left
2.365,-0.030113689772423347,0.9601444008904884,0.07286511433990481,1.3369018370985994,0.365513146487652,0.8879284540571933,0.5426192611000777,0.06487708308033924,-2.085529588019929,3,left
2.366,-0.0419773313009349,0.9671248145679396,0.07133651516890765,1.2654770431848847,0.18518700322904566,0.9763560748002964,0.544872693384712,0.056145126302712185,-2.0927402520404566,3,left
2.369,-0.05072361611892191,0.9774028142741905,0.06933829401691044,1.308557292992903,0.29395044396477743,0.92302801334069,0.5431152343736805,0.06295032442791909,-2.0870950780627893,3,left
2.369,-0.060374768473048325,0.9899439174418065,0.0668210647266858,1.2910408867764334,0.24969354101329397,0.9447232014084536,0.544061666953527,0.059283193696026824,-2.090123923184369,3,left
2.379,-0.06640347178501162,1.000098883937362,0.06229194892810032,1.2907526246372325,0.24907536548456854,0.9450287316989925,0.5438564192129118,0.060099683432556214,-2.0895642163606514,3,left
2.379,-0.0664228523422767,1.0124520031966515,0.057306241007600844,1.3000233831962291,0.27226959392599703,0.9336601255685841,0.5435750600121934,0.06113109988478937,-2.088395211097944,3,left
2.381,-0.06347481101542124,1.0241561430464587,0.053995215700857455,1.2889016946492569,0.24448572220056838,0.947272557235111,0.5440617608136884,0.05934646961180126,-2.0904150847154273,3,left
2.381,-0.05628301962009376,1.0294298540287916,0.04951023343530024,1.2975868728680777,0.2661224236716615,0.9366764319795925,0.5435893680400177,0.061051489385918735,-2.08833038605815,3,left
2.383,-0.045517206541188085,1.0340007917877345,0.043957501531484595,1.292916064258709,0.2544531392880519,0.9423916216067476,0.5439145332701467,0.059891870997197366,-2.089830023811003,3,left
2.384,-0.033509156626897504,1.0379701507154762,0.03791854763140236,1.2938758000883173,0.25713123512703584,0.941067887566802,0.543796229581103,0.06035278251171738,-2.0894612106955597,3,left
2.39,-0.02005921844981107,1.037238930731307,0.03036435525881953,1.2954110966027983,0.26019345361865776,0.93960332714217,0.543697229872274,0.06054421813765211,-2.088269106130597,3,left
2.392,-0.006656096032468331,1.0339722820912929,0.024964464743262443,1.2927567716700865,0.2548922406777274,0.942137758056683,0.5439887214603516,0.05985253458657734,-2.091199050115045,3,left
2.394,0.004344944636976306,1.029211181363068,0.02103972132097958,1.2954008237480368,0.2598501241722218,0.9397870786967188,0.5435691508396714,0.06082561415346315,-2.0868763993894888,3,left
2.394,0.014184033219290251,1.0229920347230983,0.016488227213768046,1.2935453957931786,0.2565347928265931,0.94134834819296,0.5439961513361764,0.05986631147880678,-2.091420387151369,3,left
2.399,0.021591540780824585,1.0158303774361253,0.014956400943419254,1.2941243672778235,0.2580090336600228,0.9406251378261332,0.5437494286927766,0.060421859376025754,-2.088795061855524,3,left
2.399,0.0260082449617228,1.0064211689684055,0.01565168425469699,1.2950897922620437,0.25790491815529526,0.94079527525632,0.5435807562030047,0.06072583501049246,-2.086670152151708,3,left
2.403,0.03081839439968713,0.9957438227466663,0.017148838407661314,1.2925624088578753,0.25733207239360434,0.9408035770613188,0.5443753727983973,0.05916797399531086,-2.096146431887829,3,left
2.403,0.0340463221623552,0.9854854034896202,0.021277581701660313,1.2962584047666414,0.2579984851636753,0.9408837078829797,0.542899462374316,0.06206938203000522,-2.078565905121339,3,left
2.4090000000000003,0.033776320612892444,0.9763877176976885,0.02794248004240264,1.2924171113137186,0.25753785034781196,0.9406756438480429,0.5447903094820917,0.05835707530791523,-2.1011260921884674,3,left
2.4090000000000003,0.030618928152552377,0.9699282755507883,0.03600986829130874,1.2946380407259528,0.25780666664860097,0.9407947348534454,0.5432142872107498,0.061451432602966295,-2.082300527284379,3,left
2.414,0.02128779214206076,0.9655865843645347,0.045354237309750134,1.2963319686728516,0.2574844429912737,0.9411685269219188,0.5432596440891027,0.061345479841032606,-2.0828168414923427,3,left
2.415,0.01057111323570149,0.9630426524091804,0.05396269566219705,1.2886320590331497,0.2581775948397612,0.9398831824677312,0.5462495482549421,0.05553249510296009,-2.1186694681836653,3,left
2.418,0.001310861148665313,0.9614043037900496,0.0627704682123819,1.302926765835743,0.25692771690793925,0.9422498477642816,0.5389012179078418,0.06984190926519365,-2.030553166303205,3,left
2.419,-0.014674766506941307,0.9596683126971484,0.07716760637267703,1.2845888352991035,0.2585786965363695,0.9391879401981729,0.5510816753959071,0.04611150783298798,-2.17664058975817,3,left
2.4219999999999997,-0.02639714451719765,0.9592187794822234,0.08654233217142293,1.2998914870015974,0.25717924002825154,0.9417551025291157,0.5350199322135738,0.0774135010938373,-1.9839680044042411,3,left
2.4219999999999997,-0.029190764137815656,0.9590804639177833,0.08829915236538133,1.2994506692016343,0.2571593273888986,0.9417126610518551,0.4675780096306532,0.20868507510974904,-1.1751241623477564,3,left
2.423,-0.03926743401971641,0.9595720986866463,0.0986149362181687,1.2703785498586975,0.26007522427610447,0.9366993765073506,0.45152307349476434,0.23999088377463745,-0.9824773560417339,3,left
2.427,-0.05103848257795318,0.9596843097690445,0.11281757544732415,1.3418589320373215,0.25295147774154897,0.9490028691180615,0.4636952949702256,0.21625973711615887,-1.1285341444439698,3,left
2.428,-0.06022481670252619,0.9592131062799668,0.12344423780582418,1.2233373981783888,0.26476790954175994,0.9285987105036886,0.45634724949453404,0.23055559935070608,-1.040416953279462,3,left
2.4330000000000003,-0.06868457260620263,0.9615275399053775,0.129653158140509,1.3796666682499796,0.24916736200774528,0.9555209144436038,0.4593552213958751,0.22478100941615747,-1.0763420619744382,3,left
2.4330000000000003,-0.07027510622264674,0.9622523542307232,0.1320875673929059,2.035732632894972,0.18353866463274845,1.0685750840153054,0.4593574530741525,0.2246089479573804,-1.0766890367446371,3,left
2.434,-0.0734550636995101,0.9614606114461679,0.1386529074160508,2.192063189579998,0.16791633644109388,1.095511329988628,0.45784666644887156,0.2277848791269226,-1.0581169869757068,3,left
2.437,-0.07742632387988294,0.9612084206833453,0.14649392081742968,2.0735445383119813,0.17976712877864082,1.0750866832926391,0.4596683017459612,0.22400784650070849,-1.0804113389329901,3,left
2.438,-0.07458896674775109,0.9575106323916048,0.15434688325309195,2.145009250260145,0.17261410771044716,1.0874031545345726,0.4582301488129916,0.22690653231283703,-1.0629703755484263,3,left
2.443,-0.07283456488847442,0.9539594739943835,0.16175958998176732,2.1159729625249595,0.17553066577980414,1.0824015962161415,0.459066008170401,0.2254748810127979,-1.072617643893261,3,left
2.443,-0.07161607654013535,0.950935699851781,0.16648647395007188,2.115475901752758,0.17556199401388106,1.0823080907561855,0.4587331897688357,0.2254937994469613,-1.0698433850794273,3,left
2.447,-0.06513729674343761,0.9453511019640399,0.17264848397604549,2.1308424985592955,0.1740469041072647,1.0849691517761904,0.4587870588707143,0.22647154814740442,-1.0683928521811823,3,left
2.448,-0.056008580865457874,0.9393082818422238,0.17647412647383304,2.1124617479282772,0.17586570059597684,1.0817879039289748,0.4588263007704735,0.22506731841293276,-1.0714356877532003,3,left
2.452,-0.04405970320125995,0.9323861903653593,0.17775969555781057,2.1267362000231858,0.17444560081509203,1.084254042996915,0.45874403204190767,0.2262857666873776,-1.0683985193956433,3,left
2.452,-0.029446447827158693,0.9244459957577562,0.17794296603710885,2.119162309677802,0.1752200391205289,1.0829606133657042,0.45897371494584693,0.2258479346363042,-1.0711357968990467,3,left
2.457,-0.016464504695970345,0.9159223717217124,0.17515499182525285,2.1206038254042827,0.1750237003683096,1.0831702526595062,0.4583974338043414,0.22500680046774918,-1.0680263608452036,3,left
2.458,-0.003537351694958538,0.907184391956665,0.17195729899840267,2.1231725254001077,0.17485553032081272,1.0836801443236743,0.45948748885593493,0.22737080862835518,-1.0724096861272325,3,left
2.4619999999999997,0.009484597387594672,0.9001471571602725,0.16466166040128277,2.118996952608356,0.17516484561254458,1.082877851355851,0.45791564024480647,0.22373838238475788,-1.066522801283864,3,left
2.4619999999999997,0.01801099289612539,0.894381909365403,0.15401907032027787,2.122821275354112,0.17486846204489462,1.0836029061877035,0.45958119544135945,0.2276302836782801,-1.07267664523475,3,left
2.467,0.023134238743608596,0.8890224268664368,0.14505955700258036,2.120613048175392,0.17509015270696995,1.0832229953739612,0.45863472233797553,0.2253504359178871,-1.0693131484714093,3,left
2.467,0.027013782475377862,0.886549759871949,0.13517716158060905,2.1206109238113315,0.17493066725821851,1.0830999291053538,0.45773997946506506,0.2235393317646761,-1.0654625365491674,3,left
2.471,0.029805338005314496,0.8875801833156485,0.12476511146922144,2.1228240046366698,0.17507411931906836,1.0837616627452689,0.46152686326217607,0.231717914035734,-1.0807570227120058,3,left
2.472,0.03344940505024009,0.8902333787361721,0.11523260347936556,2.118993624496174,0.17491306000861773,1.0826834042385594,0.45452716106411745,0.21650513199124458,-1.052675047772985,3,left
2.476,0.03947667401628271,0.8964349234805451,0.1064143235605078,2.1231754099751985,0.17507495220030575,1.0838496945580758,0.46351015855001576,0.23604929192255275,-1.0886695580848764,3,left
2.477,0.04526713807110712,0.902704988439753,0.09799366383119319,2.1206035031240535,0.17499678640354716,1.0831492622047354,0.4560123999351068,0.21972870976522293,-1.0586467037133398,3,left
2.483,0.0546788650567235,0.9105780058530173,0.08496488126980233,2.119157410974629,0.1748529747495018,1.0826774272118411,0.45620819204177043,0.22018636894141336,-1.0593577002652115,3,left
2.484,0.06977713329232585,0.9236113475008072,0.0729858058130298,2.1267483000356515,0.1753575268641122,1.0849580151465303,0.4705292394335125,0.2512542326146337,-1.1169352359371203,3,left
2.487,0.0857633495231522,0.9391515818423787,0.0651294294991161,2.112442935950515,0.1744440533467901,1.0806901311706194,0.4353374255410414,0.17487444343845632,-0.9755396486541135,3,left
2.488,0.11250037743732237,0.9693768816485078,0.04771412394923685,2.130863155167447,0.1756124405750325,1.0861783981337734,0.493686133018575,0.30152049832912475,-1.2099444570123599,3,left
2.494,0.1353709632089455,0.9941228218180038,0.035077529460197356,2.1154638135322306,0.17463826719797165,1.0815939748809726,0.41672311309414256,0.13447454490693,-0.9007738863137542,3,left
2.494,0.14108065944283354,1.0000365518179999,0.032868457621210365,2.115961223198674,0.1746585731105007,1.08172940469306,0.09367804768611127,-0.5666750591325371,0.3971730262942327,3,left
2.495,0.16607875282583162,1.0286914539307188,0.018542918399719794,2.1450613771693376,0.17653771845043875,1.0904316273975256,0.01671129863268514,-0.7337193605494912,0.7063463598889361,3,left
2.496,0.20737351818658994,1.0706912792948606,0.0011841325202603804,2.0734406525556137,0.1719244597959291,1.0690313625914292,0.07506404162985442,-0.6070750934007458,0.47193856166370074,3,left
2.497,0.23104931058718287,1.098257229215459,-0.018812665156037193,2.192217312415756,0.17957420651252276,1.1045142073616656,0.03987375925315016,-0.6834555610192465,0.6133330141374024,3,left
2.5,0.24056059681028485,1.1148162717583698,-0.03668773350817947,2.035547142401242,0.16948084296741053,1.0577166098791773,0.054181429438583964,-0.6523817712801163,0.5557653898202519,3,left
2.503,0.24066738827480869,1.1169012231498772,-0.04121120409958879,1.3780516673664596,0.12712203389229307,0.8612797177968836,0.05440600840624118,-0.6519368646318858,0.5550330648494799,3,left
2.504,0.2188651425463899,1.1174217491689957,-0.0638117115042399,1.221384556104793,0.11701843382118404,0.8144951326340341,0.04686697198110129,-0.6682391607713571,0.5850865021580343,3,left
2.505,0.1599658718106621,1.1220730129162313,-0.10151625242641488,1.3401613176626803,0.12468369259361098,0.8499584790707435,0.05589107766461104,-0.6487132117469774,0.5490615347351722,3,left
2.506,0.057898259258405055,1.130061103936229,-0.13000090096707786,1.2685272523209568,0.12005893095422297,0.8285720570128916,0.04887363040254225,-0.6639181326879072,0.5771566567171056,3,left
2.51,-0.08291646514417025,1.1587581496852506,-0.1482466389410439,1.2976632920504492,0.12193373705913439,0.8372814025108479,0.05262523170844408,-0.655723920411944,0.5618883120731631,3,left
2.511,-0.25124054331311724,1.216163020516365,-0.1497645687368847,1.298100129489813,0.12198502377931442,0.8373750666495265,0.05184417369388151,-0.6575853867116115,0.5656546937323048,3,left
2.515,-0.4301182359954612,1.3082416829734371,-0.1391230301818926,1.282774313110858,0.12094910089003152,0.832871695829509,0.05070179971674764,-0.6597784506960911,0.5691633347709693,3,left
2.516,-0.6075987184563627,1.4415596753608209,-0.11820214751362766,1.3011379591328842,0.12220062486297624,0.8382528080685433,0.05260779254715051,-0.6559930630083501,0.5628313496694541,3,left
2.521,-0.7691101426671161,1.6112271287449993,-0.08594492614955147,1.2868260988662197,0.12121107922934621,0.8340802665806185,0.0508442283780855,-0.6595405593055673,0.5688602762285628,3,left
2.522,-0.884879136032269,1.8074750507820323,-0.04709894008985678,1.294536787235934,0.12173687593530903,0.8363397094755538,0.05193263721194884,-0.6571758222404515,0.5644781730862924,3,left
2.526,-0.9374125499333708,2.0036658937326055,0.013430451171723161,1.2928273032037878,0.12168398475583642,0.8357413253798943,0.05171198665468371,-0.6581744998511168,0.5673241174122627,3,left
2.526,-0.9447991518775865,2.1640512881850267,0.0850511291647504,1.2906396904702544,0.12135870698268704,0.8353694358237802,0.051128822399546255,-0.6582522419614047,0.5651890854320866,3,left
2.53,-0.924901879797659,2.2767258304931226,0.10825130193708482,1.2944236818133892,0.12191989985195358,0.8360152119917451,0.05225928022578012,-0.6575710302137316,0.567327737628603,3,left
2.531,-0.865911314521048,2.3409559243557725,0.058297856493580144,1.2908001800349136,0.1212970799277026,0.8355271277179639,0.051005615554160846,-0.6584025027361022,0.565242819929424,3,left
2.535,-0.7572186468889409,2.3441732319544424,-0.037775948912598216,1.2932688719249665,0.12176649445212738,0.835790910641729,0.051806707102744126,-0.6577557754874389,0.5661397405432431,3,left
2.536,-0.6089257206413831,2.2691008535253934,-0.13134439091766476,1.2923007836995097,0.12170683271256007,0.8354974584988888,0.05211745425946487,-0.6580219507619254,0.5684371649975107,3,left
2.54,-0.44116850447376843,2.124644796178692,-0.17965511937961967,1.2918396199903106,0.12110143911131334,0.8362385973504594,0.05013558701074797,-0.658205360480975,0.5608775783164476,3,left
2.541,-0.28326163347753236,1.9455719163265648,-0.1775161968748119,1.29342697455301,0.12251936065232744,0.8347043480389327,0.05392342632422719,-0.6576217712033698,0.5744465727936907,3,left
2.545,-0.1604241360438969,1.7497697205752094,-0.12030660701071941,1.291183111409381,0.12041205029877053,0.837030206956652,0.049034144928400754,-0.6584258938577866,0.5571243544297156,3,left
2.546,-0.07704751810391222,1.5577721558962505,-0.0320678957642897,1.2934104726405868,0.12264790229247498,0.8345016516586861,0.05312668059174658,-0.6577321968021259,0.5715449341776566,3,left
2.549,-0.024047982504113392,1.3778921640427009,0.07197665979242396,1.2921218522770057,0.12135589465408447,0.8359621245472131,0.05297559538532434,-0.657836398582238,0.5713114328589899,3,left
2.55,0.008238114524205116,1.206139287488512,0.19367428570567824,1.2913756433708348,0.12026569247543016,0.8373300733674731,0.04530311393591891,-0.6588794381368126,0.5432997238199859,3,left
2.5540000000000003,0.032259527120024,1.0593556809780404,0.3103550646528803,1.2951131114383518,0.12506750828203939,0.8314843689073754,0.06420968571655605,-0.6562145949101947,0.6119644382782881,3,left
2.555,0.05253478746658238,0.9309696888145308,0.4521363032177579,1.2881588579512804,0.1161607506039951,0.8423182689450843,0.03284795593792747,-0.6606597287899676,0.49816262138669415,3,left
2.559,0.05836909875606355,0.8576062284226214,0.5468611627296796,1.297057523135411,0.12759609383101733,0.8283979673319216,0.07421677535160823,-0.6547936322237452,0.6482631508893013,3,left
2.56,0.059587364307527736,0.8415195751446385,0.5730432563966033,1.2896437678963393,0.11804864332006318,0.8400234561947792,0.24778371976866442,-0.6303035871179428,1.2785305768631843,3,left
2.5610000000000004,0.06830647783151651,0.7922548687986599,0.6693975286987277,1.2898783004889673,0.11831442465852368,0.8397202433588402,0.2891509486247014,-0.6244464239617147,1.4286512552955577,3,left
2.565,0.07624635458513401,0.7331455115719785,0.7884570430263348,1.3038638549634998,0.13649480203772893,0.8175038808606101,0.25779093978094825,-0.6288818893261885,1.314827639926766,3,left
2.5660000000000003,0.08723763410481115,0.7021855344013683,0.8636435263133055,1.2694656735913623,0.09180221008436308,0.8721003891822665,0.2766981658689489,-0.6262133812170577,1.3834840584612027,3,left
2.569,0.09652687332746085,0.6730297413561687,0.8855736972939867,1.3264988117205916,0.16590055463905667,0.7815758699272592,0.26901997650999926,-0.627288458675709,1.355544671280255,3,left
2.57,0.09839001430277657,0.6609992842492138,0.8613427316357027,1.251267002728306,0.06818521726810792,0.9009804341156868,0.2688811728564312,-0.6273237115278814,1.3551555670011695,3,left
2.571,0.09668604174709804,0.6610182621917269,0.840562098672704,0.9350593389396856,-0.34132357810167846,1.4022177731784993,0.2729560990530756,-0.6267288855194607,1.3697992444977771,3,left
2.574,0.07549998967880435,0.6665907399069446,0.7375799792938487,0.8597127042307814,-0.438875789089638,1.5216291617649051,0.2680843532757541,-0.6274345379124198,1.3522548739853162,3,left
2.575,0.03340875385339458,0.685987821519698,0.5536809964541491,0.9170047918115893,-0.365131869519095,1.4310925070255873,0.27186462580333354,-0.6268934651994431,1.3659197106497558,3,left
2.583,-0.017563841098603695,0.7030282868409782,0.3614658370143352,0.8821766936264428,-0.40926134284630156,1.4857030386217889,0.2698677016448856,-0.6271613668863419,1.3585509170875978,3,left
2.583,-0.07282898183067246,0.7111850589062717,0.13865169539193567,0.8967338819108397,-0.39179483829726325,1.4634764683342842,0.2702269531850824,-0.6271552574973447,1.3602337935369713,3,left
2.5839999999999996,-0.12140884195923052,0.7095941291548085,-0.08156017337896929,0.89639565148698,-0.39086107586388663,1.4631720373883739,0.27094446857884813,-0.6269777520029618,1.3621895778574764,3,left
2.585,-0.15548018251449064,0.693807395526585,-0.28595378857953613,0.8892769949565238,-0.4006713611983411,1.4748178320709409,0.2697933739376247,-0.6272333039695688,1.3588051989541516,3,left
2.589,-0.16248101764001086,0.669127110951474,-0.4817738454842897,0.8985389489489071,-0.3898422592769212,1.4608541278782017,0.27084205629864583,-0.6270113451643968,1.361979799332159,3,left
2.589,-0.12813814736217652,0.6458891517787066,-0.6299189110050507,0.8902077184700989,-0.3968757302568855,1.471749803700746,0.2702581671702857,-0.627092946816356,1.359854103044413,3,left
2.593,-0.05209666788769929,0.628752884642223,-0.7190422912181724,0.8964447805439151,-0.39526692155648013,1.4658421760799294,0.2701892613603697,-0.6272399072735141,1.3607773633574904,3,left
2.594,0.06338903972586886,0.6220613392170204,-0.7538685641409995,0.8924839918452264,-0.39246078369140536,1.4672389456821247,0.27093087597906684,-0.626822049752686,1.360789044312258,3,left
2.5989999999999998,0.2109676947160621,0.6391150980739102,-0.7464889447749523,0.8939874770006904,-0.39683845118826366,1.46874664196502,0.2696846779936979,-0.627464779955393,1.360263309918435,3,left
2.6,0.3720257648586548,0.6823901029968833,-0.7188246594191965,0.8957064513483738,-0.39466996279090505,1.4660572346265321,0.2710391394565057,-0.6267763550322691,1.3609185641042214,3,left
2.6039999999999996,0.5312334862548709,0.7425729773982852,-0.6760907862502079,0.8895057172537681,-0.3909625016469501,1.4686650770233904,0.27021544760277527,-0.6271793129323706,1.3603903452542134,3,left
2.6039999999999996,0.6833321445625652,0.8122993819713609,-0.6193513729798834,0.9011051306019118,-0.40276156210804925,1.4667793547953765,0.2697090834648433,-0.6274997726977309,1.3606756428139541,3,left
2.609,0.8204135961420085,0.8852423579152369,-0.5670595046542235,0.8849265804070271,-0.3837045618265291,1.4678094083039395,0.2722584535530552,-0.6260541928244217,1.3606396508918928,3,left
2.609,0.9295970829372853,0.9583958620586072,-0.5352358592693204,0.9016762767216243,-0.4046595605346407,1.4674974722095167,0.26747057528346235,-0.628741829048379,1.360487260568231,3,left
2.617,1.0058639271899357,1.0227377688816064,-0.520369322907017,0.8922540860806294,-0.3922269633762049,1.4672751314557604,0.2736317817206418,-0.6252906021934662,1.3607324694173186,3,left
2.6180000000000003,1.0499618509472746,1.0712900714045743,-0.5217625226319932,0.883590248457898,-0.3821910991314782,1.4679330718112078,0.26848287965422213,-0.6281700102267543,1.360507201997889,3,left
2.6180000000000003,1.0599905969115295,1.093855481684475,-0.528434536618381,0.9203639288670289,-0.427550994433732,1.4668470072127855,0.26864264957696593,-0.6280953384172145,1.360591124944489,3,left
2.6189999999999998,1.04660793855174,1.0895901881961572,-0.5315522316015927,0.8525025153734462,-0.3430135072919192,1.4683368161865022,0.2783931206479756,-0.6225993835147584,1.3607666979811055,3,left
2.623,1.023171902544052,1.0689286247601688,-0.5317976459750242,0.9394865878091103,-0.45174501321639426,1.4666591435722824,0.25440406357625794,-0.6360992105257408,1.3602422524960778,3,left
2.623,0.9917242644765207,1.0176476988689291,-0.505802116460252,0.8669414236599913,-0.3609001076561823,1.4679542498590257,0.29418461080145636,-0.6137230770154765,1.361137012285051,3,left
2.628,0.9683694729830136,0.9722011776082778,-0.4743352038534123,0.8688254251745009,-0.3634057823671788,1.4680203763943465,0.24171437544019642,-0.6432310292726222,1.3599534887078288,3,left
2.6289999999999996,0.961601268146303,0.9592693973339035,-0.4612223173879208,1.0073149945504585,-0.5365536449596761,1.4653552623650503,0.021484828534355745,-0.7672686207201111,1.3551433489489,3,left
2.63,0.9433396629360756,0.9146616971126305,-0.41874365223889737,0.6670746051646708,-0.11090006954812595,1.4717198091727326,-0.030983292510079488,-0.7967828664618724,1.3539714038312523,3,left
2.6319999999999997,0.8988430298662335,0.8502797722437703,-0.3493604075698744,1.2311192478007034,-0.816674290517742,1.4612669673777443,0.008796942396741014,-0.7743768691396287,1.3548473048754759,3,left
2.634,0.8698539680509946,0.8244441034762826,-0.31336378898472395,0.4872185791003695,0.11422408122710995,1.4749882804795673,-0.01519998103405304,-0.7879557666847422,1.35434052165566,3,left
2.637,0.8600152972216608,0.8171973175126033,-0.3029328140512423,-2.6355559751695097,4.021903018396886,1.532737760511717,-0.005427498324489426,-0.7823140477672794,1.3545114134833827,3,left
2.638,0.8122507516842428,0.8078540578544071,-0.2701954495069572,-3.379319960662169,4.952706424992849,1.5463620957981874,-0.005305453370189461,-0.7824405373715,1.3545745210126847,3,left
2.638,0.7404835822279037,0.8131512965479237,-0.22855517766604,-2.81549701695251,4.247070225628536,1.5360735977836817,-0.010407980048184022,-0.7851215640093269,1.3544038276317352,3,left
2.6430000000000002,0.6692979352583045,0.8413342034641884,-0.19412984218973328,-3.1555321904249425,4.672637932199034,1.5422675827820695,-0.00428331762891175,-0.7817554113883864,1.3545638034106315,3,left
2.6439999999999997,0.5795543308842759,0.8827830149685975,-0.14917480786010479,-3.017091106138277,4.499406838658249,1.5396883261623084,-0.009073321845113468,-0.7846151960163417,1.3545055486663786,3,left
2.647,0.4840793696060245,0.9322612589332955,-0.1028220599314191,-3.0154628867589848,4.497252334932664,1.5398595911665982,-0.006451338961619011,-0.7826153076899331,1.35441057854641,3,left
2.647,0.38914218139438883,0.985782173613156,-0.06271065077900373,-3.0873530019758,4.587455946875394,1.5407718737868417,-0.007120674125436255,-0.7838934073378935,1.3546584805503086,3,left
2.6519999999999997,0.290689375362439,1.0361513281655337,-0.023955292152013145,-3.001381359084821,4.4795351616344945,1.5397653029997214,-0.0077038314542448435,-0.7831163526314593,1.3543237849116858,3,left
2.654,0.19548678493084712,1.0840507936229846,0.013255374127537094,-3.068137142375855,4.563403169838058,1.5404272221861264,-0.006601795188161361,-0.7833768832979326,1.3546044361437206,3,left
2.657,0.10293429246346596,1.1280058178280024,0.04574290118393998,-3.032035164064737,4.5180837601678405,1.5400053120360555,-0.007710653473107709,-0.7840089585043948,1.3545822020398135,3,left
2.657,0.015575459008315081,1.1609011594256726,0.0693847079091797,-3.0411863876126786,4.529256350461728,1.540657803521718,-0.0068206776498457924,-0.781873645100778,1.3541267249116529,3,left
2.662,-0.06499310777916248,1.1829850810742335,0.09006657955751986,-3.048263873743361,4.539011209748427,1.5392334121998776,-0.007482045352714132,-0.7859807364917517,1.3551977767428007,3,left
2.662,-0.1334289600203968,1.1946799576231601,0.10905357091071409,-3.035989680133576,4.522105674209623,1.5416831924214462,-0.006978730051201472,-0.7801257929418746,1.353589446163677,3,left
2.667,-0.18367236076317134,1.1936825398376265,0.12348304644547903,-3.046213277688379,4.536794963849413,1.5385895229131346,-0.0073384409999281836,-0.7862678018603977,1.3553077267594797,3,left
2.668,-0.22290656745553053,1.1829134491763624,0.13419179646511528,-3.0400549345504064,4.527578005808479,1.5410916520472866,-0.007249148675377954,-0.7827854934963994,1.3543124284703365,3,left
2.6719999999999997,-0.25174667525488065,1.1626744821556665,0.1424692339158707,-3.0447033274428454,4.533381082278932,1.5412011109339925,-0.006803586610755647,-0.7795768291073588,1.3534622378911962,3,left
2.6719999999999997,-0.2677841153984616,1.1359049757767687,0.1503631519099849,-3.0365654037382166,4.526000355273958,1.5361973339081716,-0.008073622787175438,-0.7932380537240762,1.3571972768279434,3,left
2.677,-0.2774213051337534,1.1071736337779292,0.15300355667101573,-3.0526263840339647,4.539694393951796,1.5475844814770334,-0.0058789118123950095,-0.7679930148057121,1.3502674265531347,3,left
2.678,-0.27788020109224526,1.072906671275157,0.1466363918702909,-3.028078633986733,4.518529003583204,1.5305869729495762,-0.008639247635716649,-0.8003769366384671,1.3591666146348973,3,left
2.682,-0.2733451791327335,1.03800653602459,0.1366929685529357,-3.0550270340237113,4.542068921857997,1.548720069750162,-0.0063590407776264275,-0.7733539801245077,1.3517370901858317,3,left
2.6830000000000003,-0.2644200556218299,1.0099265333481022,0.12194255627043334,-3.0394666125936007,4.528478788451124,1.5382444585243225,-0.006383539665848836,-0.7740665788537151,1.3519378782005664,3,left
2.687,-0.24483554418151765,0.9851916021350405,0.10485163794161637,-3.024314352728193,4.514593151139306,1.5291776256690404,-0.010830568191133021,-0.8256445905850857,1.3661049753509351,3,left
2.688,-0.2199930495986837,0.9641079880528077,0.09215056454467271,-3.088371805230608,4.572551411845921,1.568807097724586,4.61483373176072e-05,-0.6988979759437559,1.3312850888677137,3,left
2.6910000000000003,-0.1719642244477163,0.9513190163683624,0.06932379857191592,-2.969693643092695,4.465208874069466,1.495320128593443,-0.017968128688859303,-0.9090417689070414,1.3890167508986635,3,left
2.6919999999999997,-0.1282780395768772,0.9475798182217503,0.04721829387214429,-3.122220466453694,4.603219837525496,1.5896793892870713,0.005785916990975288,-0.6318636230647722,1.3128705760317472,3,left
2.696,-0.11657443040720503,0.9467424468805669,0.04141998196060205,-2.994826136604181,4.487922314866518,1.5109087078460175,0.10551376904861401,0.5315616168991579,0.9932285392008996,3,left
2.697,-0.06360378344413267,0.9454867486733359,0.018279633806242514,-2.99807274472583,4.490808267651032,1.51302241450623,0.12926784476849776,0.8087456566262484,0.9170851854589084,3,left
2.697,0.019019740958819233,0.9477153857843182,-0.014184941229600056,-3.241812662077999,4.711646713532703,1.6632731716391107,0.1112578996141968,0.5985979435086101,0.9748138894987534,3,left
2.701,0.08395228993970352,0.9532196498388149,-0.03259017329379543,-2.642904968008285,4.169038351153062,1.2940067663461987,0.1221191450560001,0.7253334313585432,0.9399925081933345,3,left
2.701,0.17220292287304215,0.9625007215248006,-0.06085359958299929,-3.6359097548988615,5.068716067425841,1.9062480181550012,0.1177040940032496,0.6737945110315168,0.9541704184785376,3,left
2.7060000000000004,0.2333270896770707,0.9698436552620621,-0.08338378556618992,-2.3261156210016667,3.881996160646108,1.0987189668431834,0.11763208239633344,0.6730097865494732,0.9543484006157488,3,left
2.707,0.24760417359516063,0.9727597833909201,-0.08836657432887604,3.172794551074912,-1.1000710917376457,-2.291317504049487,0.11996336717762697,0.7001265619725632,0.9469512069288581,3,left
2.708,0.302657538077742,0.9817986640986527,-0.10548261332341513,4.482681364661385,-2.286888495096763,-3.0988635556328723,0.11717346000444788,0.6676612008475756,0.9558186602825851,3,left
2.7119999999999997,0.3720223399983511,0.9942515637139007,-0.1255610964558031,3.4894648300290196,-1.3870296322933187,-2.486549046506269,0.11934139283081074,0.692919124097624,0.9489016488206545,3,left
2.7119999999999997,0.4161226152793239,1.003578215157257,-0.13603043581137692,4.088729231986694,-1.9298658706037815,-2.8560027865135327,0.11818785394399771,0.6793791136092373,0.9526659068685237,3,left
2.715,0.45762022596163504,1.0091249102189206,-0.14447975422273296,3.8445079202570915,-1.7088248310437604,-2.7054124106768174,0.11841487974352409,0.6822855372407278,0.951724979442807,3,left
2.716,0.48887986795910543,1.0115468985888207,-0.14565401680858506,3.8417532826714442,-1.706005679942133,-2.703761791236319,0.1187917378737598,0.6862385325343844,0.9508841022085983,3,left
2.721,0.509733915653803,1.012760758647687,-0.14085383169574817,3.9688776112217288,-1.8215029368426265,-2.7820827792381757,0.11817361584711279,0.6795720681143009,0.9524149111059352,3,left
2.721,0.5208108730424679,1.0107464308931502,-0.1349395916189014,3.8160758084263637,-1.6829239438376726,-2.6879036643453222,0.11874174632737071,0.685765651512271,0.9509529914854937,3,left
2.725,0.5222736122144043,1.006491843082531,-0.12672683763517756,3.9358825338016064,-1.7911970685495742,-2.7618099286953264,0.11840606203443867,0.6818445764903016,0.9520323716347826,3,left
2.7260000000000004,0.5197834299985999,0.999692918600281,-0.11686983063682711,3.869734093977334,-1.7321470021295644,-2.7208805005881205,0.11842982673555169,0.6829315871041723,0.9512890794371728,3,left
2.7310000000000003,0.5067416938709812,0.9905256877170132,-0.10506271905392042,3.8876185711064575,-1.7468322877512175,-2.7321645641074435,0.11871111396108851,0.6843634459109693,0.9519118643145534,3,left
2.7319999999999998,0.48762804224335,0.9812070705062873,-0.09307545775512513,3.9007439745150188,-1.760587134892469,-2.739938368759755,0.11821110277126132,0.6812894452647431,0.9512404454229455,3,left
2.735,0.46389033699152127,0.9707889367284979,-0.08471228784388386,3.8743704422961454,-1.7352071129394688,-2.7239330679182645,0.11875908821020864,0.6847411208758583,0.9519082202932966,3,left
2.736,0.43371580430927925,0.9617692041060939,-0.08018537701255438,3.9020654907082073,-1.7602862230297995,-2.7410092208822316,0.11841884749739028,0.6824707714166824,0.9515981324090815,3,left
2.74,0.4009003797559295,0.9544602382034698,-0.0788174584166403,3.8777319762740956,-1.740995014873882,-2.725535960907651,0.11824255735925857,0.6818804590382815,0.9509555445913209,3,left
2.741,0.3644770497275776,0.9498786990877278,-0.08018899586118122,3.899072459811381,-1.7540327776907634,-2.7397706502894987,0.1192055731818549,0.6867013612094012,0.9531535714451866,3,left
2.745,0.3268727189446421,0.9510361067845766,-0.08219318662161307,3.8793051002193173,-1.7455175341437115,-2.725975177925951,0.11738513049911968,0.677356922831168,0.9491881215433792,3,left
2.745,0.28757616774140865,0.9548082708309973,-0.08373239546540043,3.89596129218808,-1.7505935658816514,-2.737958999525015,0.1197303568625966,0.6894465782793737,0.954255161048626,3,left
2.7510000000000003,0.2510371010026104,0.9601462857727517,-0.08543916005507299,3.8892982253551205,-1.7503435902531068,-2.73286006461139,0.11776940981859765,0.6793162992790931,0.9500348811174791,3,left
2.752,0.21868798790941843,0.9655523357419843,-0.08948924145908352,3.8743493996696214,-1.7417870426707764,-2.722789762974121,0.11783429167845064,0.6797324868444804,0.950110784746213,3,left
2.755,0.18704589455588239,0.9704568384438197,-0.0960760797649907,3.9227902868828743,-1.7638460677104604,-2.756392796230771,0.12153447051506766,0.6985841834512475,0.9582840299863271,3,left
2.7560000000000002,0.16232634373102203,0.9783308573374526,-0.10008788929126518,3.836968110067298,-1.7265731809193583,-2.696548900430951,0.11242618654851004,0.6520806284368427,0.9382400680569315,3,left
2.76,0.13526069316192335,0.9847178010308097,-0.10218862702177361,3.9457227920126403,-1.7731231285342406,-2.7725004972336613,0.1275314108570458,0.7292303368685608,0.9714626481616054,3,left
2.761,0.11517393175208987,0.9861471145808155,-0.10630633142188928,3.8555383099350156,-1.7348142751786066,-2.709467920043026,0.1076077973797395,0.6274649117217055,0.9276426367287707,3,left
2.765,0.10970172574869497,0.9865172956417995,-0.10734751428108336,3.8570416112063093,-1.7349987141779202,-2.710596017242117,0.023991540482843233,0.20053071494331426,0.7436591480128113,3,left
2.766,0.09359545489731741,0.98835946969804,-0.10611535314198431,4.031500719894872,-1.8103136317172979,-2.8323246877960546,0.004070054015721393,0.09877933890324264,0.6998334031312299,3,left
2.766,0.07392181997820539,0.989438738457746,-0.1114206477106721,3.6040548094985607,-1.6264311060855914,-2.5339645390829126,0.01917297734123605,0.17591384702432974,0.7330621867638065,3,left
2.77,0.05708774306802406,0.9877951594086412,-0.11845297422170278,4.312273343410798,-1.9308524598749441,-3.0283473717231795,0.01006381705107478,0.12940451123426058,0.713020583008265,3,left
2.77,0.0442403623091788,0.9875996084303384,-0.11936394955914428,3.3783134016516256,-1.5294894783360944,-2.3763675750124027,0.013771631676471534,0.14830662765061708,0.7211732538819868,3,left
2.7760000000000002,0.04130639662536266,0.9871362240409597,-0.11999425006563154,-0.5427067477660356,0.155890066814446,0.3607631704544147,0.01382008565837538,0.14861433021547074,0.7212934273545977,3,left
2.7760000000000002,0.029953587460211727,0.9840504664335947,-0.12062409032545525,-1.4766688271397868,0.5572298528714705,1.0127454339730764,0.01188269166857446,0.13863959702494696,0.717009672251671,3,left
2.7769999999999997,0.01652450695973539,0.983145379007273,-0.11685254824246857,-0.7685337819505879,0.2529286174023073,0.5184120377792876,0.014204465591009043,0.15057436089387632,0.7221399212781169,3,left
2.78,0.010084090755708056,0.9821164682099254,-0.11385636120111343,-1.1956749013981933,0.43648411619875294,0.8165866126740224,0.012394139443830225,0.1412967561325454,0.7181471948586868,3,left
2.78,0.004034433067485451,0.9792007922385778,-0.11320909258187382,-1.0218500079102593,0.3617798281411857,0.6952472815060591,0.013377300508390682,0.14625066374866566,0.7202909493604517,3,left
2.784,0.002812394883256437,0.9757607338676797,-0.11557693844079017,-1.019400678684881,0.36074509255537096,0.6935356574787646,0.013136127956244744,0.1452319013061366,0.7198231986928496,3,left
2.785,0.0016765952787714496,0.9718664029332809,-0.11734059390065929,-1.1106064689223532,0.3999019766075873,0.757201392644845,0.012907676101506225,0.14369979066065242,0.7192118529522364,3,left
2.7889999999999997,-0.0016586733717256338,0.9694138331622383,-0.10833702831750937,-1.0012533436326452,0.3529711312716711,0.6808734882205362,0.013318475241537968,0.14624546070674782,0.7202493532276646,3,left
2.7889999999999997,-0.002098228074336774,0.9665399669832306,-0.0944322665962983,-1.0865564940552892,0.389547551898316,0.7404077527137387,0.012927825618886252,0.1438937734755556,0.7192831617599106,3,left
2.7939999999999996,-0.0003603698193295915,0.9646072026244922,-0.08363119930469487,-1.040420416324197,0.3697991266656572,0.708215439292962,0.013210110423222768,0.14533206466505788,0.7199033418738441,3,left
2.795,-0.00012974845241752055,0.965608104469219,-0.07581287314987185,-1.0510259693998445,0.3743250167979574,0.7156125346221399,0.013030876165281858,0.1450786629106685,0.719707018938601,3,left
2.799,-0.0026402424536627438,0.9672746442323958,-0.07025444445780685,-1.063423306153065,0.37958265261942925,0.7242551594549195,0.01315907038129189,0.1442208843230116,0.7195363522417659,3,left
2.799,-0.002357349804865732,0.9706522754701258,-0.05919305834837716,-1.0415879300104656,0.3704185851182086,0.709050800659996,0.013035202679328806,0.14584452019923994,0.7199393317042596,3,left
2.804,-0.00012425526729868024,0.9759290999495353,-0.04169279502808805,-1.062707477040023,0.37911855845680953,0.723727444455774,0.013154726881607362,0.14404973750744438,0.7194820740928312,3,left
2.804,0.002839832166290704,0.9819479674472655,-0.02583216286585757,-1.0477735811179103,0.3731612297209167,0.713384005882499,0.013105446458467404,0.14518789389940812,0.7197899556099714,3,left
2.8089999999999997,0.012115711298093405,0.987256503385129,-0.01270742850955325,-1.0549241063019497,0.375867568050645,0.7183106429975978,0.012964894900039714,0.14566775937414558,0.7198391329400065,3,left
2.81,0.02369707916965459,0.9914196759975553,-0.0019069346278798066,-1.0549079751637,0.3758567615249291,0.7182986367570487,0.013419553466657942,0.14274732656890055,0.7192698941551118,3,left
2.813,0.03476534320969421,0.9962501512592279,0.0013991118146217743,-1.049259147329408,0.37411069594789603,0.7144762773159128,0.012605278780945904,0.148311216929778,0.7203895329058692,3,left
2.8139999999999996,0.04803536122610741,1.0031228903316065,-0.00148728368161752,-1.0589544552060266,0.37672074452958293,0.7209682608160239,0.01364445302519483,0.14113387648555753,0.718937397768598,3,left
2.818,0.06079768667558956,1.0115539012584687,-0.0027412067735065916,-1.0471384155835564,0.3739643201478157,0.7131313198839786,0.012779369759542124,0.14713907419286976,0.7201557114919416,3,left
2.819,0.0724080162082826,1.0172474591297302,-0.0028625176248105524,-1.058186445253538,0.3762378327778044,0.7204053722628486,0.01279304765134754,0.1469254687252875,0.7201000392170652,3,left
2.823,0.08359141228988885,1.0206344360718536,-0.0033726956383655195,-1.0522985619569245,0.3751366565230023,0.7165477144206442,0.014474875700367892,0.1356428394057589,0.7178510061908487,3,left
2.823,0.09455659264153032,1.0234254302497523,-0.005787792297595437,-1.0474255807720088,0.3742761235496201,0.7133659706963869,0.010352280676356029,0.16343380530914237,0.7234060033940366,3,left
2.8289999999999997,0.10168444726703804,1.0216815851591972,-0.00978882291211558,-1.0681499170904871,0.3777869865976887,0.72687525864993,0.017185295389487498,0.11734040218516495,0.7141880496688763,3,left
2.83,0.10118265340085633,1.0188055685710231,-0.00922142235218921,-1.0302882848405153,0.3715203610586775,0.7022193137939922,0.008172109658481095,0.1781375356570246,0.7263478799945746,3,left
2.833,0.1011985020444242,1.0181550313740382,-0.009001128267872367,-1.0785074514770856,0.37939782039374303,0.7336036868831912,-0.02967120427184435,0.4332651726241809,0.77735234641847,3,left
2.833,0.10303851056146945,1.015619007092597,-0.013145887096644535,-1.0384291904293443,0.3728954912099824,0.7075231847750925,-0.03868749388643303,0.4940533521492051,0.789511705684081,3,left
2.8339999999999996,0.09976110324391432,1.0111606376418223,-0.01915498092227134,-1.0395242227086219,0.3730809007303024,0.7082438190872206,-0.03185024955693139,0.44797076835748445,0.7802931185911051,3,left
2.838,0.0949062986657445,1.0058348792930256,-0.024631584369711263,-1.115615401016731,0.3853254743320278,0.757725199923553,-0.03597465393060597,0.4757614100797307,0.7858523582461272,3,left
2.838,0.0912823165285784,0.9988606145847411,-0.028627546750051948,-0.928714169476999,0.355272370605031,0.636176253138266,-0.0342976020806169,0.4644549103861109,0.7835932880634154,3,left
2.843,0.08804799333885555,0.9895852639336934,-0.040253385886646315,-1.2384826962641236,0.4050557598555852,0.8376344467331267,-0.0342693964968646,0.4642981861065295,0.7835536358858703,3,left
2.843,0.08651546556510863,0.9825065705061636,-0.05069056776724881,-0.8299932207499718,0.33942703486565096,0.5719700467476321,-0.03515871311384101,0.4702174073590931,0.7847534444866896,3,left
2.844,0.08592957180768337,0.9825518401225776,-0.05271123270646377,0.8847124857222323,0.0640643128441955,-0.5429840668573366,-0.03409115587659467,0.4631312032807722,0.7833141597746016,3,left
2.8489999999999998,0.08840785477455335,0.981195210172234,-0.06315215730128036,1.2931395293148271,-0.0015322737220883516,-0.8085967533864858,-0.0349255728665184,0.4686455157075528,0.7844386103267582,3,left
2.8489999999999998,0.09827328707799482,0.9759815098719417,-0.0769290023013424,0.9834409773622689,0.04819697176406665,-0.6072242798940743,-0.03447709297839312,0.46567045245579936,0.7838344717088603,3,left
2.853,0.11313905458063543,0.9733555859257852,-0.08548841632730353,1.1703593011774935,0.018199259534532528,-0.7286890623306996,-0.03456644294833143,0.4663669459865276,0.7839550172771832,3,left
2.8539999999999996,0.12854084801390372,0.9698118340577311,-0.0921223462428635,1.094061786165582,0.030417715759501286,-0.6792394701532025,-0.034721711208257525,0.467108770720406,0.7841632310367042,3,left
2.859,0.1444948995920941,0.9655575036208015,-0.09418035782391862,1.093422559729139,0.03056481503444068,-0.6785956667320144,-0.0344532520536589,0.4658248821186769,0.7838035504843417,3,left
2.859,0.16164853778587351,0.9642035586445632,-0.0949900786141,1.132837793329754,0.024193081017317035,-0.7044497307356835,-0.034724026126623175,0.46700462560545586,0.7841656849655088,3,left
2.862,0.17743492809878147,0.9641515833250518,-0.09563111418238937,1.0852907434967103,0.031845972210663764,-0.6734360991370925,-0.034532312161742795,0.4662270865237561,0.7839096184144343,3,left
2.863,0.1906539528273145,0.9649120810581518,-0.09757306881907774,1.1228402700137878,0.025851785235954577,-0.6976623131846664,-0.0345876216536486,0.46660431745716324,0.7839841352051229,3,left
2.8680000000000003,0.20407163776676468,0.9677868146124691,-0.10306279249704503,1.1015897778201285,0.029150966000481865,-0.6844563147514517,-0.034706184097469076,0.46644862329360237,0.7841396617282209,3,left
2.8689999999999998,0.21731258468982545,0.9718504633285031,-0.10713940530765628,1.1082451802842974,0.028276478716580598,-0.6877304073367342,-0.034404475000462384,0.4665974509878022,0.7837428866317315,3,left
2.873,0.22997284715621402,0.9743059206647092,-0.11149847140299612,1.1110124780916537,0.02759426578034687,-0.6908220662881837,-0.03484745828014513,0.46632723483648986,0.7843251537755545,3,left
2.8739999999999997,0.2434725096331617,0.9769841895573883,-0.11606321448261314,1.1038460793551161,0.028934420916149985,-0.6851322311283276,-0.03438467444456644,0.4666791751173065,0.7837172196694843,3,left
2.877,0.2547777625427926,0.9803558023871802,-0.11725200067880928,1.112491092460571,0.027547949730175228,-0.6907445030837547,-0.0346522081732005,0.46647646653955277,0.7840686248136279,3,left
2.878,0.26483359695285896,0.9840016109354203,-0.11874415367692112,1.1029412268412335,0.028730228252535697,-0.6864452714749145,-0.034861717464113866,0.4661602553337496,0.7843432089935665,3,left
2.8819999999999997,0.2744271441929653,0.9875917007747992,-0.122190884650159,1.1140804252539809,0.027743956666837606,-0.6893224545295452,-0.03391738633925295,0.4673610978649864,0.7831048004747192,3,left
2.884,0.2792396628712657,0.9886569789200875,-0.12898693726227103,1.1012257824876275,0.028611190707404595,-0.6874770286409773,-0.035670106685519024,0.46514314343003466,0.7854032864611556,3,left
2.887,0.2827295590403448,0.9910148387101444,-0.13456546693741261,1.113551918001743,0.027907722640102488,-0.6885488570964151,-0.03342117140557701,0.4680029392843027,0.7824542371204699,3,left
2.888,0.28721612899957816,0.9946572878887707,-0.13105776542664319,1.1073537132574574,0.028165966689619473,-0.6885302200559886,-0.03529805218069222,0.4656099602185946,0.7849152332691336,3,left
2.8939999999999997,0.29088704613439764,0.9958651667681402,-0.12707260986126268,1.0991383367141843,0.028849485993930054,-0.6866465065629239,-0.035244680063741714,0.46566013778995385,0.7848455119593457,3,left
2.895,0.2961665700822703,0.9956562136942915,-0.12644672253711284,1.1297931029468282,0.02670834019506823,-0.6914447440767317,-0.03167615852114482,0.4702858679887175,0.7801659205387987,3,left
2.8960000000000004,0.29994245407130027,0.9927651027600581,-0.1244011771686884,1.0741963129947576,0.030478272641452312,-0.6833608427808556,-0.04044951860055244,0.4589270756955941,0.7916702913945359,3,left
2.897,0.29926505528530883,0.9871699228754157,-0.12291629532109109,1.1451328246482726,0.025709833636727644,-0.6934468613464739,-0.02590258433444559,0.477761973825359,0.7725955728031685,3,left
2.9010000000000002,0.2987113896165655,0.9835434914507689,-0.1220205710430541,1.0861043061933064,0.02966026649912343,-0.6851517909535767,-0.0450897223895681,0.4529148699726665,0.7977544192950062,3,left
2.9010000000000002,0.29794649323678835,0.9830829841153275,-0.1214265128513299,1.0874029751590886,0.029600275345259313,-0.6851821436594119,-0.12561054395465962,0.3485867137727573,0.9033459131538276,3,left
2.903,0.2946438855854674,0.9800778511231318,-0.11562815472473242,1.2007527168361574,0.021942695452507106,-0.7015149818430688,-0.14479640122258064,0.3237340020001116,0.9285034135116166,3,left
2.906,0.2899173267897245,0.9740409419556041,-0.10374108980107806,0.9225880288702746,0.04069632572255427,-0.6616532325943547,-0.13025274898775147,0.3425772877981768,0.9094313919730508,3,left
2.906,0.2839927766091733,0.9707768700746642,-0.09659012990722984,1.3836304803138477,0.009627396345839456,-0.727637448025979,-0.13901991934905317,0.3312125847033982,0.920931922435519,3,left
2.912,0.28048506018971964,0.9703766108812901,-0.09400731198018841,0.7755813482315737,0.050598035932200296,-0.6406455653439556,-0.13546064844801675,0.3358351317757263,0.9162565592057899,3,left
2.912,0.27979001357613376,0.9708777148156778,-0.09341722945492678,-1.777081645078645,0.22260209067179543,-0.2752542326589369,-0.1353966232175438,0.3359034773956553,0.9161837926063677,3,left
2.9139999999999997,0.27606299490244146,0.9714824059804255,-0.09376707945431026,-2.385126522413581,0.2635709155254406,-0.18826524463929334,-0.1372813720472879,0.3334753864355522,0.9186443095571724,3,left
2.917,0.2702500163922926,0.973127954768897,-0.08615054268305777,-1.9241033977200956,0.23251022948583344,-0.254236311954184,-0.13503385314405125,0.3363814671809705,0.9157017900522981,3,left
2.917,0.26588453809519397,0.9780894211592732,-0.0738890758184739,-2.202217685843934,0.2512423628815967,-0.2144088495041741,-0.13676878281490917,0.3341225180020854,0.9179862187104764,3,left
2.9219999999999997,0.2606242734879893,0.9835867193444359,-0.0665426956503753,-2.0889601880151076,0.24362412752866677,-0.23067893507108478,-0.13586282153728454,0.33533206143696737,0.9167681027068368,3,left
2.9219999999999997,0.2537346586427591,0.9888160778244115,-0.06106482738706496,-2.0875348703024725,0.24351011711710674,-0.23079544524567963,-0.13601683299500905,0.33507116050136515,0.9170218749971291,3,left
2.926,0.24891347309796202,0.9955152387876975,-0.05544947099819088,-2.1466874730974927,0.24751347554810119,-0.2224159625118119,-0.13634133032623524,0.33472584780942943,0.9173838466573219,3,left
2.926,0.24266564460111248,1.0007323873661058,-0.05065658464807815,-2.0756992274030033,0.24272297028736176,-0.23253717372447236,-0.13584969586288226,0.335303015986657,0.916789803683602,3,left
2.931,0.23081085218139252,1.004407695229732,-0.04458709204541811,-2.1311849578492037,0.24644553306393466,-0.224528826701549,-0.13625434004853704,0.3347782479764544,0.9173208735471208,3,left
2.931,0.22013675199276023,1.0068003892753685,-0.038035691486030476,-2.1008819592586168,0.24445442572138346,-0.22908775930173175,-0.13609350727297964,0.335097381308152,0.9170160043803226,3,left
2.937,0.21093523029556988,1.007024024468561,-0.03366584187102699,-2.108492942278292,0.2448801543509773,-0.22761520781475497,-0.1359592264061153,0.3350182697100663,0.9170546533441779,3,left
2.938,0.19934343222882508,1.0082105883965355,-0.03021169614981451,-2.1154323603627803,0.24545454698156932,-0.22709233438462229,-0.1363362841834409,0.334907282261672,0.917228753388617,3,left
2.9410000000000003,0.18991782986608907,1.0092275027954907,-0.025843788499767283,-2.1025153841939948,0.2444990679016217,-0.22856609909180609,-0.13586965126565576,0.33510940946881335,0.9169583430186756,3,left
2.9419999999999997,0.18272490824064974,1.0080249551421083,-0.024734244919248628,-2.1153647207548705,0.24536404020813735,-0.2267242917371187,-0.13618266438903168,0.33493641883595104,0.9171714804851565,3,left
2.946,0.17697410425895194,1.006257060256838,-0.029398174163081835,-2.10532223350535,0.24484554488391058,-0.22885538539414074,-0.136317570134668,0.33496200950277466,0.9171783137971693,3,left
2.946,0.17332397513961917,1.0048192046894124,-0.036719661855521266,-2.112365513797391,0.24495869583626206,-0.2262613604196949,-0.13547822851938568,0.33517236072305523,0.9168220334632464,3,left
2.95,0.17057654551977677,1.0044356108519428,-0.039738450219389806,-2.107460399238329,0.24516739644230917,-0.2293294271114254,-0.13709364277353217,0.33470608129582524,0.9175599046559013,3,left
2.951,0.17138558603351572,1.0015015433692225,-0.03232618673326561,-2.1106391899674692,0.2448067220105929,-0.22635229504310944,-0.1349981123537568,0.33533228827018413,0.9165845860794165,3,left
2.955,0.1731625374670519,0.9943516138375762,-0.02135984046142345,-2.110177342078629,0.2451078545009561,-0.22787562187494975,-0.13675663211972278,0.3347978507622341,0.9174106857523812,3,left
2.955,0.17570058522692034,0.9881979972924552,-0.018436861410957087,-2.1055048799532043,0.24507913758897504,-0.22980069185263027,-0.1366949723123456,0.33483030370760514,0.9173699649616268,3,left
2.9610000000000003,0.18047076876746346,0.9815787335185954,-0.024956785828617968,-2.118067772436664,0.244672823088884,-0.22250481317664628,-0.1333791568612181,0.33580156174635517,0.9158435186061415,3,left
2.9619999999999997,0.1850430845950775,0.9724925069821663,-0.03268460745920512,-2.0966333608090375,0.2455521793718089,-0.235768089353257,-0.14154953615049032,0.3333882354628215,0.9196220670241093,3,left
2.965,0.1938593733750107,0.9666874654498051,-0.03502276260560454,-2.123484026738338,0.2443774767917649,-0.2188339097847573,-0.12799468719720464,0.3373995986282165,0.9133467232088803,3,left
2.966,0.19887707406142088,0.9650071034037346,-0.03521683722960841,-2.1013525390940533,0.24537776713990933,-0.23293019788941238,-0.1458767202277042,0.3321048566406294,0.9216279836446146,3,left
2.97,0.20050509345694123,0.9644908426132333,-0.03591064628522973,-2.101511903277596,0.24532015231752707,-0.23261258555558267,-0.22092285619662055,0.30989536361541486,0.956371580778375,3,left
2.971,0.21313626928795582,0.9631454004531952,-0.035890082300970294,-2.1448808766103955,0.2434937105636626,-0.20556419806428286,-0.23880675967806328,0.30459938116044805,0.9646548623135175,3,left
2.971,0.2304973425264672,0.9596711965727538,-0.03837078096729065,-2.0389227213899983,0.2480277445518388,-0.2719524862456634,-0.225247613540763,0.3086144632450626,0.9583745583694337,3,left
2.975,0.25078494928335016,0.9560544827864516,-0.04231744623166911,-2.214363310939955,0.24049219235980987,-0.16191414340858643,-0.23342527586787645,0.30619322866751225,0.9621620986812945,3,left
2.975,0.2645627430289277,0.9539971695319073,-0.043059420471261656,-1.9830494931104956,0.2504394671388787,-0.3070391552620324,-0.23009957179628412,0.3071773908596551,0.9606226535914165,3,left
2.9789999999999996,0.2685812805717477,0.9544462909404366,-0.04394720649920904,-1.011745953384482,0.2921589504171944,-0.9162628150528921,-0.2300480977975627,0.30719367378692386,0.9605963714767927,3,left
2.98,0.28619710348994365,0.9561427076884363,-0.044435936899125894,-0.7804594742329943,0.3021126607618414,-1.0613791662397565,-0.23180089268594206,0.3066731377681722,0.9614126011603032,3,left
2.98,0.30905609991860983,0.9566190594069691,-0.044230309224627895,-0.9558137938054965,0.2945641154224844,-0.95136059078174,-0.22969997155148375,0.307297097203585,0.9604335805128346,3,left
2.984,0.3269367885497204,0.9574685985889103,-0.04736812350985686,-0.8500451909966475,0.29911686063347676,-1.0177156159736618,-0.23133830861719046,0.30681025511862015,0.961198175065913,3,left
2.985,0.34690250415077173,0.9586035437602161,-0.047613824005716385,-0.8930983066174646,0.2972694808902304,-0.9907120683522072,-0.23045613546892502,0.3070721524251437,0.9607871768702775,3,left
2.989,0.36404721113980276,0.9558569742237031,-0.0421405922804416,-0.893660719400431,0.29722749895344724,-0.990348698016569,-0.23064736499216132,0.3070170566444277,0.9608706687515928,3,left
2.99,0.380494778217344,0.9504585699479906,-0.035257435974307014,-0.871172758768356,0.29822892749521457,-1.004469985921307,-0.23090968090961025,0.30693463380763675,0.9610082644037595,3,left
2.9939999999999998,0.3948527839448787,0.9471236503508754,-0.032418940799004495,-0.8981018258000729,0.29702367147208986,-0.9875616355923553,-0.23045604344012832,0.30707707530181716,0.9607705143102433,3,left
2.995,0.404317893573487,0.9428453174399184,-0.035568128244112956,-0.8771471709655048,0.29797084419920655,-1.0007195731930771,-0.23089627602559193,0.3069367829220734,0.961008286531827,3,left
3.0,0.41305271397410426,0.9367822893864697,-0.03859858766041741,-0.8884593116513013,0.2974648758949622,-0.9936185623776433,-0.23059326981376446,0.3070344313480194,0.9608409729711251,3,left
3.0,0.41702449266497243,0.9328209366657703,-0.04080998944005322,-0.8857799365973593,0.2975405993107262,-0.9952893051179689,-0.23070358158923848,0.307001802792188,0.9608917733299044,3,left
3.0060000000000002,0.4160288111933074,0.9303566792612936,-0.04160729339986148,-0.8830397365126423,0.29778471940278683,-0.9970388753385747,-0.230795576860798,0.3069599430873271,0.960984548060484,3,left
3.0069999999999997,0.4145123981075662,0.9299373407455007,-0.04475288104071868,-0.8877871233246992,0.2973634601519456,-0.9940091915622523,-0.23052446377425553,0.3070736973761158,0.9607444207904925,3,left
3.009,0.41083913656346815,0.9300667359797236,-0.055859044889333534,-0.8834654328024694,0.29781548722057216,-0.996782863290467,-0.23091472389160272,0.30690813742607637,0.9610960159077496,3,left
3.01,0.4048229118661272,0.9299597869776317,-0.06728232732989636,-0.8862915147562136,0.29748185661603754,-0.9949604017670509,-0.23051751358398068,0.30707913963017663,0.9607299864963662,3,left
3.014,0.4012910095876161,0.9311339559523013,-0.07673449005696009,-0.8848539732445568,0.2975417423759077,-0.9958616824003215,-0.2307471731950948,0.3069801418352856,0.9609414437383624,3,left
3.015,0.3992272338034296,0.933236834444771,-0.08070064270729417,-0.8856942849147388,0.2978991920521671,-0.9954264030074029,-0.230903643543073,0.30690755984557816,0.9611048305646724,3,left
3.0189999999999997,0.3932374672514108,0.938201950663577,-0.07643208296149134,-0.8845629719754101,0.29704847260928124,-0.995926418868366,-0.23016525311051017,0.3072420677694906,0.9603656343836738,3,left
3.0189999999999997,0.38606860843096236,0.9446105746629745,-0.07467863705032265,-0.8864333598445575,0.29830969907507354,-0.9950657284482489,-0.23153715456748114,0.3066205549636419,0.9617373770057625,3,left
3.0239999999999996,0.3769114185514879,0.9521476835807661,-0.07311747195896243,-0.8841968245736462,0.2969756514993511,-0.9961355512230337,-0.22977915071495003,0.30741795536605554,0.959977933510345,3,left
3.0239999999999996,0.36359188301188444,0.9602934430168089,-0.06491638681568698,-0.8854862186226942,0.2977466001560528,-0.9955191953728327,-0.23124505857086064,0.3067521650250442,0.9614455785015449,3,left
3.028,0.35249793585982225,0.9670283884740953,-0.05575722279508097,-0.8871372473313572,0.2983879164672145,-0.9946493795541471,-0.23120143244852365,0.30677275337754034,0.9614049757850053,3,left
3.029,0.3414928189266728,0.9744753562111924,-0.048550708930063594,-0.8806106615565594,0.2955510340772528,-0.9980175123791143,-0.2284238953285267,0.3080337015318369,0.9586123710831684,3,left
3.034,0.3264437797553287,0.9810566557651028,-0.041859813977198485,-0.892678943408167,0.30081363055047233,-0.9917934519051657,-0.2352531862090561,0.3049308911415657,0.9654754604566671,3,left
3.034,0.3113752202509934,0.9876801388002547,-0.0377178097594487,-0.8771385886116555,0.2940580332872008,-0.9998130821346248,-0.22393088837169728,0.31007735039882667,0.9540980570176653,3,left
3.0380000000000003,0.30438709945230324,0.9926147288855169,-0.038294496324481925,-0.8901319558566361,0.29969721261716964,-0.9931057283672517,-0.23886322447081257,0.30328754307340866,0.9691025311892644,3,left
3.0389999999999997,0.30238856150786075,0.9942916383032108,-0.037443214935397956,-0.8898389472341581,0.2995417835508878,-0.9932502745222648,-0.3015375399965435,0.27481335802227636,1.0320985846232702,3,left
3.0389999999999997,0.2912643477575263,0.9984011531594998,-0.033733666090420195,-0.8648165501788005,0.28880028574097194,-1.006195063366147,-0.3164672381212886,0.2680207098782392,1.0470993896746976,3,left
3.042,0.2805002476292645,1.0018793629727782,-0.032069681962256104,-0.9262717834687685,0.315204106462178,-0.9744080475278195,-0.3051486068806505,0.2731700023211895,1.0357263334719111,3,left
3.043,0.2770890275635074,1.0053488178597418,-0.0278079100347586,-0.8243745715378061,0.2714250904329508,-1.0271131540308125,-0.311976105446651,0.27006921239040627,1.0425895955938036,3,left
3.048,0.27256437284082446,1.0099321104220385,-0.023839763837846133,-0.9587884905211062,0.32916912696413503,-0.9575880284697877,-0.3091950338537834,0.2713182097924787,1.0397865793633638,3,left
3.048,0.270937841573921,1.0114028209629322,-0.022260447178277375,-1.5232052528285385,0.5715311673498549,-0.6656159141395845,-0.3091629761803465,0.2713633389508232,1.0397702198832781,3,left
3.049,0.2694929724110179,1.0135586771289007,-0.010986273544975198,-1.657643830567773,0.6292738046050245,-0.5960750950340427,-0.3106091238324362,0.27066330101902203,1.041201630603783,3,left
3.053,0.2671182423773302,1.0170249047894702,0.0046370944313938785,-1.5556996031413388,0.5854983265302693,-0.6488106866901062,-0.3088747611025165,0.2714936319802067,1.0394801106293632,3,left
3.053,0.26763323110478715,1.020474679491107,0.013044462793614965,-1.6172167212783242,0.6118955538819794,-0.6169822909123646,-0.31022910028279943,0.2708600883923756,1.0408320697029367,3,left
3.06,0.26720592172465346,1.0242238074920316,0.0203704333545722,-1.5921343212592345,0.6011638141553737,-0.6299693795122079,-0.3094873725533429,0.27116129925810395,1.0400681895942394,3,left
3.0610000000000004,0.26944771473483176,1.0275022334437143,0.02951233806255667,-1.5918712087693492,0.6009972632421365,-0.6300887982704338,-0.3096837748292196,0.27118734196804684,1.0403246481468287,3,left
3.062,0.27385959491480727,1.0290113078254448,0.03441980419465126,-1.604901139239948,0.6066444838362792,-0.6233647223008136,-0.30982806620975545,0.27092331068303244,1.040368043242822,3,left
3.063,0.2758209637054604,1.0301973995719662,0.035709294402417185,-1.5892251591325783,0.5998907536010295,-0.6314668954639122,-0.30955320980409756,0.27129164700529396,1.0402164386398978,3,left
3.068,0.2781331405535025,1.033365150134867,0.03811866952624174,-1.6015362063532033,0.6051342077987538,-0.6250848586552922,-0.3098196603020186,0.2709765336946627,1.0403848819019357,3,left
3.07,0.281285283545483,1.0347650093704877,0.041893208355823594,-1.5947015278519574,0.6023379746698724,-0.6286640651626106,-0.3096078883519175,0.27107107049615187,1.040171205388512,3,left
3.072,0.28409799361212157,1.0372008435440097,0.046047268033364085,-1.59661464016606,0.6029210376225622,-0.6275993729616822,-0.30979100323769615,0.27134776355461504,1.0405394491274502,3,left
3.073,0.2840498611959733,1.0397588006791965,0.05057305776630023,-1.5978670586967296,0.6037510937301984,-0.6270434490062389,-0.3095833944984987,0.2706195894647685,1.0399097523914145,3,left
3.0780000000000003,0.2800456452883879,1.0389748576763966,0.05322647124737616,-1.5952356431716845,0.6023883298336584,-0.6283314946219754,-0.30984265191643834,0.2717288472330328,1.0407985045784678,3,left
3.0780000000000003,0.2748188476812061,1.040400767464042,0.05088588935288166,-1.5980784976196343,0.603606978941299,-0.6268600575763884,-0.30957561284697,0.2705420772741479,1.0398603626343699,3,left
3.082,0.2658767829095371,1.040894208892609,0.04704671944738347,-1.5954419866006253,0.6029066084980896,-0.6283600550244556,-0.3097151705395389,0.2712345628468472,1.0403877817201566,3,left
3.083,0.25234122231107936,1.042911657108823,0.04411134417505624,-1.5979504982976414,0.6029972613423303,-0.6267516701235772,-0.30990869742149996,0.2717979877068285,1.0409154758573187,3,left
3.0869999999999997,0.23933924614559376,1.0492019999754763,0.04143744857467888,-1.595446484414715,0.6033935361229084,-0.6285102443238387,-0.3091814110082691,0.2692772915727055,1.038725166998357,3,left
3.0869999999999997,0.22468324222074126,1.0529040989043787,0.04176038494880979,-1.597663207457796,0.602776960434792,-0.6268700768898918,-0.310508762781905,0.273961882409861,1.0427660856410976,3,left
3.093,0.2063013497649456,1.0557527433369578,0.03888443870945081,-1.5966850646400794,0.6032628787416341,-0.6276605603219427,-0.3088089135066593,0.2679443629223235,1.0375814077939887,3,left
3.094,0.1904613990687128,1.0588088494380399,0.031132562679816896,-1.5949009843190347,0.603278647724631,-0.6288306649417026,-0.3102265794081717,0.272969083425436,1.0419091388164439,3,left
3.097,0.1738028863295637,1.0639923352828573,0.02584329663909179,-1.6009740982984708,0.6024666547352768,-0.6246113178739965,-0.3101945398582211,0.2728293959462436,1.0417965388520343,3,left
3.0980000000000003,0.1542433439534373,1.0691656506874545,0.02179522382610518,-1.590119838613119,0.60414702483305,-0.6322231513310417,-0.30746952451940457,0.2632601615787218,1.0335269797524473,3,left
3.102,0.1379050312311001,1.0731380078481934,0.01669110202390203,-1.6039122879971757,0.6019279425309705,-0.622525885176761,-0.3141607612144954,0.2867846892261573,1.053849524061787,3,left
3.103,0.12122039337657194,1.0838909769421947,0.008095937704090894,-1.5924552139370383,0.6038040400995695,-0.630589357708337,-0.3030670653914149,0.24777859763598883,1.0201521332220989,3,left
3.1060000000000003,0.10876429185468092,1.092639937599819,3.075743314460565e-05,-1.5926806917884813,0.6037197220041903,-0.6304207200380347,-0.3177006404724133,0.2992277392016375,1.0646016591883518,3,left
3.1069999999999998,0.10474785556246002,1.0943425949198318,-0.003081232662884217,-1.614755264632603,0.6002336899974802,-0.6149132474422485,-0.37909915165999397,0.5151724184354788,1.251098270755834,3,left
3.1069999999999998,0.09248805409930287,1.1023625929633503,-0.010182966984991883,-1.560614110899433,0.6088458289261041,-0.6529571842516717,-0.39373235787176775,0.5666208269694397,1.2955454462456206,3,left
3.111,0.06885326171491454,1.1178751606336574,-0.023640090594140153,-1.6503483313560965,0.5945560939389933,-0.5899052987675132,-0.38264368461085563,0.5276165392685618,1.2618620855450913,3,left
3.112,0.0556836445296102,1.1270079451321822,-0.032233609700221245,-1.5319898952667095,0.6134000868121903,-0.6730611130938635,-0.38931869664102825,0.5511377882842412,1.2821449095285726,3,left
3.116,0.05064287757946243,1.1310424356400226,-0.034034797225020896,-1.0353195853600952,0.6926062121895344,-1.0221386731310937,-0.38662611912153605,0.5415733042294868,1.2739507961538523,3,left
3.117,0.02961124297520258,1.1436498051853001,-0.04116279778454143,-0.9169332024609482,0.7114310480566328,-1.1052938768975655,-0.386546840315406,0.5414283268503627,1.273731902925988,3,left
3.1180000000000003,0.003205071054005696,1.1587255738310094,-0.051710034627697715,-1.00668646848602,0.697157230954409,-1.0422484380714172,-0.3880141801136865,0.5464566841890206,1.2781671725291117,3,left
3.1210000000000004,-0.015423308809614665,1.1727822296272863,-0.061521119500808116,-0.9525964536838386,0.7057942855596124,-1.0802721317017445,-0.3862874216068337,0.540440474343883,1.2729314484135206,3,left
3.122,-0.03575108769135036,1.1905477838942593,-0.07500195957598164,-0.9744890092287863,0.7022043868714156,-1.0648047191186822,-0.3875844993795464,0.5451153431097508,1.276890329106914,3,left
3.1260000000000003,-0.053482371798193595,1.209033403972091,-0.08645171265563373,-0.975051526534173,0.7023200923494034,-1.0645781136371033,-0.3869768327589431,0.5426146222184788,1.2749836410011295,3,left
3.127,-0.06421859852143351,1.2309478826564653,-0.09741822496514276,-0.9631549146030541,0.7039281779840547,-1.0727021019303256,-0.3869510696016393,0.5431500010801491,1.2750102389684903,3,left
3.1310000000000002,-0.06981450850898295,1.2546917158432254,-0.1083056740261587,-0.9773304563005834,0.701952520096095,-1.0629728020652225,-0.38737420940929834,0.5438702028694643,1.2761668680107061,3,left
3.1310000000000002,-0.06876664947884555,1.2808470859499685,-0.11299572890911344,-0.9664122813326819,0.7035714204849817,-1.0705460404210498,-0.3868592586049371,0.5426713054956237,1.2747052638459997,3,left
3.136,-0.06386540667930335,1.3131075583019918,-0.11659466176911323,-0.9719228215473609,0.7024500157127518,-1.0664749823040327,-0.3871665779504798,0.5437575290885301,1.2756396987244654,3,left
3.136,-0.05717844445812079,1.3461322108182365,-0.11835602822884159,-0.9715490515050872,0.7032897926389671,-1.0673751970453709,-0.38730380365674,0.543104444719899,1.2758660908325004,3,left
3.141,-0.04840762240376968,1.3813881371990773,-0.11500716171057468,-0.9683690505071655,0.7024539526645343,-1.0685127449743694,-0.38660751378332336,0.5432511243072566,1.2741862608378638,3,left
3.142,-0.03927116311963569,1.4205059216205385,-0.1091411285598932,-0.9730456782006666,0.7033553785955398,-1.0665719315057531,-0.38778104671315605,0.5435062711213705,1.2771017153847941,3,left
3.145,-0.031386643077812804,1.4604126814714264,-0.10030490347651838,-0.9689425807266439,0.702697009762935,-1.068382995707653,-0.38648068134457725,0.5430608288140812,1.2738438478054173,3,left
3.1460000000000004,-0.024725162328139497,1.4993095051662622,-0.09112398656750331,-0.9706032071391334,0.7024200546016921,-1.0672060880771457,-0.38726517549325257,0.5434345395996852,1.2758269516197314,3,left
3.1510000000000002,-0.019279489788831372,1.5361037318039603,-0.08270908893512186,-0.9728468859835895,0.7044987084456988,-1.0676197582883844,-0.3878383772449052,0.5433949883148259,1.277223295581893,3,left
3.1519999999999997,-0.016220537042742768,1.569631296909181,-0.07457698315702893,-0.9660483112307946,0.7000158180199826,-1.0678494962903886,-0.3851395978835963,0.5429007608927559,1.270534321992097,3,left
3.156,-0.015042216695118996,1.5979523353664171,-0.07000093931645807,-0.9765904904314353,0.7066389539904265,-1.06722518530764,-0.3901895323557704,0.5439750227850197,1.283075940773422,3,left
3.157,-0.012582599695495293,1.6251261108721036,-0.06691048637578201,-0.9652782655005404,0.69959125869495,-1.0679433497208701,-0.3836888106833214,0.542538708007952,1.266922105467954,3,left
3.161,-0.01124126759158515,1.6471821973254905,-0.06591832502676039,-0.9719313857217999,0.7036432827590103,-1.0674452556721314,-0.38912306680134046,0.5437619745245288,1.2804299209624843,3,left
