time,gFx,gFy,gFz,ax,ay,az,wx,wy,wz,subject_number,foot
2.221,0.18860795139715328,0.36548470485232437,-0.36887671398452127,-15.772770927565151,-13.057660068726353,-13.094884336545366,0.42803919027889187,-2.3282341051941375,1.1750637561075439,1,right
2.224,0.3026480684222004,0.3124278647289387,-0.2567054220951012,-10.801445528038617,-9.45386525944466,-9.594910830948354,-0.13592682021206545,-1.2094369699930778,-0.4375050921493263,1,right
2.226,0.19719962997031493,0.4089710266129595,-0.33728472512975416,7.001784831784659,1.818244051062243,2.6131993508778857,-0.30710669675322444,-1.1171743995805574,-0.5883054708065336,1,right
2.248,0.11843496653204413,0.6082349071818924,-0.6364587854146451,10.657893979200386,3.995133994382315,5.157001860664748,-0.14179395722747426,-1.0449938466674435,-0.6256856830070348,1,right
2.27,-0.0023505421262517943,0.7519868804422976,-0.5942125964601146,8.21028309295642,2.5787625089480426,3.4048230617448674,-0.28491941409661586,-1.2521505078753135,-0.41662642009440215,1,right
2.272,-0.3919103100903225,0.9798329845824616,-0.10163010147998355,9.470227278303067,3.3287367686256726,4.372434151800595,-0.1687814313105317,-0.9667224248802322,-0.7434587494566993,1,right
2.273,-0.49354684693164885,1.08063879781287,0.0011596290205187973,9.030324109059823,3.0356920593661663,3.990385456116271,0.16221449453181397,0.2606454186666587,-2.2675491214792,1,right
2.274,-0.4282508938842781,1.020541668095269,-0.0880348168267712,9.93915616275083,2.923563807546925,4.0803584017279135,0.22464994302015304,0.4564866867717655,-2.555392550980388,1,right
2.279,-0.13891075665838062,1.0518314750626199,-0.10083342649892187,9.437619661506597,2.785344829265173,3.9659812988219247,0.18725346588804437,0.40380785168249733,-2.4043596753195025,1,right
2.298,0.3311530931494096,1.0195151485411467,-0.23097240755817935,10.617958275383735,3.1112766373796386,4.292940914043892,0.20340271297315965,0.3056572480884681,-2.403155245253477,1,right
2.299,0.37856269052238756,0.9955991572591502,-0.2426931150454993,8.708466451390457,2.568858178102503,3.7018472035968304,0.18269009215264292,-0.7446887480860721,-1.6197099359569878,1,right
2.3,0.3187784005617692,1.0242112817125175,-0.2093102765388959,-1.286952736788994,-0.3206034900053977,0.28067818554339485,0.17421455589406437,-1.0022842457639793,-1.4536534856317882,1,right
2.314,0.3796164554105113,0.9992369741868007,-0.2535682241979831,-3.738457090619577,-1.0067383135521188,-0.5052288352287264,0.18672824354709575,-0.7557305451889034,-1.6047486391157997,1,right
2.318,0.15433124324319267,0.9556548264869766,-0.28745207527761085,-1.5791903378143965,-0.43328896116130017,0.14804616869655252,0.17359285166272054,-0.9546426004551903,-1.510062802562014,1,right
2.3409999999999997,-0.1601499190549069,0.9198621438649046,-0.2590907389253653,-3.2598501424054547,-0.8344937433850892,-0.29195813308435037,0.18540428385806118,-0.8167207509237036,-1.5360953617114061,1,right
2.343,-0.19256567814761494,0.9151685201698546,-0.22531956560877806,-2.0793973999947317,-0.6032179574613904,-0.06820995718089351,0.21599425123742372,-0.5647228784454632,-1.337962413059909,1,right
2.344,-0.1748716674359349,0.9284930802877404,-0.2503973199435224,0.6164315090099333,-0.33481961433489343,0.01554421805549673,0.2224168443539195,-0.5393827252110046,-1.2702694507293724,1,right
2.364,-0.2790369249717373,0.9098538999988216,-0.2534467311656604,1.008780609634563,-0.31249971130219284,-0.028917647679802254,0.21910997569291252,-0.5223860995500269,-1.3510732899744817,1,right
2.374,-0.28513483043761023,0.9291970386747663,-0.26280554302001524,0.8830890689644015,-0.29718181682489136,0.056222672568332535,0.21967353891297076,-0.5678625751117552,-1.2749488124325494,1,right
2.379,-0.21228331067220332,1.014417036211178,-0.30129509274177546,0.8328770382793036,-0.3256867943035273,-0.02787811495314112,0.22108986142923343,-0.5120128655326426,-1.333815730265263,1,right
2.384,-0.2290723718144906,1.020231038103096,-0.29427054979631995,0.9593716120669903,-0.29062853512760145,0.032656659634570706,0.22858359666056027,-0.2974219090219633,-1.4813115901754843,1,right
2.386,-0.2108544154873252,1.025103296093219,-0.30982583478298986,1.4277638770396397,-0.29857498987735015,0.08384020350597164,0.23147710524025872,-0.28119430185693023,-1.4815157170385405,1,right
2.397,-0.07792489610178817,1.1012642037817768,-0.32736908307191515,1.4179614341324633,-0.22689813116934415,0.08124369454923802,0.2284645575938662,-0.2580982773965098,-1.5145134149112636,1,right
2.417,-0.013950477431100476,1.0999708329146713,-0.26358346219017553,1.5920083725221907,-0.32775526791275295,0.11090008405240201,0.2318602715372866,-0.31746082176986096,-1.4543877126385856,1,right
2.419,-0.024638791767196983,1.0807389410487809,-0.23709281651674233,1.246070697748396,-0.20585248926415797,0.05992395988513731,0.2473323989090183,-0.6573795692130318,-1.1593320496702897,1,right
2.42,-0.01548918122509334,1.097610518430943,-0.2613307751113062,-0.7368711292479477,0.2551965690498178,-0.15292493527294626,0.254062863171311,-0.7366065182447632,-1.083881716105475,1,right
2.443,-0.02558479108734072,1.0841384018259523,-0.24054874891476938,-1.3211259639122903,0.3377004928222824,-0.23353162996339835,0.24408644916255604,-0.677037265274995,-1.1488174372293412,1,right
2.4459999999999997,0.05689309787894542,1.0843891298381816,-0.22740507923183476,-0.6712739389040352,0.322000139303488,-0.13936115370214378,0.2577172515077567,-0.7070857181227796,-1.09956822423485,1,right
2.458,0.2127400599040027,1.1067616851466113,-0.24494811827557922,-1.3695435020072355,0.2561740158891129,-0.24732334369502912,0.2413212789411145,-0.7063587981150352,-1.1321891867984348,1,right
2.46,0.22623460943462384,1.1124210471314322,-0.2523272565803402,-0.6482572581143506,0.395830774839508,-0.12994227525474022,0.17810821251935807,-0.7851978241741601,-1.1467719542196746,1,right
2.461,0.21567656849012462,1.1079103485004391,-0.2505692120211511,1.841939839026232,1.0208348625053478,0.3345807498643735,0.16411570471364306,-0.817907894628817,-1.1416243970696045,1,right
2.48,0.30220774805576683,1.0825279610313925,-0.23683576861004654,2.4230732704005407,1.2114228108734109,0.43333220476600415,0.1725499712324487,-0.7832433029257083,-1.1740709189201535,1,right
2.495,0.30006331781274254,1.0760109337452604,-0.24480241421605656,2.0215801063354624,1.0540488073650534,0.36236397846281143,0.17100643403973753,-0.8126879036499215,-1.106452111058767,1,right
2.499,0.2270850846878447,1.1163802871652866,-0.2751327861120908,2.203194953589339,1.1479857539947482,0.4036331909602219,0.16604413911816274,-0.7933351811743913,-1.2144676471747209,1,right
2.5,0.2364074285020108,1.1009850181479268,-0.28306906667576304,2.246875351634062,1.1380696335356641,0.3846955380177036,0.13580136624322098,-0.7295329558715566,-1.6164197886754659,1,right
2.501,0.22021669850536504,1.1208860217653507,-0.2804010525190759,2.667328530445385,1.1520554100454106,0.38398969767919156,0.12353838450607087,-0.7372896182882728,-1.7979545883893286,1,right
2.515,0.19192980945402555,1.3285233262732221,-0.23504377679115948,3.0882710677206155,1.3345644268984564,0.3716787664713881,0.13612485764940924,-0.7185013153520793,-1.5955075394521305,1,right
2.541,0.2576749127528694,1.481190012028715,-0.13989736239759049,2.545319275856914,1.074526995928979,0.394797706523656,0.12499413606266076,-0.7404201125526358,-1.7989938460142634,1,right
2.546,0.2816239214701032,1.4593687651776786,-0.11534257059546145,3.137507862254851,1.363940123407151,0.36116999778898484,0.1032630888424189,-0.8077592315843871,-2.391997345722129,1,right
2.548,0.2585886764046955,1.4795304618597507,-0.14861835911631877,4.975125915279735,2.1840800110873007,0.24628488855293193,0.09889124052878526,-0.7974307899038695,-2.512676965270419,1,right
2.5540000000000003,0.2834817441315195,1.4633418360968047,-0.10939699930262894,5.36030908225237,2.279819688199617,0.22488275618667503,0.0989084555074731,-0.8403602034509905,-2.4697588577681255,1,right
2.555,0.360693346658009,1.4209338111542014,-0.22891250752571385,5.212880755152239,2.407819943065787,0.2163124851010516,0.10284780975906047,-0.7654896023648039,-2.4315231431614173,1,right
2.575,0.3396505974268709,1.5371159426706333,-0.5073752148199979,5.1005239571621,2.0256386411729737,0.2661550159151005,0.09633153777975877,-0.8571785122123322,-2.533177146529728,1,right
2.577,0.2663021540013999,1.5152274038077818,-0.5233659384532388,5.42509853506858,2.6209205517239926,0.17374915535426172,0.07324040660235837,-1.1972780935081557,-3.0218246569019422,1,right
2.5780000000000003,0.3677473701544943,1.5484561360238709,-0.5244258315334206,6.941425947435855,5.160864179467584,-0.1623457670146782,0.06840331275594672,-1.2313784643808978,-3.1450115923201416,1,right
2.597,0.30523128440634756,1.9533704875225268,-0.6145243153229956,7.359687098549169,5.8259176341782775,-0.2954099897034666,0.06914160035009552,-1.269327528139998,-3.0584930425551833,1,right
2.615,0.42631024824761854,1.981736224868214,-0.6164417540039198,7.063791052944362,5.317774032294684,-0.1840697916380966,0.07349679234275029,-1.153487844886512,-3.097717761483653,1,right
2.6180000000000003,0.8930934333723498,1.6814499097413127,-0.6521601036777612,7.171914961660067,5.597056478280991,-0.2359253445339071,0.06428680765103291,-1.3266822945915815,-3.0981675567958327,1,right
2.62,0.8985895853423765,1.7001041602209712,-0.5846286523196721,7.275019167480682,5.567333493018916,-0.2874130014821762,0.01721165836229716,-2.177486956291231,-3.217835941637855,1,right
2.622,0.9982659712016885,1.67471673785163,-0.6946591382121736,8.132211409856943,5.850498654288369,-0.4960209148751276,0.0018170633307530515,-2.33839301175188,-3.235031873778414,1,right
2.6489999999999996,0.9906656166225369,1.690027244906019,-0.6792401362057606,8.65000446743229,6.264308462274073,-0.8867364873498262,0.01917198963420169,-2.230203495963143,-3.2388209074529195,1,right
2.656,0.1635141615197958,1.969386112465669,-0.19834474078818168,7.921214405384772,5.684396300993786,-0.2915842807900231,-0.0007576137953194994,-2.2964075392968595,-3.206254765108807,1,right
2.658,-0.17741721093076207,2.0062836235129473,-0.1101245935267383,8.879751403062965,6.3741641133302025,-1.0650081132767633,-0.07662072320084948,-2.3560722637958573,-2.9256653001992357,1,right
2.661,0.17321291968330993,1.9808243713181666,-0.13525778961947335,13.26776250645511,9.103525788365069,-4.4197036109783845,-0.10722753520575293,-2.4976974109817887,-2.846197140974216,1,right
2.6830000000000003,-0.15336017977631095,1.9916934546487186,-0.17280064932950728,14.812404487460455,9.815326307256186,-5.339887999499112,-0.06817746250412902,-2.221622441865409,-2.940063175125876,1,right
2.6860000000000004,-0.940385383216845,1.4062683567814869,-0.46521217311451096,12.867733897337997,9.144702846743012,-4.434684517796708,-0.11548309162616102,-2.6612546003750066,-2.833071377687386,1,right
2.696,-1.0565431517555468,0.7729171994265038,-0.35873113283125757,15.24599667464338,9.793934441920197,-5.311098086542991,-0.06446916965986013,-2.0865502622075702,-2.956554144385244,1,right
2.698,-0.9471032313143916,0.82172296137883,-0.29926561749402086,12.540215868278874,9.131437070892392,-4.469397907838472,0.12031599129271532,0.43927801264263294,-3.637711469702103,1,right
2.699,-0.978103639109356,0.7430556959184182,-0.3213882970657657,1.7797317825562395,6.950929140001909,-1.6059140047346359,0.1478191653829469,1.0038014317262587,-3.829771872164079,1,right
2.713,-0.7523813060598914,0.3670570672276801,-0.09965736457394245,-0.6423836124457629,6.259951746758745,-0.9517384285249878,0.14735464404150295,0.5815063300820703,-3.5663491418798268,1,right
2.74,-0.7009505383774857,0.2518405832603272,-0.0821517398048255,1.1631271115483457,6.886600359716051,-1.4252723376732406,0.11885268232117696,0.8393925692582277,-3.931370702404994,1,right
2.742,-0.7568786829139031,0.14045116082321094,-0.0748804281191921,0.0628846608745276,6.431316020674058,-1.1686929842158946,0.16866352096492138,0.7073068264906758,-3.448820212344227,1,right
2.7439999999999998,-0.708102145171088,0.052552751660706054,-0.10282360276441632,0.5668764447025975,6.563859116162144,-1.1967483533641015,0.41303045446257125,0.7081354375339076,-1.6185428948499392,1,right
2.7460000000000004,-0.7479841384396624,0.1137058217265389,-0.04291627355622932,0.7315255110300132,7.224576980927768,-1.063317509837265,0.45676031387199684,0.6011838372278329,-0.9556848314446929,1,right
2.76,-0.4344672169267227,0.1471642928548782,0.23847520305856612,0.6990124563508714,6.195003897127945,-0.6567919407588585,0.43781619638886027,0.7854250736542526,-1.6442252759911251,1,right
2.773,0.06718602232801403,0.17657574098168988,0.21451133297084427,0.7435177964551105,7.925738164001091,-1.2398623341731903,0.4287319864886925,0.5157690697238151,-0.9872856773086548,1,right
2.7739999999999996,0.08891499147684132,0.16522756698858207,0.16042831844981859,0.7212662255358631,5.645149957262678,-0.5469489259003173,0.25936400927884096,-0.9514856655076075,0.7356864274670105,1,right
2.775,0.07509530128474548,0.17585249086551916,0.18295918301477138,1.0141179967652216,-3.871745203465607,1.9924982853065722,0.2192963291487032,-1.2777231099033257,1.1229190466278085,1,right
2.793,0.4317433876645603,0.22234213169450395,0.049727971649215705,0.7515238717516214,-6.128620064954264,2.588032531908707,0.2565174740060673,-0.98398934184843,0.9541699044613658,1,right
2.7939999999999996,0.43187350332373214,0.23841843477865413,0.024256394746993017,1.3416422655135656,-4.434255513188637,2.179147259541885,0.2307737543595222,-1.2411823144274843,0.897672211178186,1,right
2.815,0.0617888715537446,0.2925651228432823,0.025418840477283777,0.364475013189412,-5.438121186507534,2.379393068331325,0.2410877945658812,-0.9955762023650915,1.1391184480369578,1,right
2.818,0.08709617144475737,0.30517587273799407,-0.0009610902875020165,1.654202815564894,-5.0459458637977175,2.350958521513136,0.23631282437483883,-0.3473874534040149,2.2676685761761597,1,right
2.82,0.04504217417231782,0.29725019622009446,0.014929985428032425,7.5550043142020105,-5.129008694829847,2.6100341643354463,0.21812405924791056,-0.016116913261557154,2.643878691224489,1,right
2.85,-0.4322117963073975,0.3810728707315399,-0.029175866274323527,8.816759320121596,-5.327731960052537,2.702440752817675,0.24456521736935216,-0.42111603877410914,2.314011566876915,1,right
2.853,-0.6545265957663617,0.44960828014141413,-0.05545895798760032,7.861086403767195,-5.125674515096298,2.6462930472303468,0.21675925584805222,0.041871338364053004,2.552254285831435,1,right
2.8539999999999996,-0.6127356583246104,0.4504939536622884,-0.04125223906460973,8.500997750331376,-5.236820995675642,2.6430260722071757,0.15707041010497536,1.7874932894544666,2.718156304476412,1,right
2.8539999999999996,-0.6390038752015885,0.4488328436265391,-0.06045888435018375,8.030563148064292,-5.225957877196492,2.692863699252532,0.15366618616010125,2.212575280202528,2.720302987308606,1,right
2.8560000000000003,-0.6280655281746372,0.4523783331018925,-0.03992937653368228,7.425619078210743,-5.717869612391345,3.0948317977520983,0.133023720677655,1.8849852149434845,2.836527072080229,1,right
2.88,-0.5272008883230399,0.46581622351999896,-0.00706412463595015,6.59844039508695,-5.730738849337559,3.116304027143559,0.17919583827778557,2.0961746492189537,2.620329054014369,1,right
2.891,-0.41484395050631384,0.47655834479965475,-0.03843191004429079,7.845204745180505,-5.8010859432768545,3.160951247779581,0.11409899645468662,1.9936626726337099,2.8978145311002734,1,right
2.8939999999999997,-0.4054092513649967,0.46079910272649854,-0.03479922406793852,6.218879393544652,-5.632597106393295,3.051119129772875,-0.1362556763668104,1.9175397591489307,3.8573009841910615,1,right
2.895,-0.4129595372708109,0.48144783719256956,-0.051150362343058635,-0.6559414109898034,-4.566058303358911,2.4327482688010447,-0.19231073528381865,1.9729995333574926,4.075616920268045,1,right
2.932,-0.3293022744052969,0.517497332765438,-0.10586138473642126,-2.3219958486546592,-4.331401729800645,2.3126159657788206,-0.1655491178156157,1.8620282702182458,3.971300882375333,1,right
2.9339999999999997,-0.3278261064508407,0.5419580256141374,-0.13296737425625826,-1.042966418120573,-4.501593530253745,2.3587875785579833,-0.15491040889023466,2.016600444176543,3.9399444712931517,1,right
2.9360000000000004,-0.40601931471743735,0.6297174900712941,-0.21195034201845586,-1.8044614480812926,-4.439676026782946,2.4192346135101985,-0.2015801009291895,1.8353272501039566,4.09363803399094,1,right
2.937,-0.3892973195155786,0.6488173189992128,-0.2213990346506839,-1.5572864301932947,-4.381446082803592,2.249461853700503,-0.43801336449296424,1.1383570384711224,4.8681338596875,1,right
2.938,-0.4152689619766257,0.6310264158510909,-0.2242418307007637,-1.6606232660876128,-3.9913664412336503,1.4423478139275727,-0.5258164831564676,0.9812248134166974,5.134284509657352,1,right
2.95,-0.541343818603355,0.7910162194423028,-0.3431274411356794,-2.1339169896383723,-3.7715751057747404,1.1511452640687516,-0.43561612201288297,1.092602153768706,4.882315819588804,1,right
2.969,-0.5406291901489841,0.9364355153340576,-0.36638942403499564,-1.5012849653045057,-3.992111056920609,1.4296563352913076,-0.5192429301563946,1.0317112526802268,5.090308755062525,1,right
2.971,-0.49822836456321307,0.9643708702434188,-0.35543863302542117,-2.148525015273616,-3.8453010787727684,1.2149130515008042,-0.7283751053377494,1.0819740217924616,5.471443406230907,1,right
2.971,-0.5424600108720954,0.9384065200470773,-0.3639608923001982,-3.7296447954400653,-4.010188924792443,1.0447665320974906,-0.7829930583521697,1.0841778038395218,5.557608823532373,1,right
2.972,-0.4980705040083005,0.9548202954605556,-0.35333592271081415,-3.95746446941378,-4.278046316830789,1.1083589543329868,-0.7448789789534346,1.0784879944599077,5.52764216452689,1,right
2.989,-0.528503594032772,1.3242777977974762,-0.49340400942960205,-4.102180999929908,-3.6933435984592107,0.8478481537713793,-0.769203853371562,1.073390694658161,5.516548391110741,1,right
3.01,-0.748965191457774,1.7375104953596363,-0.7163969937575849,-3.589723044669052,-4.586286637648591,1.302644115083881,-0.7549116626619128,1.0966316593912389,5.548815628621071,1,right
3.012,-0.760252084949573,1.7671778674639413,-0.7759992084760604,-4.344015763617444,-3.5090383627494477,0.7106670017192845,-0.7413813326975993,1.3234582540091355,5.773290363322772,1,right
3.013,-0.7717616961862794,1.7320312975589633,-0.6911795770004753,-7.218770868981331,0.3419556428890731,-1.6398151268259773,-0.7437813808799647,1.3866381479818513,5.80427506819454,1,right
3.033,-1.1360386704462166,1.7763389794015958,-0.6993806386488226,-7.72470177248788,1.0032543830407672,-2.1573439535584322,-0.7281982064120265,1.3015983941637808,5.769001739725472,1,right
3.035,-1.1979244064271248,1.7457319264519497,-0.5755772931855538,-7.692265842593622,0.9470534202787202,-1.8414521030993016,-0.7628936019756363,1.4122129040639242,5.835100781506448,1,right
3.05,-0.9438584304276435,1.653583883177482,-0.17189722546768785,-7.1764565851813575,0.30582210433667945,-1.9229478935689244,-0.7040961525933908,1.2736785419806884,5.700025472627877,1,right
3.052,-1.0784561848860754,1.6240752802120033,-0.05737640317007667,-8.141718105120777,1.5335244094667388,-2.0360504068869565,-0.48884886191856,0.748417912121827,5.302054214706597,1,right
3.053,-0.8989047361270296,1.662497916806036,-0.14958817451604173,-12.93422460177872,7.381075365892637,-2.977451348957714,-0.3804940554229367,0.5621580648546021,4.93060330803846,1,right
3.069,-0.16039653763580858,1.6464214440691376,-0.1849210798271279,-14.0485362834104,8.875193584687363,-3.2025482279737982,-0.5051707905380807,0.7653252549483729,5.42035887729944,1,right
3.089,-0.1925831636571104,1.5082333777739005,-0.43811335403512386,-13.190377555920985,7.689782145196193,-3.04074010614507,-0.3775724426155329,0.5488590170635628,4.873639161552443,1,right
3.093,-0.4872115259654982,1.3959297155492325,-0.4457848497797058,-13.757142773085938,8.451666385811919,-3.1216014862098342,0.011243041463956771,-0.19469343514534432,3.1437810695729547,1,right
3.095,-0.14760686464953748,1.5366380551767604,-0.3783069630248663,-14.061494489651295,8.443235768093786,-2.9574884316060746,0.08529661925882762,-0.4291034543013732,2.8500669847393043,1,right
3.0980000000000003,-0.5381019290164023,1.3803269518560177,-0.5301828463768639,-14.497636365980213,8.577096551511424,-3.011364041772092,0.062148301479994894,-0.18652627072107542,2.830142985751351,1,right
3.109,-0.7545763055731538,1.0881047203085479,-0.11697054371251653,-13.814986315465841,8.517933831581445,-2.8690334012359298,0.03520368612464807,-0.4346575150705052,3.2088406502179545,1,right
3.1289999999999996,0.9381714525215372,1.5672288046416876,0.32684202201661416,-14.83881961507726,8.6504066834507,-3.1389453075484983,0.09380193079144045,-0.19693732484533646,2.52521683741904,1,right
3.1310000000000002,1.4065942142405385,1.6217408628749714,0.7194960322630571,-13.574356446501806,8.343947076076756,-2.7554621828337904,0.2966594461916232,0.6011277227659116,-0.5086507753929398,1,right
3.133,0.920210760455223,1.6260413971775227,0.36483334609878676,-9.22579566244075,5.405409105928932,-1.2512335786205022,0.3133026906097094,0.700493551985414,-1.3348831924382205,1,right
3.165,3.1314993061014382,3.28829100990727,-1.3422330325109115,-8.554718891883395,4.576025206054775,-0.8904222027753442,0.3695462640903049,0.7312929338794383,-0.6885923593081269,1,right
3.168,2.63433043418015,3.410364280417389,-1.3262533405915902,-8.281938584072982,5.759120566569024,-1.080890236723405,0.22728077540438563,0.5639068846787294,-1.0563479378132534,1,right
3.17,-1.235174243564685,1.731602777137895,0.17537396965136065,-9.726353620140133,4.171166202716922,-1.128832318344643,0.44184057975034907,0.8315678004516067,-1.0032352047374267,1,right
3.1719999999999997,-1.3274206053838231,2.1229795940100114,0.6793829584736568,-7.195642914654167,6.128862949409013,-0.8324436480971231,1.412924372110087,2.1361728512741043,-1.3675511604024058,1,right
3.1719999999999997,-1.6207214258696228,1.5440415521697035,0.04730512331213638,3.023608450081351,12.34190289792901,0.1555967979069148,1.6486341084297305,2.3756147871393676,-1.9011285074295392,1,right
3.2,-3.296367665676735,-0.8585503297723946,-0.8566705305716675,6.304579692099611,14.359423086473408,0.7342149831900944,1.4641210285114719,2.255138004956604,-1.1474108174422692,1,right
3.208,-1.6051267616668905,-0.750607041921916,-0.7471742517105241,3.592063239729358,12.865126140532631,0.2219530473977922,1.5804343475649743,2.2331630489554293,-2.0190827379752507,1,right
3.2089999999999996,-0.5722619469576218,-0.020565241604682157,-0.5221142424806566,5.194251961735101,13.43425682444471,0.48396461775094934,1.4503852687568242,1.0275856027056203,-4.34741454204239,1,right
3.21,-1.5408705406989316,-0.6159214074943304,-0.4411541160600263,6.616899872671007,13.465833998479269,1.043904663445358,1.4443961097954872,0.7592636431889617,-4.94442569098117,1,right
3.213,-0.7516811404045753,-0.2049738456247281,-0.8051518630757339,5.006637120172572,11.243031820033345,0.2708282241208199,1.498449953177555,1.1375475273443953,-4.763440992789304,1,right
3.227,1.2402846038310653,1.283535329295777,-1.3376331124974832,8.240952278711234,14.953782282432051,1.6729951050558634,1.3977024072990054,0.6383875683022201,-4.419146279392031,1,right
3.263,1.985905859753229,2.130743509166634,-0.2320180806221358,3.858738943334022,10.162226925157164,-0.20789344027386453,1.5471810609012695,1.2574951502316858,-5.2784232283501735,1,right
3.267,1.9985419779562668,2.3383830730427935,0.33921028071147885,-11.289085602077503,-7.582263556862159,-6.976758346054153,1.3508767108203568,0.5656925271890438,-4.055848334167704,1,right
3.27,1.7779539701071854,1.9824755753646057,-0.10285399517806726,-15.167036417150003,-11.964124067055085,-8.656757477747906,0.6230323592713195,-2.314333197527844,0.9262221805355434,1,right
3.272,0.7549777396410571,1.0389968408332966,0.06970476032680022,-13.007679563087164,-9.095410861321067,-7.7313952428728125,0.3736657023891813,-2.8121025138568605,2.0394301158010038,1,right
3.273,0.39626511699746614,0.5954638744694086,-0.09440268196846656,-12.929690019810424,-10.052858611951892,-7.653686004758157,0.6191052800262513,-2.5748484244707925,1.3531398668324135,1,right
3.3,0.4767750374238123,0.38468253491169035,-0.410602673043728,-15.209105362584786,-10.911215224443836,-8.73474823176065,0.3983917481455541,-2.529563963933726,1.5396132747642572,1,right
3.304,0.24510823130277004,0.08626771963777634,-0.4302698768630897,-11.306584979228315,-8.740714899404942,-6.901886450056807,-0.18578823665151648,-1.0304758123298323,-0.2497034108004007,1,right
3.307,0.40244816714837456,0.2842843976531311,-0.43909363254588923,4.571640191363998,-0.25172049067464775,0.6163433248019363,-0.30010215199912244,-0.6350257543373252,-0.7608299686767835,1,right
3.3089999999999997,0.26572301329469417,0.8251533424203619,-0.36621258308024573,8.80172405047019,2.3545734105131295,2.6173982326910865,-0.253816641576175,-1.055487589522785,-0.1465015830046268,1,right
3.326,-0.21170348708259276,1.2298587205936289,-0.2870463110797875,5.627943487716202,0.3962423366143819,1.1098241385885805,-0.24029169182276708,-0.6775999681325241,-0.7343024002038324,1,right
3.3289999999999997,-0.2903279729085446,1.2204191594514069,-0.2497980444196212,7.526259031419759,1.5266394287424396,2.0007415561271866,0.01734667189853409,-0.0745497460724704,-1.6804896317970668,1,right
3.3310000000000004,-0.20333277191619525,1.2199514956339685,-0.29286361773589625,7.233017441389685,0.9627372418128639,1.626249459389358,0.08268858656789649,0.16554610138701115,-2.0313307295987846,1,right
3.332,-0.3035831961998362,1.2156286404342764,-0.24664730447926003,7.568028348897897,0.8965040630562646,1.6411197865598073,0.025981098521146218,-0.03202153769755929,-1.804085941255722,1,right
3.347,-0.20317496048641667,0.9470468478260025,-0.13984848670901295,7.218431045409605,1.1539412625383212,1.750540778011431,0.06236740382620621,0.15170920441656358,-1.9400280580457538,1,right
3.365,0.2266816367962902,0.8345370091430726,-0.20799801946324759,7.970606579778213,0.9154433543879108,1.6783713037989831,0.047506264835257724,-0.03486765142024454,-1.8594457957394268,1,right
3.366,0.32341166681311495,0.8404240606280955,-0.22174922218393067,6.690622557061685,1.0317029004616787,1.6394892156789758,0.06699930059082218,-0.919047551841135,-1.429176504213998,1,right
3.367,0.24940538279617613,0.8456889378759591,-0.22753722014233815,-0.8823438337508058,0.37166086703715423,0.6290757227937331,0.07374720080647094,-1.0860845848227436,-1.4011306048979986,1,right
3.385,0.39861618705970103,0.9392363904020499,-0.3770310177919248,-2.6889943396321234,0.29430276460876625,0.4514550898228884,0.06895545286180119,-0.9552395098139761,-1.4075106704160543,1,right
3.392,0.3708885656161429,0.9639269659237758,-0.40364733743765663,-0.9976327485651459,0.3631058969487376,0.5946436763235623,0.06703948492672193,-1.0453133040669378,-1.4225845988992887,1,right
3.406,0.1818588228328021,0.9545332831004166,-0.3593142728441643,-2.4460407662996393,0.358872060304877,0.5344324432018561,0.07611111380241489,-0.9855028515480372,-1.3927144904543334,1,right
3.411,0.18344524179300994,0.9860587521537197,-0.37608485688217586,-1.2605335603097074,0.2811833938039595,0.5013973265763614,0.14299783970747756,-0.9148820325031644,-1.1836400762171388,1,right
3.4130000000000003,0.17363419039662065,0.9539252100908926,-0.3683222795687686,1.6926603960392148,-0.4294257415316122,0.0038454338361643414,0.1554565547587087,-0.8553666931997412,-1.1678832320189252,1,right
3.425,-0.06340818811419052,0.8955270379679572,-0.30874987588179503,2.4202081530874153,-0.5890791601613391,-0.12599706467929447,0.14759071444159147,-0.9382955454242075,-1.1568983498149015,1,right
3.451,-0.2448309704479148,0.9155208711993559,-0.2420314371572488,1.91032648527551,-0.45027649717315443,-0.01053825819583097,0.14925495014879672,-0.8314827876616702,-1.1960161768711888,1,right
3.4530000000000003,-0.23766149185153201,0.9432595430844398,-0.23924226738344928,2.189410314466543,-0.5426223739468434,-0.08248210026439116,0.11289584108669963,-0.37920255335709124,-1.4582299973223183,1,right
3.4539999999999997,-0.2398957964945508,0.9178281151012624,-0.23828550777568466,2.7242205707642255,-0.5031091035690342,-0.017091940503803277,0.10635288749530897,-0.2713708678402676,-1.5188784557104709,1,right
3.4539999999999997,-0.2423647039845559,0.9411676065394233,-0.2441809796351337,2.4750904482202913,-0.4979708033272533,0.02331360736611875,0.11328647567246969,-0.349784952647747,-1.4707065784687616,1,right
3.4819999999999998,-0.13562448044728082,1.019997416697165,-0.3242517270816873,2.9903610539514993,-0.5325578755229392,-0.06153922606349298,0.10756828269599547,-0.3121157931012499,-1.496653009333937,1,right
3.484,-0.035807884105867396,1.0386654148985957,-0.37622507225770774,2.2728854869624247,-0.4836849890987906,0.04760270178053419,0.11165854495171076,-0.30775577176647556,-1.4955310206201435,1,right
3.485,-0.023563936634839685,1.022536141837369,-0.36403674357201177,-0.5519247327838271,-0.24759461346580708,0.2816387479862902,0.10869953894284767,-0.34737241310627376,-1.4752172770036174,1,right
3.486,-0.03668251603462414,1.0366821303598996,-0.375489285032664,-1.2708724383433907,-0.18751345022822458,0.3533921131060579,0.10142138727707059,-0.49383044866904696,-1.3999290733726106,1,right
3.5039999999999996,-0.10223644652050819,1.0437137068171802,-0.4445875007964851,-0.7604245098445248,-0.2664512168869939,0.34380014693451333,0.09812590580297165,-0.5689284673306669,-1.3590112379033328,1,right
3.513,-0.12130853765748681,1.0559760110612997,-0.4564305645976482,-0.9897321010124163,-0.14924627074238342,0.27423068504108716,0.10236297594418892,-0.49345312453472473,-1.3986643799203717,1,right
3.523,-0.09153608946655166,1.0945363456924135,-0.39106393085902985,-1.0466209917131208,-0.3200929967660694,0.42198771090594434,0.09748715090318863,-0.5594288653669632,-1.366180113001598,1,right
3.5239999999999996,-0.1387726166504098,1.1047022530899961,-0.4124408652569908,-0.7529831052996361,-0.09611685657475007,0.21862606193362122,0.08199750692802096,-0.7024370201527284,-1.2675621698207853,1,right
3.525,-0.07038359339302205,1.0961508428568216,-0.3843252845276877,0.000419395035491793,0.7982752014266493,-0.622556350984846,0.0793016318926474,-0.7217155218093112,-1.2582456779265319,1,right
3.543,0.023108293646076646,1.103017846734681,-0.19763874341506152,0.5023839841103446,1.0493379898949922,-0.8132652647818798,0.07878229103487537,-0.7356531214730417,-1.2590879922075129,1,right
3.5660000000000003,0.11680382816877788,1.0979160462499886,-0.161415961714731,0.6597762764274364,0.9005983944136462,-0.7189051659731087,0.08334590622747118,-0.689412510462908,-1.2576506333558457,1,right
3.57,0.36205859417018144,1.1007204597986178,-0.2396322265369578,0.99970921821425,1.037377767628024,-0.796373562814817,0.07481240002906273,-0.7588907569062182,-1.2732895649255243,1,right
3.572,0.4224392896848742,1.101348238052296,-0.19867548855684328,0.8535101167320287,0.9920999157122316,-0.7491186409300137,0.03636165189851427,-1.0718180530029768,-1.2984769973856642,1,right
3.573,0.3947236381876111,1.0960412941957909,-0.24274484304954755,0.747432439314739,0.9351455878473818,-0.8083922161829532,0.023241087446637942,-1.13961280047202,-1.3835945732661907,1,right
3.5869999999999997,0.3819872967272684,1.2462651303683423,-0.3378137798701164,1.1429063992081931,1.0940026043376656,-0.6969433911511971,0.03646491009561076,-1.0925372536492985,-1.2574068165443544,1,right
3.603,0.23382233732359337,1.4528159132274718,-0.25866781511124254,0.4633532824609957,0.8528313241965603,-0.8804758413450173,0.024468021902387,-1.1166179361235313,-1.4094855277622587,1,right
3.6039999999999996,0.20812340784651043,1.466470641782118,-0.22724367027629272,1.3566428628677372,1.1275517187091018,-0.6374798678632454,0.0038915624406079736,-1.020102143905108,-1.952938277343161,1,right
3.605,0.2249730127858458,1.4547422293642167,-0.2458516533853593,4.835195030085822,1.8792860869442922,0.48386782631272507,-0.0014805051825771184,-1.0168138338370443,-2.054548599096268,1,right
3.623,0.18252311306529082,1.4953328473167184,-0.09130515075867138,5.721957076702455,1.9641177886865047,0.701533800087903,-0.001608931139765654,-1.0259267618097303,-2.0309140157487384,1,right
3.6460000000000004,0.17369879437202124,1.4820712244049004,-0.08078421980900882,5.052256300691825,2.1070126343088056,0.5672531406794143,0.005080429866082465,-1.0073022013875566,-1.963106418308903,1,right
3.6489999999999996,0.18311622527020466,1.4930589895269488,-0.25835024823325814,5.440491572116502,1.6989011675934091,0.6099665719566689,-0.008485547232786252,-1.0469376208325216,-2.110402047510178,1,right
3.6510000000000002,0.18867666717200296,1.4603256492784888,-0.21287052449494592,5.33161637482043,2.339552364181329,0.6300075050125256,-0.05863072240186808,-1.1305006889407876,-2.816770089213093,1,right
3.6519999999999997,0.1512809041179884,1.5066050302246297,-0.27152649521752575,5.384908710515782,5.076462808216341,1.0290549187849873,-0.08338249451134477,-1.25740165476176,-3.015630897774301,1,right
3.6689999999999996,0.21449349809309365,1.8760197716779492,-0.49274297694421376,5.684895220615423,5.848619723797091,1.0206882207668961,-0.0558184613516131,-1.0768574351334754,-2.8448297412943537,1,right
3.682,0.47833173138775964,2.063705307106104,-0.47292761658490357,5.284546382762954,5.1973688761187375,1.090345733472052,-0.08331121244440837,-1.296097740149447,-2.971701912491214,1,right
3.6839999999999997,0.6643149532671745,1.9624344295068012,-0.4683636723257655,5.696313151352107,5.6490232748824045,0.9840776121200803,-0.16951538279339173,-2.122590683620837,-3.146746732571073,1,right
3.6839999999999997,0.4456572145930904,2.094253400931731,-0.4301176533496725,6.613057576068975,5.845949274297038,0.5941571846216867,-0.18610980363812618,-2.3055797116260757,-3.2047899383511926,1,right
3.69,0.6619740073293485,1.931356259774367,-0.5038362107423034,6.707508440265515,5.807048310883397,0.6621028635325317,-0.17857663033100085,-2.202670701118675,-3.151943818025228,1,right
3.701,1.2499165249329676,1.5049384507981807,-0.7751582179858996,6.933290451736831,6.09211808203193,0.36143102153749324,-0.17804285463830447,-2.202990275826119,-3.2213786332959895,1,right
3.7230000000000003,1.1508646171310954,1.7086532958857044,-0.6629763361905494,6.340800790741866,5.592783174577027,0.9399305047303942,-0.18268038171219,-2.309463371114278,-3.119577420691635,1,right
3.725,1.25107281603751,1.8815642219484352,-0.6158801417607298,7.268412447428522,6.237952009245511,0.1188490991508826,-0.209774873870296,-3.1713205452105138,-2.600510761887896,1,right
3.7260000000000004,0.9969526934836157,1.728851606293192,-0.6265527612887745,11.734064930662765,8.8673427959834,-3.6196009395231092,-0.2052966050344684,-3.479911972140856,-2.4215069504470375,1,right
3.748,-0.07556760882230004,1.9623870948318936,-0.20416197893341545,13.020287131668276,9.50145571184189,-4.559409214367928,-0.2200909467380165,-3.0616982319337116,-2.6314771601790534,1,right
3.7539999999999996,-0.48640073171214965,1.8471917280968961,-0.17185085784855508,11.68853663606028,8.986316931531235,-3.740236631832842,-0.19701048786326902,-3.59936627537159,-2.4062610730160134,1,right
3.76,-0.8152254411519682,1.1889151626835126,-0.45947929668835996,13.037057754971134,9.379708593905736,-4.3973469775668885,-0.2204365998258432,-2.9529800712061176,-2.616848268914989,1,right
3.762,-1.1151214917910357,1.12867513540073,-0.4185409460613978,11.696477168339559,9.06574673682083,-3.889062336464796,-0.3391233873438477,-0.4645184473683313,-3.464400070334095,1,right
3.762,-0.9151960418993412,1.1554562028041149,-0.4634820657834985,6.933562440752201,8.43213640680801,-2.5907580168475928,-0.3255074571036128,0.2483574755565706,-3.51559193775902,1,right
3.782,-0.716786065909223,0.5830356957466462,-0.44827844037969145,5.842222699752025,8.147270015191324,-2.290618590537715,-0.3714747521611008,-0.4091191493695263,-3.5848992065532945,1,right
3.8,-0.5330805922463508,0.2073875354211824,-0.23239906832245077,6.662928173969533,8.405552147787983,-2.5101959739967667,-0.29561752114166856,0.1603997106660151,-3.4184864883615065,1,right
3.802,-0.5637410616133017,0.20578326205512754,-0.22492113097479186,6.168118782299533,8.264246894151405,-2.370656886408559,0.08108159026506194,1.4481828611138012,-2.525282360766437,1,right
3.803,-0.530152406777465,0.22353861034324785,-0.19392121723683925,6.763218686201954,8.663935406615861,-1.8969946789492134,0.17460412514328777,1.8305959966638627,-2.3875198033620846,1,right
3.81,-0.5751098895768203,0.1881768427967596,-0.26363871411412904,6.9896198849682865,9.256739544845761,-1.9197195436187675,0.09540127128100316,1.517974621682113,-2.3870817559305886,1,right
3.819,-0.8385541476470434,0.13654971107266822,-0.32992694436805464,6.35766524298522,8.039855970314013,-1.8437059948421668,0.15321980946053826,1.7855420366949932,-2.5648208806123796,1,right
3.846,-0.697197600963875,0.1933451785432074,-0.0315975676679736,7.420516485990387,9.917282131975874,-1.915723050902848,0.11624650904659134,1.5460585737305297,-2.2245092451416673,1,right
3.8489999999999998,-0.7016654201764049,0.2426189328284127,0.03053983580397608,5.95561008460499,7.551005871348987,-1.9324350164797903,-0.0019377851589919611,0.3701755940881345,-0.3881970031622454,1,right
3.85,-0.665128225221486,0.20415862843106009,0.015753267906656772,1.2872577339854687,-2.7200758283976834,-1.0483003480469435,-0.017206585085423567,0.18429278153243278,0.08555581996156589,1,right
3.859,-0.19404693816964266,0.16784824530944797,0.23124526155246372,-0.5623827050375734,-4.8623716361573175,-1.4728863584424723,0.0016570156090348403,0.3510771965107644,-0.364631576364819,1,right
3.8710000000000004,-0.16219773256777167,0.16006668190535983,0.30234046542273696,1.1720955632591505,-3.3860527991628295,-0.8383434919035491,-0.030729048499867795,0.17226137263282118,0.04134269316632097,1,right
3.88,-0.1520788938776873,0.15308481557412668,0.2158318367669807,4.029552643541946,-5.947410015172921,2.3185012023954643,0.022021091807926434,0.40873446958579845,-0.3181475098686645,1,right
3.883,0.18588164053852624,0.10212031396828519,0.015470313258124306,5.036666821216775,-5.849375305862421,3.026654934262326,-0.05180318229436833,0.0750643463138248,-0.015097485095548507,1,right
3.883,0.29359831855553653,0.07448622578889194,-0.04030319742950862,4.492641685545614,-5.564788718043381,2.476281676205811,-0.3333604937333768,-0.8017027937279384,1.6282170190357859,1,right
3.898,0.2169059219016467,0.1570724654268731,0.014013018499910683,4.622661933946311,-5.997024202069911,2.812285911461316,-0.42516454176817753,-1.328532954164116,1.7233614865311093,1,right
3.9189999999999996,-0.0071259447794116484,0.27323837724074557,-0.0810246995993367,4.793541181182447,-5.580257293603683,2.6752693913683347,-0.34159823620581153,-0.7812550819773065,1.7599747068749445,1,right
3.923,-0.14539112706114338,0.3047368772876666,-0.10662190492083073,4.465679566180522,-5.903853132405298,2.677664184968587,-0.23871657051213668,0.5591809730262073,2.9345494463571065,1,right
3.925,-0.026612640509208814,0.2785300389960461,-0.07092138084401171,3.7675898899547273,-6.334098597803681,2.807100825193463,-0.19128637293318013,0.8811864729456473,3.1032410748119097,1,right
3.9530000000000003,-0.11837429011556014,0.2975731460900275,-0.10754641217478708,3.5253562333413644,-6.478222728148636,2.7818844528443494,-0.2204290875051389,0.7786648423059815,2.9690566484258474,1,right
3.9539999999999997,-0.47897448392485564,0.3962876992393477,-0.14659938951546497,3.606708772422518,-6.3686461337028435,2.730240161026521,-0.2053407799604225,0.6506297937087397,3.027173848616476,1,right
3.964,-0.6827146972803962,0.48061947415400214,-0.14797777482790744,3.681346689296463,-6.476244174617047,2.878244249391898,-0.210778253566608,0.964237300077868,3.047820144184361,1,right
3.965,-0.6940629571045854,0.48114520760167717,-0.13740528310502192,3.522156466912876,-6.361931076069286,2.6507854798283397,-0.22274742267974873,2.5001838482756567,3.370582393397874,1,right
3.966,-0.6534501442361684,0.4785358273370115,-0.13844512080507318,3.3211403136262105,-5.832989878617408,1.7205764511424113,-0.212541301045997,2.9221436812298407,3.432626095750579,1,right
3.9819999999999998,-0.6125257225423005,0.5005465288614732,-0.14354976870606395,3.3927976841416885,-5.7847138367771365,1.4883715398664719,-0.2340423261112488,2.5578508593174547,3.427599742612276,1,right
3.99,-0.5492219496626977,0.5014024310782366,-0.1371707996007574,2.99613355601819,-5.740600401070187,1.6426353535829508,-0.19815058566010435,2.842425406334196,3.3408731370914015,1,right
3.9989999999999997,-0.4216182100928534,0.5156936163700985,-0.12929323693317146,3.786739304318748,-5.896114380793571,1.5913308003070883,-0.24912218402654612,2.623483746065455,3.5272274717538554,1,right
4.002,-0.3928036494953243,0.528008645354169,-0.13653522619051328,2.637707537016335,-5.643211154492561,1.543037577737906,-0.45597333889539854,2.07715919557054,4.39979154629251,1,right
4.003,-0.3910341557321766,0.5081319709817997,-0.1165966652413553,-2.2152913206676366,-4.36910748879245,1.166438700775315,-0.5257110551729864,1.8999128279053346,4.713386874227131,1,right
4.019,-0.38328182742434747,0.6445880892029332,-0.16953511875904717,-3.6069077165568064,-4.066753000057576,1.0020906702047911,-0.45574096792950247,2.087344279042906,4.392281806222748,1,right
4.05,-0.5364609695207375,0.8651145797116218,-0.32667644511199445,-2.3628374087817523,-4.319641705537675,1.1727995857227318,-0.5198588315199383,1.8907843729263034,4.685279624775853,1,right
4.051,-0.6094325811146477,0.8927882436183905,-0.37406326884958196,-3.3511593540516706,-4.141316727425452,1.0279835932143508,-0.6773487998725722,1.187820941117941,5.391800024943645,1,right
4.058,-0.528293319281229,0.8697328639867592,-0.32808416656444384,-4.717923211596719,-4.531263367307835,0.9146568130434067,-0.7134378923364999,1.0383334496980823,5.541653362504778,1,right
4.059,-0.6108832266939496,0.8905828962127833,-0.36723511146580423,-5.0817980726741,-4.553061495566375,0.9197198882469662,-0.6959819300304635,1.1265332209936907,5.484806170651469,1,right
4.06,-0.7928347045788977,1.0729975219874819,-0.45974953772269656,-5.031173399746514,-4.370281894074455,0.7925689529683053,-0.6966592670668904,1.1082311906376883,5.45994665122111,1,right
4.075,-0.761408795130726,1.3211536596587008,-0.5313855371749114,-4.791695649923932,-4.7886537306133485,1.058410687993957,-0.7066605036779556,1.065530643938335,5.535815651503202,1,right
4.0760000000000005,-0.7046298870060633,1.238796266963956,-0.5383112566189062,-5.281608284574486,-4.052896348496187,0.6619678719234459,-0.7251927018833455,0.7185094734645625,5.9693932008078345,1,right
4.077,-0.7504123094666764,1.3615905814078835,-0.513232222451923,-7.043278799080726,-1.450368109578498,-0.9258179123867057,-0.7279044938566979,0.6178706874043816,6.0318573055860725,1,right
4.0969999999999995,-0.6040220632044322,1.8542631251905537,-0.6705586421244205,-7.874447290461118,0.07375235331535694,-1.46417370315066,-0.7423799415651642,0.7204407241483025,6.00568637246426,1,right
4.11,-0.6297612370978243,2.029731478417721,-0.6343921269149035,-6.955338874921539,-1.8164084543901542,-0.9268454171159645,-0.7071991460687309,0.622176198266404,6.0147107276511225,1,right
4.117,-0.9297629111418322,2.066575871180425,-0.30982519129732994,-7.898942762018871,0.30092072219560895,-1.4265610235062218,-0.7590069316505711,0.7149480288659609,5.974874073519214,1,right
4.12,-0.9197747471925519,2.2185690799907025,-0.3337629269279373,-10.74377605832116,7.757696970394881,-2.7322418734042397,-0.7030274468110387,0.631015068262456,6.106994044532222,1,right
4.123,-0.9446484852033515,2.1031241112493753,-0.26345583055876365,-11.477295404400795,9.56831540461616,-3.081911225268651,-0.365467330021299,0.19677333185381105,5.913069550852954,1,right
4.138,-0.7255383665297204,1.7801669471963188,-0.09777285729929823,-10.971761182831976,8.257938937453995,-2.8234701677782876,-0.3519521192589881,0.16175093875726493,6.336300293349581,1,right
4.172,-0.2153481499885644,1.6480730543128028,-0.28019106126983095,-11.20890175924345,9.001411948875544,-2.9960583043963465,-0.33213872036197445,0.15661412648543743,5.822035626222025,1,right
4.1739999999999995,-0.30673249074147224,1.607991466364528,-0.3517684531796832,-11.248325767125959,8.761565001366385,-2.9023461477342534,-0.005041176559562391,-0.2748888493441223,4.032030437530447,1,right
4.175,-0.13647184331921,1.6844780247422242,-0.3500570816589754,-11.990613646173,9.126704615410437,-2.8029916675314737,0.04067540105827991,-0.3672103203791822,3.746262861756576,1,right
4.176,-0.34948998054215175,1.6007507452175092,-0.2659335186988131,-12.549556904606227,9.508275170870801,-2.895557970453505,0.012448733902220071,-0.2276116136835301,3.7006725237092786,1,right
4.177,-0.9068117131180913,1.1542158790309793,-0.25610388866607225,-11.78161801566971,8.971509669081676,-2.6716925023126388,0.01221648692756238,-0.4219373065865307,4.13496308125076,1,right
4.203,-0.430537086826429,0.9558339052260836,-0.36721154716690346,-12.647940156567067,9.60464685437674,-3.044889942872839,0.03792680883204465,-0.16645830229664563,3.3653450869132087,1,right
4.205,-0.6479814841644044,0.860834725364183,-0.5451796363187746,-11.911634077777727,8.929704713982737,-2.532106515598005,0.18270450517885636,0.8766751867089704,-0.16167899127997365,1,right
4.205,-0.15734218715435622,1.0301401811590218,-0.45733718487397657,-10.67789688074426,6.632804707831963,-0.17442567523186037,0.20405760235217618,1.2484174801441168,-1.1035149384835168,1,right
4.218,1.8183515897995868,1.4359084849454729,0.5930563984009888,-11.351096302421055,6.109562301160025,0.48643528699269245,0.21926066631053961,0.8357608802743093,-0.3387673804554842,1,right
4.2330000000000005,2.6392013713151123,1.6124860323988006,0.3620529665562585,-9.407820151565257,6.438161797973168,-0.18646467217696536,0.15336432276178716,1.2585356985730694,-0.8314178369328078,1,right
4.237,3.0073565264162867,1.793543805038124,-1.3746270130042948,-12.697317589454917,6.340645255254897,0.4816371698498921,0.2706820038240247,0.8882659997503355,-0.6381706748040077,1,right
4.24,3.6174729126356837,1.717588446717354,-1.8204719796775675,-8.409089591585406,6.215239960764379,-0.164762092296298,0.8041504255240743,-0.5414179654065361,-0.5341088380213399,1,right
4.242,3.269268373381719,1.9742782091850803,-1.3839692098272047,10.115747697587295,5.500184663780483,-2.456560891953726,0.9809103683173235,-0.5035302859977488,-0.8875005354430208,1,right
4.2589999999999995,-0.2123187454836889,1.8826655741482874,-0.6174327610951065,14.057025847022137,5.08071617305606,-2.936447726265163,0.801795341469228,-0.8740388643332762,-0.31465848765445426,1,right
4.276,-4.463073573798515,0.34758703700675053,-0.02577167980811397,11.30064955274105,5.53502569489282,-2.601284004892827,0.9707102790340881,-0.16781481414326693,-1.0454259793187668,1,right
4.277,-4.806687978479118,-0.23505803223752397,-0.19207829557034636,12.849368635831844,5.144499858096733,-2.791754058031893,1.4192351462383543,3.7689114521902387,-3.7931318236835083,1,right
4.2780000000000005,-4.407939530088106,0.3387012620580395,-0.09317293749620953,12.82516052600745,4.76651197617023,-2.7879195836209965,1.550811414742793,4.91048372036444,-4.57361129609146,1,right
4.289,-4.795775410579418,-0.18494493518625793,-0.1541519531594147,13.988290252493321,4.896635328783539,-2.8260272406533993,1.4369762297762299,3.6805293406899717,-3.8883945131687603,1,right
4.293,-2.3487630722504025,-0.47634448819204495,-0.675342163717773,11.588802655459414,4.304495758083901,-2.770341698743022,1.5371946287074492,4.946752090334316,-4.432483033816664,1,right
4.314,0.7720802014012175,0.5643028005694314,-0.9898313468422554,15.88366393075772,5.42283411026923,-2.8911651945441275,1.450236720948749,3.7046427738195904,-4.06719498721518,1,right
4.316,0.9847638984063776,0.741371295143451,-1.014821633981676,9.59935426653858,3.824424495898841,-2.6844320028516657,1.1858087883315311,-0.6289700554508144,-3.3304137309656037,1,right
4.3180000000000005,0.8602113117251584,0.7019742739296662,-0.931158974251884,-21.345620192071085,-3.4298702577160594,-1.5315813284479192,1.1574521490603191,-1.494233279709615,-3.498096743573969,1,right
4.334,2.1926418029729975,1.8980440019243894,-1.1662345656662279,-29.954850903493803,-5.492940433741142,-1.1836661183110393,1.1316043808569667,-0.9696181306612133,-2.9781276586144116,1,right
4.37,2.2165548864012257,2.020190940174757,-0.9434134439804805,-21.110768276021687,-3.4336290217037875,-1.5722357420861295,1.2211265664926079,-1.1513613060182768,-3.832208154293169,1,right
4.373,1.134950429954633,1.2513985304890936,-0.039941945903314874,-29.882885775312694,-5.418669663049937,-1.1614979011812712,1.0722593819386306,-1.2196439489968034,-2.772774564082338,1,right
4.374,1.275453568549254,1.4173616594629386,0.23260523056004628,-21.457403662866863,-3.5644966526017514,-1.567698081817878,0.42219867959535456,-2.1356564144219314,1.7945710549048361,1,right
4.375,1.08018660137195,1.232562269433059,-0.008298755611972422,8.013787892033964,2.974103152973721,-3.0870186911146336,0.2164571537890113,-2.234822209901613,2.53904120522387,1,right
4.378,-0.003490390160025336,0.5036683448981725,-0.20532986961476,14.130623415818691,4.230900441389792,-3.3590339603874666,0.41521633331258756,-2.3121490314324253,2.2635991258905683,1,right
4.4,-0.13127284424350333,0.5176657731527334,-0.29973990115436333,9.924948456981333,3.420413307157161,-3.1954363361491227,0.23848627459100857,-2.028987296827323,2.0479831580027446,1,right
4.402,0.04079979767821838,0.7143556926280026,-0.24998013001274627,12.256913039117467,3.821382398552716,-3.2740558044258257,-0.17430445143502887,-0.007664761829847877,-1.0812099812152771,1,right
4.404,-0.06757546063380884,0.5376035237095569,-0.24945406072857193,11.579813015953535,3.460778142429837,-3.263334018112609,-0.2906750011500012,0.49312750995357696,-1.7874509808968895,1,right
4.409,-0.017225374012564132,0.6872623446984143,-0.2808596970441418,11.986480737105259,3.5889277927897085,-3.3979967294423226,-0.20087119470400994,0.01938789883493118,-1.1514891710216453,1,right
4.412,-0.06228926541387241,1.0918416732153196,-0.30780167493690175,11.383454215697308,3.2650642186973657,-3.104654494172383,-0.2720058533452788,0.40969273941498535,-1.5921783039556225,1,right
4.4510000000000005,-0.07396229627489911,1.135598663499525,-0.2775197989577983,12.688297727600105,3.917755870083221,-3.597624343991974,-0.21226999129588314,0.12698209129165886,-1.3784402512150378,1,right
4.454,-0.09919760713112806,1.107120539463702,-0.24937852882299905,10.576393419197036,2.935658070444581,-2.935849668987783,0.02643386942249072,-0.46527710486299617,-1.5204253515205397,1,right
4.454,-0.04553276151258269,1.094546868032908,-0.26499438591670965,-0.7401650026488475,-1.868745025244396,-0.07401933019628704,0.0678356307032867,-0.5167140076645982,-1.6260404444631074,1,right
4.459,0.1851450327808138,0.8863179163273035,-0.20730939904141288,-3.4422067435132595,-3.0722689017845415,0.5848896910470643,0.03917234950578129,-0.575602503823585,-1.456217030232077,1,right
4.479,0.2761314240716177,0.8303140698205893,-0.21384259651789497,-1.1051000471949821,-2.0064438406434437,0.10643644558480361,0.054009881493959896,-0.42764674780751916,-1.6414344286662486,1,right
4.48,0.3522207020906624,0.8780321090376717,-0.2828676529369941,-2.8605517378815932,-2.8603242380256373,0.35823168059809557,0.05117964564218961,-0.6225698595610891,-1.4746889306311957,1,right
4.482,0.4122678382164875,0.825621365284763,-0.30075596763248935,-1.6933359200269538,-2.2211797137929516,0.31041952653263055,0.075979628754307,-1.4494368876256258,-1.0395112938367168,1,right
4.485,0.3864076603375586,0.8707098656769828,-0.2768558422212096,0.6030879703648189,-0.5541507397305991,0.67170722892621,0.08463604985137631,-1.5618851715441842,-0.9712012999847689,1,right
4.4910000000000005,0.27591086329995296,0.9722042226957346,-0.26331192284982774,0.970693508832828,-0.25610125257950694,0.8178954008468421,0.0762637659055518,-1.5565364986367616,-0.9800283614588035,1,right
4.511,0.06755371832374973,0.9659047504371272,-0.31884342990048686,0.7951606956120112,-0.42788023316960444,0.6774779127974622,0.08218992161676827,-1.4565631502459402,-1.01953932243657,1,right
4.513999999999999,0.004808185306355775,0.9347832951291559,-0.3375969415067725,0.8826956366894901,-0.3523438858788177,0.7782736384551114,0.07931141057264325,-0.6531431032871083,-1.2846983173708453,1,right
4.516,0.07676473711804044,0.9655140525766639,-0.325814285890497,1.3625892616394424,-0.3729858814221596,0.7521098158011341,0.0796165161081781,-0.47759084349711045,-1.3473617611331887,1,right
4.53,0.007426455446104804,0.9341616576872643,-0.3323143521078149,1.4550629194713027,-0.3989258159758987,0.7780420598894358,0.08091558422886791,-0.6099975679642147,-1.3097982897078067,1,right
4.533,-0.17669163371246915,0.8948564236571707,-0.28747427460658026,1.3246653817832055,-0.35810982346152553,0.7607143061638959,0.07903539476300829,-0.5496945737116476,-1.3104172783979413,1,right
4.556,-0.23066456476869376,0.968184716666044,-0.2543116367159247,1.4893102367066686,-0.3988991860187555,0.7875242316071154,0.08064984035658188,-0.5363437860346557,-1.3459200310840078,1,right
4.5569999999999995,-0.22256743733867856,0.9872116937936849,-0.24357663291777712,1.3116462280974486,-0.36885894255745566,0.7435407882053054,0.07990962840699328,-0.22463962883004773,-1.584677212958455,1,right
4.558,-0.20657772136817062,0.9775195026822228,-0.2574512170982995,0.7368063767127112,-0.36828028261054324,0.46067087896265224,0.07939461158797034,-0.1277201472793685,-1.657744471475933,1,right
4.575,-0.10993141675778562,1.0389789253014658,-0.31357280009373734,0.6436846525532915,-0.39018740623897286,0.4019311477879665,0.08131514710880963,-0.23088447870793738,-1.5844870820052517,1,right
4.588,-0.06823267975500798,1.0428117398166497,-0.32325617293519326,0.6471637111516392,-0.32685118432877847,0.4501122813216362,0.07812112024590777,-0.1345759886606535,-1.651031568823445,1,right
4.5889999999999995,-0.05005138378354164,1.01672513400597,-0.31125491104362957,0.7349122261649279,-0.4366287239121566,0.41999805951716984,0.08212087908167831,-0.2187240257953886,-1.594702639006135,1,right
4.5889999999999995,-0.013464080569753529,1.0230506044823908,-0.304242438108974,0.5853661776733821,-0.28566009005862025,0.4307077327614879,0.09806107860065555,-0.4485674654233672,-1.4183364459595598,1,right
4.59,-0.04276281183513258,1.01754922789281,-0.31883944370038475,-0.1858164475104843,0.29940048501788924,0.4059776740839688,0.10140013220673641,-0.5035441717224043,-1.3894008742425636,1,right
4.609,-0.11033677710227444,1.0612891845574113,-0.36051072337088985,-0.2984660023591005,0.4734746451323927,0.3905751097761969,0.09926043416339714,-0.4647328571658304,-1.4036070023344172,1,right
4.63,-0.1575326303463521,1.1208035503385174,-0.35748528228063065,-0.26573233647587446,0.32526094368609315,0.4096159934767415,0.10025155592210394,-0.4866951450200238,-1.4006378724167707,1,right
4.633,-0.14395700046150228,1.1162265505216817,-0.3465127001449976,-0.22279308514152826,0.4270029583871956,0.3934844726715474,0.09983722410272657,-0.48253626718799747,-1.419331908965397,1,right
4.635,-0.15432266539382644,1.1267216526002208,-0.3487643036886681,0.27988939190993106,0.45806735679765953,0.4098027972834345,0.10054629953456592,-0.46718118919476287,-1.416287608779514,1,right
4.656000000000001,-0.14854400630466602,1.1119476139502726,-0.35520689273528794,0.33119686068860194,0.4215212279875183,0.42083742580034045,0.09872496842513369,-0.5036734904837941,-1.431099410040733,1,right
4.658,0.022704594212089313,1.1061770846136967,-0.33288166583205814,0.35840213577475305,0.5390854804771197,0.38498066242353357,0.10201128856003837,-0.446909032138578,-1.4014282237356828,1,right
4.6819999999999995,0.18277961107466173,1.17950743006979,-0.27626066252618964,0.23319824966897773,0.3503004954062262,0.4510697715395349,0.0977458881712041,-0.5178491347238796,-1.4423207296123937,1,right
4.683,0.2006975463107475,1.1720921480874997,-0.26705709164514635,0.428581080822663,0.5764544395731993,0.3536178631425324,0.09146904935306627,-0.774871604392265,-1.571068188227366,1,right
4.684,0.17786419221870967,1.196427042994617,-0.26859995093859146,1.185659210600735,1.26245115046142,-0.10094588125288931,0.09071769823717474,-0.8344202935569742,-1.5968606499747358,1,right
4.69,0.16121996658408028,1.2878410281787873,-0.30455226881036757,1.2797894748954177,1.3706982183336396,-0.2491737153303697,0.08567116039427701,-0.8019880321713724,-1.6027882589782385,1,right
4.708,0.14172441715093206,1.3334112663136644,-0.29573616765323085,1.3705636541641137,1.4229996079735097,-0.08259766479197155,0.09892689812812742,-0.7998194080489456,-1.5534884053493188,1,right
4.71,0.10428523206065952,1.449299879290871,-0.19935374884851978,1.052872113197738,1.1789606135322412,-0.26179531645083964,0.07630782865288922,-0.8361812054816132,-1.6495359322020704,1,right
4.71,0.09912046638307119,1.4867198829499317,-0.20925897656231535,1.5756190963068606,1.5965221138346795,-0.08296832895344484,-0.012252115924829157,-1.0128758403239908,-2.0523127978016955,1,right
4.711,0.10007749686737427,1.4547662094208202,-0.18156419665273923,4.027218050066207,3.4008404650068416,0.5816803041839318,-0.050460205119922746,-1.0916705192206229,-2.2188011573748136,1,right
4.728,0.10625942644819661,1.4593953712263477,-0.22406855528232933,4.698791196015395,3.9442678337055623,0.6868832265327953,-0.008679764370781292,-1.0106933644843892,-2.037986068163049,1,right
4.753,0.08283748454942258,1.4797387515818246,-0.45669522726520345,4.086395739691595,3.4693029094635826,0.6483540698260853,-0.04967624353950861,-1.0792642780690418,-2.216168812762786,1,right
4.754,0.04345756353899874,1.5557879983306506,-0.49644891504972277,4.600025396218504,3.809863108799355,0.6257958442351984,-0.16498179288343318,-1.1793904019673227,-2.729502738493758,1,right
4.755,0.11130822969862539,1.4495514403954894,-0.4729374123102877,5.249673150921272,3.9515247881896265,0.4385711950501976,-0.18770531217229686,-1.173751737580758,-2.847148041491028,1,right
4.77,0.01940076869369657,1.5763431755060204,-0.48022484119720865,5.563733476074532,3.8910295724607407,0.40527901227604357,-0.18074828101586554,-1.2379594543383927,-2.7781942995126547,1,right
4.773,0.1864783499140208,1.9333330925240153,-0.4797382727221121,5.351202137684046,4.192634043812659,0.36340894974435795,-0.17184375288292036,-1.1120926365698025,-2.801347086327267,1,right
4.787,0.7263743322292608,1.8301208695991589,-0.5789179827259772,5.426908612536333,3.6580047213563147,0.5271548214989406,-0.19250050251256817,-1.288160505041434,-2.808989721911434,1,right
4.789,0.7336822015457862,1.8072510307215799,-0.5455719595620072,5.560935129224463,4.369191892014634,0.2161542922295047,-0.2972051580188408,-2.0560557225610268,-2.892789075293776,1,right
4.789,0.8142244080202081,1.755303963666639,-0.6121048023435095,5.836661682304264,7.166386382332197,-1.0961057786973778,-0.3196391274784311,-2.2577694341984005,-2.8949554247057563,1,right
4.8069999999999995,1.1517934402396142,1.4622437510451864,-0.7632872090002649,6.68616832488492,7.897404090662388,-1.678914300489406,-0.3050221037849402,-2.0711809399155916,-2.923250768591888,1,right
4.8260000000000005,0.8198082154607278,1.6944305990239124,-0.5354430730918976,5.395633076326742,7.315096387325363,-1.0076185368258765,-0.3111160878554701,-2.248163432122312,-2.858073868533576,1,right
4.828,0.5238405931195858,1.8668437078274125,-0.40097724652665456,7.0507534746862905,7.706479473313973,-1.7153323293826048,-0.28034891276539714,-2.805381115400243,-2.457268544132107,1,right
4.829,0.8368271017500932,1.69910722950523,-0.5397496387082498,13.739587953694855,8.005859885939449,-3.989045377598334,-0.2808388434527762,-3.052179997695082,-2.331233852880096,1,right
4.829,0.5394576893197839,1.8501561386162737,-0.4014037951152676,15.467092642520692,8.077939370340133,-4.564588525071544,-0.2764858759647332,-2.71383709387828,-2.4779369981535897,1,right
4.846,-0.5728170512081461,1.666959299438775,-0.23462800418782265,14.059205518462782,8.091842902325865,-4.136173176207421,-0.28546779495020236,-3.159471761002725,-2.314692477192671,1,right
4.867,-1.0122624059356897,1.0871623817347902,-0.40297342728275326,15.0076259177238,8.037647474801766,-4.40642528977247,-0.27586658744575177,-2.634079613986811,-2.489484908298939,1,right
4.868,-0.9333026606757349,1.065675320744277,-0.5068843130646414,14.594781955316671,8.106829243642672,-4.280780131106389,-0.2575046905877279,-0.5041599965112369,-3.289766839311375,1,right
4.869,-0.9312383946038811,1.0219915685972167,-0.4232569296798229,15.191288140693622,8.706293872351043,-4.336780737289578,-0.2748306001660575,-0.06670262313261269,-3.472044292150558,1,right
4.887,-0.6388612642645837,0.6804086033466382,-0.3589724767003371,16.08901026610279,8.86381618518458,-4.471906996043289,-0.22914245417670037,-0.3355430120302048,-3.2772157598519938,1,right
4.888999999999999,-0.5546250637722278,0.5532239991592145,-0.3051465424445749,14.396102330389564,8.557017750307894,-4.186337871218864,-0.30601312834728966,-0.25576454273202975,-3.5077048007386926,1,right
4.906000000000001,-0.6248118741292016,0.33717675141819714,-0.2245244111837085,16.86864767771145,9.112335876276212,-4.6434179836586145,-0.20552603374421788,-0.1886540386618571,-3.2149092335175498,1,right
4.908,-0.5358855576280568,0.24277064864821185,-0.17299509055222007,13.846142464780547,8.22503448085583,-4.015566125902104,0.22790909500539952,0.4934088941858054,-2.207579727589798,1,right
4.908,-0.6270850948020398,0.2951041952191185,-0.22999452322464442,1.4505090973645398,4.854184330733975,-1.5687890612225357,0.31925714490870416,0.5860196353714138,-1.7543932826449111,1,right
4.926,-0.5965904010700591,0.20214459131521625,-0.07991770332625497,-1.2109084889465238,3.2371660042617347,-0.730927472969328,0.2590270199451035,0.5997513694000021,-2.2672962069539686,1,right
4.954,-0.3201659582954942,0.22893633860407703,0.2556896859221167,0.5936549757416096,5.138744489115331,-1.577620850460348,0.2839506243455123,0.4560753998350161,-1.742537454456188,1,right
4.955,-0.19610928028634425,0.2521438027872166,0.2924509328810759,-0.24636707868847885,3.1009838285637095,-0.7830275013141624,0.18666809547354662,-0.7341097334743268,-0.1836492033509105,1,right
4.956,-0.3212698312802364,0.23150394796031531,0.28227483758225697,2.239454292166161,-3.6390254853307513,1.351349256657417,0.17098925797936138,-1.0390602467494512,0.12705295462489685,1,right
4.956,-0.21081030723228472,0.24401328929316715,0.2649941605761815,2.6337595165650223,-5.25727531915804,1.881375903700214,0.1843814610482711,-0.7314838944557327,0.033231049544118145,1,right
4.973,0.2637783061904521,0.23813872624388213,0.012098974594342352,2.1130376074155857,-4.140394852100437,1.5269846480449054,0.18393021815041447,-1.001229229426024,-0.10657293674075705,1,right
4.985,0.5047752366546006,0.2735409693277311,-0.09288528762765869,2.5626974062380383,-4.723599042214392,1.7216407764870902,0.16788358609875195,-0.8015228319630008,0.222175234511674,1,right
4.986000000000001,0.548785425181518,0.26146157352858795,-0.05078228963394887,2.217589192022645,-4.577711516231032,1.6433928839324992,0.05714135724162896,-0.546321505689068,1.738863121590048,1,right
4.987,0.4436415378527989,0.2846566016555874,-0.08365445908263969,2.0090983302916188,-4.902384127543577,1.4969869596317142,0.02249264361953578,-0.5977839350768912,2.144667229794538,1,right
5.004,0.20099914718563855,0.3509864209890178,-0.10192246935806162,1.507805882432995,-5.130745793953226,1.5049459042779598,0.053127988469312534,-0.36233122089966097,1.8482296590540772,1,right
5.007,0.040528580008759016,0.38932592417932754,-0.1134195490707718,2.301208298146718,-4.920594488287354,1.5004752152556913,0.0353991038438972,-0.7951323899413556,1.9878647457730916,1,right
5.025,-0.2662599870623116,0.4850899108154989,-0.14002997488349966,1.208677186205035,-5.058622755848079,1.4966471474017125,0.03271725879966318,-0.195475396830671,2.006069957444158,1,right
5.027,-0.37048375496976194,0.5069674686401671,-0.1376855670804389,2.4212556160520515,-4.984823261821956,1.4963749839473974,0.01137677067951811,2.2835963631471756,2.371710611667946,1,right
5.0280000000000005,-0.311734329738736,0.5020346749880769,-0.1437674903043321,8.183626264625921,-5.032174483302525,1.563342433448122,-0.045562009353458104,2.9710120464522944,2.5955424587942058,1,right
5.052,-0.5636201782268953,0.5603935190695706,-0.24481810647919605,8.560729281211614,-4.931978729760525,1.4871095559232623,0.03619948158031588,2.3627785137815147,2.3413130402975244,1,right
5.064,-0.7412852883863064,0.5343075497113999,-0.3177117128306614,9.035419365725389,-5.118685155825952,1.6235851002849486,-0.0585900189274629,2.858594663912103,2.578353968885019,1,right
5.066,-0.741874119722916,0.5040596459083982,-0.2978455463136232,7.75266402290219,-4.836274982650259,1.436309134391706,-0.3808780341463377,3.817397961159437,3.055058621671236,1,right
5.0680000000000005,-0.7305365050134294,0.5349095053370749,-0.3280928639543327,-0.18062943911541218,-3.466109206977555,0.6241874291517303,-0.4379772437273407,4.1386939145312205,3.122549503132526,1,right
5.07,-0.7573366939703382,0.5085065903272584,-0.28623192749377013,-1.9291475756590124,-3.0994303461091053,0.43568287921441873,-0.42994608401328926,3.842449104158245,3.187824000523965,1,right
5.084,-0.7381434287130413,0.48574125433192156,-0.21701719695826152,-0.612315307421969,-3.432922707450403,0.57194193997926,-0.3834147315275161,4.148568846024705,2.991173987558939,1,right
5.104,-0.5710747172254738,0.5219856475754832,-0.323270158370359,-1.283379419539059,-3.1682630973888513,0.5012901595671448,-0.4736625167106892,3.8282693906900946,3.2812877906370903,1,right
5.105,-0.5344200118199778,0.5095595226425654,-0.37361818028694566,-1.2290882086805675,-3.342272413588523,0.5149164782085899,-0.9038442754222233,2.537693559199826,4.427631361873624,1,right
5.106,-0.5580214654399274,0.5375262601572343,-0.3304487570759481,-2.6965365266242043,-3.8916187638035122,0.5129624661837453,-1.0048521513887678,2.3199677053975014,4.683288273610564,1,right
5.124,-0.47852628175272227,0.5989009021750419,-0.34614587641576156,-3.1702087119187095,-3.858691842463785,0.4972692143271962,-0.9341560565343551,2.3995885936316466,4.550121242135541,1,right
5.127000000000001,-0.4780178439322804,0.640174196206962,-0.31612078623295176,-2.835427743033666,-3.9699978484604097,0.4762394957185401,-0.9671908695375598,2.4811855115221357,4.535360282337581,1,right
5.144,-0.5415230288714634,0.804095510292162,-0.2621781776239023,-2.863857922846856,-3.8443535237741244,0.5610705975252006,-0.964623897627055,2.261659719085155,4.678966668449881,1,right
5.147,-0.5428911516738814,0.8315698170719547,-0.23993097649309492,-3.194712116612896,-3.8794001035413643,0.39859307225262974,-1.0632017547429018,1.106734270616426,5.508650728922538,1,right
5.149,-0.5292413979053223,0.8090170737237118,-0.2568393843246578,-5.209623798865713,-4.312652267797958,-0.2628035267625172,-1.0707908426594046,0.8132906292284834,5.743384355012282,1,right
5.1739999999999995,-0.6508597546626625,1.1459897440382059,-0.3975436022418063,-6.065396096118782,-3.8017110317288068,-0.5631344883683178,-1.0785312826968205,1.042141334864739,5.5427051956006395,1,right
5.194,-0.8586451727255828,1.484773647011547,-0.5475121820069431,-5.122612984148082,-4.675815924815243,-0.22494868599188492,-1.0550570544726274,0.9087555953453357,5.6884197185409775,1,right
5.195,-0.9302681807925337,1.5451530266566316,-0.5573492003338406,-6.026531798298056,-3.5220167001549605,-0.5679796641053445,-0.9034554965490436,1.0579453989674708,5.841206887044951,1,right
5.196000000000001,-0.8444369326484928,1.4683223944725667,-0.5381494223922357,-8.274834377895278,1.3742657447789703,-1.631197766960772,-0.8875230250363382,1.0912738656657959,5.914390512392995,1,right
5.197,-0.9349572679607125,1.5510614113464012,-0.5658050329905284,-8.74908476004314,2.441780865622115,-1.8619198934496597,-0.8745797363134853,1.0141957607559466,5.835727676240175,1,right
5.202000000000001,-1.133188608791608,1.7889501413065765,-0.5413443304017088,-8.597441350633932,1.7269912458249426,-1.7296982921714448,-0.9243157604973311,1.1074827990968505,5.940470011520311,1,right
5.222,-1.021972010313775,1.8224771401605424,-0.4594957237786851,-8.449612814374207,2.040220317455856,-1.7699805956384127,-0.8430254323561914,1.0219196319666861,5.810299026977944,1,right
5.224,-0.9956867527374884,1.8202317312567677,-0.4226116932358689,-8.790758608080026,2.0267404255489048,-1.7868148178745642,-0.4977750570762445,0.8591260559751477,5.437819838397081,1,right
5.225,-0.9884168145814745,1.7795790129905749,-0.45144711009185046,-10.240508012296184,2.479364602908187,-1.9837404940193761,-0.41469759559956865,0.8466140708253038,5.364522335151969,1,right
5.242000000000001,-0.5943861897148167,1.6515339816795587,-0.42923974221818884,-10.46839547773233,2.406425452631787,-1.9650254353967533,-0.4626892145279342,0.8060984061240333,5.322019976336092,1,right
5.247000000000001,-0.5316070367075476,1.5706805319319006,-0.41474830133530116,-10.499959459553004,2.8182187454948284,-2.050347209504719,-0.46431154591116647,0.8952888196810385,5.533745687963012,1,right
5.263999999999999,-0.5917721349959946,1.4132473318102847,-0.435866592567,-10.194912528322213,2.0075855178188715,-1.9127715901152946,-0.4102799337023373,0.776767334451022,5.123813851771193,1,right
5.268,-0.4285329547758943,1.3932971953782176,-0.34197766347496816,-10.669609911630761,3.106009025283144,-2.044003474194933,-0.1390938563504296,0.23391124682633097,3.478953761573444,1,right
5.269,-0.6885023014698951,1.3556471541821922,-0.4762434137818862,-13.255648720824066,8.120570714242081,-2.7699393030459496,-0.009876773451167623,0.1493861626658967,2.7101964518007127,1,right
5.282,-0.9329333378318245,1.1740221258404975,-0.3650995270715022,-13.487586555183334,8.95998860876088,-2.615012759372445,-0.1515515793939733,0.18324734405242296,3.5877303637179496,1,right
5.301,-0.28680518950325085,1.3811618076100562,0.4670293855983058,-13.597487970918516,8.637314531158037,-3.0095455204249237,-0.01826465415320762,0.1965644789732482,2.6813124745409294,1,right
5.303,0.36328896629340623,1.577517854120519,0.6275557457294074,-13.169017027655975,8.3908990700981,-2.399250348901231,0.29071987165547153,0.5583041414099981,-0.20658336289456614,1,right
5.303,-0.3644084159979622,1.3522415749420125,0.4690513519473376,-10.006564123454599,4.824704561985609,0.5341011958607107,0.3355883068775528,0.5935467867961144,-0.8626375333407796,1,right
5.306,0.3407922155289737,1.5834809016915916,0.6517558803064101,-9.478270878947761,3.9426122383808204,1.241052236880442,0.36344397080803903,0.5781021505052237,-0.44065353307361393,1,right
5.322,2.4099364533752183,1.923437565705608,-0.22711876064168982,-9.779751210116583,4.779782040050207,0.6703748522065803,0.26182984468919074,0.5810560975087713,-0.6439400453533584,1,right
5.3420000000000005,2.168563791059868,1.7926980701794202,-1.3372209262883157,-9.734896095391594,4.165536015709259,1.0426374194273242,0.4181793180912736,0.555467748633437,-0.5726199090256566,1,right
5.345,2.4396657675934375,1.8032419165094526,-1.700654033009465,-9.660724350155425,4.458027980064378,0.8801626527630028,1.0929689375028169,0.4096951121503794,-0.37236155948394606,1,right
5.347,1.7014520907246375,1.6339710782692594,-1.3324766882828332,-9.34132165199115,4.495091975862568,1.1739299234193654,1.2463473543327943,0.16767870222374937,-0.16997371517931076,1,right
5.372000000000001,-2.2172605116526873,1.62326663844346,-0.15109195964097935,-9.895406909841183,4.077122329103705,1.4032549041226878,1.1445432159370308,0.5816773681173223,-0.5985471030598755,1,right
5.374,-3.474556782953483,1.2077072765114876,0.042442199798378766,-8.624767957481275,4.781665691967367,0.9717792594754063,1.1865913750971806,0.02001495121745317,0.06569889570982446,1,right
5.381,-3.1568733050484914,-0.1600023131665954,-0.6416920431214663,-10.63359641724394,3.9398672893808673,1.6144057391097653,1.1904571697834618,0.6227918300685692,-0.7326070691189787,1,right
5.382000000000001,-4.240027503515053,-0.4907583431958004,-0.7114331603589412,-8.181730282970316,4.662165504551161,0.7785961691417197,1.3683063521067942,3.2975266678838757,-4.288176975609761,1,right
5.382000000000001,-3.3913533930632145,-0.3245547160179557,-0.5661996220298143,2.645535573105966,7.789000651359893,-2.481090038845064,1.3800142497943697,3.432580265751665,-4.73497569936338,1,right
5.4,-0.18402673848770046,0.008753278836551512,-0.869301732346722,4.148634920950565,7.267387531489916,-3.502894461776963,1.396062942585528,3.7479797434971243,-4.724968147660465,1,right
5.42,1.872341768564554,1.2192455426913402,-1.3211843079318455,3.92385302084274,8.73954215328653,-2.505269658031808,1.3542071964608895,3.000828382506605,-4.2970098793310765,1,right
5.422999999999999,1.8485083181215203,1.5228687847747335,-1.282344727585838,2.816040157601677,6.429499406070012,-3.426615061907836,1.100638777588122,-1.399570510794852,-0.8243422768406591,1,right
5.425,1.6643456328675663,1.1613886449991369,-1.480122396380224,-7.240621657726174,-4.574099693076514,-5.784794250649249,1.081939605524574,-2.4614691785803355,-0.04617313990202171,1,right
5.4270000000000005,1.9828673725594381,1.534172841892967,-1.136864122719353,-9.682933808447793,-7.255387379968385,-6.466939128684984,1.0429544010730085,-1.5608822134318028,-0.6739820951141273,1,right
5.439,1.6319831943690848,1.616917096349331,0.013938318060282728,-7.4403980147892055,-5.087320300389437,-5.921828946233287,1.1537623648695128,-2.1856605571818126,-0.3218234162802607,1,right
5.47,0.47458650743556763,0.8985433520959689,-0.1064274186288616,-9.10533689172329,-6.5222457552297435,-6.32587158562214,0.98089327705172,-1.8606720154031682,-0.3724515112964833,1,right
5.473,0.22439223538776937,0.6823138930466559,-0.45755132481330063,-8.195974023088784,-5.829718460892298,-6.087371285973715,0.17400143330639756,-1.7155424662468142,0.5908172562252801,1,right
5.473,0.3518149622341871,0.8204578820099817,-0.23137953585229387,-8.198312004853546,-5.7148495208249805,-5.8151418786678875,-0.018271794973941866,-1.8851648274124857,0.9848976647827475,1,right
5.479,-0.10285026606505376,0.46622232840133393,-0.29542677088260394,-8.94409022236993,-6.174255032893077,-6.137695291857342,0.13018555993505646,-1.536206209577899,0.4666148469351158,1,right
5.502999999999999,-0.16087820689004728,0.49766132837551746,-0.31098522677393,-7.37284826416634,-5.298419299519156,-5.393135621522434,0.03911117906183663,-2.0131859373947782,1.0585320957729722,1,right
5.505,-0.10020837933677865,0.8927131695877434,-0.40255559881553704,-9.656657429313864,-6.499657384810176,-6.576184197286196,0.0788899857588932,-1.4816599048056398,0.4466939610438611,1,right
5.506,-0.16145346026163654,0.8783236969542859,-0.5262165828304264,-6.956872647866216,-5.103083188551437,-5.072119633371225,0.07221408564256376,0.5416381782911053,-1.7110499246802577,1,right
5.507000000000001,-0.144164971180436,0.9098912880375654,-0.39809093330682127,3.802291862920877,0.175102705989727,1.285577398408151,0.06666018604509177,0.8810278327648792,-2.1496762778757033,1,right
5.519,-0.07183850299143876,1.0545901840946046,-0.24934768241121388,5.82590781008512,1.3720646319506895,2.620907194358872,0.06829610308169734,0.7548407721928609,-1.88384542386851,1,right
5.539,0.2250931640730373,0.9666009493596865,-0.2469761836914079,4.785086314384239,0.5319122557107527,1.7529579945931664,0.07819287850886374,0.6675086579759064,-1.9747403195120827,1,right
5.54,0.3228323204081172,0.9161599831465018,-0.2969914304376593,4.7828133150813255,0.9751861408997378,2.0857736705423857,0.20762767697696333,-0.584807195499344,-1.4858738617253624,1,right
5.541,0.21689935211848593,0.9590093640044688,-0.2757396529315527,-0.3197411619562416,0.44272814647509534,0.3437868438911341,0.23268175922996032,-0.8770916930374102,-1.3789833517269205,1,right
5.546,0.31707908742990476,0.9259659081037541,-0.2762071871405072,-1.5008783313930598,0.3480458160765789,-0.019112552355106616,0.21026892950436313,-0.618758053351866,-1.4882520696419927,1,right
5.562,0.3148606056611528,0.9100032060659811,-0.2873465372452181,-0.329102828919997,0.5238371077827644,0.40855567838656237,0.2252540889622866,-0.7884231079276982,-1.4190243081715943,1,right
5.5920000000000005,0.08785458356110099,0.9427554480390636,-0.2924367365133941,-1.2366184386373242,0.35791514510205924,0.05062655782287154,0.2190336643591964,-0.7237532769505596,-1.431993711794101,1,right
5.593999999999999,0.07217826805123531,0.9557347654446419,-0.3059458562047822,-0.6883761585735031,0.47072216691657054,0.2767878309982008,0.23791672914727763,-0.9141494532339403,-1.2104069468108924,1,right
5.595,0.04961949188340606,0.944729854869632,-0.296171512949148,-0.34783757884796457,0.413272747208813,0.29631777790290004,0.24364548624402083,-1.0159923239057345,-1.1365640867804085,1,right
5.598,-0.187556230736587,0.94541538130936,-0.292084261295238,-0.4000614255524512,0.43746029608878045,0.27997986546349035,0.23596336583022162,-0.8642778619882264,-1.2280228830598445,1,right
5.606,-0.256681709424482,0.934460051327928,-0.28893036093110136,-0.17836663809985095,0.41855709730653756,0.3631311639041065,0.24374984560002297,-1.0453466000063276,-1.1342066176711256,1,right
5.619,-0.26557247825921415,0.9050597404906517,-0.2907299378827826,-0.47965837791269117,0.45110658598521247,0.2517364097878787,0.23684037394641605,-0.8576479921603686,-1.2173204091496281,1,right
5.621,-0.3285901599235806,0.8962669305082545,-0.28922038160147845,-0.18418074302807608,0.40323314474776406,0.3586972434698359,0.22244363374167941,-0.19443578727394467,-1.4770868022529595,1,right
5.622999999999999,-0.2780192566538333,0.9018148732834521,-0.29093921467457484,0.7060632235989701,0.05128016139640723,0.6120151406865566,0.21835056633147493,-0.07587286228953728,-1.504616939712316,1,right
5.638,-0.15655807898911756,0.9700139098928411,-0.3488330613313032,0.7664262522266538,0.02625438889286101,0.6411796009319994,0.2207549112415053,-0.1298172699239744,-1.513054505472608,1,right
5.6739999999999995,-0.09660427363977964,1.0589951581499504,-0.4016641250280986,0.8839941053823939,0.009970474180784221,0.6647625102211359,0.22032809376486195,-0.1379939906751373,-1.475386852550029,1,right
5.676,-0.12255847983230375,1.0608992784578795,-0.397453542985437,0.6087174890080496,0.07075855201883653,0.59732454670515,0.2282615752111974,-0.4281905452699033,-1.2462492413074309,1,right
5.678,-0.09719066385560393,1.0597893534894203,-0.40349939517181815,-0.9415886589659879,0.4993310979957839,0.23814902534357024,0.23356936166314596,-0.4901556968805613,-1.2021263207620994,1,right
5.68,-0.12185048846967625,1.059883459441354,-0.39618961693139854,-1.326351473716683,0.5972632689207742,0.14831529275920866,0.22430283017783764,-0.4427508117362797,-1.2232090509416325,1,right
5.682,-0.2025718761541626,0.9993837209772861,-0.36276812033413797,-0.9886645971088412,0.5165093441607583,0.2181338378114221,0.23764362959374585,-0.46026102501128696,-1.231951023991865,1,right
5.696000000000001,-0.17874617830988976,0.9624177908457118,-0.3598873159786946,-1.2524607370343623,0.5649357541421243,0.176148804306147,0.2213394465251648,-0.47374197050559413,-1.1978894036447176,1,right
5.6979999999999995,-0.19275644293498856,0.955324495220418,-0.3562315718122902,-1.0592231497385887,0.5530401406308427,0.1939613310974713,0.15812374986944983,-0.6100118197731754,-0.9842539236858067,1,right
5.6979999999999995,-0.1561906550125311,0.966558182242171,-0.3679888416616668,-0.7466576265833218,0.5735277933702585,0.20886638665877055,0.1440187487403132,-0.6470347341061269,-0.9408501150037156,1,right
5.715,-0.050696223537533155,1.0025534497280129,-0.40846946326877476,-0.6567416573593445,0.6125904678751305,0.2154974849660623,0.152832294887293,-0.6235571256873773,-0.970860694379729,1,right
5.725,0.01092256106702308,1.017238875125012,-0.4336062342058421,-0.6910872299526734,0.5708638919046876,0.1950157919883635,0.15040523890028346,-0.6214798992037669,-0.9553469559510915,1,right
5.736000000000001,0.14561324072382512,1.0435811881380639,-0.456176750242578,-0.7384491940176021,0.5940421498227643,0.23589405497800467,0.14709994165689189,-0.6543037060790213,-0.9646585079234831,1,right
5.737,0.18351878093878565,1.0558063483980096,-0.4821380324235385,-0.5698727899422149,0.6139568407785432,0.1759731941055345,0.12416428451532123,-0.8318279216137638,-0.9178164994308214,1,right
5.7379999999999995,0.16777712808620981,1.0439410824537982,-0.46120605850078567,-0.03233821516324416,0.6762104689862385,-0.11343227231374339,0.11587302361010163,-0.9185884134132191,-0.9548581593185281,1,right
5.757999999999999,0.23409047417337273,1.1272182391127425,-0.3744202100448153,0.49421112370634035,0.8500209974125836,-0.1836678995884305,0.12300919809626526,-0.8154868931649881,-0.8931368877410386,1,right
5.781000000000001,0.21906771558384214,1.241241291392038,-0.31986692559129426,-0.22257287380610744,0.5885274702328851,-0.12192527211107018,0.11890983183805491,-0.9245643941488045,-0.9706706827912933,1,right
5.782,0.2024091407383394,1.2601476378215022,-0.31730614391526923,0.6250416727437405,0.9131644440769715,-0.17300754474859661,0.12855936212999708,-1.2523367078856391,-1.269660896289295,1,right
5.7829999999999995,0.2133537000375217,1.2387356628628003,-0.3229064589473246,3.753908757183675,2.1364913194931434,-0.21980053544628322,0.134427519489058,-1.3346451961417964,-1.3050008706240774,1,right
5.787999999999999,0.2111701753526546,1.2623576660652254,-0.320042542168408,4.486441990377954,2.4224868249828333,-0.2591104625192281,0.1224723454363441,-1.2814463253212227,-1.3296691183791032,1,right
5.795,0.1762851090909795,1.3560661381103403,-0.2440984608554508,3.994665626627612,2.237102785344444,-0.2230895167969691,0.14000415916014697,-1.3031475383486697,-1.2371871048573682,1,right
5.815,0.1029129358453461,1.3766242050248505,-0.1336944276830903,4.203574599361569,2.3039597113098793,-0.24899008577838383,0.11920510560692353,-1.3086764977184706,-1.3820055308437706,1,right
5.818,0.10114297599894584,1.3394591018696271,-0.09798858464685074,4.245244403781939,2.335992565779061,-0.2497061650163808,0.048991158855473615,-1.354540186255405,-2.001483284779138,1,right
5.819,0.09318440941902095,1.384207685802942,-0.1491411696926875,4.865835949146129,2.4263075179729165,-0.31763423759058174,0.03555262981896208,-1.3869260259443255,-2.1319770688827746,1,right
5.837000000000001,0.05147639681593426,1.2759631973692396,-0.1569407786756048,5.143233282380111,2.4828162932889715,-0.44719260410405903,0.038008461381961615,-1.3567136671993314,-2.0691259070599655,1,right
5.846,0.027695043971239723,1.31546378667238,-0.2219087795166662,4.886804259797547,2.5251535746135394,-0.22567139674550157,0.04878601983096152,-1.3745920521820216,-2.0486008375296176,1,right
5.856,0.03691779889410437,1.644028848225918,-0.42478465578425373,5.0568467581299394,2.3191547780195023,-0.52512988015749,0.025710030827981824,-1.3793399936097468,-2.141925171847314,1,right
5.859,0.036113668381874686,1.6081822919651438,-0.4649706593616987,5.015881763368252,2.7289350283408194,-0.20268354710945644,-0.08255136518188808,-1.4117105055193477,-2.6569508077709294,1,right
5.861000000000001,0.003373280097470647,1.700075491171911,-0.44463139639809424,4.943239030687179,4.376746726968564,1.222845839959723,-0.11826969794921861,-1.4905266016827698,-2.795115320012948,1,right
5.89,0.15239001236369448,1.9701410038353557,-0.42109176945781784,5.2145333274182875,5.190580992687724,1.3121282544473833,-0.0823951258699974,-1.3681521868313942,-2.684769987795058,1,right
5.893,0.510624975868639,1.6566290038034555,-0.32483214633261903,4.8086748192186795,4.232944057783665,1.446973600577632,-0.11647753276758627,-1.5260710621691698,-2.7528937550652244,1,right
5.894,0.6922566924470174,1.4873741853610452,-0.34737896135974194,5.2856142404665185,5.25425452423884,1.1013477938904737,-0.2142716095497505,-2.1420824477149605,-2.753963852335354,1,right
5.895,0.4760330571174973,1.6441410543708852,-0.29611348903656987,7.135826943853704,8.651082558124713,-0.9685708413046603,-0.2460291352464118,-2.3061862193486116,-2.759357892245276,1,right
5.922000000000001,0.6956159207994059,1.503300684168742,-0.37853814490733495,7.455572492617243,9.459777036820796,-1.439761201886566,-0.21237409319534167,-2.1765313031781885,-2.7556903844392977,1,right
5.925,1.1200451284086361,1.382600318664241,-0.5741634493512904,7.327735100265892,8.891549255145478,-1.0764467517504754,-0.24979050554772705,-2.252472056539373,-2.779702038038595,1,right
5.935,0.8578084829112067,1.5282917323410599,-0.33429411213689036,7.278636586840067,9.2107348989566,-1.2734209803167034,-0.20922609454033797,-2.2471872662107226,-2.7172886587828624,1,right
5.937,0.9180309997178517,1.6528891226468803,-0.232507768438716,7.406436639057991,9.092665812044846,-1.244806012999838,-0.058729385764367176,-2.580894038792299,-2.340164153104195,1,right
5.937,0.7139624013350536,1.5257910095141551,-0.3212648405757571,8.173747629020315,9.396846535587592,-1.6920428446936326,-0.02705954669624505,-2.7865833757407508,-2.1711524927830608,1,right
5.954,-0.19465010889937606,1.3829195595165846,-0.07098013036838825,7.999177881353254,9.50014423173581,-1.8756321651279657,-0.04422147499640205,-2.4338519317611182,-2.393517271118603,1,right
5.965,-0.5453883918404117,1.2632938167933385,-0.1492259526201989,8.477429922435485,9.309707473253166,-1.6555341545115188,-0.04569797978999893,-2.9421308925449754,-2.1355349646319004,1,right
5.982,-0.8804851480127325,0.9456420142993045,-0.5427976089533464,7.762767599035783,9.634784102008446,-1.8804500452629738,-0.02491495539152988,-2.3104269603592056,-2.3893613814988717,1,right
5.984,-1.1016874535350687,0.8670133544781389,-0.6091793940321759,8.472001828670255,9.099300452541595,-1.6750943250883732,0.08708786142922681,0.2712383812075783,-3.4784863143870672,1,right
5.985,-1.000384913141961,0.9234926754006505,-0.5653329417987243,12.005304168663343,7.31975001592828,-1.0467137426914586,0.13909147323244908,0.9010485889864499,-3.549329002042065,1,right
6.002999999999999,-1.058229909271005,0.569816109210606,-0.495905513012122,11.560995057270016,6.170736844008424,-0.9524658680788766,0.07599510705005055,0.39056347699195,-3.6219409854393065,1,right
6.013,-0.8840587927109608,0.2026438956540891,-0.32381734052126837,13.001931409920566,7.629143200233269,-0.9641973003972925,0.14790756854933024,0.7639547562576702,-3.440719597468039,1,right
6.013999999999999,-0.7445295552545811,0.15188071136551634,-0.258714200575865,10.640293004401332,5.974528068939218,-1.0337289811080532,0.4188441729571815,1.2723939567491653,-2.4870635474162404,1,right
6.015,-0.888362815978917,0.21325973167517875,-0.3534267429222803,-0.9425698947571455,-0.012359087217507447,-1.5315955275397939,0.5047047704939105,1.5106702247771828,-2.3994468190622786,1,right
6.025,-0.7731436955474892,0.1452767071256571,-0.24283461441116452,-3.8331270571044285,-1.4031934446904766,-1.6963110152545549,0.41068778310692994,1.231105900446921,-2.2710179847073926,1,right
6.0329999999999995,-0.06654613962362044,0.10971541475844432,0.05947428927248858,-1.428462657737763,-0.43906058845661466,-1.5332119445652062,0.513736622694619,1.603382661533704,-2.6594014039839604,1,right
