time,gFx,gFy,gFz,ax,ay,az,wx,wy,wz,subject_number,foot
2.28,-1.2532186601367041,0.5195836411683021,-0.40778716371013624,-9.533552001943642,-3.382875708632643,-0.37129921775257807,-0.048900998470586376,2.5061106236099393,-0.7085107647900528,3,right
2.3040000000000003,-0.5888245686738747,1.2036173872637161,-0.6114950156344782,-15.862426000601976,-5.747328014479847,0.2178732986012219,-0.07964736303551867,1.6604781496859222,-0.5105570641369256,3,right
2.305,-0.20824613076862789,1.3257387924387716,-0.6336600032822262,-9.734511856690968,-3.66803622054314,-0.3716302654431123,-0.056015385774054426,0.3063621745714121,0.09024232699315647,3,right
2.305,-0.4427532631116017,1.2669860665914396,-0.6427878734339719,-3.2801842713233653,2.9934423171344258,-2.340161143455029,-0.10637135621798048,-0.192292812894814,0.2937187792824555,3,right
2.316,-0.33014723823584924,1.2659380340919246,-0.604198105499598,0.4045975428724834,4.167555527612018,-2.575032179161568,-0.052533547674646276,0.08434865355370971,0.13026634246711893,3,right
2.344,-0.1024533363136463,0.9999840093911195,-0.341866110005219,-1.8466478160509499,3.613043279673452,-2.644354265736466,-0.10629758500148573,-0.0020976849747326165,0.24571428520038696,3,right
2.345,-0.14399490150074284,0.9360162830485983,-0.2792158855326383,-0.794210392197511,3.5806194407221534,-2.2895921584802434,-0.32831187646865284,0.24174692629007052,0.36400601974124025,3,right
2.346,-0.056811790991649555,0.9993848065524883,-0.33530729032982487,1.2624330115153977,0.9068838456860733,0.1797143661533227,-0.3640099974906029,0.36284672932669965,0.4013641024033846,3,right
2.386,-0.17604753726646172,0.9490486615042624,-0.2909665928793528,0.7984804399380795,0.2527626493639788,0.7728559719860341,-0.3444341270431216,0.20603812820277018,0.3894878651823613,3,right
2.387,-0.5281942209217372,0.9524708925681835,-0.2844576477255351,1.707180668990907,0.9022420054671481,0.2352876527122402,-0.3492795313215505,0.3826498897066527,0.38143939576546154,3,right
2.387,-0.6701314246819112,0.9342193062575751,-0.25774154987673537,0.49189984251727725,0.382117351617638,0.6699539241520631,-0.2530645658114602,0.5160118361724957,0.4472267942874608,3,right
2.388,-0.5379359537694063,0.9409897359691763,-0.2816175059739988,-3.0933583535083735,0.31101834285090174,0.7483745566126953,-0.2482147956519289,0.7361565021760925,0.4047676832184552,3,right
2.423,-0.2897661357828467,0.9826825794334962,-0.37886955722946214,-4.500259173725151,0.1196556837154597,1.0350572164212961,-0.248951416721971,0.4973362509530937,0.46076613080941753,3,right
2.427,-0.20378982521426214,0.9740505341430223,-0.39977912350027983,-3.209290593129549,0.18843507162854137,0.7687423554045589,-0.162991651048359,-0.3427643274659954,0.6981125845231632,3,right
2.4290000000000003,-0.2644990361429473,0.9888675090841224,-0.38266677507146707,-0.9007297027488277,0.5209596962839398,-0.3037489940576747,-0.15739624073921415,-0.5588381956812061,0.7581820439937534,3,right
2.436,-0.22337176581866366,0.9691113037892091,-0.39413959887823596,-0.09984185096648035,0.4255669434639084,-0.5409415378735996,-0.15993104359760457,-0.38776367195816774,0.7089762943460562,3,right
2.4619999999999997,-0.1528286218861121,0.8814387620823585,-0.4191469747613676,-0.6394854034691563,0.5832467917017766,-0.34528845429859356,-0.16395800809627606,-0.504017730669396,0.7424573673389153,3,right
2.464,-0.1280647051777743,0.8594877871031045,-0.4183638549299745,-0.3015105460474736,0.3767666364427383,-0.48240737080797724,-0.22219732370391349,-0.6209434711445216,0.7758042138997832,3,right
2.4659999999999997,-0.1520426164768668,0.8787172992661721,-0.4223175823060056,0.220044273605834,-0.49025424814775653,-0.7490850283010334,-0.24074509610944186,-0.6399752409030263,0.7774688746113936,3,right
2.496,-0.12889772185368537,0.8631872634588957,-0.41958111313529856,0.39285423883586335,-0.7230176551580365,-0.7682382396535543,-0.21759769594599127,-0.6520426816521868,0.7867663223588217,3,right
2.502,-0.017733619318670485,0.8453067512574516,-0.37591758530723174,0.22130751544204827,-0.5115905711170069,-0.7774150845881875,-0.24265762629201892,-0.6231881081558879,0.7721945866097877,3,right
2.503,-0.007991437314738633,0.8356026612082068,-0.3901077047566257,0.3976048581332462,-0.6920474592926135,-0.779525383308356,-0.31833683477681274,-0.5252278568361748,0.7154420060760935,3,right
2.504,-0.005425357282049898,0.8440909077310368,-0.36430264491078834,1.304206328299783,-0.9724360644352844,-0.5118113366876613,-0.34003040142415814,-0.5006907655348807,0.7098039025057605,3,right
2.541,0.07993864867274066,0.8756484832563769,-0.23889506114731152,1.3922358769562004,-1.0962931610753381,-0.6589223083136857,-0.32126710938756364,-0.5116329403276627,0.7031241863362765,3,right
2.543,0.10307779630535202,0.8852028295151151,-0.2013371677761503,1.4014838704372767,-0.9913380201185732,-0.41475138077120705,-0.3086439373544231,-0.4357571169089723,0.6047989973668485,3,right
2.544,0.07686543037202205,0.8733351517802559,-0.23501944796259194,2.050976838458673,-0.6752944226310078,0.6591234360507573,-0.28991767939495705,-0.4178591366319335,0.5669061267951458,3,right
2.57,0.10038344225463632,0.888580859908253,-0.21146038518894839,2.2377297500961975,-0.5823786343095325,0.9969748907748972,-0.31260571993914227,-0.44800299929082077,0.6214317276398422,3,right
2.5839999999999996,0.1644813750448686,0.9294376056202749,-0.170073840249454,2.0185386116681143,-0.687074989631741,0.696796231185207,-0.2848219525090029,-0.40563431933448024,0.5509843072028656,3,right
2.5860000000000003,0.16992818142585336,0.9520585391243714,-0.17903878693319517,2.219437522551594,-0.5568097729412301,0.9037050078577984,-0.16679648742879571,-0.26230783792401374,0.34465024619406803,3,right
2.5869999999999997,0.17442385209910133,0.9276332119050051,-0.15319161319857902,2.833483267557857,-0.23268056193300546,1.2946736018981517,-0.13284669542016148,-0.1874013519815919,0.25271728782054304,3,right
2.615,0.16432539640363503,0.9507038247851235,-0.191042918837366,2.8751881708126454,-0.030215398061318087,1.2001254559262242,-0.1666308112653001,-0.284896892848716,0.34596179634268087,3,right
2.622,0.07302973682864512,1.0433658496814715,-0.3595533798365481,2.9256030151810393,-0.2565142600614778,1.4529828037466614,-0.13426595659824908,-0.16285281401871923,0.26042213681053716,3,right
2.6239999999999997,0.0725906845737474,1.050605950447272,-0.3956204395437769,2.8226572867333406,-0.03604824435285861,1.0873616176689902,-0.06476738613748186,0.20350162842067493,-0.04220172501188831,3,right
2.6260000000000003,0.06114739908963683,1.0561254793987964,-0.3710712615745263,1.8918240096919885,0.8929579758359095,-0.5441753099831845,-0.036024645972607065,0.3611072948908871,-0.08267169704961101,3,right
2.6710000000000003,-0.046746887765116686,1.157672040604106,-0.40324295915178987,1.8821599925873165,0.9700769328427985,-0.8877560655926133,-0.06368679422652695,0.19915260079521258,-0.07141385694591326,3,right
2.674,-0.07441813972632835,1.1875581536854911,-0.3993544685806735,1.7783173092295155,1.0141862606453453,-0.6592412011092148,-0.13571231019722943,-0.1530678282426865,-0.23000815101507718,3,right
2.676,-0.04743543475473101,1.1479137100801857,-0.40184091579623904,0.7321045638236309,1.9870181709152572,-1.0122054827372509,-0.16609886407663094,-0.30138926351991174,-0.2509407308347762,3,right
2.678,-0.06926965663779867,1.1962917912090467,-0.3937980782377233,0.4799012625234237,2.261409690777151,-0.99789419402415,-0.13096087898168723,-0.16417393827669996,-0.23483104827183532,3,right
2.715,-0.18274278712674147,1.3395978835978322,-0.3621192457463757,0.7183907843887156,1.8979370602233496,-0.987713306262924,-0.17225031225570575,-0.2898895405709705,-0.23566203919508302,3,right
2.716,-0.20014684356212203,1.4045569953817676,-0.33261602506499277,0.5366278081878157,2.339263517689993,-0.9558198896992308,-0.2757766848257596,-0.6084309140890121,-0.18391499079658263,3,right
2.718,-0.16854415301732595,1.3315077861960674,-0.3695281885876488,-0.43762237965073014,3.6337949147886865,-0.7875954782753909,-0.3233642485343799,-0.6992841492143593,-0.1497849402868326,3,right
2.733,-0.2328925242008088,1.4111562798508355,-0.3335502935617275,-0.5705844972645637,4.225114980373921,-0.5619448527508497,-0.2816000348770368,-0.6367070587395721,-0.19071733387870204,3,right
2.737,-0.3071245313684985,1.6686696060271982,-0.14763432404234694,-0.29861020871248733,3.5558955432692145,-0.862764998345195,-0.308687180997154,-0.665725376848425,-0.15571359919739183,3,right
2.738,-0.48592441537660946,1.748838012737199,-0.1447183521093608,-0.890534198562894,4.293573864651261,-0.557875303048694,-0.44498853436319274,-0.8593618977752846,0.03771239839173894,3,right
2.739,-0.24652515739158773,1.6752740443054774,-0.12391120402545273,-1.5277942276765346,6.678112425054312,1.0790784018034039,-0.42052384836991263,-0.8341380902288681,0.02958823822948762,3,right
2.7769999999999997,0.5131466439637287,1.6002578315657452,0.0781857238628158,-3.233202183494851,7.446434158411764,1.1181967484678847,-0.4695075338427728,-0.8571311719685545,0.05610334997698077,3,right
2.779,0.8006818015677349,1.5440801778976625,0.11938703852110376,-0.9389507632727983,6.724688976130571,1.27648391749713,-0.680330906700605,-1.120340024466773,0.2030006577556483,3,right
2.78,0.5468856242323537,1.5909637095750018,0.09090317533631784,6.466725594963373,5.90840473232739,2.9876702972810065,-0.7268220880254219,-1.0367682366197506,0.18861721671322798,3,right
2.7939999999999996,0.72383948421448,1.5564281576837913,0.09306928778522908,9.240383939618194,5.331279989109479,3.3076084716632277,-0.7187941193234779,-1.210845481895542,0.278166572200257,3,right
2.818,1.1451911385156635,1.4419484874443798,0.00592486696836942,6.77279913412639,5.818279325256341,3.1045252992907093,-0.6659095226781437,-0.950198672632747,0.08244774295328124,3,right
2.82,1.0542470257952472,1.4540763316185634,-0.06486608647859524,8.531791337971118,5.460354958752519,3.0754729309900846,-0.40420105724476474,0.51690411612367,-0.7485178666085466,3,right
2.821,1.3012091718099585,1.4078324900194472,0.040155283324499025,12.62928001123264,4.266710887387044,2.117729787630078,-0.19723797341343843,0.8768686303702301,-1.1915525148557664,3,right
2.87,0.9290497899504,1.4882035822311608,-0.08781291871484703,11.896673628652362,4.399308319829261,1.4611673272356172,-0.4711714805960341,0.48332428139546374,-0.6427530247053461,3,right
2.8739999999999997,-0.7687278125679614,1.8115924931954972,-0.5645765391408861,14.100553574953523,3.918477735920964,2.408868980944541,-0.16051601484671982,0.9353218760480414,-1.254810747876364,3,right
2.8760000000000003,-1.1850722533962683,1.9314117247406688,-0.6844714203251985,10.686359308951467,4.735727959542658,1.2645159620983173,1.0481082499242245,1.47674396831568,-3.355733940553155,3,right
2.878,-0.839638214493925,1.8114038181304357,-0.5899089674669338,-4.7541707209659325,8.136601412797658,-2.861632821735434,1.293171780035518,2.1469108996015005,-3.8899838611436834,3,right
2.9019999999999997,-0.9583534246695669,1.593007335517163,-0.6080709349215832,-8.758119653646194,9.293483836620728,-3.94904006168062,1.1319464517843538,1.3664095075014697,-3.478886520275395,3,right
2.903,-0.768116691696858,1.4918748085759568,-0.5581064466245476,-5.3035937893929885,8.175083289991885,-3.0706616065114787,1.4527247311934506,-1.1573828165379667,-3.500268146943614,3,right
2.904,-0.9210457866661559,1.586503392467757,-0.6015904045117619,-5.216943972007424,6.482678386155822,-2.9770430148317186,1.4237062016989315,-1.966999122553759,-3.3179658253194626,3,right
2.915,-0.7839532327546994,1.4914548919065258,-0.5555935968849215,-3.0452022525286493,5.617350047337689,-2.4782511249091304,1.438131556476233,-1.266521931416353,-3.4484661954873985,3,right
2.948,-0.0351253517553399,1.2126698633463597,-0.3267832571813036,-4.902270794475953,6.398524861338023,-2.9149589991959974,1.4093156510823763,-1.792527605825597,-3.329065346130797,3,right
2.9530000000000003,0.05284488552912728,1.103461425110571,-0.2735724739780311,-3.1901557573608774,5.62756626556511,-2.4655084537133685,1.0646393770122988,-2.9160370874963686,-2.7362684404838253,3,right
2.9539999999999997,0.017130954397780736,1.217569123144519,-0.3229132997386336,4.941417657315441,3.2980969047656594,-0.4005919754604469,0.9867892448379976,-2.9822437090298313,-2.6063990692666317,3,right
2.987,-0.005868643246592579,1.107071529360167,-0.28312246200876084,6.120757216602098,2.4073168268714054,0.09372981414840575,1.0733878527690448,-3.139975726168531,-2.7175228127625113,3,right
2.991,-0.4145613312518692,0.7208197349014462,-0.20927726675526534,5.493905154248965,3.3422850651129896,-0.35998503868005577,0.9951679985211147,-2.8218790770780373,-2.6526260529405445,3,right
2.992,-0.5131148246626793,0.6574713136796537,-0.19868260429151074,5.502171819861627,2.43751418844659,0.004209730948090962,0.808955361673599,-1.1088954841082794,-2.4661862144035864,3,right
2.9939999999999998,-0.4085756420779335,0.6824274256347342,-0.19438800790707433,2.2058340332866613,-0.7408052707837778,0.7259813723360127,0.7910829131605868,-0.7796799484709265,-2.559442534514832,3,right
3.016,-0.3652060903511065,0.4846575565812631,-0.13040041505590405,1.367858093021193,-1.2455247580450397,0.8197462259991702,0.769029060750049,-0.988390570886503,-2.3791410830284248,3,right
3.0180000000000002,-0.28147578403755125,0.4439349295396694,-0.10735407024091961,2.3294677696318526,-1.0583436350469801,0.8660554344953784,0.5170903874036272,-0.2283665825243444,-1.4816477235167576,3,right
3.02,-0.352977544872944,0.5016874907575575,-0.1325714978720319,3.1068462419494747,-2.582559904218907,1.5366846415227822,0.4319665975894998,-0.18670882380231654,-1.1787588454760145,3,right
3.035,-0.2922932530184672,0.4372947310883867,-0.10935190641390038,4.003551048482011,-2.8851637544819417,1.768729175209344,0.5341495392856874,-0.29503812537240626,-1.5130324238056208,3,right
3.056,-0.031145763417446425,0.3105169288401087,-0.047478113171076794,3.1521005366555697,-2.510703630735061,1.5053287161400282,0.424030693071773,-0.15824332917239814,-1.1609557476435435,3,right
3.0610000000000004,0.0032742753945380725,0.2535656769433533,-0.03604154127578134,3.976233826930705,-2.8445418313033013,1.7649635979643725,0.1436934076535179,-0.1631278902961627,-0.2880708545697403,3,right
3.063,-0.016256055709035717,0.3014228947929935,-0.04123766916640442,6.163306481003811,-4.375993199124632,2.316538501909613,0.04214539714116872,-0.015159842804229953,0.05789356291894296,3,right
3.094,-0.00702359291654211,0.2642075363180886,-0.03972179392567081,5.421168502069618,-6.06197628804853,2.3061129110946474,0.12937809443851184,-0.16646665262532723,-0.2560961943917172,3,right
3.095,-0.11493068816631319,0.13952339326339075,-0.0713238513953158,4.842713097948426,-6.114986729823354,2.178506256263235,0.06110019184572424,-0.016860030247088084,-0.0007071636497406747,3,right
3.096,-0.09899989291758686,0.1269390807128274,-0.06636767769921245,5.315745757850053,-5.966795102485593,2.2674232499503555,-0.15306404065575202,0.7490831655031299,0.8741269295151941,3,right
3.097,-0.12788899113168536,0.12750353258577768,-0.07568172268189935,4.882889505644798,-6.177572463880138,2.193371109761077,-0.1749157554227684,0.8521748727511657,0.9213638749161691,3,right
3.135,-0.32796893979459557,0.046153380216936754,-0.12418007024672598,5.3571519454513385,-5.926973533340374,2.274780075447551,-0.174741029839816,0.7844924246025953,1.001058780764001,3,right
3.139,-0.3715429332271559,0.032153188865438546,-0.132994643066792,4.79117101167316,-6.200365900273956,2.1782294161258458,-0.32987854917089976,1.0996469260721704,1.852608671579683,3,right
3.14,-0.33331468153605437,0.048485798147079234,-0.13285927503318098,2.388911889064586,-7.171099746988727,1.8757156153905115,-0.351349805036704,1.0530257766135567,2.1101454355304408,3,right
3.1630000000000003,-0.3589263969107509,0.030702509664513683,-0.11914588231513212,1.7234011094170503,-7.441284901838513,1.812121818638503,-0.32943392010296124,1.1215958821169,1.8307960093063362,3,right
3.198,-0.3800495717940765,0.021144232658138487,-0.08939839218733533,2.3184409964581216,-7.186236839323329,1.7960933594332404,-0.35045852125056043,1.0272899478202242,2.088046999048437,3,right
3.2,-0.37130391175723954,-0.004202319132420011,-0.043510164883281424,1.8792635775849547,-7.431858053498891,1.934211748262972,-0.29742010561449966,0.4211040278949607,2.73787245986093,3,right
3.201,-0.3957094245527033,0.02803715058826471,-0.10014520851469491,0.8446566642259372,-7.952312446958904,2.1393241886886214,-0.3264590057495613,0.33525209563042274,2.860395957944868,3,right
3.213,-0.4996893346768312,0.1479634245697981,-0.29079058085764165,0.8915114047635535,-8.220872409045185,2.5657517013571365,-0.2900484009309178,0.37938037880916076,2.8150745386891294,3,right
3.213,-0.5424505323297311,0.1958372816743578,-0.3441532763389395,0.5865196887244345,-7.920037429684427,2.0391854789260084,-0.11070971133966734,0.13584637925049825,3.0367027314015056,3,right
3.214,-0.49754138970739387,0.14079629785928474,-0.30310839172957316,-1.2989061242578686,-7.0934421096002005,0.1746092381729446,-0.07225192372120369,0.0867271401756376,3.0588490848370467,3,right
3.215,-0.5404408011063717,0.20167405865868,-0.32964591710992147,-1.9478403245779727,-6.699738844756839,-0.3314932425298075,-0.10182304244311516,0.1588355158300446,3.066628823342554,3,right
3.272,-0.6437438235540032,0.4171456301429123,-0.3560119867711489,-1.2420897395729629,-7.147992720330632,0.06965197125742215,-0.08540453436258899,0.08797057943520856,2.9941807883702003,3,right
3.2760000000000002,-0.6700794989895733,0.4830268119170562,-0.3606187985615128,-1.9355228041188388,-6.648793627373573,-0.20961817030991647,-0.08768108221621165,-0.1640669876254341,2.658336322122194,3,right
3.278,-0.6572624528841204,0.41721578612964,-0.3605194392678538,-3.528336319266529,-4.695878843805391,-0.4655419803474099,-0.09774117499390719,-0.1774505134681791,2.4272961052653947,3,right
3.279,-0.6555183764971723,0.4817904671759585,-0.3598174166882443,-4.0100822726197975,-4.13453245808469,-0.5673612336409053,-0.07903715347908316,-0.1940362009066684,2.7069419201300695,3,right
3.318,-0.6601316991371391,0.5518080134124222,-0.32980157410510447,-3.709189986291429,-4.716967015453259,-0.5068683035783661,-0.10187672872885412,-0.1695514686534371,2.4296729036510385,3,right
3.32,-0.6371984272108628,0.5993414417474864,-0.32870499547675175,-3.8074011244309633,-4.111805630263081,-0.5403751848827313,-0.22860133668133215,0.2801558985370483,1.2294907995315187,3,right
3.321,-0.661440669075575,0.5767716305341606,-0.33654645962618945,-4.12496858003372,-3.4804484182310063,-0.39521216456869157,-0.2517162990132774,0.22924509522791753,1.1449273694096704,3,right
3.332,-0.7639744403972364,0.4600980759388023,-0.3334045844630753,-3.8720874072097455,-2.936927327928464,-0.31460778661026517,-0.22439451224507423,0.3378824168937776,1.0798523467618395,3,right
3.333,-0.7682126172759536,0.5262047499654727,-0.38083183291405,-4.200362675265268,-3.2854050714403913,-0.5220734501636581,-0.24486875088410676,1.1704642959960072,-0.08670472165818122,3,right
3.333,-0.7787777091988382,0.4116738554251356,-0.3033386624316443,-5.104253946016396,-4.307212213632184,-0.2594987765979557,-0.18115604497287327,1.3228578766955117,-0.35340166829633374,3,right
3.3339999999999996,-0.7586505298912856,0.5583013476741114,-0.4103947506779466,-5.212563256975898,-3.743395407556644,-0.7871097961119787,-0.2739463011927024,1.1948221493444948,-0.07674588153128624,3,right
3.3710000000000004,-0.6273328532420313,1.386873622759003,-0.930346726380415,-5.399528480915665,-4.945136122373761,-0.19298812136089694,-0.15492516848826043,1.2886094078777477,-0.3128458870419312,3,right
3.372,-0.6225242479389803,1.51920972277108,-1.0753394842373751,-4.857497924401134,-3.1457640043171904,-0.6861772764438266,0.44098787768760783,1.336324920533094,-0.6665941209519136,3,right
3.3739999999999997,-0.6056926408722543,1.409540989213476,-0.9197021982126594,-4.070867989489057,4.348930928542732,-6.405228224125665,0.5773697436444192,1.4152692363210018,-0.755681810080491,3,right
3.391,-0.6421862699730658,1.5199478030804459,-1.0853945762452204,-2.971748836381889,6.793821974918803,-6.202817762497595,0.44449812498478936,1.2993031936097625,-0.7306659108051716,3,right
3.409,-0.5991784303085865,1.3694456056074311,-0.9126193565844813,0.2452564884466817,9.26081112369231,0.12473434795878302,0.5777597041572803,1.4696646259346302,-0.7210659889500013,3,right
3.4130000000000003,-0.21832977057321865,2.1097503627991703,-0.3811672701656435,1.3537198217052424,12.021171794067858,0.8257956936252069,0.4365016243078213,1.2523461077278495,-0.7277713463035684,3,right
3.4139999999999997,-0.22196768140838735,1.827051760860603,-0.23578462008914253,0.38259300201040397,8.872410628775263,0.21320156900181275,0.29698355645984215,0.24316115471016947,-1.1471694380091246,3,right
3.455,-0.5968835798060474,-0.0023797434272904705,-0.2086857375684218,1.2198822655189212,12.50840677867933,0.584737426591933,0.1491765029063582,0.04542854419937097,-1.0657963857492088,3,right
3.4560000000000004,-0.678219291634122,-0.21996268982303924,-0.15984414040977085,0.46728050314330494,8.602052220658251,0.46796604791703106,-0.28928438009226426,0.3403629142879363,-0.2809703480337621,3,right
3.4560000000000004,-0.5774550842482105,-0.14073388530572659,-0.1550870646289405,-2.8348068079415105,-8.41676440472925,1.6649418040533266,-0.35878066673666165,0.3069833317210656,-0.13881978540178397,3,right
3.457,-0.6733569831688423,-0.06623224801830756,-0.20130501188131003,-3.601683054567484,-10.9056566480811,1.6913919264978436,-0.35676658130489625,0.25317527719146016,-0.26653154958508896,3,right
3.488,-0.8699823519351988,1.1253164586384001,-0.4233398085653126,-2.719301695484435,-10.07094441768916,1.8004718816280125,-0.2943557535468225,0.3728171906114395,-0.17710655415301393,3,right
3.489,-0.8752918423201526,1.3570089253456015,-0.49220258539629574,-3.7959421014535053,-9.187993309191219,1.51045641368416,0.2091306933325609,0.8361937739419544,-0.24574936810787604,3,right
3.49,-0.9438945439015205,1.1482660969885594,-0.4381601109181008,-4.996838270425249,2.217807724052576,-0.6970553266488044,0.3321237993114987,1.003686330312283,-0.261506089586234,3,right
3.511,-0.802164762017948,1.2972442108012627,-0.47009338204034473,-6.48536261364708,4.887312294802532,-1.1459371121769775,0.2153015464741075,0.8413304147400557,-0.19333521976305143,3,right
3.528,-0.2974528576788346,1.1013784740849133,-0.46958933852274704,-4.986825178873014,2.3767465062259774,-0.7769241915475401,0.3151287444986658,0.992973479868349,-0.30703875422863325,3,right
3.529,-0.08233304312681605,1.142314466980605,-0.46463104392086974,0.36150022371053847,3.0719082185127746,-1.0930453433380718,0.2325514801801801,0.8531387460493364,-0.160886577675796,3,right
3.53,-0.2783846404720947,1.1233688441461998,-0.47681187497570227,1.1169292081548212,1.782401449708277,-1.017577028430101,0.09244503162902025,0.2789642478032946,0.36941140020853047,3,right
3.5669999999999997,-0.6062341319344329,0.8559370641452453,-0.49546167339959524,0.9731772677715502,2.541986615780372,-0.9779442045444453,0.030859525659321034,0.1700636609232663,0.5229575547387045,3,right
3.5669999999999997,-0.6716724072417417,0.8446750278638593,-0.4999271373996616,0.6053228661342491,2.1147786882018043,-1.0742711668964853,-0.09346258276408698,0.30287780966292527,0.4887412827069679,3,right
3.568,-0.6873958003719352,0.8529083136168663,-0.505206984060508,-3.5579822127167193,-0.4222316334009224,-1.2628778846991107,-0.14437206894336907,0.2198353025058737,0.6007209774073743,3,right
3.569,-0.6067671919130444,0.8506890793127542,-0.490926568515231,-4.0021234213659085,-0.5798690297822084,-1.3006480433471777,-0.09724282000927274,0.3004922784661282,0.5065600166894471,3,right
3.6069999999999998,-0.15992059743180817,0.935948436492378,-0.4204717733259241,-3.9684601634550765,-0.49681532111705684,-1.3406158216995716,-0.14148792964261409,0.22100837424970066,0.587703534573536,3,right
3.608,-0.051543905277481095,0.9463263002077792,-0.40080771493225176,-3.531495772946667,-0.5083533779387375,-1.2281880376296819,-0.2600367407031275,-0.10973963524060805,0.9097770182331365,3,right
3.609,-0.1258095088071764,0.9324357573042493,-0.4159147680063401,0.887153508281846,0.18183510743332343,-0.632917276659619,-0.2976824472553711,-0.15202645796075467,0.9592898508614839,3,right
3.6319999999999997,-0.09903871728019627,0.9482576086473925,-0.40830220591911415,1.6751024970075787,0.2742358548188025,-0.4776267766469036,-0.2655361368619806,-0.15332506028804577,0.9338955624673668,3,right
3.648,-0.25089024168327007,0.9512517484888616,-0.4075232560566553,1.1118966611750492,0.1560499118016753,-0.5962784266746146,-0.2902457263118431,-0.09987240649565347,0.933634541679567,3,right
3.65,-0.3013034833712188,0.9689495932629869,-0.4158733660408671,1.307687038167169,0.29317924819853075,-0.5361185095661096,-0.3648797598406225,0.15781014499751664,0.8353296464457121,3,right
3.6519999999999997,-0.23401495009340245,0.9515619853486071,-0.40195418431133423,-0.4701500542426456,0.2756365820924124,-0.5733250339863014,-0.3696852802059284,0.2949827427096747,0.8006249313978661,3,right
3.687,-0.14542465234993307,0.8868528467837593,-0.34894424259356993,-0.9119940353896248,0.4543476841629323,-0.6301410044514386,-0.37493584595035295,0.14363389862403417,0.8385528089240466,3,right
3.69,-0.07774423405987617,0.875657328680523,-0.33101072747389004,-0.32992357933622296,0.26388170329897953,-0.5356349470410318,-0.4423353248104965,-0.2033043067606119,0.8861444638454641,3,right
3.6919999999999997,-0.13827006643787515,0.8816282935471036,-0.3488626650692373,0.27548779411205915,-0.5059913638714748,-0.20039832282614836,-0.4580751111882264,-0.3189669113926323,0.9067157441554021,3,right
3.693,-0.08616107672403622,0.8804042734841756,-0.3308968773751502,0.8585218183362919,-0.6491527653965766,-0.07773788574272011,-0.44356111495783324,-0.2420681567351718,0.9013939203512927,3,right
3.7260000000000004,0.0814892636345396,0.9087715007720194,-0.2898851207163865,0.3338670795187867,-0.5598593458048198,-0.2050444522901108,-0.45328521943659206,-0.2780415755317791,0.8906043225215015,3,right
3.7289999999999996,0.11227744339259517,0.9109633226979985,-0.26895432834039523,0.7874839543352659,-0.5982003768568253,-0.06797145633105675,-0.4410022130515347,-0.2779970616888176,0.8069373574489744,3,right
3.73,0.09387999833605504,0.9097230011708453,-0.29211644161689454,2.2347495424538804,-0.4187530607675815,0.2566741384413617,-0.433773927747817,-0.2509040220916571,0.7657212927613095,3,right
3.7710000000000004,0.10143837666577774,0.9099763136906269,-0.2675885819603323,2.477070615267342,-0.43043883456561444,0.43624859909021785,-0.4521173798309844,-0.29485908970889896,0.8215728605820443,3,right
3.7739999999999996,0.08079599055916836,0.8794947931995866,-0.17144443561647135,2.378406656343797,-0.38989247910454206,0.23433758568234123,-0.4219127553036503,-0.24501100962058409,0.7518838869495024,3,right
3.7760000000000002,0.07952151506956337,0.8816223224660038,-0.15055833157312376,2.3341626621023934,-0.47060007178337443,0.4450242371575923,-0.33326917725730165,-0.09960921762547655,0.5624474200484986,3,right
3.778,0.07833942835884652,0.8775325843590848,-0.1673149295110028,2.0113471479129004,-0.636883529677192,1.2695704772920067,-0.28330199800490363,-0.06997095336320724,0.47694477765045373,3,right
3.8169999999999997,0.08439590412817566,0.8820437794960903,-0.1539647166355659,2.211801779649196,-0.2247903631719711,1.4155095472191888,-0.3372750447618136,-0.0788592424550818,0.558651513122373,3,right
3.822,0.12353389846333312,0.940088296318282,-0.15599373175776335,2.4373983980675753,-0.09926162549936587,1.30851068881686,-0.28614477872534794,-0.0908511691678336,0.49174189049089173,3,right
3.823,0.13691988711095737,0.9366860206171564,-0.14324715498937252,2.256161925155225,-0.220707788679726,1.3814529213692244,-0.0761248747011708,-0.1732047537492429,0.2122927435466726,3,right
3.824,0.12482843570694195,0.9461007911163613,-0.1571939217367026,2.3520548101145673,-0.08765997069303053,1.3065006330463391,-0.054303941231669095,-0.20817834823474962,0.20595262055332875,3,right
3.845,0.140880495439013,1.013196380447586,-0.19402501371445757,2.3742360806555816,-0.25570056844164846,1.426486163443901,-0.05583773146179694,-0.1741809750599837,0.1792528372683181,3,right
3.847,0.14600435873791462,1.0245753773395716,-0.20212336431227518,2.2114192899258374,-0.037697802995347224,1.2307492920902992,0.10956043061664827,-0.08184386019531141,-0.11310653651054206,3,right
3.8480000000000003,0.1251092274291247,1.0202406918636342,-0.20451880832983466,2.6975566591429745,0.5508766250475894,1.0336000784852808,0.13225330620251646,-0.060795012919548135,-0.16284316449189945,3,right
3.8819999999999997,0.16414297394511618,1.0137028939001498,-0.18687503085576823,2.2787046087656533,0.8249544249024318,0.719247351942889,0.10896606693820973,-0.08076733286444998,-0.12868899201559392,3,right
3.889,0.10882640673143454,1.0316866343991784,-0.2219928151729359,0.6121616921539632,1.095176958778007,-0.11056977759280892,0.12915677609786483,-0.05205050009890947,-0.13739480700200585,3,right
3.891,-0.05661718769118862,1.0655092809079028,-0.2909900982467183,0.19424724218369274,1.2507928083521003,-0.30196514632172644,0.11172064733959108,-0.0995689478564575,-0.1539743939641311,3,right
3.8930000000000002,-0.11943722442768905,1.0934113853128145,-0.3524109728697043,0.48306632593578175,1.2194467705902567,-0.2654184568729828,0.1883218930362872,-0.03837314771157955,-0.3299803291989343,3,right
3.924,-0.1401476806036236,1.1516542324632812,-0.4785437917107159,0.3771633508791347,1.105631645587923,-0.131839722481492,0.17247636437022695,-0.12859847972349808,-0.3709514562296727,3,right
3.925,-0.16664813627886177,1.1606724156874864,-0.5365738893353832,0.2833871036592351,1.360431664509913,-0.4018531187849393,0.05370529686602433,-0.5137271138900492,-0.32086657839718913,3,right
3.926,-0.16725266690574891,1.1669515718254482,-0.49122822885213463,0.0005938062421771556,1.8147543105783057,-1.838377410771153,0.05395338663683207,-0.5945169163186301,-0.3570840229576434,3,right
3.932,-0.14158254423364536,1.1486933045692131,-0.5188265418296023,-0.4177712746776169,2.242531164456853,-2.147727931516355,0.03610151058768053,-0.5424783472785679,-0.3242147627847063,3,right
3.964,-0.18323952358300877,1.1697369866036285,-0.5128106865261761,-0.9414588196958653,3.3834576762725757,-1.2389309100098207,0.07255175564676994,-0.5613990495866198,-0.3542694889129371,3,right
3.97,-0.26139526051126105,1.328482843223083,-0.40485078134125296,-1.4329266673780459,3.8015888112191867,-1.292586307879076,0.02417506153920142,-0.5687154556808325,-0.32943157080607816,3,right
3.972,-0.282888262630977,1.318763135593359,-0.4457463087417969,-1.0509770913703782,3.406281820112706,-1.4309877139585172,-0.2486220626035094,-0.719431071638438,-0.12357804751439047,3,right
3.997,-0.3032239541180629,1.35426184318252,-0.38891400920339825,-1.1956087240501536,3.798663066810077,-1.0788503560657774,-0.2804128344349097,-0.7352910981999066,-0.12540757629157617,3,right
4.005,-0.34362278644882904,1.6364450308472795,-0.09863438580404786,-1.4269746122724305,3.394064650092605,-1.6396653875232745,-0.2727412472663003,-0.7338703881436097,-0.10689046323726956,3,right
4.008,-0.4905224800044973,1.707646447898549,-0.05097871109919267,-0.7103223804190774,3.796159888420704,-0.9208577491877891,-0.456709969941252,-0.9558888580311491,0.1332339800457004,3,right
4.0089999999999995,-0.28227046986763404,1.6322790149737267,-0.07615247667450778,-3.032741049977721,6.620353621155612,1.5335643319544847,-0.48867492426246195,-0.995045834277517,0.1666821371759321,3,right
4.043,0.38921727447137433,1.5858657924744897,0.02511687490154424,-1.480961349386218,6.890929639267359,2.2397381879323843,-0.4506143083954357,-0.9315560390901475,0.13333882909663042,3,right
4.045,0.646093659273923,1.516766944681095,0.04011209742420227,5.8851669212502635,5.368965451801611,2.3269882156449406,-0.48817009300422387,-1.0262718867291212,0.1723570927941537,3,right
4.046,0.4162384800219794,1.579109853426417,0.022342319248964654,7.068662005408616,5.541692501981845,2.6445982891441924,-0.6309709495007579,-1.1709782045768637,0.28087608551252696,3,right
4.053,0.5857046375913779,1.5287917911238011,0.027612327686265564,6.54610698599768,5.314208522226059,2.5084531150236753,-0.6762863293041121,-1.3552367872676894,0.39012082600326803,3,right
4.082,1.10379888866108,1.3373882114995705,0.008275875344496326,6.383274259153858,5.627743135023733,2.5587790229115845,-0.6069704652988688,-1.117769155413958,0.2053047387106918,3,right
4.085,1.0847788044340725,1.3420728926975698,-0.04662746160621825,6.969599868951731,5.279914321684345,2.465684198597865,-0.5490093716577873,-0.258291939292932,-0.2724315017134496,3,right
4.087,1.1935822233155438,1.2964951714517055,0.04247196669769025,12.296523569354546,3.2889635252386427,2.068545864411278,-0.3810515938133648,0.08445425000956577,-0.6585324666784891,3,right
4.113,1.035874426649321,1.3811741317836772,-0.07031181765748379,12.405768079309333,3.3027990989696674,1.5453652886383866,-0.6023305436173645,-0.31234855290023594,-0.18795983849770317,3,right
4.135,-0.11808281160944414,1.7696866507998876,-0.5531438863415179,12.946554666070593,2.9096094998748248,2.349837357001582,-0.353459351677075,0.14045363308491127,-0.6902933314073556,3,right
4.136,-0.19860712385588472,1.8897912776921322,-0.6537078291819431,11.911775693074972,3.686105286589598,1.3351720354581351,0.8255983981117097,1.5246922176311708,-2.835751898594866,3,right
4.137,-0.20139830944872034,1.777679725975258,-0.5830396287326519,1.2662270958323214,7.66558241332055,-2.9025921602228313,0.9914217391689629,2.076227546250263,-3.1655434947949805,3,right
4.1610000000000005,-1.214836733970452,1.642557705312591,-0.69361034914956,0.5672909233477846,8.781141661942181,-3.856419513597522,0.9153383575627202,1.4842542154593947,-2.995541081571842,3,right
4.163,-1.2652348765646884,1.564949950313408,-0.6720468803259849,0.692106749336543,7.765007666798563,-3.140461758468628,1.5325769579350625,0.39558422731840953,-4.002200986143199,3,right
4.164,-1.2770696038924951,1.6326920116816384,-0.6902827668658758,-7.968888338038871,6.935479701789678,-3.704214117718684,1.575355219837491,-0.27285169562616735,-4.027066861836763,3,right
4.18,-1.1800303647930006,1.5642110685947572,-0.6621786735003032,-8.02553698738988,6.3107574287532255,-3.4118154667868263,1.5384412944062165,0.41675801235257937,-4.018910630582649,3,right
4.212,-0.18443303977935915,1.3623317859392574,-0.4667854340580981,-8.609409982095398,6.814726795556503,-3.6576794970395854,1.5360927221447307,-0.2493559322599877,-3.961424056743477,3,right
4.2139999999999995,0.00392889010567625,1.2709074617643035,-0.40582262267189806,-7.206404507363095,6.324713700762884,-3.3471524470891754,1.1599680937195818,-2.732448440539472,-3.1197360384876234,3,right
4.215,-0.16492450961843297,1.3722968784181613,-0.4781841752478435,3.4707128336531685,4.79296091348719,-1.5934379025275986,1.0608747079953,-3.1195654180802093,-2.9503944102603086,3,right
4.23,-0.04039125137185649,1.271805363458741,-0.4023033300129489,5.677284284121564,4.101548766832412,-1.026237261163479,1.1881152933372339,-2.952668698133211,-3.1167375003543136,3,right
4.239,-0.15794623530293175,0.8649042727841212,-0.17245689165413564,3.717421330083183,4.897540181662205,-1.6865825947544117,1.0538146688612198,-2.929917906952979,-2.99350562474459,3,right
4.24,-0.11613864531446039,0.8154025170828032,-0.1162075790501639,5.182540846122505,4.083256299546974,-1.0001607118806735,0.7142130299290985,-1.4887938723743213,-2.8861843248566603,3,right
4.2410000000000005,-0.13575493696359806,0.823082723836811,-0.15441243187588266,4.8680451138622525,0.7388835455372444,1.1606233449539969,0.624848951454962,-1.3869771041486265,-2.9170577090082146,3,right
4.282,-0.3402977855397635,0.523708704300508,-0.11303389463069412,5.37121510422976,0.2992856842121874,1.656652817624379,0.673504216913265,-1.3904758141767493,-2.8026602584203095,3,right
4.285,-0.3329997033194141,0.46685499528394125,-0.12270430009784782,5.167209580781368,0.40899166346064364,1.3330444136789985,0.546762556256821,-0.016449343126932248,-2.2017538559769356,3,right
4.2860000000000005,-0.35414742571900165,0.5363069694157938,-0.11880037008852058,3.6076010306511384,-1.9515111083912584,1.855363117851025,0.5161773672848796,0.18882989616496393,-1.9489247721526004,3,right
4.292,-0.32057002014784775,0.4640624222464063,-0.12098371882925488,3.7660717138793425,-2.370713220832143,1.8064253803693526,0.57764825721829,-0.055768513925433846,-2.2568943135894743,3,right
4.32,-0.10069323566544951,0.3644152250431322,-0.17942333726027027,3.472426045153126,-1.8333489192844699,1.7973478844378978,0.4913885320560978,0.18677493482917135,-1.9024083132717373,3,right
4.322,-0.06212525008031186,0.2971306059985386,-0.17934979368700876,3.8594749014757737,-2.418302932101299,1.826942003289698,0.2866318534929541,0.4074794670599847,-0.9184386612076822,3,right
4.323,-0.09314645258956912,0.3609203163856488,-0.18224299871332306,6.03286216012326,-3.186476760989205,1.407511193805684,0.16897278481664393,0.599843772642302,-0.5250528972676496,3,right
4.351,-0.0706452558227335,0.3030119658640444,-0.17687164182940612,6.376685915978266,-3.7979386161385333,1.4643283161455862,0.29020243086818953,0.4299751231731044,-0.8936698413575508,3,right
4.38,-0.12822546004693414,0.05969691897301682,-0.12242024457809986,6.143840544019218,-3.1873191890264687,1.3826787294516056,0.1782617504800993,0.5796172890357749,-0.5889729725109247,3,right
4.382,-0.11047354061928723,0.030406257354814527,-0.11992425989546698,6.279297266534796,-3.7586142295083445,1.4805204522715536,-0.25566413306286323,1.245374633804486,0.46371919782752635,3,right
4.383,-0.13152961978943056,0.03932140307277361,-0.11700169734823275,5.334319087806083,-6.268479927769318,2.174571451434102,-0.3004562153047863,1.335502880056014,0.5174591558323712,3,right
4.419,-0.28753155239962325,-0.09189688907383296,-0.08539495608162369,5.490421521513378,-6.539433672560358,2.213157891682175,-0.303718088409854,1.2821026325190945,0.6186930307800101,3,right
4.422,-0.3119284641038047,-0.1111752489149597,-0.07419680776277834,5.230441403435792,-6.496872631595213,2.2446880936246085,-0.6282642995880382,1.5283053559432396,1.7344262862669009,3,right
4.4239999999999995,-0.28900758047839314,-0.08960671029673398,-0.08339242803437996,3.098506846331319,-8.126496253657308,2.678150128887022,-0.700437560674068,1.5108553306447075,2.0557909802361354,3,right
4.427,-0.31114261138169774,-0.10749258879956558,-0.08197304323496127,2.650898270692772,-8.414212133129322,2.8047307029554913,-0.6194956410907231,1.537232665682663,1.6984733517495232,3,right
4.438,-0.29702622293016545,-0.12553803969499674,-0.06052094117448138,3.1498691045554255,-8.085068838949134,2.7035604500802757,-0.6945654222915046,1.494006916246854,2.048599314565323,3,right
4.442,-0.32551269158014556,-0.1328858071645587,-0.08711049532888193,2.608237951366772,-8.394249627454633,2.717975260444355,-0.8144957731780836,1.1495389184793914,2.8768465269178245,3,right
4.444,-0.29366704594371684,-0.12651532053634068,-0.04822919370214518,1.955217002275911,-8.96734838478589,2.860505376089079,-0.8559856203299361,1.0939946124925037,3.132678938271985,3,right
4.477,-0.32254961529429593,-0.1357088619850686,-0.0902258521353574,1.3335311757281731,-9.205951553571587,2.582008903255599,-0.8317110180567836,1.1378924198681832,2.93437679303078,3,right
4.4830000000000005,-0.5174265644682956,-0.05243967158506082,-0.31907955515185193,1.940389152833689,-8.960408440493346,2.9837942344407775,-0.8439124716566224,1.1104165980838858,3.0880962931158047,3,right
4.485,-0.5076058331354918,-0.06612583717541048,-0.3255894700461785,1.449121769926096,-9.242986298827548,2.553650962841406,-0.8566093032191131,1.2143421995836814,3.377978362679994,3,right
4.486000000000001,-0.5487046396216784,-0.06066891996405979,-0.35106132115379834,-1.5981873383876646,-8.821284559966166,0.29070422504407506,-0.866581597915149,1.2073088142584751,3.506405377152009,3,right
4.516,-0.8873496285354014,0.20137897554258832,-0.6161641296164099,-1.4857429890378473,-9.091458746615148,0.22562633340911065,-0.8467788854911417,1.2127067905191353,3.3606017087094306,3,right
4.519,-0.9826842758127853,0.17078850899365544,-0.689575188068437,-1.964407913356321,-8.991349043427816,-0.03561203399329563,-0.693482267005858,1.3282702409667617,2.8298289400103203,3,right
4.52,-0.8708822453366051,0.203256078466361,-0.6123812235368424,-6.234986853556476,-6.609014973563237,-2.683065986320968,-0.6320053117522546,1.3281854462725886,2.602416140970165,3,right
4.53,-0.9920093477452576,0.2067027234850855,-0.6786848441151923,-7.071574904118052,-7.146382839178717,-3.436640171432529,-0.7268103435717295,1.3377402519122885,2.8915505791992815,3,right
4.561,-1.2400325154636458,-0.08345738414520534,-0.8057665202592846,-6.25593193702832,-6.458182708430167,-2.644632428870792,-0.5918663682644236,1.3151714928740765,2.532876851188063,3,right
4.562,-1.3505272715868253,0.13678578729966273,-0.8169037262348395,-7.060570888906093,-6.832526907133718,-3.316190316846951,-0.19834269243976696,1.1723068196360136,1.3775853732227166,3,right
4.563,-1.2694504401160356,-0.22280631399728024,-0.8391846564676457,-10.073035747972911,-9.332082992796842,-4.440987164644422,0.012828656797546143,1.1189349759155462,0.9024078259488856,3,right
4.5889999999999995,-1.296354603640768,0.23197152225518702,-0.7907991828290672,-11.469512908920802,-6.985763576353489,-4.466915835973175,-0.2159339471504309,1.1939143511080879,1.4026302734387848,3,right
4.593999999999999,-1.2249645025799003,2.4543436071978895,-0.619256034709549,-9.322006102064574,-11.472992722926808,-4.867603419545276,0.0012518163641674906,1.0844926416166154,0.9135549426381195,3,right
4.595,-1.0476117650094263,2.81131124710568,-0.5719811628638054,-12.391750427874051,-5.002525825462612,-4.0922923315694915,0.7646744995905579,0.35273689795873353,-0.6353754220054176,3,right
4.599,-1.3674732317335545,2.6184823220097644,-0.5872950935614085,-6.874777614477624,13.508946243677121,-2.440150692401679,0.8429747155327063,0.08654118013124004,-0.962532637384328,3,right
4.635,-0.9057267803359673,2.655371387418241,-0.6184898481917613,9.176890991679526,6.994649637985226,-2.982140900533462,0.8717841284040162,0.500448927216367,-0.7635681425528478,3,right
4.637,0.5543425397073514,1.2743635471724317,-0.6668484963729413,12.620461058635886,0.4431198426196573,-3.6521231723367285,0.7483528547211226,-0.10375993116454355,-0.844962827962012,3,right
4.638,1.1719221640241653,1.2261560479214708,-0.7895770736409747,10.557911940227019,5.4575406174348196,-3.471843260019733,-0.14473889950289454,-1.1607844174505098,-0.4908278800872181,3,right
4.649,0.5759198025115941,1.2227779384159183,-0.6489038368553255,10.782078288568666,1.8460267571468854,-3.0739476852607934,-0.3236466722462291,-2.114493146227133,-0.4679980578683009,3,right
4.678999999999999,-0.6776380958279401,-0.0143644754599212,-0.18417289819832278,12.40042380176946,4.487779055557036,-3.9894376943438545,-0.18113705273830732,-1.1205933722784405,-0.47971130240061544,3,right
4.68,-1.084052097498558,-0.03515382252857385,-0.10869575399061443,9.369751807451763,2.488195960116401,-2.7763795133591547,-0.3861080102090315,2.0388540296830073,-0.2310696936240467,3,right
4.681,-0.7817480105214936,-0.1061993891359628,-0.11121741415172366,-4.422950794291572,-8.523276034595922,1.8960808627762167,-0.3242288513401725,2.659066935989004,-0.21185525198551536,3,right
4.709,-1.0169615254832323,0.09382698687622883,-0.184612481015189,-8.160363528014564,-8.885031915138427,2.6509327327699967,-0.38000516374118276,2.3776531300691754,-0.20602109674727934,3,right
4.724,-1.1108995096946988,1.3682055740224242,-0.6430119643583269,-4.856832480586981,-9.840218373024408,2.5681888117093066,-0.30609729139348246,2.3463504622315394,-0.27307361432390787,3,right
4.726,-1.341489157154493,1.7455351754277686,-0.802442569291019,-7.669596959045727,-7.494511294835441,1.9233701222894162,0.050554179088870756,0.4657853392898993,-0.3001437132283401,3,right
4.727,-1.0946047797326226,1.3750360205624819,-0.6468196527980759,-7.925818665284116,4.544117787397679,-2.5004107030652243,0.1796402370328375,0.182038063578115,-0.5398132395633759,3,right
4.756,0.03344660239555386,0.9199394854793987,-0.46462896439878376,-10.380186616306123,8.437692214068186,-3.9993682245617133,0.03935176533567678,0.41372645558831567,-0.24273311153970273,3,right
4.757,0.2040914935244922,0.7151724534580466,-0.37688033270190374,-7.970851215639296,4.740651431729284,-2.5248291125300053,-0.2878153701132032,-0.6125134708972766,0.9372952885971358,3,right
4.758,0.1285730655145066,0.8141106679293248,-0.4242256294939839,2.831828124909189,0.1578064250411666,-0.8589010422494796,-0.3972750401359795,-0.522932345535014,1.1796863145279843,3,right
4.774,0.10804173509225176,0.8017276696500244,-0.40861093918867475,4.304434835888461,-1.791515338256849,-0.028144944994761528,-0.3191090395032443,-0.6057492102167851,1.0356651719838594,3,right
4.792,-0.538447676075312,0.9412504159141176,-0.41534894927831634,3.7556157912546952,-0.8757467079268282,-0.4681819576490465,-0.3675172340352534,-0.49972212533191185,1.0767208493923186,3,right
4.794,-0.6348347596332111,0.9993777907149773,-0.4253606225681825,3.4030192764739358,-0.9698037507962539,-0.33830297740356813,-0.4005866153412749,0.5688176741838988,0.6490550100866987,3,right
4.794,-0.5690686665500695,0.9499997821007038,-0.4166635225370259,-3.021727013801285,0.3097921632996079,-0.45047833142961563,-0.41644744218189705,0.6710399253201208,0.5898822292177804,3,right
4.83,-0.5842327879296164,0.9777507554491301,-0.4211797689545145,-4.039019259631223,0.8436189094077263,-0.5783937557902019,-0.4031921545139777,0.6223578335774382,0.6338257023589182,3,right
4.832,-0.20332035423323447,0.9120398540831313,-0.37939272687309833,-3.3426453650270282,0.4151654256059813,-0.4614272846305992,-0.4179850285097881,0.6067790413736548,0.6277032931866333,3,right
4.834,-0.15298749109752455,0.9030682898213196,-0.38201807015153133,-3.5298352155796895,0.6242930056548972,-0.5338586630280071,-0.5220774416086883,-0.06133169744578926,0.9560059435693034,3,right
4.835,-0.19931751829699856,0.9170740645095692,-0.37530864589286334,-0.09082138282161245,-0.1837959667585639,-0.2695830684934622,-0.535956629330388,-0.13605848659129904,1.0103148986965167,3,right
4.876,-0.05374944421217473,0.8958780351562805,-0.3075033255475674,0.3995175657716196,-0.31442279932229655,-0.2934287137828081,-0.5271064892439944,-0.07725521043955264,0.9520969026612678,3,right
4.877,-0.053454629675270815,0.9001337235665341,-0.290373681151753,-0.0780414202966613,-0.15553354831621455,-0.2512677752391923,-0.5602191403262671,-0.3895956984589322,0.9812554785631442,3,right
4.878,-0.07563481386488005,0.9031204171040412,-0.3106983410648224,1.051854542097456,-0.4250898698278834,0.20186726050818338,-0.560824739408657,-0.37597209380145613,0.9449814210571975,3,right
4.905,-0.04024376926830548,0.8955163022789896,-0.28941649429231786,0.9854586642485504,-0.40196612022949685,0.3145960568787596,-0.5602842956571726,-0.38715326833992303,0.9720854653540167,3,right
4.9110000000000005,0.04074524901541222,0.8635893080966814,-0.2392483300187219,0.8502425959984128,-0.3412831989070224,0.1761164330070673,-0.5566738013726366,-0.36471262589465203,0.9469420453939282,3,right
4.912,0.07558733437219092,0.8590710273213705,-0.22312758850231434,1.107546116357836,-0.4536324371900874,0.32344603894418267,-0.5375057288984437,-0.11349321932724088,0.8567364266208838,3,right
4.914,0.049341901339346565,0.8576728366540862,-0.23386642051815754,1.7084168575338192,-0.8568071767341596,0.6879050932544046,-0.518399036744219,-0.06144860305706061,0.8190141824032081,3,right
4.95,0.06601900153711439,0.8648015212247282,-0.2292928476547288,1.956144268123385,-0.9327419560152369,0.7911438622378024,-0.5440674678760737,-0.11969485498645638,0.8633122473084511,3,right
4.954,0.07756098471697337,0.914494278183018,-0.21783193496832093,1.7893853071696306,-0.9252940356513193,0.735384083044025,-0.5166543727802653,-0.062444751536852916,0.8186849574925572,3,right
4.956,0.08002304231894752,0.924267676439186,-0.22432604348167554,1.8716765044805312,-0.8636641883777696,0.737737316882815,-0.398608685835332,0.04683632085083148,0.6436593554236967,3,right
4.958,0.08140047183848864,0.9182747009096643,-0.21464910667672238,1.6821519164974899,-0.3996550306574461,0.704615718510319,-0.38945849580841035,0.08772621859423768,0.6288013221804973,3,right
5.01,0.05809470590795809,0.9289418945031847,-0.17503923498079024,1.6688037962022677,-0.2875542739025133,0.6214891397733306,-0.3812705628723318,0.057532781719665825,0.6169414606164354,3,right
5.013999999999999,0.061269531198581376,0.9330189460417952,-0.16637510635912237,1.690939905321371,-0.3697841067289776,0.7212930778670519,-0.2667092649803062,0.038228162877460274,0.4554319655541579,3,right
5.015,0.06091360856796985,0.9266451286389009,-0.17176038479818423,1.2938174917512226,-0.3486900207515299,1.0373577341170854,-0.2283700249418873,0.024770374416254366,0.39688691196639,3,right
5.018,0.0551870992095979,0.9317054473865312,-0.16976712730890803,1.2967429853353747,-0.32763672032374924,1.1058067469387338,-0.2726567677299298,0.03316238342110202,0.46449054369843973,3,right
5.039,0.08983036264229058,0.9716312118594641,-0.1796471441512535,1.3220604072656121,-0.3820973695306674,1.0728162876696414,-0.23045488234225095,0.0285096642980994,0.4012116166668545,3,right
5.042,0.06567815859117249,0.9644207818250381,-0.17974221391081047,1.2456840477855309,-0.32755387038472406,1.0738663602116352,-0.10270367774920089,-0.02009734591335295,0.19638370763883947,3,right
5.045,0.09596452751479351,0.9785927363087463,-0.18198503091754403,1.5671529223490204,0.08562498344241962,0.9291810175198578,-0.08636674935689095,-0.01868825739502053,0.18036746992840152,3,right
5.083,0.22712657803274588,1.0705436384970575,-0.20545061330716602,1.3327447161816428,0.036874000514580396,0.9193230415524476,-0.08475901599268126,-0.021353129528172178,0.16256998265388878,3,right
5.086,0.24481806796401323,1.0880456546754798,-0.2175682142055745,1.6239239844513058,0.15573099932006357,0.9026256352527774,0.01836405849087964,-0.06047916502154406,-0.06900844755967239,3,right
5.087,0.24646268498599863,1.0746193567235554,-0.19949379245671006,2.8806063449132298,1.0087873832788297,0.6615263562308891,0.044429698789621955,-0.055915972767637434,-0.13923606390737422,3,right
5.0889999999999995,0.22188691590080836,1.0829839988539964,-0.22263900224147076,3.070144449902483,1.1864055964515878,0.5516229961401129,0.01627325364124072,-0.06826074242218581,-0.05774211967437155,3,right
5.115,0.06752304714124353,1.077865930793466,-0.29671436319652544,3.050251033411221,1.0324696591549367,0.7143657539076523,0.04020057044287667,-0.04899678064707563,-0.1407400497266354,3,right
5.117,0.006787199432479134,1.0834057235293817,-0.3221638489091653,2.861045700455626,1.1443627174428062,0.5046825204554962,0.06541946826339282,0.019747328919351576,-0.33466340935015704,3,right
5.118,0.07461633767404223,1.073486304222579,-0.30055816170735994,1.4557336509420535,1.0858466497277848,-0.2518607839875036,0.06763785009578288,0.03470827019588647,-0.39706346086119393,3,right
5.127999999999999,0.008613568733581514,1.0904246375210793,-0.3155200205599843,0.8904100549309089,1.1190994762188773,-0.5131184334916329,0.07964836378918444,0.03577965772501438,-0.35263420929941935,3,right
5.148,-0.1664845395363197,1.146275033907772,-0.3590052531575244,1.5748640605658848,1.1128603973039382,-0.247276770225435,0.05387719981516223,0.009641510017763486,-0.37751238230644757,3,right
5.15,-0.20221857875844457,1.175048624469491,-0.356856502393985,0.8365541598538171,1.0946827446776939,-0.507870442865353,-0.03923686252479454,-0.12246115386283397,-0.4217016487075994,3,right
5.151,-0.1897714014620121,1.1466854890104696,-0.36551329008139904,-0.5736721208527067,1.860730047767865,-0.7625748257053038,-0.08295403573458993,-0.21520508403827304,-0.4104289829435738,3,right
5.199,-0.18098203527565704,1.1679485202025368,-0.35516791438035333,-0.25490104981626344,3.019216073130141,-0.22240749055831321,-0.03765271497063594,-0.0899393181152927,-0.43508415431872893,3,right
5.205,-0.13257516770076494,1.2905499244692193,-0.2707329259042399,0.14763406164878656,3.149237612618227,-0.030812677584811418,-0.0786211980840328,-0.23767636066025216,-0.40283594339841355,3,right
5.207000000000001,-0.11112488482906427,1.2799123416987443,-0.27563397772701237,-0.04415141882450127,2.948746484766677,-0.20650624949791338,-0.21815319062126368,-0.7653947432562591,-0.2355554877321438,3,right
5.209,-0.11816847636686181,1.3075443560617992,-0.25813257668618994,-0.025981401373333823,3.246684650875669,-0.021542852419907735,-0.23321363095883885,-0.901155636597283,-0.2084522137463108,3,right
5.23,-0.14730797266123172,1.5393617750630244,-0.13552023199358526,0.04098627660740763,2.8364281813786034,-0.23965276719414735,-0.23499989348613698,-0.7985419419852383,-0.22744891415445306,3,right
5.234,-0.09666599247023419,1.5796218008714964,-0.10463257437252294,0.009431773282484603,3.339913600002286,0.01671457453904325,-0.3294744350063058,-0.8305784685344665,-0.12513903380917168,3,right
5.24,-0.1742886520959013,1.5429379757335653,-0.13177944482059112,-0.09134954731118379,5.384341375116032,1.0539486151547235,-0.35229214402707776,-0.8082800077396768,-0.1331632672631179,3,right
5.247999999999999,-0.0848330940226066,1.5757958832187837,-0.11369420406264666,0.30412218455445894,5.865976997026749,1.3027062636141777,-0.32924162835919035,-0.7953028103776949,-0.13056425521705306,3,right
5.267,0.4648516201327953,1.4932494733074426,-0.04126196800739747,-0.4014786131234434,5.517592308008361,1.116801683263545,-0.34755277218497505,-0.8406828990233027,-0.1198268870194205,3,right
5.269,0.5202953705047031,1.528072374772462,-0.04053926234729564,0.5835021475074998,5.6813042246552765,1.2220692420599484,-0.4248838135420361,-1.0500742829774992,-0.17846118303929026,3,right
5.271,0.4882843273571008,1.493877528524827,-0.04350779170006373,5.597982475557653,5.057691770574994,1.6821784030535207,-0.43641267463444794,-1.1764763352383838,-0.09444036673378779,3,right
5.31,0.8291168035490275,1.268024798023125,0.014477602329975548,6.880322718038429,4.786626752943198,1.7098518299807917,-0.41579950541754684,-0.9874828057786409,-0.2387755547165082,3,right
5.314,0.7656595411322724,1.2657751139043623,-0.030622087982424884,5.5007088347873125,5.29500277489166,1.607121871852564,-0.3997660658890788,-0.6061010225688315,-0.8456916714960349,3,right
5.316,0.8894825602851473,1.2390770693087299,0.04707228533002228,7.056131136719623,4.547303114397604,1.888052944319874,-0.3183958645479844,-0.2504032452637013,-1.1287729823590862,3,right
5.318,0.6990233464812806,1.2911755659446795,-0.057351289540985215,8.54647793726038,3.0257289168111727,1.6149990623535122,-0.4447560825860108,-0.6789659312758517,-0.7820827903801766,3,right
5.355,-0.3521925008131144,1.6180806996358323,-0.5332689141721296,10.718718502076031,1.9311913085580978,2.4405706748667146,-0.27800850279800027,-0.22294448295966213,-1.1749779668353557,3,right
5.358,-0.6083138115352077,1.6730089279827083,-0.6353860426726612,8.291318128477714,3.040310777949424,1.4091873630577572,0.4124674347976866,1.7155004916162364,-2.4761719803627003,3,right
5.359,-0.36053572801694866,1.641111553071382,-0.5616271139413614,-0.9926325625317314,6.076572220555822,-2.9113576933745704,0.6008465774288214,2.0116169952324947,-2.8645779488253833,3,right
5.369,-0.5897716183070916,1.6460428644335434,-0.6023999708116434,-3.3183116982424394,6.778143368647238,-3.820941521497323,0.4335798447618905,1.8622752485087224,-2.526453761708223,3,right
5.398,-0.8067312073583753,1.5001897105362199,-0.5176715076537322,-1.2663357072508048,6.420272985639659,-3.2117962664833533,0.5698996515578539,1.8952296015069126,-2.7975165736627043,3,right
5.4,-1.0083286687434385,1.4824030604341991,-0.5195628718491989,-3.092402260766618,6.459722188163983,-3.494999873204127,0.7748889589622361,0.6202114598046184,-3.3196687035231722,3,right
5.402,-0.8202051942467833,1.487154825197714,-0.5175144692509325,-4.262342837067305,5.475767745879877,-2.41295165012671,0.8538347391653474,0.6596229085991365,-3.44448190937975,3,right
5.437,-0.20295216811547379,1.3683153980410419,-0.4081209013427797,-6.067673866746574,5.262975009683889,-2.3553509497928227,0.7934863641040428,0.5381750133310914,-3.3870066325138923,3,right
5.441,-0.08241281960567931,1.3145468286892519,-0.3862255782902818,-4.197879528670303,5.368065237400897,-2.3793196779218033,0.6726897596961716,-1.1267437947984527,-3.4089896254278607,3,right
5.442,-0.1487163025819498,1.400694938343099,-0.4176850890577385,2.9383636975645775,4.634259925195762,-1.261047973288608,0.6286244849399765,-1.2812648153391215,-3.4452622831302726,3,right
5.443,-0.13678195072770982,1.2895664818798602,-0.38110915323848477,4.435666321341724,4.240598487882298,-1.0313971980573817,0.6712463073490178,-1.2210459503496183,-3.391470016966994,3,right
5.4639999999999995,-0.3756046023845123,0.8923054364136355,-0.27717348270051284,3.412415398461092,4.905384718948969,-1.375779863402304,0.6293216731553992,-1.1537137814817546,-3.4408512105544644,3,right
5.465,-0.43396669059966975,0.7732210456496631,-0.24677153806248966,3.9132002518340174,4.038859755297839,-0.9667083577620303,0.48824733628903494,0.029622804209327502,-3.665341550846902,3,right
5.465,-0.36137191187707796,0.8767678164673782,-0.26845738951379866,2.3761080251049895,0.8281693403569977,0.1906887425872562,0.45645317241004996,0.26459703239511495,-3.655973336096096,3,right
5.49,-0.44198652047612796,0.7945671284657183,-0.2557099862919283,2.1268376889837084,-0.07385170967490864,0.551171421686721,0.47735377007561447,0.024376058689068995,-3.696202687631562,3,right
5.504,-0.5041684158997172,0.6547159225260368,-0.25162086494224134,2.5649767711221907,0.6877476940845193,0.27700213679234015,0.46906197996982146,0.23640826631316675,-3.6468095393101105,3,right
5.51,-0.5994549426234894,0.6144830657147241,-0.2493137136437802,1.9933044439225862,0.09821026924545939,0.4586043325782014,0.48527898066954794,0.26303059243106364,-3.161500989061125,3,right
5.511,-0.4996395477541035,0.6382068299769522,-0.2512225231190609,2.0674373193764746,-0.5951682752307307,0.6736572709573125,0.49927423748408395,0.4005094714968038,-3.193816107382256,3,right
5.544,-0.1661183320238739,0.6472975590317451,-0.2673043341752231,1.2208879177631395,-0.9209297996488792,0.7288748830509327,0.4769975580510334,0.29566941006471303,-3.0889807762981927,3,right
5.547999999999999,-0.08362109057378161,0.6485158941191125,-0.27448597892867443,2.1818194339543684,-0.6658399334792724,0.6950473875084455,0.3867413238595212,-0.08624579105348859,-2.218867152718276,3,right
5.55,-0.14317929042298094,0.6549520776339045,-0.2640312244855629,5.784626743366869,-0.024221172497628674,0.610807976258939,0.3483577873030631,-0.10676173764778284,-2.0066470749722143,3,right
5.5520000000000005,-0.11061561274506511,0.6419222612446558,-0.27658078704587363,6.673052170069284,0.14190646465976683,0.558894777762572,0.39848099356876976,-0.1437704054141783,-2.2377144491389886,3,right
5.582999999999999,-0.11715397480075496,0.6208187479395194,-0.3239802531324859,5.994643297175317,0.02775963232789993,0.6297601798299168,0.3331240210525086,-0.048360340866038076,-2.0030056716446754,3,right
5.586,-0.13239282617538023,0.5973454040732168,-0.33447146489060964,6.402948434656791,0.07463060355142445,0.5488445901347333,0.15521759932070217,0.458831628360738,-1.5937191644472735,3,right
5.587000000000001,-0.10126823387764297,0.6226363366616643,-0.32743320245643154,6.5097637510327875,0.2570953369735263,0.19240088918120196,0.058856762456677786,0.6301592742775686,-1.3728638512871976,3,right
5.607,-0.14155892195661426,0.6002764575969904,-0.33103611154747503,6.401982016503226,0.14625942064626343,0.14445370707869853,0.16171573925125737,0.4505814920463274,-1.5735401152391613,3,right
5.622999999999999,-0.2690280299972958,0.48358046584602726,-0.31965950559631706,6.692485397395467,0.31136406385079674,0.15732645910103185,0.06619655209858545,0.6201875944196693,-1.412593822986088,3,right
5.626,-0.30786950211175823,0.4846416469960876,-0.32050205095847517,6.293440558206971,0.1438846951805459,0.1741077147427295,-0.3240626107308294,1.0366595068872515,-0.7054654537856125,3,right
5.627000000000001,-0.2762086422012534,0.46751775123867395,-0.31882886068935745,4.9592575294511905,-0.9269402415939205,0.46650071927620923,-0.3505954903901044,1.1407728477831163,-0.7083099494691061,3,right
5.662000000000001,-0.27016893223826366,0.3174977118504775,-0.30185673865374063,4.58040748177949,-0.893444937428543,0.4812756959884043,-0.3761367388714553,1.0841763205534882,-0.5971442389494264,3,right
5.665,-0.25231199408482796,0.28137833864674106,-0.2978375326203856,4.8643396367968155,-1.087987096390796,0.49696746506364214,-0.7918364832559633,1.1916902840543733,0.3631405219450465,3,right
5.667000000000001,-0.26615292617624275,0.31635877407308627,-0.3018893403023557,4.65082647593422,-2.713265986120109,0.7860819981637728,-0.9028329675588596,1.2299289758753011,0.645599398324229,3,right
5.669,-0.2551838462277951,0.28802051953251595,-0.29897578574573147,4.721563519248642,-3.131984325974469,0.8641007112533374,-0.769086079478811,1.151544446369328,0.3193131745238985,3,right
5.707999999999999,-0.18306218218910528,0.24680703501113396,-0.289731582834452,4.739423563807714,-2.692328734602636,0.774965262594377,-0.914063866102506,1.2633737224723849,0.6648160550229838,3,right
5.712000000000001,-0.17893812362182043,0.23794642796122545,-0.2916256091273096,4.641920491142062,-3.103583928726753,0.8566024235651203,-1.2367656743272906,1.595886611269087,1.5007925490059284,3,right
5.7139999999999995,-0.1798350066485308,0.23880610749397652,-0.2874728957212132,4.765517386731167,-3.9012735768400626,1.0991025217679398,-1.3787883327395574,1.7504951924245165,1.8249502278023562,3,right
5.751,-0.17940071857486384,0.24215914986828824,-0.29247594185194503,4.525165732874637,-4.18087640985444,1.1228025670286894,-1.2495682072816976,1.5878139170050827,1.5369279711318744,3,right
5.752999999999999,-0.24384543416983484,0.2693550330003939,-0.3287120273239235,4.800635615754009,-3.973434977045687,1.1305794232335382,-1.356915735384138,1.7479572579633964,1.7729750117568295,3,right
5.752999999999999,-0.2312386402254385,0.26716437728047604,-0.32929862822935363,4.554653024730149,-4.119289571251,1.1074435232814013,-1.7326082740404285,2.302859897525509,2.5259337536716835,3,right
5.754,-0.25353019516457953,0.2772488197180829,-0.3327717964166585,2.972022046674983,-4.540389407325913,0.780373096127154,-1.7638331667837426,2.4222748975697197,2.610147325323486,3,right
5.78,-0.40350666840641225,0.3484678444083035,-0.385703833052203,3.044550468838638,-4.6077141711018506,0.8027049538532176,-1.7786072598539993,2.3309364257601484,2.609706443446667,3,right
5.781000000000001,-0.4372610807054941,0.37499929733614523,-0.3951595104720199,2.738648824154118,-4.555257208909705,0.7309197902791421,-2.0557293654845927,2.402953921571026,3.0541173846364806,3,right
5.782,-0.40329053201636533,0.34273555584859305,-0.3842963530291095,0.18713621293890037,-4.561381450278379,0.04209094258165247,-2.130012291261934,2.3343681762166923,3.153626720938541,3,right
5.792999999999999,-0.43599379720036613,0.3779340420339513,-0.3962579762667223,-0.45165829147996506,-4.484325950364147,-0.12042168427606476,-2.0540799313261893,2.4139824834102868,3.0557058801699544,3,right
5.825,-0.47434974734114554,0.47332197034998547,-0.39332415372405694,0.24533155716392607,-4.592009747709528,0.07695777500152035,-2.114213480356944,2.3180347230312135,3.12309720311608,3,right
5.827000000000001,-0.505314924925629,0.5036416614556538,-0.40616521257358396,-0.46320943805482945,-4.457732543239333,-0.15332772741904963,-2.2615221442299545,1.784700559402118,3.203137140468062,3,right
5.827999999999999,-0.4761676213271957,0.48042416295993673,-0.39654352262997694,-1.7373018083331786,-3.9694473244808997,-0.46429887651233903,-2.2637464308167274,1.6779016165992244,3.1732916276515324,3,right
5.846,-0.49970881763578995,0.4956012946708718,-0.3972965986082658,-2.4018509365735845,-3.8481201398067393,-0.7342524182364729,-2.2839198348218614,1.778636579378587,3.239492279033074,3,right
5.86,-0.6179151923678949,0.5769234192330102,-0.43279849540977433,-1.7995221764431533,-3.924797790484769,-0.49510254432283585,-2.260737559231161,1.6805137983738185,3.1653510452384355,3,right
5.862,-0.6117623268606344,0.5835132464067474,-0.3941552453179712,-2.2831854458550818,-3.901014165672828,-0.6337045443080707,-2.010504592845189,1.6465914460577062,2.7397879929258364,3,right
5.864,-0.638742110209477,0.5720627497719184,-0.4593320633175149,-4.28885340881412,-3.488700356302926,-1.4444010451378042,-2.058828221484578,1.5229638554109868,2.760473267751095,3,right
5.9,-0.7835768576619758,0.6356297830019717,-0.6898648125952441,-4.297268992915362,-3.491518729454704,-1.1235875307380063,-1.9489431610414456,1.6637770563586383,2.654091138275403,3,right
5.901,-0.8392832977605491,0.5969607323341031,-0.7956224641493067,-4.592517172866796,-3.5660572218568714,-1.750825929530782,-1.2887195638434605,2.0314756828835576,1.8464957159271482,3,right
5.902,-0.7829877653844775,0.6438017730446253,-0.6861610709300593,-6.642756780907396,-3.0383443502331593,-4.28985470569371,-1.0713787535619455,2.1456203796261715,1.5823036718518528,3,right
5.916,-0.8311711071646579,0.6096446902281709,-0.7834086073817399,-7.3322409171942695,-3.4193119605603517,-5.365476349996598,-1.3215584951792612,2.0953325888292067,1.9000411109756794,3,right
5.939,-1.1341986239962645,0.5170397562935134,-1.1451639102543951,-6.642991045511426,-2.952445781648484,-4.260905099661036,-1.0506723980791,2.0513892678396797,1.5447456920642875,3,right
5.942,-1.1676768822716266,0.6162093485304778,-1.172495167551633,-7.213521326144862,-3.294364339933371,-5.221492000996264,-0.194064394347736,2.1719697314834496,0.43538609729301103,3,right
5.944,-1.115787986627272,0.3986268552757083,-1.185581080085134,-10.261185441251309,-4.153691545206909,-8.59844912076936,0.0995228781079601,1.9330769981992058,0.035588179209273485,3,right
5.9670000000000005,-1.2189745727107497,0.7435482550750369,-1.14873531820463,-10.566471151962913,-3.1838494174077083,-8.804739553317331,-0.20928012331583296,2.202247845729308,0.4559853990166477,3,right
5.985,-1.0627320530015807,1.932992921785104,-0.6814103481725293,-10.133873227732149,-5.31444683288351,-9.02841460379691,0.12241143034020843,1.9962531813249051,0.011696137680317048,3,right
5.987,-1.3446293410802728,2.4421705291222056,-0.6789611169041385,-11.038485819773166,-1.9368232499105744,-8.543906420305294,0.84736890576558,-0.07047144485204404,-1.0561283637959988,3,right
5.987,-0.9891979439767854,1.9323641421506204,-0.6414703819219894,-9.02054309639325,9.66127522461149,-3.654997480150314,1.2118527225730311,0.09993269432430199,-1.5147434069064767,3,right
6.031000000000001,0.5001299323333366,0.968350315452505,-0.08634784159425186,-11.703261921544565,14.647050552496808,-3.487319771687747,0.866164490215974,-0.23316201953167232,-1.0934322582142761,3,right
6.0329999999999995,0.8105355148870772,0.6060624987266058,-0.021558011902865826,-8.257323372943222,9.656370210110808,-3.2498401171645996,0.01693828549061449,-3.2978025091162797,-0.1999983374581649,3,right
6.035,0.6230568941353511,0.855700476583217,-0.05928271731316352,6.636837974114312,0.18618715809987307,1.954897685984959,-0.18659825661001284,-3.4270669450809,0.04172753779914395,3,right
6.0360000000000005,0.6592008218263181,0.7182264852837613,-0.06207717554084717,9.708032761474628,-3.349001177851256,2.5304967906509725,-0.08550746528114503,-3.657953378784936,-0.08297512340448789,3,right
6.058,0.0076055822843806575,0.5550192178961348,-0.37246808940677956,7.832649198579677,-0.9261643476365085,2.173920451123182,-0.09316845969458944,-3.0474634758320684,-0.06591926789086322,3,right
6.062,-0.21812502563403988,0.6045406553357556,-0.4335586134538986,8.222624198455195,-2.2420670419503606,2.1764203921721808,0.2401060722098454,1.3542509102979827,-0.44919863316103975,3,right
6.064,0.09358768868005034,0.4838644985447731,-0.36862856801561805,1.7839916268627092,-3.696895727580721,-0.6683585347230374,0.3248805153272458,2.289444832663073,-0.5748614698661508,3,right
6.087000000000001,-0.27547550038754814,0.6569704258946214,-0.4245620739060844,-0.39797991620608386,-3.1772861232279004,-1.1839440011482716,0.242007929839753,1.4452503648627404,-0.4049959122104184,3,right
6.114,-1.057107914835797,1.2058755211022465,-0.45330440358920226,2.622141814484098,-4.38892463765842,-0.6386543629782805,0.3072694925040067,2.137401380439294,-0.6161870922854426,3,right
6.117000000000001,-1.4543733843650744,1.40739685677064,-0.4801850832477905,-0.9536635502002585,-2.670462419417075,-1.0979758025658433,0.2711516070443196,1.876772280665712,-0.8720953797749058,3,right
6.119,-1.0902911185569328,1.2301063375593397,-0.46388250360783784,-8.393661096016263,2.7132114802767644,-1.1421208740117677,0.3053160254756069,2.3941665083655614,-1.1642803035453133,3,right
6.15,-0.3110032635283607,0.9964556690406466,-0.424512689913787,-12.246426608760045,4.698802316045855,-1.343143442701722,0.27391359938167154,1.8847921163010635,-0.8531332782487776,3,right
6.155,-0.09579931559878663,0.9077525370648383,-0.4152334447302027,-8.709796526024157,2.954397426093073,-1.2279538744942347,0.09906287430539694,-0.49424585627870204,0.18007104676409325,3,right
6.156000000000001,-0.21855150786963662,0.9517968529737629,-0.426014347911297,-1.0456881131314428,0.6241941165252916,-0.8426146227003245,0.05761841379941246,-0.9119038513832349,0.4257806736164131,3,right
6.157,-0.17717801577328188,0.9421205747882593,-0.4126533605575148,1.0491231921779165,-0.24519681738861077,-0.771995465351959,0.10501007757806041,-0.6271208809988766,0.2553119091689373,3,right
6.182,-0.27167874823631355,0.9708898434045778,-0.35806324083484775,-0.14052788482759948,0.1835530785040543,-0.8603490968332239,0.05365964992970673,-0.7497993202845231,0.3487949632253124,3,right
6.183,-0.3151414601269261,0.990761914077897,-0.3420829054422544,0.24651318219791318,0.09272494921616206,-0.7475277550427182,-0.08402442076671145,-0.1993076392063382,0.2541065113442154,3,right
6.183,-0.2686016742053011,0.9704207155030148,-0.3570590210977128,-0.7642817746497107,0.4107184386253374,-0.2994772790141916,-0.13396550954825887,-0.05302494573554864,0.2570915022181773,3,right
6.225,-0.30223947411867924,0.9878345702646262,-0.3442774027920138,-1.2271108605543901,0.6020111111203441,-0.15980693937221785,-0.08930004826334904,-0.2748007951292628,0.26200232592880823,3,right
6.228,-0.34730877165725604,0.9831751436851821,-0.32401920003057016,-0.7271053345047579,0.41335693265233053,-0.29626086282562397,-0.12643418747266658,-0.012248671928007007,0.261777430321715,3,right
6.229,-0.34697175076515496,0.9966985699571838,-0.3180226778008812,-1.1019813218077772,0.567088156636846,-0.1706891103438007,-0.22872392656245183,0.49964415298295617,0.44736640137666817,3,right
6.23,-0.3520132903723826,0.9832197473753105,-0.31963800607449566,-1.7072189385893166,0.43265987090562846,0.04062527742612092,-0.24568562273414454,0.7761259270284206,0.4482647706752254,3,right
6.256,-0.4065778708782025,0.9162361547400664,-0.31290729108941373,-1.7273104048285628,0.549085442361475,0.12553214512071048,-0.23936330370089237,0.5125450395573503,0.4598965403079671,3,right
6.257999999999999,-0.3791638958785887,0.9052757298304301,-0.3045363373870882,-1.7738609585760339,0.4251305146991566,0.07292234512082238,-0.27712732435944026,-0.02452799446314774,0.6214956651333854,3,right
6.2589999999999995,-0.4361704634579944,0.9125729104628622,-0.3176347316283027,-2.439754990106269,-0.2747532857531076,0.0043277272219595896,-0.28438046365023384,-0.24064219219474006,0.6644377944092263,3,right
6.266,-0.3532552139530185,0.9095582381792047,-0.30117619990250466,-2.2093124503304225,-0.3957557720626172,0.04049540684951763,-0.2759247511409416,-0.057339502634624076,0.6142999461470071,3,right
6.301,0.03174245882111909,0.9288599937668125,-0.24848094860497072,-2.714273896167721,-0.3012159009890386,-0.042627778464852696,-0.28255221057755686,-0.1996908927583874,0.6613384735231347,3,right
6.303999999999999,0.12043287016597107,0.9320187863686964,-0.23355320618342365,-1.9664267436186842,-0.3601127799191872,0.07557911441792482,-0.28944478164007825,-0.6202016211648328,0.798361387888312,3,right
6.305,0.053074193791121264,0.9276330966786052,-0.2430557772833097,1.6530617794612092,-0.25550459689767063,0.4961057693368872,-0.2888533933957431,-0.6444068874461308,0.8087301879930286,3,right
6.332999999999999,0.09273879088744966,0.9324481792687107,-0.24103441646271434,2.4521122781663633,-0.2535438788698183,0.6062323951262083,-0.2918341536628698,-0.6900944618006084,0.8234766223194121,3,right
6.335,0.04840761501085451,0.9276108125721136,-0.23498814192059236,1.8548165448638985,-0.27379859528173867,0.543857715540585,-0.2890264540627261,-0.5852527027454155,0.7893636504198375,3,right
6.335,0.044880743125667685,0.93208836988778,-0.2479687986280409,2.195259324133288,-0.24072292628131045,0.5403406425812785,-0.2684184190957355,-0.022934384639988148,0.5700583637273563,3,right
6.336,0.057919992101990316,0.9287014187006322,-0.23096964484776958,1.542070819147127,-0.3332244944581967,0.5032914031144582,-0.27543760290009517,0.11426676563353783,0.5377801237358035,3,right
6.393,0.03184205856530091,0.9098504735887074,-0.1677095832481738,1.5040006532360297,-0.28642342762463935,0.3731985271436957,-0.26024117107555034,0.00573688738615339,0.5503791202711263,3,right
6.399,0.04697040779000972,0.9121110209127065,-0.15570955396373176,1.615973288042548,-0.32680866881001536,0.5333217422099724,-0.18366978472166154,0.09043560606633867,0.4015448635688332,3,right
6.399,0.03521950388707164,0.9059393062350223,-0.1598253710802261,1.1515711668173734,-0.5593057429777937,1.0704230611568146,-0.15337801099983073,0.07139698084599841,0.36902288278318596,3,right
6.4,0.04143591125675586,0.9152976050410071,-0.16433616279004126,1.2839358112833166,-0.5372786415044009,1.1785606776053443,-0.188323428791268,0.05171186147088134,0.4171081776995589,3,right
6.43,0.08317973924803496,0.9646472401336861,-0.2128489574977087,1.1685058139215625,-0.6062343928962398,1.1408215983945975,-0.15152996914279437,0.0994939028061527,0.35981491341908955,3,right
6.432,0.07153617009951915,0.9743360620549141,-0.22822709747901732,1.2413209221329025,-0.5001713248569413,1.1021144465820583,-0.036893725739578755,0.18463433747397384,0.201010629011261,3,right
6.434,0.09283627458330584,0.9670827919065925,-0.2122791780381399,1.5965730257459327,-0.02547810932328065,0.6352343174846952,-0.0059953273635119635,0.2564087040342315,0.13916278521525222,3,right
6.444,0.06578397260799675,0.9719506245424261,-0.22597685131333817,1.4374572013892064,0.061721513421652774,0.48874244042972836,-0.030769706846903735,0.18750206243673423,0.20082390567788977,3,right
6.452000000000001,-0.05886400842131521,0.9679462207348045,-0.246687848662094,1.7812989423051468,0.03512418263118784,0.6583044694244307,-0.011868948557748175,0.2427109972627678,0.13881802440959556,3,right
6.455,-0.07382875942990133,0.9733569791299248,-0.25006455399377314,1.2559739858482826,-0.013505868974508336,0.4815242555375773,0.013469652588802441,0.42351592435853364,-0.018913915713069347,3,right
6.455,-0.0756110679414368,0.964546159741645,-0.25331326454656083,0.3404371548623235,0.130961262445189,0.4314143186359847,0.025858996944175178,0.41547708508969505,-0.07936075245951138,3,right
6.495,-0.05579524418772625,0.9775668765208824,-0.24370516104438522,1.4142398846653956,0.711081961252809,0.7141435842021133,0.014398755424171773,0.4656555169934743,-0.025104523966522053,3,right
6.499,0.08042999364295261,1.0310766409370833,-0.2084402292132265,1.9696779267796836,0.856263768234014,0.8223069409408453,0.025045191549392658,0.3792930775772556,-0.06672064855603897,3,right
6.5,0.12096052330134889,1.0491310336043274,-0.19047421496302414,1.5909296918513542,0.7509775131434222,0.7662596641976276,0.0763501265113522,-0.034935336020723476,-0.22536369792391242,3,right
6.523,0.08078557665472802,1.0317376954369646,-0.20951525895291873,1.7723290678441184,0.7964936245766787,0.7644882223378247,0.08141965669211199,-0.13840868732223222,-0.22019955289743906,3,right
6.531000000000001,0.04589061780220411,1.006681046086546,-0.24153793655488245,1.7616492275527342,0.8126561775926036,0.8207397055992032,0.08108756387240912,-0.055437411729731545,-0.25334402537130457,3,right
6.532,0.017595317729254756,0.9951468248115496,-0.25647999017817946,1.6540610972534666,0.7474729576587393,0.7226611892884376,0.11682391912385107,-0.08878280884199419,-0.4773207256197275,3,right
6.532,0.03949726118059077,1.003187631322913,-0.24627469897404955,1.3832330951766643,0.47104239363432543,0.4417648703967424,0.12445257622114235,-0.06486943827469552,-0.546138716848126,3,right
6.565,0.022942792323704348,0.9981048955919545,-0.2503758687310783,1.1982566564028123,0.36993638151130837,0.3272680229320869,0.11507162167732622,-0.0654751872524076,-0.47612132802493057,3,right
6.587999999999999,-0.02558234784942517,0.9909716560000592,-0.27326257780123386,1.370192691485017,0.46376581927331983,0.41136488335189164,0.1248497616695918,-0.08023263612213608,-0.5369142077899046,3,right
6.591,-0.030950814743677443,0.9896652919367854,-0.26342213161245165,1.2264002281898014,0.38400102706820505,0.37943106166079893,0.14544895702130073,-0.09682734533167231,-0.6933173726856354,3,right
6.5920000000000005,-0.03352266273444899,0.9900038672756322,-0.27869209036392406,1.0023781868195507,0.30877396932721,0.21519423924982795,0.15442531918946117,-0.12478866225904477,-0.7153932979053707,3,right
6.631,-0.06130853299240878,1.0097687137969946,-0.34113239068794954,0.9453302856916228,0.2573211819513489,0.3171780777293831,0.14510417581017268,-0.09393038046698697,-0.7141232510412423,3,right
6.632999999999999,-0.08380746796270801,1.0115011478645073,-0.3569896821151852,0.9392912215883281,0.2983702690365082,0.1628415640815796,0.11634008319408695,-0.04717716919856288,-0.8204257859678146,3,right
6.635,-0.05236222963521937,1.0056831028010607,-0.346315291420873,0.8822032211461476,0.6017500921560271,-0.45249890295917006,0.10103153452985741,-0.012549322534973905,-0.8403353436310345,3,right
6.636,-0.08859100323406334,1.0188295176798885,-0.35005897713649814,0.7161316302035212,0.6471484881406455,-0.6075633701263625,0.12261799572975293,-0.045612857652466324,-0.8224917080334346,3,right
6.649,-0.20460545586030277,1.0355035076789667,-0.3625925120715109,0.9542984281732827,0.5695038577352491,-0.5058344285683274,0.09338536195115749,-0.019727846887037347,-0.833045338951659,3,right
6.65,-0.2280127074395749,1.0698932165701693,-0.3570319697272967,0.6814692904970221,0.7103816204524245,-0.5387002375950567,-2.6476900272544984e-05,0.10901632799351607,-0.8112207877832606,3,right
6.651,-0.22201763927362395,1.0272282985106367,-0.3599992770506226,-0.23509624108782465,0.8880574794936817,-0.6260851737384276,-0.0417528923610398,0.09938368535186341,-0.8059012447782912,3,right
6.692,-0.20792769628572622,1.070714106578439,-0.36672059112869115,-0.3736086089166343,1.2215840495950867,-0.5718885151416135,0.001093785076330244,0.13074449529788285,-0.8150931865521946,3,right
6.695,-0.15924456671748782,1.2873887880734958,-0.3335822098919412,-0.3999540897651525,0.8122810995923568,-0.5982013626692486,-0.03714602152555378,0.08491988372120782,-0.8057530045304112,3,right
6.696000000000001,-0.11899503229956404,1.3000774641933481,-0.3768613378632065,-0.1905118660232992,1.2271574363815496,-0.6662595001109348,-0.1704577286339164,-0.22851527673548738,-0.7820407033603238,3,right
6.697,-0.15567118593023754,1.3128207096347178,-0.31514124603248994,0.5237407571985097,3.3106517280916083,-0.39303967449334265,-0.17918777257900606,-0.26203367091148644,-0.7806224037226637,3,right
6.729,-0.23702542003612975,1.5182359402254826,-0.057747249926441396,0.9368744753101355,3.4299523596,-0.80246192444562,-0.19173085184387806,-0.2476913526357676,-0.7774647367072978,3,right
6.735,-0.2247689912070083,1.5644497667947435,0.014894423640518729,0.5920499440487629,3.5518581397161686,-0.22712371076666787,-0.329160612512272,-0.4480231014160415,-0.7625035580432267,3,right
6.74,-0.27473755505007985,1.5189006338807176,-0.04769115051079814,0.02986646167510798,5.5253142385302425,2.1264363363890277,-0.3767014052987777,-0.4484011191728166,-0.7602741768466916,3,right
6.747999999999999,-0.19001682659639893,1.5534620834995796,-0.001793189639168847,0.21804251558861293,5.956891342807203,2.779025588982278,-0.32107521460717225,-0.461110005286165,-0.754060026232922,3,right
6.768,0.15368587382286134,1.6061542815256336,0.0618108279131173,-0.35504958908326756,5.538427859345973,2.2369183448933594,-0.3776679244399076,-0.4281834202992959,-0.773902664131472,3,right
6.769,0.2621049654089928,1.6048087636846995,0.06909965566070395,0.567365325317006,5.846798724369625,2.606522372622036,-0.5563111577999615,-0.1689279639812411,-0.8470740530807632,3,right
6.77,0.17111535892307378,1.621065499647122,0.07757314639344179,4.150460300215298,6.264290045369445,3.0126535167033106,-0.5988317374275356,-0.11031990862637205,-0.9011606968123547,3,right
6.805,0.2298557719378652,1.598103517038868,0.059610094381874514,5.305507951986304,6.232884237179241,3.000392345295917,-0.5642485261872283,-0.16323103173006953,-0.8340190808259582,3,right
6.809,0.3809943839973346,1.427644752398296,-0.0015952024425375452,4.330134689588682,6.397982452944428,3.1597628479077455,-0.5966763784673619,-0.13124680710772313,-0.904196788720113,3,right
6.81,0.36129994068902715,1.419211063335684,-0.011604456160568679,4.973167886293527,6.179397514200133,2.9207665816357835,-0.6177401325034207,-0.3037423334004136,-1.156597107713794,3,right
6.811,0.40771792179262,1.4154094512208188,-0.019070513002627708,6.705949330976761,4.566416170142343,2.0896577761889144,-0.6711995113211067,-0.3757045503241574,-1.1837213372203899,3,right
6.847,0.6461219188522571,1.225278706393793,-0.10786978591196293,6.522557943247479,4.499308733078911,1.9664762848048616,-0.5993576270070144,-0.2075537428946413,-1.2020025744362886,3,right
6.85,0.6765663137175129,1.2187964720633073,-0.16579489390410335,7.003896821584783,4.453564280116858,1.904129897267402,-0.35734091336446977,0.16502808342651928,-1.4700442903759865,3,right
6.851,0.6908967987393226,1.2157065364515607,-0.0822504220654141,9.668115728839608,2.6437674591135707,0.9304100864143688,-0.26111313033501393,0.6141848566204247,-1.5969831800065044,3,right
6.865,0.616801032760437,1.2263658956231334,-0.1851802039216182,10.055353195389,2.60877162746496,0.3880342313397413,-0.3539077997908171,0.018655306625413842,-1.4196315246647797,3,right
6.9,0.12599610125166374,1.3884825970816435,-0.5638792938097807,10.081295213462852,2.5228980496583278,1.150805717395849,-0.2783313831209433,0.7123043487048013,-1.6373284991798367,3,right
6.901,-0.07736581463463232,1.3798398902053837,-0.671128771943597,9.495279755529577,2.7113757978071513,0.23527525509245406,-0.04272537527696923,3.6673506883614744,-2.4631573041849126,3,right
6.902,0.18591235699261735,1.4146115754407629,-0.5769818579241206,5.003173491447114,4.565515907681921,-3.030583390623308,-0.039540805785770274,4.293561692570533,-2.7220079688795544,3,right
6.956,-0.12786024370125978,1.354337696989473,-0.6547461175767006,3.199217981774827,4.6048527083418564,-3.932487098614269,-0.0013601385777080276,3.790616734604493,-2.4517283935186684,3,right
6.96,-0.952285721042389,1.0182727866665657,-0.7721166579989855,5.578980079557111,4.819918210684089,-3.1688579474013276,-0.06717198034970288,4.195993452102947,-2.7384096834830265,3,right
6.962000000000001,-1.3018894912795638,0.9487418810572914,-0.8226607408721412,2.69281456290257,4.338609017772734,-3.773547513271045,-0.46935021433250024,3.7912343895802003,-3.299844869933617,3,right
6.9639999999999995,-0.9794431347748115,0.9974433682962135,-0.7814235845956004,-4.654700025720771,1.400756511381849,-4.485629482619238,-0.5104849025335461,4.234321129605206,-3.628013614350398,3,right
6.966,-0.3672345032806804,0.9185423820022687,-0.6849135554037493,-8.014225629664093,0.7370587554110203,-4.854128085554192,-0.5165276265718839,3.7012538667573223,-3.2939349550762316,3,right
6.968,-0.17156617725788376,0.9074641115137146,-0.6587977874624407,-4.826475242845937,1.2575448582092272,-4.55465308841538,-0.8778484942059107,1.0988353826174664,-2.380916153755524,3,right
6.97,-0.2922761888713873,0.9416999615387749,-0.6773654515167403,1.686974053677032,0.7302139530370424,-3.589762911807567,-0.9805221851945691,0.5369691835260368,-2.1055678606775112,3,right
6.983,-0.2347054091429555,0.8955269643202648,-0.6665387424595592,3.7657628908726593,0.7317684787137901,-3.3955455486290216,-0.8512331856469406,0.9949382297255691,-2.32280177232761,3,right
7.007000000000001,-0.2200570978147144,0.7706551492905699,-0.6594863397133789,2.4232897398124424,0.9837633434705961,-3.5427918409922396,-0.9854865384404681,0.6804446406074975,-2.1680890323581954,3,right
7.0089999999999995,-0.22477281219281373,0.7382841657952367,-0.6644814711858502,3.090729477409006,0.5383915712728389,-3.4304874989480716,-1.2797067740494832,0.5384996212285771,-1.9742160244452271,3,right
7.01,-0.21703270224437737,0.7505953711190114,-0.6519994811114157,3.72061286235433,-0.2768133564981693,-3.6654267931592748,-1.3549837113993046,0.45616955604856896,-1.9305501291483125,3,right
7.042000000000001,-0.21906022827494367,0.7592081541522496,-0.6701336065454606,3.5420737107597597,-0.8490693532650284,-3.5733241817076045,-1.3358213523765028,0.4977908262352957,-1.9267219808711713,3,right
7.044,-0.22315462709399145,0.7352147280814031,-0.6503193124350405,2.8723538851614383,-1.7190177685079981,-2.8989182941706755,-1.2943910914356533,0.44545696397862844,-1.9740615366321388,3,right
7.045,-0.35816928273536763,0.5948505136894202,-0.5658266494830707,2.4855493066008796,-2.1192188314641127,-2.797648979674424,-1.3877202698629993,0.5433208078819303,-1.88835296393034,3,right
7.046,-0.3574538774941022,0.5697453295156719,-0.5611766892789116,2.862922770910583,-1.8350318805911356,-2.9121224142921003,-1.6925463589759149,1.0169771284072286,-1.7538016654245872,3,right
7.09,-0.19815080468101018,0.6433983006844439,-0.6101166845583033,2.505530408018918,-2.031425243738599,-2.766334547039998,-1.8239121750450469,1.2263752649251447,-1.6214174606958003,3,right
7.093,-0.17652427070685556,0.6431260406054851,-0.6380722950750558,2.8513978551287478,-1.8801560994166722,-2.96780458662582,-1.9197553007785417,1.4690248851026686,-1.3357569489287355,3,right
7.095,-0.2080753494225604,0.632461960896055,-0.5967766799477279,4.350360161032389,-1.3027850442357285,-3.480690847464965,-2.001976085429143,1.7367497375473815,-1.2127789106343292,3,right
7.103,-0.16791330603800694,0.6491037823523358,-0.6431148819499036,4.6893020787279065,-1.1496173234606117,-3.837728149725886,-1.9553894274994956,1.4677554226205531,-1.31576917126917,3,right
7.127999999999999,-0.09559040806328795,0.7019349248346469,-0.8530304738114092,4.343406281738775,-1.3141804351903892,-3.4218569906360456,-1.9717823666069272,1.7137528805650244,-1.2367322370904694,3,right
7.132999999999999,-0.04160656855243919,0.7155069338387319,-0.8765297972308723,4.71703527519936,-1.1517429237849672,-3.8443873032359006,-1.965383445125584,2.730169096666984,-1.0502096965293792,3,right
7.135,-0.10003067541810691,0.7070485277184217,-0.8743739451213297,5.360244913446612,-0.5210853211702711,-5.691106453046816,-1.9522242060077863,2.84732039599053,-1.0232684424187597,3,right
7.1610000000000005,-0.25000842180315164,0.7316790402409439,-1.0380773039502793,5.857283158810322,-0.42213375768573,-5.9032870734157665,-1.9672586207672829,2.809062351728433,-1.02327556734038,3,right
